"trial_type","trial_index","time_elapsed","internal_node_id","subject_id","study_id","session_id","rt","response","stimulus","success","item","task","correct_response","testing_condition","correct","target","confound","name"
"pavlovia","0","1301","0.0-0.0","610f2eabb45be8717fc155e0","650c16f0f2faf8d7a0d14c09","651c1b091818b94a21e1f1a4","","","","","","","","","","","",""
"survey-html-form","1","11240","0.0-1.0","610f2eabb45be8717fc155e0","650c16f0f2faf8d7a0d14c09","651c1b091818b94a21e1f1a4","9937","{""ID"":""610f2eabb45be8717fc155e0""}","","","","","","","","","",""
"html-keyboard-response","2","34769","0.0-2.0","610f2eabb45be8717fc155e0","650c16f0f2faf8d7a0d14c09","651c1b091818b94a21e1f1a4","23526"," ","<p style=""font-size: 15px;"">Before beginning, we ask that you read the consent information and confirm your agreement to participate in the experiment.</p>
      <p style=""font-size: 15px;""> We ask that you remember that this is a research project and that your participation is entirely voluntary. You can stop your participation at any time, without needing to provide any explanation. The study we're asking you to participate in aims at examining how readers process written words. You will be engaged in a session of apprximately 20 minutes, followed by a brief questionnaire. You will have the opportunity to take a few breaks during the experiment. You will be paid £4 for your participation, corresponding to a rate of £8/hour. While this experiment looks at cognitive faculties, this experiment doesn't constitute clinical proof of eventual pathologies.</p>
      <p style=""font-size: 15px;"">All of the information collected thanks to yours and others' participation will be held in a secure password-protected server, and will not be shared with anyone not authorised to view it. Your personal information will be kept with an arbitrary participant ID. Thanks to this data anonymity process, any researcher analysing the data won't be able to track the information back to a specific participant. Therefore, this process will make identifying you impossibile, even when results from the study will be published in scientific reviews, presented at congresses, or at any other public forum. More generally, the collected data will be treated in accordance with the laws on privacy and conformity to the Legislative Degree n. 196 ""Code regarding the protection of personal data"" of the 30th of June 2003 and to the European Regulation 2016/670 (General Data Protection Regulation - GDPR). The Data Protection Officer is Avv. Valentina Carollo, who can be contacted at the following email addresses: <a href=""mailto:dpo@sissa.it"">dpo@sissa.it</a> or <a href=""mailto:rpd@sissa.it"">rpd@sissa.it</a> - PEC: <a href=""mailto:protocollo@pec.sissa.it"">protocollo@pec.sissa.it</a>.</p>
      <p style=""font-size: 15px;""> Before expressing your consent to participate, we would like to remind you again that in case you need explanations on any aspect of the experimental procedure, the researcher is at your disposition (<a href=""mailto:aliebelt@sissa.it"">aliebelt@sissa.it</a>, <a href=""mailto:davide.crepaldi@sissa.it"">davide.crepaldi@sissa.it</a>).</p>
      <p style=""font-size: 15px;"">If you would like to download the informed consent form, you can do so here: <a href=""BASL-Informed_Consent.pdf"" download>informed consent form</a>.</p>
      <p style=""font-size: 15px;"">We ask that you press the spacebar to proceed to the consent section.</p>","","","","","","","","",""
"survey-html-form","3","53275","0.0-3.0","610f2eabb45be8717fc155e0","650c16f0f2faf8d7a0d14c09","651c1b091818b94a21e1f1a4","18504","{""consent1"":""YES"",""consent2"":""YES"",""consent3"":""YES"",""consent4"":""YES"",""consent5"":""YES"",""consent6"":""YES""}","","","","","","","","","",""
"fullscreen","4","60669","0.0-4.0","610f2eabb45be8717fc155e0","650c16f0f2faf8d7a0d14c09","651c1b091818b94a21e1f1a4","","","","true","","","","","","","",""
"html-keyboard-response","5","73938","0.0-5.0","610f2eabb45be8717fc155e0","650c16f0f2faf8d7a0d14c09","651c1b091818b94a21e1f1a4","13268"," ","<p>Welcome, and thank you very much for your time!</p>
      <p>In this experiment, you'll be a language expert who's been asked to take a look at words that Earth has received in its first communication with aliens. Your task, in this first part of the experiment, is to pay close attention to the words you'll be shown; later, world leaders will ask you questions on what you saw. The words will be shown to you quite quickly; it seems that the aliens were in a hurry :-)</p>
      <p>Press the spacebar to continue.<p>","","","","","","","","",""
"html-keyboard-response","6","73990","0.0-6.0","610f2eabb45be8717fc155e0","650c16f0f2faf8d7a0d14c09","651c1b091818b94a21e1f1a4","null","null","<p style=""font-size: 120px; font-family: BACS""> </p>","","","","","","","","",""
"html-keyboard-response","7","77679","0.0-7.0","610f2eabb45be8717fc155e0","650c16f0f2faf8d7a0d14c09","651c1b091818b94a21e1f1a4","3688"," ","<p>Here is an example of the words you'll see:</p>
      <img src='esempio.png' height='400px'>
      <p>When you're ready to begin, press the spacebar.</p></div>","","","","","","","","",""
"html-keyboard-response","8","78685","0.0-8.0-0.0","610f2eabb45be8717fc155e0","650c16f0f2faf8d7a0d14c09","651c1b091818b94a21e1f1a4","null","null","<p style=""font-size: 60px; font-family: BACS"">RYtkckMEC</p>","","","","","","","","",""
"html-keyboard-response","9","79695","0.0-8.0-0.1","610f2eabb45be8717fc155e0","650c16f0f2faf8d7a0d14c09","651c1b091818b94a21e1f1a4","null","null","<p style=""font-size: 60px; font-family: BACS"">kdEdYPTl</p>","","","","","","","","",""
"html-keyboard-response","10","80702","0.0-8.0-0.2","610f2eabb45be8717fc155e0","650c16f0f2faf8d7a0d14c09","651c1b091818b94a21e1f1a4","null","null","<p style=""font-size: 60px; font-family: BACS"">LuNZYUYa</p>","","","","","","","","",""
"html-keyboard-response","11","81708","0.0-8.0-0.3","610f2eabb45be8717fc155e0","650c16f0f2faf8d7a0d14c09","651c1b091818b94a21e1f1a4","null","null","<p style=""font-size: 60px; font-family: BACS"">KTDTBkMEC</p>","","","","","","","","",""
"html-keyboard-response","12","82717","0.0-8.0-0.4","610f2eabb45be8717fc155e0","650c16f0f2faf8d7a0d14c09","651c1b091818b94a21e1f1a4","null","null","<p style=""font-size: 60px; font-family: BACS"">AlTdCMdP</p>","","","","","","","","",""
"html-keyboard-response","13","83726","0.0-8.0-0.5","610f2eabb45be8717fc155e0","650c16f0f2faf8d7a0d14c09","651c1b091818b94a21e1f1a4","null","null","<p style=""font-size: 60px; font-family: BACS"">bGuOkGua</p>","","","","","","","","",""
"html-keyboard-response","14","84734","0.0-8.0-0.6","610f2eabb45be8717fc155e0","650c16f0f2faf8d7a0d14c09","651c1b091818b94a21e1f1a4","null","null","<p style=""font-size: 60px; font-family: BACS"">ECtbDkMEC</p>","","","","","","","","",""
"html-keyboard-response","15","85738","0.0-8.0-0.7","610f2eabb45be8717fc155e0","650c16f0f2faf8d7a0d14c09","651c1b091818b94a21e1f1a4","null","null","<p style=""font-size: 60px; font-family: BACS"">YZJmkGua</p>","","","","","","","","",""
"html-keyboard-response","16","86740","0.0-8.0-0.8","610f2eabb45be8717fc155e0","650c16f0f2faf8d7a0d14c09","651c1b091818b94a21e1f1a4","null","null","<p style=""font-size: 60px; font-family: BACS"">rkYLNUZ</p>","","","","","","","","",""
"html-keyboard-response","17","87748","0.0-8.0-0.9","610f2eabb45be8717fc155e0","650c16f0f2faf8d7a0d14c09","651c1b091818b94a21e1f1a4","null","null","<p style=""font-size: 60px; font-family: BACS"">KTDTBPTl</p>","","","","","","","","",""
"html-keyboard-response","18","88756","0.0-8.0-0.10","610f2eabb45be8717fc155e0","650c16f0f2faf8d7a0d14c09","651c1b091818b94a21e1f1a4","null","null","<p style=""font-size: 60px; font-family: BACS"">dGLAlNac</p>","","","","","","","","",""
"html-keyboard-response","19","89764","0.0-8.0-0.11","610f2eabb45be8717fc155e0","650c16f0f2faf8d7a0d14c09","651c1b091818b94a21e1f1a4","null","null","<p style=""font-size: 60px; font-family: BACS"">aONdkGua</p>","","","","","","","","",""
"html-keyboard-response","20","90766","0.0-8.0-0.12","610f2eabb45be8717fc155e0","650c16f0f2faf8d7a0d14c09","651c1b091818b94a21e1f1a4","null","null","<p style=""font-size: 60px; font-family: BACS"">kdEdYkMEC</p>","","","","","","","","",""
"html-keyboard-response","21","91769","0.0-8.0-0.13","610f2eabb45be8717fc155e0","650c16f0f2faf8d7a0d14c09","651c1b091818b94a21e1f1a4","null","null","<p style=""font-size: 60px; font-family: BACS"">OmtlDCMdP</p>","","","","","","","","",""
"html-keyboard-response","22","92771","0.0-8.0-0.14","610f2eabb45be8717fc155e0","650c16f0f2faf8d7a0d14c09","651c1b091818b94a21e1f1a4","null","null","<p style=""font-size: 60px; font-family: BACS"">dGLAlkdrO</p>","","","","","","","","",""
"html-keyboard-response","23","93773","0.0-8.0-0.15","610f2eabb45be8717fc155e0","650c16f0f2faf8d7a0d14c09","651c1b091818b94a21e1f1a4","null","null","<p style=""font-size: 60px; font-family: BACS"">hbmAPTl</p>","","","","","","","","",""
"html-keyboard-response","24","94783","0.0-8.0-0.16","610f2eabb45be8717fc155e0","650c16f0f2faf8d7a0d14c09","651c1b091818b94a21e1f1a4","null","null","<p style=""font-size: 60px; font-family: BACS"">damYbYUYa</p>","","","","","","","","",""
"html-keyboard-response","25","95791","0.0-8.0-0.17","610f2eabb45be8717fc155e0","650c16f0f2faf8d7a0d14c09","651c1b091818b94a21e1f1a4","null","null","<p style=""font-size: 60px; font-family: BACS"">aONdNUZ</p>","","","","","","","","",""
"html-keyboard-response","26","96797","0.0-8.0-0.18","610f2eabb45be8717fc155e0","650c16f0f2faf8d7a0d14c09","651c1b091818b94a21e1f1a4","null","null","<p style=""font-size: 60px; font-family: BACS"">hlbtbPTl</p>","","","","","","","","",""
"html-keyboard-response","27","97804","0.0-8.0-0.19","610f2eabb45be8717fc155e0","650c16f0f2faf8d7a0d14c09","651c1b091818b94a21e1f1a4","null","null","<p style=""font-size: 60px; font-family: BACS"">YcdOkdrO</p>","","","","","","","","",""
"html-keyboard-response","28","98810","0.0-8.0-0.20","610f2eabb45be8717fc155e0","650c16f0f2faf8d7a0d14c09","651c1b091818b94a21e1f1a4","null","null","<p style=""font-size: 60px; font-family: BACS"">OmtlDkMEC</p>","","","","","","","","",""
"html-keyboard-response","29","99824","0.0-8.0-0.21","610f2eabb45be8717fc155e0","650c16f0f2faf8d7a0d14c09","651c1b091818b94a21e1f1a4","null","null","<p style=""font-size: 60px; font-family: BACS"">kdEdYTRK</p>","","","","","","","","",""
"html-keyboard-response","30","100837","0.0-8.0-0.22","610f2eabb45be8717fc155e0","650c16f0f2faf8d7a0d14c09","651c1b091818b94a21e1f1a4","null","null","<p style=""font-size: 60px; font-family: BACS"">YcdOYUYa</p>","","","","","","","","",""
"html-keyboard-response","31","101846","0.0-8.0-0.23","610f2eabb45be8717fc155e0","650c16f0f2faf8d7a0d14c09","651c1b091818b94a21e1f1a4","null","null","<p style=""font-size: 60px; font-family: BACS"">AlTdkMEC</p>","","","","","","","","",""
"html-keyboard-response","32","102856","0.0-8.0-0.24","610f2eabb45be8717fc155e0","650c16f0f2faf8d7a0d14c09","651c1b091818b94a21e1f1a4","null","null","<p style=""font-size: 60px; font-family: BACS"">ECtbDTRK</p>","","","","","","","","",""
"html-keyboard-response","33","103864","0.0-8.0-0.25","610f2eabb45be8717fc155e0","650c16f0f2faf8d7a0d14c09","651c1b091818b94a21e1f1a4","null","null","<p style=""font-size: 60px; font-family: BACS"">LAclANac</p>","","","","","","","","",""
"html-keyboard-response","34","104870","0.0-8.0-0.26","610f2eabb45be8717fc155e0","650c16f0f2faf8d7a0d14c09","651c1b091818b94a21e1f1a4","null","null","<p style=""font-size: 60px; font-family: BACS"">rkYLYUYa</p>","","","","","","","","",""
"html-keyboard-response","35","105883","0.0-8.0-0.27","610f2eabb45be8717fc155e0","650c16f0f2faf8d7a0d14c09","651c1b091818b94a21e1f1a4","null","null","<p style=""font-size: 60px; font-family: BACS"">TdTDTRK</p>","","","","","","","","",""
"html-keyboard-response","36","106895","0.0-8.0-0.28","610f2eabb45be8717fc155e0","650c16f0f2faf8d7a0d14c09","651c1b091818b94a21e1f1a4","null","null","<p style=""font-size: 60px; font-family: BACS"">ckdAmKOYC</p>","","","","","","","","",""
"html-keyboard-response","37","107906","0.0-8.0-0.29","610f2eabb45be8717fc155e0","650c16f0f2faf8d7a0d14c09","651c1b091818b94a21e1f1a4","null","null","<p style=""font-size: 60px; font-family: BACS"">ECtbDPTl</p>","","","","","","","","",""
"html-keyboard-response","38","108912","0.0-8.0-0.30","610f2eabb45be8717fc155e0","650c16f0f2faf8d7a0d14c09","651c1b091818b94a21e1f1a4","null","null","<p style=""font-size: 60px; font-family: BACS"">ckdAmCMdP</p>","","","","","","","","",""
"html-keyboard-response","39","109923","0.0-8.0-0.31","610f2eabb45be8717fc155e0","650c16f0f2faf8d7a0d14c09","651c1b091818b94a21e1f1a4","null","null","<p style=""font-size: 60px; font-family: BACS"">aONdNac</p>","","","","","","","","",""
"html-keyboard-response","40","110931","0.0-8.0-0.32","610f2eabb45be8717fc155e0","650c16f0f2faf8d7a0d14c09","651c1b091818b94a21e1f1a4","null","null","<p style=""font-size: 60px; font-family: BACS"">hlbtbTRK</p>","","","","","","","","",""
"html-keyboard-response","41","111938","0.0-8.0-0.33","610f2eabb45be8717fc155e0","650c16f0f2faf8d7a0d14c09","651c1b091818b94a21e1f1a4","null","null","<p style=""font-size: 60px; font-family: BACS"">YZJmkdrO</p>","","","","","","","","",""
"html-keyboard-response","42","112946","0.0-8.0-0.34","610f2eabb45be8717fc155e0","650c16f0f2faf8d7a0d14c09","651c1b091818b94a21e1f1a4","null","null","<p style=""font-size: 60px; font-family: BACS"">AlTdTRK</p>","","","","","","","","",""
"html-keyboard-response","43","113956","0.0-8.0-0.35","610f2eabb45be8717fc155e0","650c16f0f2faf8d7a0d14c09","651c1b091818b94a21e1f1a4","null","null","<p style=""font-size: 60px; font-family: BACS"">RYtkcKOYC</p>","","","","","","","","",""
"html-keyboard-response","44","114965","0.0-8.0-0.36","610f2eabb45be8717fc155e0","650c16f0f2faf8d7a0d14c09","651c1b091818b94a21e1f1a4","null","null","<p style=""font-size: 60px; font-family: BACS"">ukYZNac</p>","","","","","","","","",""
"html-keyboard-response","45","115975","0.0-8.0-0.37","610f2eabb45be8717fc155e0","650c16f0f2faf8d7a0d14c09","651c1b091818b94a21e1f1a4","null","null","<p style=""font-size: 60px; font-family: BACS"">damYbkGua</p>","","","","","","","","",""
"html-keyboard-response","46","116983","0.0-8.0-0.38","610f2eabb45be8717fc155e0","650c16f0f2faf8d7a0d14c09","651c1b091818b94a21e1f1a4","null","null","<p style=""font-size: 60px; font-family: BACS"">YZJmNac</p>","","","","","","","","",""
"html-keyboard-response","47","117991","0.0-8.0-0.39","610f2eabb45be8717fc155e0","650c16f0f2faf8d7a0d14c09","651c1b091818b94a21e1f1a4","null","null","<p style=""font-size: 60px; font-family: BACS"">ukYZkGua</p>","","","","","","","","",""
"html-keyboard-response","48","119000","0.0-8.0-0.40","610f2eabb45be8717fc155e0","650c16f0f2faf8d7a0d14c09","651c1b091818b94a21e1f1a4","null","null","<p style=""font-size: 60px; font-family: BACS"">kdEdYKOYC</p>","","","","","","","","",""
"html-keyboard-response","49","120008","0.0-8.0-0.41","610f2eabb45be8717fc155e0","650c16f0f2faf8d7a0d14c09","651c1b091818b94a21e1f1a4","null","null","<p style=""font-size: 60px; font-family: BACS"">dGLAlNUZ</p>","","","","","","","","",""
"html-keyboard-response","50","121009","0.0-8.0-0.42","610f2eabb45be8717fc155e0","650c16f0f2faf8d7a0d14c09","651c1b091818b94a21e1f1a4","null","null","<p style=""font-size: 60px; font-family: BACS"">KTDTBCMdP</p>","","","","","","","","",""
"html-keyboard-response","51","122012","0.0-8.0-0.43","610f2eabb45be8717fc155e0","650c16f0f2faf8d7a0d14c09","651c1b091818b94a21e1f1a4","null","null","<p style=""font-size: 60px; font-family: BACS"">ckdAmkMEC</p>","","","","","","","","",""
"html-keyboard-response","52","123016","0.0-8.0-0.44","610f2eabb45be8717fc155e0","650c16f0f2faf8d7a0d14c09","651c1b091818b94a21e1f1a4","null","null","<p style=""font-size: 60px; font-family: BACS"">aONdkdrO</p>","","","","","","","","",""
"html-keyboard-response","53","124022","0.0-8.0-0.45","610f2eabb45be8717fc155e0","650c16f0f2faf8d7a0d14c09","651c1b091818b94a21e1f1a4","null","null","<p style=""font-size: 60px; font-family: BACS"">hbmAKOYC</p>","","","","","","","","",""
"html-keyboard-response","54","125028","0.0-8.0-0.46","610f2eabb45be8717fc155e0","650c16f0f2faf8d7a0d14c09","651c1b091818b94a21e1f1a4","null","null","<p style=""font-size: 60px; font-family: BACS"">damYbkdrO</p>","","","","","","","","",""
"html-keyboard-response","55","126038","0.0-8.0-0.47","610f2eabb45be8717fc155e0","650c16f0f2faf8d7a0d14c09","651c1b091818b94a21e1f1a4","null","null","<p style=""font-size: 60px; font-family: BACS"">ECtbDKOYC</p>","","","","","","","","",""
"html-keyboard-response","56","127043","0.0-8.0-0.48","610f2eabb45be8717fc155e0","650c16f0f2faf8d7a0d14c09","651c1b091818b94a21e1f1a4","null","null","<p style=""font-size: 60px; font-family: BACS"">ukYZkdrO</p>","","","","","","","","",""
"html-keyboard-response","57","128053","0.0-8.0-0.49","610f2eabb45be8717fc155e0","650c16f0f2faf8d7a0d14c09","651c1b091818b94a21e1f1a4","null","null","<p style=""font-size: 60px; font-family: BACS"">hlbtbkMEC</p>","","","","","","","","",""
"html-keyboard-response","58","129063","0.0-8.0-0.50","610f2eabb45be8717fc155e0","650c16f0f2faf8d7a0d14c09","651c1b091818b94a21e1f1a4","null","null","<p style=""font-size: 60px; font-family: BACS"">hbmATRK</p>","","","","","","","","",""
"html-keyboard-response","59","130067","0.0-8.0-0.51","610f2eabb45be8717fc155e0","650c16f0f2faf8d7a0d14c09","651c1b091818b94a21e1f1a4","null","null","<p style=""font-size: 60px; font-family: BACS"">LAclAYUYa</p>","","","","","","","","",""
"html-keyboard-response","60","131076","0.0-8.0-0.52","610f2eabb45be8717fc155e0","650c16f0f2faf8d7a0d14c09","651c1b091818b94a21e1f1a4","null","null","<p style=""font-size: 60px; font-family: BACS"">dGLAlkGua</p>","","","","","","","","",""
"html-keyboard-response","61","132092","0.0-8.0-0.53","610f2eabb45be8717fc155e0","650c16f0f2faf8d7a0d14c09","651c1b091818b94a21e1f1a4","null","null","<p style=""font-size: 60px; font-family: BACS"">YZJmYUYa</p>","","","","","","","","",""
"html-keyboard-response","62","133097","0.0-8.0-0.54","610f2eabb45be8717fc155e0","650c16f0f2faf8d7a0d14c09","651c1b091818b94a21e1f1a4","null","null","<p style=""font-size: 60px; font-family: BACS"">LuNZNUZ</p>","","","","","","","","",""
"html-keyboard-response","63","134109","0.0-8.0-0.55","610f2eabb45be8717fc155e0","650c16f0f2faf8d7a0d14c09","651c1b091818b94a21e1f1a4","null","null","<p style=""font-size: 60px; font-family: BACS"">ukYZYUYa</p>","","","","","","","","",""
"html-keyboard-response","64","135120","0.0-8.0-0.56","610f2eabb45be8717fc155e0","650c16f0f2faf8d7a0d14c09","651c1b091818b94a21e1f1a4","null","null","<p style=""font-size: 60px; font-family: BACS"">YcdONUZ</p>","","","","","","","","",""
"html-keyboard-response","65","136131","0.0-8.0-0.57","610f2eabb45be8717fc155e0","650c16f0f2faf8d7a0d14c09","651c1b091818b94a21e1f1a4","null","null","<p style=""font-size: 60px; font-family: BACS"">RYtkcCMdP</p>","","","","","","","","",""
"html-keyboard-response","66","137140","0.0-8.0-0.58","610f2eabb45be8717fc155e0","650c16f0f2faf8d7a0d14c09","651c1b091818b94a21e1f1a4","null","null","<p style=""font-size: 60px; font-family: BACS"">TdTDKOYC</p>","","","","","","","","",""
"html-keyboard-response","67","138148","0.0-8.0-0.59","610f2eabb45be8717fc155e0","650c16f0f2faf8d7a0d14c09","651c1b091818b94a21e1f1a4","null","null","<p style=""font-size: 60px; font-family: BACS"">OmtlDPTl</p>","","","","","","","","",""
"html-keyboard-response","68","139158","0.0-8.0-0.60","610f2eabb45be8717fc155e0","650c16f0f2faf8d7a0d14c09","651c1b091818b94a21e1f1a4","null","null","<p style=""font-size: 60px; font-family: BACS"">rkYLkdrO</p>","","","","","","","","",""
"html-keyboard-response","69","140166","0.0-8.0-0.61","610f2eabb45be8717fc155e0","650c16f0f2faf8d7a0d14c09","651c1b091818b94a21e1f1a4","null","null","<p style=""font-size: 60px; font-family: BACS"">TdTDCMdP</p>","","","","","","","","",""
"html-keyboard-response","70","141175","0.0-8.0-0.62","610f2eabb45be8717fc155e0","650c16f0f2faf8d7a0d14c09","651c1b091818b94a21e1f1a4","null","null","<p style=""font-size: 60px; font-family: BACS"">LuNZNac</p>","","","","","","","","",""
"html-keyboard-response","71","142183","0.0-8.0-0.63","610f2eabb45be8717fc155e0","650c16f0f2faf8d7a0d14c09","651c1b091818b94a21e1f1a4","null","null","<p style=""font-size: 60px; font-family: BACS"">OmtlDTRK</p>","","","","","","","","",""
"html-keyboard-response","72","143196","0.0-8.0-0.64","610f2eabb45be8717fc155e0","650c16f0f2faf8d7a0d14c09","651c1b091818b94a21e1f1a4","null","null","<p style=""font-size: 60px; font-family: BACS"">LuNZkGua</p>","","","","","","","","",""
"html-keyboard-response","73","144206","0.0-8.0-0.65","610f2eabb45be8717fc155e0","650c16f0f2faf8d7a0d14c09","651c1b091818b94a21e1f1a4","null","null","<p style=""font-size: 60px; font-family: BACS"">AlTdKOYC</p>","","","","","","","","",""
"html-keyboard-response","74","145214","0.0-8.0-0.66","610f2eabb45be8717fc155e0","650c16f0f2faf8d7a0d14c09","651c1b091818b94a21e1f1a4","null","null","<p style=""font-size: 60px; font-family: BACS"">damYbNUZ</p>","","","","","","","","",""
"html-keyboard-response","75","146217","0.0-8.0-0.67","610f2eabb45be8717fc155e0","650c16f0f2faf8d7a0d14c09","651c1b091818b94a21e1f1a4","null","null","<p style=""font-size: 60px; font-family: BACS"">ckdAmPTl</p>","","","","","","","","",""
"html-keyboard-response","76","147227","0.0-8.0-0.68","610f2eabb45be8717fc155e0","650c16f0f2faf8d7a0d14c09","651c1b091818b94a21e1f1a4","null","null","<p style=""font-size: 60px; font-family: BACS"">bGuONUZ</p>","","","","","","","","",""
"html-keyboard-response","77","148238","0.0-8.0-0.69","610f2eabb45be8717fc155e0","650c16f0f2faf8d7a0d14c09","651c1b091818b94a21e1f1a4","null","null","<p style=""font-size: 60px; font-family: BACS"">KTDTBKOYC</p>","","","","","","","","",""
"html-keyboard-response","78","149246","0.0-8.0-0.70","610f2eabb45be8717fc155e0","650c16f0f2faf8d7a0d14c09","651c1b091818b94a21e1f1a4","null","null","<p style=""font-size: 60px; font-family: BACS"">bGuOYUYa</p>","","","","","","","","",""
"html-keyboard-response","79","150257","0.0-8.0-0.71","610f2eabb45be8717fc155e0","650c16f0f2faf8d7a0d14c09","651c1b091818b94a21e1f1a4","null","null","<p style=""font-size: 60px; font-family: BACS"">LAclAkdrO</p>","","","","","","","","",""
"html-keyboard-response","80","151263","0.0-8.0-0.72","610f2eabb45be8717fc155e0","650c16f0f2faf8d7a0d14c09","651c1b091818b94a21e1f1a4","null","null","<p style=""font-size: 60px; font-family: BACS"">hbmACMdP</p>","","","","","","","","",""
"html-keyboard-response","81","152269","0.0-8.0-0.73","610f2eabb45be8717fc155e0","650c16f0f2faf8d7a0d14c09","651c1b091818b94a21e1f1a4","null","null","<p style=""font-size: 60px; font-family: BACS"">RYtkcTRK</p>","","","","","","","","",""
"html-keyboard-response","82","153281","0.0-8.0-0.74","610f2eabb45be8717fc155e0","650c16f0f2faf8d7a0d14c09","651c1b091818b94a21e1f1a4","null","null","<p style=""font-size: 60px; font-family: BACS"">bGuONac</p>","","","","","","","","",""
"html-keyboard-response","83","154297","0.0-8.0-0.75","610f2eabb45be8717fc155e0","650c16f0f2faf8d7a0d14c09","651c1b091818b94a21e1f1a4","null","null","<p style=""font-size: 60px; font-family: BACS"">hlbtbCMdP</p>","","","","","","","","",""
"html-keyboard-response","84","155304","0.0-8.0-0.76","610f2eabb45be8717fc155e0","650c16f0f2faf8d7a0d14c09","651c1b091818b94a21e1f1a4","null","null","<p style=""font-size: 60px; font-family: BACS"">YcdONac</p>","","","","","","","","",""
"html-keyboard-response","85","156360","0.0-8.0-0.77","610f2eabb45be8717fc155e0","650c16f0f2faf8d7a0d14c09","651c1b091818b94a21e1f1a4","null","null","<p style=""font-size: 60px; font-family: BACS"">LAclANUZ</p>","","","","","","","","",""
"html-keyboard-response","86","157364","0.0-8.0-0.78","610f2eabb45be8717fc155e0","650c16f0f2faf8d7a0d14c09","651c1b091818b94a21e1f1a4","null","null","<p style=""font-size: 60px; font-family: BACS"">TdTDPTl</p>","","","","","","","","",""
"html-keyboard-response","87","159356","0.0-8.0-0.79","610f2eabb45be8717fc155e0","650c16f0f2faf8d7a0d14c09","651c1b091818b94a21e1f1a4","null","null","<p style=""font-size: 60px; font-family: BACS"">rkYLkGua</p>","","","","","","","","",""
"html-keyboard-response","88","163300","0.0-9.0","610f2eabb45be8717fc155e0","650c16f0f2faf8d7a0d14c09","651c1b091818b94a21e1f1a4","3944"," ","<p>Great, you've seen the first block of words. You may now take a short break.</p>
      <p>Press the spacebar when you're ready to continue.</p>","","","","","","","","",""
"html-keyboard-response","89","164307","0.0-10.0-0.0","610f2eabb45be8717fc155e0","650c16f0f2faf8d7a0d14c09","651c1b091818b94a21e1f1a4","null","null","<p style=""font-size: 60px; font-family: BACS"">KTDTBCMdP</p>","","","","","","","","",""
"html-keyboard-response","90","165321","0.0-10.0-0.1","610f2eabb45be8717fc155e0","650c16f0f2faf8d7a0d14c09","651c1b091818b94a21e1f1a4","null","null","<p style=""font-size: 60px; font-family: BACS"">hlbtbkMEC</p>","","","","","","","","",""
"html-keyboard-response","91","166329","0.0-10.0-0.2","610f2eabb45be8717fc155e0","650c16f0f2faf8d7a0d14c09","651c1b091818b94a21e1f1a4","null","null","<p style=""font-size: 60px; font-family: BACS"">TdTDTRK</p>","","","","","","","","",""
"html-keyboard-response","92","167341","0.0-10.0-0.3","610f2eabb45be8717fc155e0","650c16f0f2faf8d7a0d14c09","651c1b091818b94a21e1f1a4","null","null","<p style=""font-size: 60px; font-family: BACS"">LAclANUZ</p>","","","","","","","","",""
"html-keyboard-response","93","168347","0.0-10.0-0.4","610f2eabb45be8717fc155e0","650c16f0f2faf8d7a0d14c09","651c1b091818b94a21e1f1a4","null","null","<p style=""font-size: 60px; font-family: BACS"">YZJmNac</p>","","","","","","","","",""
"html-keyboard-response","94","169357","0.0-10.0-0.5","610f2eabb45be8717fc155e0","650c16f0f2faf8d7a0d14c09","651c1b091818b94a21e1f1a4","null","null","<p style=""font-size: 60px; font-family: BACS"">ECtbDkMEC</p>","","","","","","","","",""
"html-keyboard-response","95","170366","0.0-10.0-0.6","610f2eabb45be8717fc155e0","650c16f0f2faf8d7a0d14c09","651c1b091818b94a21e1f1a4","null","null","<p style=""font-size: 60px; font-family: BACS"">OmtlDPTl</p>","","","","","","","","",""
"html-keyboard-response","96","171370","0.0-10.0-0.7","610f2eabb45be8717fc155e0","650c16f0f2faf8d7a0d14c09","651c1b091818b94a21e1f1a4","null","null","<p style=""font-size: 60px; font-family: BACS"">TdTDCMdP</p>","","","","","","","","",""
"html-keyboard-response","97","172376","0.0-10.0-0.8","610f2eabb45be8717fc155e0","650c16f0f2faf8d7a0d14c09","651c1b091818b94a21e1f1a4","null","null","<p style=""font-size: 60px; font-family: BACS"">damYbkGua</p>","","","","","","","","",""
"html-keyboard-response","98","173382","0.0-10.0-0.9","610f2eabb45be8717fc155e0","650c16f0f2faf8d7a0d14c09","651c1b091818b94a21e1f1a4","null","null","<p style=""font-size: 60px; font-family: BACS"">kdEdYKOYC</p>","","","","","","","","",""
"html-keyboard-response","99","174392","0.0-10.0-0.10","610f2eabb45be8717fc155e0","650c16f0f2faf8d7a0d14c09","651c1b091818b94a21e1f1a4","null","null","<p style=""font-size: 60px; font-family: BACS"">damYbNUZ</p>","","","","","","","","",""
"html-keyboard-response","100","175407","0.0-10.0-0.11","610f2eabb45be8717fc155e0","650c16f0f2faf8d7a0d14c09","651c1b091818b94a21e1f1a4","null","null","<p style=""font-size: 60px; font-family: BACS"">RYtkcTRK</p>","","","","","","","","",""
"html-keyboard-response","101","176417","0.0-10.0-0.12","610f2eabb45be8717fc155e0","650c16f0f2faf8d7a0d14c09","651c1b091818b94a21e1f1a4","null","null","<p style=""font-size: 60px; font-family: BACS"">rkYLkdrO</p>","","","","","","","","",""
"html-keyboard-response","102","177424","0.0-10.0-0.13","610f2eabb45be8717fc155e0","650c16f0f2faf8d7a0d14c09","651c1b091818b94a21e1f1a4","null","null","<p style=""font-size: 60px; font-family: BACS"">OmtlDkMEC</p>","","","","","","","","",""
"html-keyboard-response","103","178428","0.0-10.0-0.14","610f2eabb45be8717fc155e0","650c16f0f2faf8d7a0d14c09","651c1b091818b94a21e1f1a4","null","null","<p style=""font-size: 60px; font-family: BACS"">ECtbDTRK</p>","","","","","","","","",""
"html-keyboard-response","104","179432","0.0-10.0-0.15","610f2eabb45be8717fc155e0","650c16f0f2faf8d7a0d14c09","651c1b091818b94a21e1f1a4","null","null","<p style=""font-size: 60px; font-family: BACS"">RYtkckMEC</p>","","","","","","","","",""
"html-keyboard-response","105","180440","0.0-10.0-0.16","610f2eabb45be8717fc155e0","650c16f0f2faf8d7a0d14c09","651c1b091818b94a21e1f1a4","null","null","<p style=""font-size: 60px; font-family: BACS"">YcdONac</p>","","","","","","","","",""
"html-keyboard-response","106","181447","0.0-10.0-0.17","610f2eabb45be8717fc155e0","650c16f0f2faf8d7a0d14c09","651c1b091818b94a21e1f1a4","null","null","<p style=""font-size: 60px; font-family: BACS"">rkYLNUZ</p>","","","","","","","","",""
"html-keyboard-response","107","182458","0.0-10.0-0.18","610f2eabb45be8717fc155e0","650c16f0f2faf8d7a0d14c09","651c1b091818b94a21e1f1a4","null","null","<p style=""font-size: 60px; font-family: BACS"">hbmACMdP</p>","","","","","","","","",""
"html-keyboard-response","108","183470","0.0-10.0-0.19","610f2eabb45be8717fc155e0","650c16f0f2faf8d7a0d14c09","651c1b091818b94a21e1f1a4","null","null","<p style=""font-size: 60px; font-family: BACS"">ckdAmPTl</p>","","","","","","","","",""
"html-keyboard-response","109","184480","0.0-10.0-0.20","610f2eabb45be8717fc155e0","650c16f0f2faf8d7a0d14c09","651c1b091818b94a21e1f1a4","null","null","<p style=""font-size: 60px; font-family: BACS"">AlTdCMdP</p>","","","","","","","","",""
"html-keyboard-response","110","185493","0.0-10.0-0.21","610f2eabb45be8717fc155e0","650c16f0f2faf8d7a0d14c09","651c1b091818b94a21e1f1a4","null","null","<p style=""font-size: 60px; font-family: BACS"">bGuOkGua</p>","","","","","","","","",""
"html-keyboard-response","111","186508","0.0-10.0-0.22","610f2eabb45be8717fc155e0","650c16f0f2faf8d7a0d14c09","651c1b091818b94a21e1f1a4","null","null","<p style=""font-size: 60px; font-family: BACS"">RYtkcKOYC</p>","","","","","","","","",""
"html-keyboard-response","112","187512","0.0-10.0-0.23","610f2eabb45be8717fc155e0","650c16f0f2faf8d7a0d14c09","651c1b091818b94a21e1f1a4","null","null","<p style=""font-size: 60px; font-family: BACS"">kdEdYTRK</p>","","","","","","","","",""
"html-keyboard-response","113","188519","0.0-10.0-0.24","610f2eabb45be8717fc155e0","650c16f0f2faf8d7a0d14c09","651c1b091818b94a21e1f1a4","null","null","<p style=""font-size: 60px; font-family: BACS"">aONdNac</p>","","","","","","","","",""
"html-keyboard-response","114","189531","0.0-10.0-0.25","610f2eabb45be8717fc155e0","650c16f0f2faf8d7a0d14c09","651c1b091818b94a21e1f1a4","null","null","<p style=""font-size: 60px; font-family: BACS"">ECtbDKOYC</p>","","","","","","","","",""
"html-keyboard-response","115","190540","0.0-10.0-0.26","610f2eabb45be8717fc155e0","650c16f0f2faf8d7a0d14c09","651c1b091818b94a21e1f1a4","null","null","<p style=""font-size: 60px; font-family: BACS"">KTDTBPTl</p>","","","","","","","","",""
"html-keyboard-response","116","191549","0.0-10.0-0.27","610f2eabb45be8717fc155e0","650c16f0f2faf8d7a0d14c09","651c1b091818b94a21e1f1a4","null","null","<p style=""font-size: 60px; font-family: BACS"">dGLAlNUZ</p>","","","","","","","","",""
"html-keyboard-response","117","192561","0.0-10.0-0.28","610f2eabb45be8717fc155e0","650c16f0f2faf8d7a0d14c09","651c1b091818b94a21e1f1a4","null","null","<p style=""font-size: 60px; font-family: BACS"">LuNZNac</p>","","","","","","","","",""
"html-keyboard-response","118","193573","0.0-10.0-0.29","610f2eabb45be8717fc155e0","650c16f0f2faf8d7a0d14c09","651c1b091818b94a21e1f1a4","null","null","<p style=""font-size: 60px; font-family: BACS"">aONdNUZ</p>","","","","","","","","",""
"html-keyboard-response","119","194580","0.0-10.0-0.30","610f2eabb45be8717fc155e0","650c16f0f2faf8d7a0d14c09","651c1b091818b94a21e1f1a4","null","null","<p style=""font-size: 60px; font-family: BACS"">ukYZkdrO</p>","","","","","","","","",""
"html-keyboard-response","120","195589","0.0-10.0-0.31","610f2eabb45be8717fc155e0","650c16f0f2faf8d7a0d14c09","651c1b091818b94a21e1f1a4","null","null","<p style=""font-size: 60px; font-family: BACS"">YcdOYUYa</p>","","","","","","","","",""
"html-keyboard-response","121","196598","0.0-10.0-0.32","610f2eabb45be8717fc155e0","650c16f0f2faf8d7a0d14c09","651c1b091818b94a21e1f1a4","null","null","<p style=""font-size: 60px; font-family: BACS"">aONdkGua</p>","","","","","","","","",""
"html-keyboard-response","122","197613","0.0-10.0-0.33","610f2eabb45be8717fc155e0","650c16f0f2faf8d7a0d14c09","651c1b091818b94a21e1f1a4","null","null","<p style=""font-size: 60px; font-family: BACS"">dGLAlkdrO</p>","","","","","","","","",""
"html-keyboard-response","123","198621","0.0-10.0-0.34","610f2eabb45be8717fc155e0","650c16f0f2faf8d7a0d14c09","651c1b091818b94a21e1f1a4","null","null","<p style=""font-size: 60px; font-family: BACS"">damYbYUYa</p>","","","","","","","","",""
"html-keyboard-response","124","199628","0.0-10.0-0.35","610f2eabb45be8717fc155e0","650c16f0f2faf8d7a0d14c09","651c1b091818b94a21e1f1a4","null","null","<p style=""font-size: 60px; font-family: BACS"">hlbtbPTl</p>","","","","","","","","",""
"html-keyboard-response","125","200640","0.0-10.0-0.36","610f2eabb45be8717fc155e0","650c16f0f2faf8d7a0d14c09","651c1b091818b94a21e1f1a4","null","null","<p style=""font-size: 60px; font-family: BACS"">LAclAYUYa</p>","","","","","","","","",""
"html-keyboard-response","126","201645","0.0-10.0-0.37","610f2eabb45be8717fc155e0","650c16f0f2faf8d7a0d14c09","651c1b091818b94a21e1f1a4","null","null","<p style=""font-size: 60px; font-family: BACS"">kdEdYkMEC</p>","","","","","","","","",""
"html-keyboard-response","127","202652","0.0-10.0-0.38","610f2eabb45be8717fc155e0","650c16f0f2faf8d7a0d14c09","651c1b091818b94a21e1f1a4","null","null","<p style=""font-size: 60px; font-family: BACS"">YZJmkGua</p>","","","","","","","","",""
"html-keyboard-response","128","203665","0.0-10.0-0.39","610f2eabb45be8717fc155e0","650c16f0f2faf8d7a0d14c09","651c1b091818b94a21e1f1a4","null","null","<p style=""font-size: 60px; font-family: BACS"">hbmATRK</p>","","","","","","","","",""
"html-keyboard-response","129","204676","0.0-10.0-0.40","610f2eabb45be8717fc155e0","650c16f0f2faf8d7a0d14c09","651c1b091818b94a21e1f1a4","null","null","<p style=""font-size: 60px; font-family: BACS"">ukYZYUYa</p>","","","","","","","","",""
"html-keyboard-response","130","205683","0.0-10.0-0.41","610f2eabb45be8717fc155e0","650c16f0f2faf8d7a0d14c09","651c1b091818b94a21e1f1a4","null","null","<p style=""font-size: 60px; font-family: BACS"">LuNZkGua</p>","","","","","","","","",""
"html-keyboard-response","131","206692","0.0-10.0-0.42","610f2eabb45be8717fc155e0","650c16f0f2faf8d7a0d14c09","651c1b091818b94a21e1f1a4","null","null","<p style=""font-size: 60px; font-family: BACS"">TdTDKOYC</p>","","","","","","","","",""
"html-keyboard-response","132","207701","0.0-10.0-0.43","610f2eabb45be8717fc155e0","650c16f0f2faf8d7a0d14c09","651c1b091818b94a21e1f1a4","null","null","<p style=""font-size: 60px; font-family: BACS"">rkYLkGua</p>","","","","","","","","",""
"html-keyboard-response","133","208716","0.0-10.0-0.44","610f2eabb45be8717fc155e0","650c16f0f2faf8d7a0d14c09","651c1b091818b94a21e1f1a4","null","null","<p style=""font-size: 60px; font-family: BACS"">YZJmYUYa</p>","","","","","","","","",""
"html-keyboard-response","134","209728","0.0-10.0-0.45","610f2eabb45be8717fc155e0","650c16f0f2faf8d7a0d14c09","651c1b091818b94a21e1f1a4","null","null","<p style=""font-size: 60px; font-family: BACS"">hbmAPTl</p>","","","","","","","","",""
"html-keyboard-response","135","210737","0.0-10.0-0.46","610f2eabb45be8717fc155e0","650c16f0f2faf8d7a0d14c09","651c1b091818b94a21e1f1a4","null","null","<p style=""font-size: 60px; font-family: BACS"">OmtlDTRK</p>","","","","","","","","",""
"html-keyboard-response","136","211747","0.0-10.0-0.47","610f2eabb45be8717fc155e0","650c16f0f2faf8d7a0d14c09","651c1b091818b94a21e1f1a4","null","null","<p style=""font-size: 60px; font-family: BACS"">KTDTBkMEC</p>","","","","","","","","",""
"html-keyboard-response","137","212755","0.0-10.0-0.48","610f2eabb45be8717fc155e0","650c16f0f2faf8d7a0d14c09","651c1b091818b94a21e1f1a4","null","null","<p style=""font-size: 60px; font-family: BACS"">bGuOYUYa</p>","","","","","","","","",""
"html-keyboard-response","138","213765","0.0-10.0-0.49","610f2eabb45be8717fc155e0","650c16f0f2faf8d7a0d14c09","651c1b091818b94a21e1f1a4","null","null","<p style=""font-size: 60px; font-family: BACS"">hbmAKOYC</p>","","","","","","","","",""
"html-keyboard-response","139","214775","0.0-10.0-0.50","610f2eabb45be8717fc155e0","650c16f0f2faf8d7a0d14c09","651c1b091818b94a21e1f1a4","null","null","<p style=""font-size: 60px; font-family: BACS"">LAclANac</p>","","","","","","","","",""
"html-keyboard-response","140","215783","0.0-10.0-0.51","610f2eabb45be8717fc155e0","650c16f0f2faf8d7a0d14c09","651c1b091818b94a21e1f1a4","null","null","<p style=""font-size: 60px; font-family: BACS"">ukYZkGua</p>","","","","","","","","",""
"html-keyboard-response","141","216788","0.0-10.0-0.52","610f2eabb45be8717fc155e0","650c16f0f2faf8d7a0d14c09","651c1b091818b94a21e1f1a4","null","null","<p style=""font-size: 60px; font-family: BACS"">TdTDPTl</p>","","","","","","","","",""
"html-keyboard-response","142","217796","0.0-10.0-0.53","610f2eabb45be8717fc155e0","650c16f0f2faf8d7a0d14c09","651c1b091818b94a21e1f1a4","null","null","<p style=""font-size: 60px; font-family: BACS"">OmtlDCMdP</p>","","","","","","","","",""
"html-keyboard-response","143","218813","0.0-10.0-0.54","610f2eabb45be8717fc155e0","650c16f0f2faf8d7a0d14c09","651c1b091818b94a21e1f1a4","null","null","<p style=""font-size: 60px; font-family: BACS"">dGLAlNac</p>","","","","","","","","",""
"html-keyboard-response","144","219826","0.0-10.0-0.55","610f2eabb45be8717fc155e0","650c16f0f2faf8d7a0d14c09","651c1b091818b94a21e1f1a4","null","null","<p style=""font-size: 60px; font-family: BACS"">YcdOkdrO</p>","","","","","","","","",""
"html-keyboard-response","145","220842","0.0-10.0-0.56","610f2eabb45be8717fc155e0","650c16f0f2faf8d7a0d14c09","651c1b091818b94a21e1f1a4","null","null","<p style=""font-size: 60px; font-family: BACS"">bGuONac</p>","","","","","","","","",""
"html-keyboard-response","146","221852","0.0-10.0-0.57","610f2eabb45be8717fc155e0","650c16f0f2faf8d7a0d14c09","651c1b091818b94a21e1f1a4","null","null","<p style=""font-size: 60px; font-family: BACS"">ECtbDPTl</p>","","","","","","","","",""
"html-keyboard-response","147","222859","0.0-10.0-0.58","610f2eabb45be8717fc155e0","650c16f0f2faf8d7a0d14c09","651c1b091818b94a21e1f1a4","null","null","<p style=""font-size: 60px; font-family: BACS"">AlTdkMEC</p>","","","","","","","","",""
"html-keyboard-response","148","223871","0.0-10.0-0.59","610f2eabb45be8717fc155e0","650c16f0f2faf8d7a0d14c09","651c1b091818b94a21e1f1a4","null","null","<p style=""font-size: 60px; font-family: BACS"">hlbtbCMdP</p>","","","","","","","","",""
"html-keyboard-response","149","224880","0.0-10.0-0.60","610f2eabb45be8717fc155e0","650c16f0f2faf8d7a0d14c09","651c1b091818b94a21e1f1a4","null","null","<p style=""font-size: 60px; font-family: BACS"">YZJmkdrO</p>","","","","","","","","",""
"html-keyboard-response","150","225890","0.0-10.0-0.61","610f2eabb45be8717fc155e0","650c16f0f2faf8d7a0d14c09","651c1b091818b94a21e1f1a4","null","null","<p style=""font-size: 60px; font-family: BACS"">bGuONUZ</p>","","","","","","","","",""
"html-keyboard-response","151","226897","0.0-10.0-0.62","610f2eabb45be8717fc155e0","650c16f0f2faf8d7a0d14c09","651c1b091818b94a21e1f1a4","null","null","<p style=""font-size: 60px; font-family: BACS"">RYtkcCMdP</p>","","","","","","","","",""
"html-keyboard-response","152","227904","0.0-10.0-0.63","610f2eabb45be8717fc155e0","650c16f0f2faf8d7a0d14c09","651c1b091818b94a21e1f1a4","null","null","<p style=""font-size: 60px; font-family: BACS"">ukYZNac</p>","","","","","","","","",""
"html-keyboard-response","153","228913","0.0-10.0-0.64","610f2eabb45be8717fc155e0","650c16f0f2faf8d7a0d14c09","651c1b091818b94a21e1f1a4","null","null","<p style=""font-size: 60px; font-family: BACS"">LAclAkdrO</p>","","","","","","","","",""
"html-keyboard-response","154","229924","0.0-10.0-0.65","610f2eabb45be8717fc155e0","650c16f0f2faf8d7a0d14c09","651c1b091818b94a21e1f1a4","null","null","<p style=""font-size: 60px; font-family: BACS"">dGLAlkGua</p>","","","","","","","","",""
"html-keyboard-response","155","230938","0.0-10.0-0.66","610f2eabb45be8717fc155e0","650c16f0f2faf8d7a0d14c09","651c1b091818b94a21e1f1a4","null","null","<p style=""font-size: 60px; font-family: BACS"">LuNZNUZ</p>","","","","","","","","",""
"html-keyboard-response","156","231945","0.0-10.0-0.67","610f2eabb45be8717fc155e0","650c16f0f2faf8d7a0d14c09","651c1b091818b94a21e1f1a4","null","null","<p style=""font-size: 60px; font-family: BACS"">ckdAmKOYC</p>","","","","","","","","",""
"html-keyboard-response","157","232962","0.0-10.0-0.68","610f2eabb45be8717fc155e0","650c16f0f2faf8d7a0d14c09","651c1b091818b94a21e1f1a4","null","null","<p style=""font-size: 60px; font-family: BACS"">hlbtbTRK</p>","","","","","","","","",""
"html-keyboard-response","158","233970","0.0-10.0-0.69","610f2eabb45be8717fc155e0","650c16f0f2faf8d7a0d14c09","651c1b091818b94a21e1f1a4","null","null","<p style=""font-size: 60px; font-family: BACS"">LuNZYUYa</p>","","","","","","","","",""
"html-keyboard-response","159","234977","0.0-10.0-0.70","610f2eabb45be8717fc155e0","650c16f0f2faf8d7a0d14c09","651c1b091818b94a21e1f1a4","null","null","<p style=""font-size: 60px; font-family: BACS"">kdEdYPTl</p>","","","","","","","","",""
"html-keyboard-response","160","235986","0.0-10.0-0.71","610f2eabb45be8717fc155e0","650c16f0f2faf8d7a0d14c09","651c1b091818b94a21e1f1a4","null","null","<p style=""font-size: 60px; font-family: BACS"">ckdAmCMdP</p>","","","","","","","","",""
"html-keyboard-response","161","236998","0.0-10.0-0.72","610f2eabb45be8717fc155e0","650c16f0f2faf8d7a0d14c09","651c1b091818b94a21e1f1a4","null","null","<p style=""font-size: 60px; font-family: BACS"">aONdkdrO</p>","","","","","","","","",""
"html-keyboard-response","162","238004","0.0-10.0-0.73","610f2eabb45be8717fc155e0","650c16f0f2faf8d7a0d14c09","651c1b091818b94a21e1f1a4","null","null","<p style=""font-size: 60px; font-family: BACS"">YcdONUZ</p>","","","","","","","","",""
"html-keyboard-response","163","239011","0.0-10.0-0.74","610f2eabb45be8717fc155e0","650c16f0f2faf8d7a0d14c09","651c1b091818b94a21e1f1a4","null","null","<p style=""font-size: 60px; font-family: BACS"">damYbkdrO</p>","","","","","","","","",""
"html-keyboard-response","164","240019","0.0-10.0-0.75","610f2eabb45be8717fc155e0","650c16f0f2faf8d7a0d14c09","651c1b091818b94a21e1f1a4","null","null","<p style=""font-size: 60px; font-family: BACS"">KTDTBKOYC</p>","","","","","","","","",""
"html-keyboard-response","165","241028","0.0-10.0-0.76","610f2eabb45be8717fc155e0","650c16f0f2faf8d7a0d14c09","651c1b091818b94a21e1f1a4","null","null","<p style=""font-size: 60px; font-family: BACS"">rkYLYUYa</p>","","","","","","","","",""
"html-keyboard-response","166","242041","0.0-10.0-0.77","610f2eabb45be8717fc155e0","650c16f0f2faf8d7a0d14c09","651c1b091818b94a21e1f1a4","null","null","<p style=""font-size: 60px; font-family: BACS"">AlTdTRK</p>","","","","","","","","",""
"html-keyboard-response","167","243048","0.0-10.0-0.78","610f2eabb45be8717fc155e0","650c16f0f2faf8d7a0d14c09","651c1b091818b94a21e1f1a4","null","null","<p style=""font-size: 60px; font-family: BACS"">ckdAmkMEC</p>","","","","","","","","",""
"html-keyboard-response","168","244060","0.0-10.0-0.79","610f2eabb45be8717fc155e0","650c16f0f2faf8d7a0d14c09","651c1b091818b94a21e1f1a4","null","null","<p style=""font-size: 60px; font-family: BACS"">AlTdKOYC</p>","","","","","","","","",""
"html-keyboard-response","169","246197","0.0-11.0","610f2eabb45be8717fc155e0","650c16f0f2faf8d7a0d14c09","651c1b091818b94a21e1f1a4","2136"," ","<p>Great, you've seen the second block of words. You may now take a short break.</p>
      <p>Press the spacebar when you're ready to continue.</p>","","","","","","","","",""
"html-keyboard-response","170","247201","0.0-12.0-0.0","610f2eabb45be8717fc155e0","650c16f0f2faf8d7a0d14c09","651c1b091818b94a21e1f1a4","null","null","<p style=""font-size: 60px; font-family: BACS"">AlTdTRK</p>","","","","","","","","",""
"html-keyboard-response","171","248212","0.0-12.0-0.1","610f2eabb45be8717fc155e0","650c16f0f2faf8d7a0d14c09","651c1b091818b94a21e1f1a4","null","null","<p style=""font-size: 60px; font-family: BACS"">aONdNac</p>","","","","","","","","",""
"html-keyboard-response","172","249227","0.0-12.0-0.2","610f2eabb45be8717fc155e0","650c16f0f2faf8d7a0d14c09","651c1b091818b94a21e1f1a4","null","null","<p style=""font-size: 60px; font-family: BACS"">LAclANUZ</p>","","","","","","","","",""
"html-keyboard-response","173","250240","0.0-12.0-0.3","610f2eabb45be8717fc155e0","650c16f0f2faf8d7a0d14c09","651c1b091818b94a21e1f1a4","null","null","<p style=""font-size: 60px; font-family: BACS"">hbmAKOYC</p>","","","","","","","","",""
"html-keyboard-response","174","251252","0.0-12.0-0.4","610f2eabb45be8717fc155e0","650c16f0f2faf8d7a0d14c09","651c1b091818b94a21e1f1a4","null","null","<p style=""font-size: 60px; font-family: BACS"">ukYZYUYa</p>","","","","","","","","",""
"html-keyboard-response","175","252266","0.0-12.0-0.5","610f2eabb45be8717fc155e0","650c16f0f2faf8d7a0d14c09","651c1b091818b94a21e1f1a4","null","null","<p style=""font-size: 60px; font-family: BACS"">LAclANac</p>","","","","","","","","",""
"html-keyboard-response","176","253278","0.0-12.0-0.6","610f2eabb45be8717fc155e0","650c16f0f2faf8d7a0d14c09","651c1b091818b94a21e1f1a4","null","null","<p style=""font-size: 60px; font-family: BACS"">KTDTBPTl</p>","","","","","","","","",""
"html-keyboard-response","177","254292","0.0-12.0-0.7","610f2eabb45be8717fc155e0","650c16f0f2faf8d7a0d14c09","651c1b091818b94a21e1f1a4","null","null","<p style=""font-size: 60px; font-family: BACS"">dGLAlkdrO</p>","","","","","","","","",""
"html-keyboard-response","178","255302","0.0-12.0-0.8","610f2eabb45be8717fc155e0","650c16f0f2faf8d7a0d14c09","651c1b091818b94a21e1f1a4","null","null","<p style=""font-size: 60px; font-family: BACS"">TdTDPTl</p>","","","","","","","","",""
"html-keyboard-response","179","256307","0.0-12.0-0.9","610f2eabb45be8717fc155e0","650c16f0f2faf8d7a0d14c09","651c1b091818b94a21e1f1a4","null","null","<p style=""font-size: 60px; font-family: BACS"">AlTdkMEC</p>","","","","","","","","",""
"html-keyboard-response","180","257314","0.0-12.0-0.10","610f2eabb45be8717fc155e0","650c16f0f2faf8d7a0d14c09","651c1b091818b94a21e1f1a4","null","null","<p style=""font-size: 60px; font-family: BACS"">kdEdYPTl</p>","","","","","","","","",""
"html-keyboard-response","181","258324","0.0-12.0-0.11","610f2eabb45be8717fc155e0","650c16f0f2faf8d7a0d14c09","651c1b091818b94a21e1f1a4","null","null","<p style=""font-size: 60px; font-family: BACS"">dGLAlNac</p>","","","","","","","","",""
"html-keyboard-response","182","259330","0.0-12.0-0.12","610f2eabb45be8717fc155e0","650c16f0f2faf8d7a0d14c09","651c1b091818b94a21e1f1a4","null","null","<p style=""font-size: 60px; font-family: BACS"">YcdOkdrO</p>","","","","","","","","",""
"html-keyboard-response","183","260337","0.0-12.0-0.13","610f2eabb45be8717fc155e0","650c16f0f2faf8d7a0d14c09","651c1b091818b94a21e1f1a4","null","null","<p style=""font-size: 60px; font-family: BACS"">OmtlDkMEC</p>","","","","","","","","",""
"html-keyboard-response","184","261346","0.0-12.0-0.14","610f2eabb45be8717fc155e0","650c16f0f2faf8d7a0d14c09","651c1b091818b94a21e1f1a4","null","null","<p style=""font-size: 60px; font-family: BACS"">hlbtbCMdP</p>","","","","","","","","",""
"html-keyboard-response","185","262358","0.0-12.0-0.15","610f2eabb45be8717fc155e0","650c16f0f2faf8d7a0d14c09","651c1b091818b94a21e1f1a4","null","null","<p style=""font-size: 60px; font-family: BACS"">ECtbDkMEC</p>","","","","","","","","",""
"html-keyboard-response","186","263370","0.0-12.0-0.16","610f2eabb45be8717fc155e0","650c16f0f2faf8d7a0d14c09","651c1b091818b94a21e1f1a4","null","null","<p style=""font-size: 60px; font-family: BACS"">TdTDTRK</p>","","","","","","","","",""
"html-keyboard-response","187","264376","0.0-12.0-0.17","610f2eabb45be8717fc155e0","650c16f0f2faf8d7a0d14c09","651c1b091818b94a21e1f1a4","null","null","<p style=""font-size: 60px; font-family: BACS"">hlbtbPTl</p>","","","","","","","","",""
"html-keyboard-response","188","265390","0.0-12.0-0.18","610f2eabb45be8717fc155e0","650c16f0f2faf8d7a0d14c09","651c1b091818b94a21e1f1a4","null","null","<p style=""font-size: 60px; font-family: BACS"">LuNZNac</p>","","","","","","","","",""
"html-keyboard-response","189","266400","0.0-12.0-0.19","610f2eabb45be8717fc155e0","650c16f0f2faf8d7a0d14c09","651c1b091818b94a21e1f1a4","null","null","<p style=""font-size: 60px; font-family: BACS"">kdEdYTRK</p>","","","","","","","","",""
"html-keyboard-response","190","267409","0.0-12.0-0.20","610f2eabb45be8717fc155e0","650c16f0f2faf8d7a0d14c09","651c1b091818b94a21e1f1a4","null","null","<p style=""font-size: 60px; font-family: BACS"">RYtkcKOYC</p>","","","","","","","","",""
"html-keyboard-response","191","268419","0.0-12.0-0.21","610f2eabb45be8717fc155e0","650c16f0f2faf8d7a0d14c09","651c1b091818b94a21e1f1a4","null","null","<p style=""font-size: 60px; font-family: BACS"">KTDTBCMdP</p>","","","","","","","","",""
"html-keyboard-response","192","269430","0.0-12.0-0.22","610f2eabb45be8717fc155e0","650c16f0f2faf8d7a0d14c09","651c1b091818b94a21e1f1a4","null","null","<p style=""font-size: 60px; font-family: BACS"">LAclAYUYa</p>","","","","","","","","",""
"html-keyboard-response","193","270441","0.0-12.0-0.23","610f2eabb45be8717fc155e0","650c16f0f2faf8d7a0d14c09","651c1b091818b94a21e1f1a4","null","null","<p style=""font-size: 60px; font-family: BACS"">OmtlDPTl</p>","","","","","","","","",""
"html-keyboard-response","194","271452","0.0-12.0-0.24","610f2eabb45be8717fc155e0","650c16f0f2faf8d7a0d14c09","651c1b091818b94a21e1f1a4","null","null","<p style=""font-size: 60px; font-family: BACS"">YcdONUZ</p>","","","","","","","","",""
"html-keyboard-response","195","272458","0.0-12.0-0.25","610f2eabb45be8717fc155e0","650c16f0f2faf8d7a0d14c09","651c1b091818b94a21e1f1a4","null","null","<p style=""font-size: 60px; font-family: BACS"">bGuOYUYa</p>","","","","","","","","",""
"html-keyboard-response","196","273471","0.0-12.0-0.26","610f2eabb45be8717fc155e0","650c16f0f2faf8d7a0d14c09","651c1b091818b94a21e1f1a4","null","null","<p style=""font-size: 60px; font-family: BACS"">TdTDCMdP</p>","","","","","","","","",""
"html-keyboard-response","197","274488","0.0-12.0-0.27","610f2eabb45be8717fc155e0","650c16f0f2faf8d7a0d14c09","651c1b091818b94a21e1f1a4","null","null","<p style=""font-size: 60px; font-family: BACS"">hbmATRK</p>","","","","","","","","",""
"html-keyboard-response","198","275498","0.0-12.0-0.28","610f2eabb45be8717fc155e0","650c16f0f2faf8d7a0d14c09","651c1b091818b94a21e1f1a4","null","null","<p style=""font-size: 60px; font-family: BACS"">YZJmkdrO</p>","","","","","","","","",""
"html-keyboard-response","199","276511","0.0-12.0-0.29","610f2eabb45be8717fc155e0","650c16f0f2faf8d7a0d14c09","651c1b091818b94a21e1f1a4","null","null","<p style=""font-size: 60px; font-family: BACS"">dGLAlkGua</p>","","","","","","","","",""
"html-keyboard-response","200","277520","0.0-12.0-0.30","610f2eabb45be8717fc155e0","650c16f0f2faf8d7a0d14c09","651c1b091818b94a21e1f1a4","null","null","<p style=""font-size: 60px; font-family: BACS"">LuNZNUZ</p>","","","","","","","","",""
"html-keyboard-response","201","278532","0.0-12.0-0.31","610f2eabb45be8717fc155e0","650c16f0f2faf8d7a0d14c09","651c1b091818b94a21e1f1a4","null","null","<p style=""font-size: 60px; font-family: BACS"">KTDTBkMEC</p>","","","","","","","","",""
"html-keyboard-response","202","279535","0.0-12.0-0.32","610f2eabb45be8717fc155e0","650c16f0f2faf8d7a0d14c09","651c1b091818b94a21e1f1a4","null","null","<p style=""font-size: 60px; font-family: BACS"">aONdkGua</p>","","","","","","","","",""
"html-keyboard-response","203","280539","0.0-12.0-0.33","610f2eabb45be8717fc155e0","650c16f0f2faf8d7a0d14c09","651c1b091818b94a21e1f1a4","null","null","<p style=""font-size: 60px; font-family: BACS"">TdTDKOYC</p>","","","","","","","","",""
"html-keyboard-response","204","281549","0.0-12.0-0.34","610f2eabb45be8717fc155e0","650c16f0f2faf8d7a0d14c09","651c1b091818b94a21e1f1a4","null","null","<p style=""font-size: 60px; font-family: BACS"">rkYLNUZ</p>","","","","","","","","",""
"html-keyboard-response","205","282556","0.0-12.0-0.35","610f2eabb45be8717fc155e0","650c16f0f2faf8d7a0d14c09","651c1b091818b94a21e1f1a4","null","null","<p style=""font-size: 60px; font-family: BACS"">YZJmYUYa</p>","","","","","","","","",""
"html-keyboard-response","206","283566","0.0-12.0-0.36","610f2eabb45be8717fc155e0","650c16f0f2faf8d7a0d14c09","651c1b091818b94a21e1f1a4","null","null","<p style=""font-size: 60px; font-family: BACS"">ckdAmPTl</p>","","","","","","","","",""
"html-keyboard-response","207","284571","0.0-12.0-0.37","610f2eabb45be8717fc155e0","650c16f0f2faf8d7a0d14c09","651c1b091818b94a21e1f1a4","null","null","<p style=""font-size: 60px; font-family: BACS"">kdEdYkMEC</p>","","","","","","","","",""
"html-keyboard-response","208","285587","0.0-12.0-0.38","610f2eabb45be8717fc155e0","650c16f0f2faf8d7a0d14c09","651c1b091818b94a21e1f1a4","null","null","<p style=""font-size: 60px; font-family: BACS"">bGuONac</p>","","","","","","","","",""
"html-keyboard-response","209","286597","0.0-12.0-0.39","610f2eabb45be8717fc155e0","650c16f0f2faf8d7a0d14c09","651c1b091818b94a21e1f1a4","null","null","<p style=""font-size: 60px; font-family: BACS"">ECtbDPTl</p>","","","","","","","","",""
"html-keyboard-response","210","287612","0.0-12.0-0.40","610f2eabb45be8717fc155e0","650c16f0f2faf8d7a0d14c09","651c1b091818b94a21e1f1a4","null","null","<p style=""font-size: 60px; font-family: BACS"">YZJmNac</p>","","","","","","","","",""
"html-keyboard-response","211","288623","0.0-12.0-0.41","610f2eabb45be8717fc155e0","650c16f0f2faf8d7a0d14c09","651c1b091818b94a21e1f1a4","null","null","<p style=""font-size: 60px; font-family: BACS"">ckdAmKOYC</p>","","","","","","","","",""
"html-keyboard-response","212","289631","0.0-12.0-0.42","610f2eabb45be8717fc155e0","650c16f0f2faf8d7a0d14c09","651c1b091818b94a21e1f1a4","null","null","<p style=""font-size: 60px; font-family: BACS"">OmtlDTRK</p>","","","","","","","","",""
"html-keyboard-response","213","290641","0.0-12.0-0.43","610f2eabb45be8717fc155e0","650c16f0f2faf8d7a0d14c09","651c1b091818b94a21e1f1a4","null","null","<p style=""font-size: 60px; font-family: BACS"">damYbYUYa</p>","","","","","","","","",""
"html-keyboard-response","214","291650","0.0-12.0-0.44","610f2eabb45be8717fc155e0","650c16f0f2faf8d7a0d14c09","651c1b091818b94a21e1f1a4","null","null","<p style=""font-size: 60px; font-family: BACS"">YcdONac</p>","","","","","","","","",""
"html-keyboard-response","215","292659","0.0-12.0-0.45","610f2eabb45be8717fc155e0","650c16f0f2faf8d7a0d14c09","651c1b091818b94a21e1f1a4","null","null","<p style=""font-size: 60px; font-family: BACS"">RYtkcCMdP</p>","","","","","","","","",""
"html-keyboard-response","216","293666","0.0-12.0-0.46","610f2eabb45be8717fc155e0","650c16f0f2faf8d7a0d14c09","651c1b091818b94a21e1f1a4","null","null","<p style=""font-size: 60px; font-family: BACS"">ukYZkdrO</p>","","","","","","","","",""
"html-keyboard-response","217","294679","0.0-12.0-0.47","610f2eabb45be8717fc155e0","650c16f0f2faf8d7a0d14c09","651c1b091818b94a21e1f1a4","null","null","<p style=""font-size: 60px; font-family: BACS"">OmtlDCMdP</p>","","","","","","","","",""
"html-keyboard-response","218","295691","0.0-12.0-0.48","610f2eabb45be8717fc155e0","650c16f0f2faf8d7a0d14c09","651c1b091818b94a21e1f1a4","null","null","<p style=""font-size: 60px; font-family: BACS"">damYbkGua</p>","","","","","","","","",""
"html-keyboard-response","219","296695","0.0-12.0-0.49","610f2eabb45be8717fc155e0","650c16f0f2faf8d7a0d14c09","651c1b091818b94a21e1f1a4","null","null","<p style=""font-size: 60px; font-family: BACS"">rkYLkdrO</p>","","","","","","","","",""
"html-keyboard-response","220","297705","0.0-12.0-0.50","610f2eabb45be8717fc155e0","650c16f0f2faf8d7a0d14c09","651c1b091818b94a21e1f1a4","null","null","<p style=""font-size: 60px; font-family: BACS"">LuNZYUYa</p>","","","","","","","","",""
"html-keyboard-response","221","298718","0.0-12.0-0.51","610f2eabb45be8717fc155e0","650c16f0f2faf8d7a0d14c09","651c1b091818b94a21e1f1a4","null","null","<p style=""font-size: 60px; font-family: BACS"">hbmACMdP</p>","","","","","","","","",""
"html-keyboard-response","222","299725","0.0-12.0-0.52","610f2eabb45be8717fc155e0","650c16f0f2faf8d7a0d14c09","651c1b091818b94a21e1f1a4","null","null","<p style=""font-size: 60px; font-family: BACS"">bGuONUZ</p>","","","","","","","","",""
"html-keyboard-response","223","300731","0.0-12.0-0.53","610f2eabb45be8717fc155e0","650c16f0f2faf8d7a0d14c09","651c1b091818b94a21e1f1a4","null","null","<p style=""font-size: 60px; font-family: BACS"">ECtbDKOYC</p>","","","","","","","","",""
"html-keyboard-response","224","301742","0.0-12.0-0.54","610f2eabb45be8717fc155e0","650c16f0f2faf8d7a0d14c09","651c1b091818b94a21e1f1a4","null","null","<p style=""font-size: 60px; font-family: BACS"">aONdkdrO</p>","","","","","","","","",""
"html-keyboard-response","225","302752","0.0-12.0-0.55","610f2eabb45be8717fc155e0","650c16f0f2faf8d7a0d14c09","651c1b091818b94a21e1f1a4","null","null","<p style=""font-size: 60px; font-family: BACS"">LuNZkGua</p>","","","","","","","","",""
"html-keyboard-response","226","303763","0.0-12.0-0.56","610f2eabb45be8717fc155e0","650c16f0f2faf8d7a0d14c09","651c1b091818b94a21e1f1a4","null","null","<p style=""font-size: 60px; font-family: BACS"">dGLAlNUZ</p>","","","","","","","","",""
"html-keyboard-response","227","304773","0.0-12.0-0.57","610f2eabb45be8717fc155e0","650c16f0f2faf8d7a0d14c09","651c1b091818b94a21e1f1a4","null","null","<p style=""font-size: 60px; font-family: BACS"">YZJmkGua</p>","","","","","","","","",""
"html-keyboard-response","228","305789","0.0-12.0-0.58","610f2eabb45be8717fc155e0","650c16f0f2faf8d7a0d14c09","651c1b091818b94a21e1f1a4","null","null","<p style=""font-size: 60px; font-family: BACS"">hlbtbkMEC</p>","","","","","","","","",""
"html-keyboard-response","229","306799","0.0-12.0-0.59","610f2eabb45be8717fc155e0","650c16f0f2faf8d7a0d14c09","651c1b091818b94a21e1f1a4","null","null","<p style=""font-size: 60px; font-family: BACS"">ukYZNac</p>","","","","","","","","",""
"html-keyboard-response","230","307801","0.0-12.0-0.60","610f2eabb45be8717fc155e0","650c16f0f2faf8d7a0d14c09","651c1b091818b94a21e1f1a4","null","null","<p style=""font-size: 60px; font-family: BACS"">RYtkcTRK</p>","","","","","","","","",""
"html-keyboard-response","231","308809","0.0-12.0-0.61","610f2eabb45be8717fc155e0","650c16f0f2faf8d7a0d14c09","651c1b091818b94a21e1f1a4","null","null","<p style=""font-size: 60px; font-family: BACS"">AlTdCMdP</p>","","","","","","","","",""
"html-keyboard-response","232","309812","0.0-12.0-0.62","610f2eabb45be8717fc155e0","650c16f0f2faf8d7a0d14c09","651c1b091818b94a21e1f1a4","null","null","<p style=""font-size: 60px; font-family: BACS"">bGuOkGua</p>","","","","","","","","",""
"html-keyboard-response","233","310827","0.0-12.0-0.63","610f2eabb45be8717fc155e0","650c16f0f2faf8d7a0d14c09","651c1b091818b94a21e1f1a4","null","null","<p style=""font-size: 60px; font-family: BACS"">hlbtbTRK</p>","","","","","","","","",""
"html-keyboard-response","234","311838","0.0-12.0-0.64","610f2eabb45be8717fc155e0","650c16f0f2faf8d7a0d14c09","651c1b091818b94a21e1f1a4","null","null","<p style=""font-size: 60px; font-family: BACS"">hbmAPTl</p>","","","","","","","","",""
"html-keyboard-response","235","312853","0.0-12.0-0.65","610f2eabb45be8717fc155e0","650c16f0f2faf8d7a0d14c09","651c1b091818b94a21e1f1a4","null","null","<p style=""font-size: 60px; font-family: BACS"">ECtbDTRK</p>","","","","","","","","",""
"html-keyboard-response","236","313866","0.0-12.0-0.66","610f2eabb45be8717fc155e0","650c16f0f2faf8d7a0d14c09","651c1b091818b94a21e1f1a4","null","null","<p style=""font-size: 60px; font-family: BACS"">rkYLYUYa</p>","","","","","","","","",""
"html-keyboard-response","237","314882","0.0-12.0-0.67","610f2eabb45be8717fc155e0","650c16f0f2faf8d7a0d14c09","651c1b091818b94a21e1f1a4","null","null","<p style=""font-size: 60px; font-family: BACS"">damYbkdrO</p>","","","","","","","","",""
"html-keyboard-response","238","315891","0.0-12.0-0.68","610f2eabb45be8717fc155e0","650c16f0f2faf8d7a0d14c09","651c1b091818b94a21e1f1a4","null","null","<p style=""font-size: 60px; font-family: BACS"">aONdNUZ</p>","","","","","","","","",""
"html-keyboard-response","239","316892","0.0-12.0-0.69","610f2eabb45be8717fc155e0","650c16f0f2faf8d7a0d14c09","651c1b091818b94a21e1f1a4","null","null","<p style=""font-size: 60px; font-family: BACS"">YcdOYUYa</p>","","","","","","","","",""
"html-keyboard-response","240","317894","0.0-12.0-0.70","610f2eabb45be8717fc155e0","650c16f0f2faf8d7a0d14c09","651c1b091818b94a21e1f1a4","null","null","<p style=""font-size: 60px; font-family: BACS"">RYtkckMEC</p>","","","","","","","","",""
"html-keyboard-response","241","318900","0.0-12.0-0.71","610f2eabb45be8717fc155e0","650c16f0f2faf8d7a0d14c09","651c1b091818b94a21e1f1a4","null","null","<p style=""font-size: 60px; font-family: BACS"">KTDTBKOYC</p>","","","","","","","","",""
"html-keyboard-response","242","319913","0.0-12.0-0.72","610f2eabb45be8717fc155e0","650c16f0f2faf8d7a0d14c09","651c1b091818b94a21e1f1a4","null","null","<p style=""font-size: 60px; font-family: BACS"">rkYLkGua</p>","","","","","","","","",""
"html-keyboard-response","243","320925","0.0-12.0-0.73","610f2eabb45be8717fc155e0","650c16f0f2faf8d7a0d14c09","651c1b091818b94a21e1f1a4","null","null","<p style=""font-size: 60px; font-family: BACS"">ckdAmCMdP</p>","","","","","","","","",""
"html-keyboard-response","244","321939","0.0-12.0-0.74","610f2eabb45be8717fc155e0","650c16f0f2faf8d7a0d14c09","651c1b091818b94a21e1f1a4","null","null","<p style=""font-size: 60px; font-family: BACS"">AlTdKOYC</p>","","","","","","","","",""
"html-keyboard-response","245","322949","0.0-12.0-0.75","610f2eabb45be8717fc155e0","650c16f0f2faf8d7a0d14c09","651c1b091818b94a21e1f1a4","null","null","<p style=""font-size: 60px; font-family: BACS"">ckdAmkMEC</p>","","","","","","","","",""
"html-keyboard-response","246","323959","0.0-12.0-0.76","610f2eabb45be8717fc155e0","650c16f0f2faf8d7a0d14c09","651c1b091818b94a21e1f1a4","null","null","<p style=""font-size: 60px; font-family: BACS"">kdEdYKOYC</p>","","","","","","","","",""
"html-keyboard-response","247","324974","0.0-12.0-0.77","610f2eabb45be8717fc155e0","650c16f0f2faf8d7a0d14c09","651c1b091818b94a21e1f1a4","null","null","<p style=""font-size: 60px; font-family: BACS"">ukYZkGua</p>","","","","","","","","",""
"html-keyboard-response","248","325987","0.0-12.0-0.78","610f2eabb45be8717fc155e0","650c16f0f2faf8d7a0d14c09","651c1b091818b94a21e1f1a4","null","null","<p style=""font-size: 60px; font-family: BACS"">LAclAkdrO</p>","","","","","","","","",""
"html-keyboard-response","249","326989","0.0-12.0-0.79","610f2eabb45be8717fc155e0","650c16f0f2faf8d7a0d14c09","651c1b091818b94a21e1f1a4","null","null","<p style=""font-size: 60px; font-family: BACS"">damYbNUZ</p>","","","","","","","","",""
"html-keyboard-response","250","334971","0.0-13.0","610f2eabb45be8717fc155e0","650c16f0f2faf8d7a0d14c09","651c1b091818b94a21e1f1a4","7982"," ","<p>Great, you've seen the third block of words. You may now take a short break.</p>
      <p>Press the spacebar when you're ready to continue.</p>","","","","","","","","",""
"html-keyboard-response","251","335976","0.0-14.0-0.0","610f2eabb45be8717fc155e0","650c16f0f2faf8d7a0d14c09","651c1b091818b94a21e1f1a4","null","null","<p style=""font-size: 60px; font-family: BACS"">ckdAmCMdP</p>","","","","","","","","",""
"html-keyboard-response","252","336985","0.0-14.0-0.1","610f2eabb45be8717fc155e0","650c16f0f2faf8d7a0d14c09","651c1b091818b94a21e1f1a4","null","null","<p style=""font-size: 60px; font-family: BACS"">ECtbDTRK</p>","","","","","","","","",""
"html-keyboard-response","253","337992","0.0-14.0-0.2","610f2eabb45be8717fc155e0","650c16f0f2faf8d7a0d14c09","651c1b091818b94a21e1f1a4","null","null","<p style=""font-size: 60px; font-family: BACS"">LAclAkdrO</p>","","","","","","","","",""
"html-keyboard-response","254","339002","0.0-14.0-0.3","610f2eabb45be8717fc155e0","650c16f0f2faf8d7a0d14c09","651c1b091818b94a21e1f1a4","null","null","<p style=""font-size: 60px; font-family: BACS"">RYtkckMEC</p>","","","","","","","","",""
"html-keyboard-response","255","340012","0.0-14.0-0.4","610f2eabb45be8717fc155e0","650c16f0f2faf8d7a0d14c09","651c1b091818b94a21e1f1a4","null","null","<p style=""font-size: 60px; font-family: BACS"">hbmAKOYC</p>","","","","","","","","",""
"html-keyboard-response","256","341024","0.0-14.0-0.5","610f2eabb45be8717fc155e0","650c16f0f2faf8d7a0d14c09","651c1b091818b94a21e1f1a4","null","null","<p style=""font-size: 60px; font-family: BACS"">AlTdCMdP</p>","","","","","","","","",""
"html-keyboard-response","257","342035","0.0-14.0-0.6","610f2eabb45be8717fc155e0","650c16f0f2faf8d7a0d14c09","651c1b091818b94a21e1f1a4","null","null","<p style=""font-size: 60px; font-family: BACS"">damYbkdrO</p>","","","","","","","","",""
"html-keyboard-response","258","343041","0.0-14.0-0.7","610f2eabb45be8717fc155e0","650c16f0f2faf8d7a0d14c09","651c1b091818b94a21e1f1a4","null","null","<p style=""font-size: 60px; font-family: BACS"">OmtlDTRK</p>","","","","","","","","",""
"html-keyboard-response","259","344047","0.0-14.0-0.8","610f2eabb45be8717fc155e0","650c16f0f2faf8d7a0d14c09","651c1b091818b94a21e1f1a4","null","null","<p style=""font-size: 60px; font-family: BACS"">hbmAPTl</p>","","","","","","","","",""
"html-keyboard-response","260","345056","0.0-14.0-0.9","610f2eabb45be8717fc155e0","650c16f0f2faf8d7a0d14c09","651c1b091818b94a21e1f1a4","null","null","<p style=""font-size: 60px; font-family: BACS"">KTDTBCMdP</p>","","","","","","","","",""
"html-keyboard-response","261","346066","0.0-14.0-0.10","610f2eabb45be8717fc155e0","650c16f0f2faf8d7a0d14c09","651c1b091818b94a21e1f1a4","null","null","<p style=""font-size: 60px; font-family: BACS"">bGuONUZ</p>","","","","","","","","",""
"html-keyboard-response","262","347078","0.0-14.0-0.11","610f2eabb45be8717fc155e0","650c16f0f2faf8d7a0d14c09","651c1b091818b94a21e1f1a4","null","null","<p style=""font-size: 60px; font-family: BACS"">LuNZNac</p>","","","","","","","","",""
"html-keyboard-response","263","348090","0.0-14.0-0.12","610f2eabb45be8717fc155e0","650c16f0f2faf8d7a0d14c09","651c1b091818b94a21e1f1a4","null","null","<p style=""font-size: 60px; font-family: BACS"">hlbtbPTl</p>","","","","","","","","",""
"html-keyboard-response","264","349093","0.0-14.0-0.13","610f2eabb45be8717fc155e0","650c16f0f2faf8d7a0d14c09","651c1b091818b94a21e1f1a4","null","null","<p style=""font-size: 60px; font-family: BACS"">bGuOYUYa</p>","","","","","","","","",""
"html-keyboard-response","265","350106","0.0-14.0-0.14","610f2eabb45be8717fc155e0","650c16f0f2faf8d7a0d14c09","651c1b091818b94a21e1f1a4","null","null","<p style=""font-size: 60px; font-family: BACS"">LAclANac</p>","","","","","","","","",""
"html-keyboard-response","266","351117","0.0-14.0-0.15","610f2eabb45be8717fc155e0","650c16f0f2faf8d7a0d14c09","651c1b091818b94a21e1f1a4","null","null","<p style=""font-size: 60px; font-family: BACS"">YcdOYUYa</p>","","","","","","","","",""
"html-keyboard-response","267","352118","0.0-14.0-0.16","610f2eabb45be8717fc155e0","650c16f0f2faf8d7a0d14c09","651c1b091818b94a21e1f1a4","null","null","<p style=""font-size: 60px; font-family: BACS"">LuNZNUZ</p>","","","","","","","","",""
"html-keyboard-response","268","353133","0.0-14.0-0.17","610f2eabb45be8717fc155e0","650c16f0f2faf8d7a0d14c09","651c1b091818b94a21e1f1a4","null","null","<p style=""font-size: 60px; font-family: BACS"">TdTDTRK</p>","","","","","","","","",""
"html-keyboard-response","269","354138","0.0-14.0-0.18","610f2eabb45be8717fc155e0","650c16f0f2faf8d7a0d14c09","651c1b091818b94a21e1f1a4","null","null","<p style=""font-size: 60px; font-family: BACS"">OmtlDCMdP</p>","","","","","","","","",""
"html-keyboard-response","270","355148","0.0-14.0-0.19","610f2eabb45be8717fc155e0","650c16f0f2faf8d7a0d14c09","651c1b091818b94a21e1f1a4","null","null","<p style=""font-size: 60px; font-family: BACS"">YZJmYUYa</p>","","","","","","","","",""
"html-keyboard-response","271","356149","0.0-14.0-0.20","610f2eabb45be8717fc155e0","650c16f0f2faf8d7a0d14c09","651c1b091818b94a21e1f1a4","null","null","<p style=""font-size: 60px; font-family: BACS"">hlbtbkMEC</p>","","","","","","","","",""
"html-keyboard-response","272","357150","0.0-14.0-0.21","610f2eabb45be8717fc155e0","650c16f0f2faf8d7a0d14c09","651c1b091818b94a21e1f1a4","null","null","<p style=""font-size: 60px; font-family: BACS"">ukYZYUYa</p>","","","","","","","","",""
"html-keyboard-response","273","358159","0.0-14.0-0.22","610f2eabb45be8717fc155e0","650c16f0f2faf8d7a0d14c09","651c1b091818b94a21e1f1a4","null","null","<p style=""font-size: 60px; font-family: BACS"">ECtbDkMEC</p>","","","","","","","","",""
"html-keyboard-response","274","359167","0.0-14.0-0.23","610f2eabb45be8717fc155e0","650c16f0f2faf8d7a0d14c09","651c1b091818b94a21e1f1a4","null","null","<p style=""font-size: 60px; font-family: BACS"">YZJmNac</p>","","","","","","","","",""
"html-keyboard-response","275","360177","0.0-14.0-0.24","610f2eabb45be8717fc155e0","650c16f0f2faf8d7a0d14c09","651c1b091818b94a21e1f1a4","null","null","<p style=""font-size: 60px; font-family: BACS"">bGuOkGua</p>","","","","","","","","",""
"html-keyboard-response","276","361192","0.0-14.0-0.25","610f2eabb45be8717fc155e0","650c16f0f2faf8d7a0d14c09","651c1b091818b94a21e1f1a4","null","null","<p style=""font-size: 60px; font-family: BACS"">rkYLNUZ</p>","","","","","","","","",""
"html-keyboard-response","277","362202","0.0-14.0-0.26","610f2eabb45be8717fc155e0","650c16f0f2faf8d7a0d14c09","651c1b091818b94a21e1f1a4","null","null","<p style=""font-size: 60px; font-family: BACS"">aONdkdrO</p>","","","","","","","","",""
"html-keyboard-response","278","363214","0.0-14.0-0.27","610f2eabb45be8717fc155e0","650c16f0f2faf8d7a0d14c09","651c1b091818b94a21e1f1a4","null","null","<p style=""font-size: 60px; font-family: BACS"">dGLAlNUZ</p>","","","","","","","","",""
"html-keyboard-response","279","364226","0.0-14.0-0.28","610f2eabb45be8717fc155e0","650c16f0f2faf8d7a0d14c09","651c1b091818b94a21e1f1a4","null","null","<p style=""font-size: 60px; font-family: BACS"">RYtkcCMdP</p>","","","","","","","","",""
"html-keyboard-response","280","365235","0.0-14.0-0.29","610f2eabb45be8717fc155e0","650c16f0f2faf8d7a0d14c09","651c1b091818b94a21e1f1a4","null","null","<p style=""font-size: 60px; font-family: BACS"">aONdNac</p>","","","","","","","","",""
"html-keyboard-response","281","366244","0.0-14.0-0.30","610f2eabb45be8717fc155e0","650c16f0f2faf8d7a0d14c09","651c1b091818b94a21e1f1a4","null","null","<p style=""font-size: 60px; font-family: BACS"">hlbtbTRK</p>","","","","","","","","",""
"html-keyboard-response","282","367251","0.0-14.0-0.31","610f2eabb45be8717fc155e0","650c16f0f2faf8d7a0d14c09","651c1b091818b94a21e1f1a4","null","null","<p style=""font-size: 60px; font-family: BACS"">YZJmkdrO</p>","","","","","","","","",""
"html-keyboard-response","283","368259","0.0-14.0-0.32","610f2eabb45be8717fc155e0","650c16f0f2faf8d7a0d14c09","651c1b091818b94a21e1f1a4","null","null","<p style=""font-size: 60px; font-family: BACS"">TdTDPTl</p>","","","","","","","","",""
"html-keyboard-response","284","369271","0.0-14.0-0.33","610f2eabb45be8717fc155e0","650c16f0f2faf8d7a0d14c09","651c1b091818b94a21e1f1a4","null","null","<p style=""font-size: 60px; font-family: BACS"">AlTdKOYC</p>","","","","","","","","",""
"html-keyboard-response","285","370278","0.0-14.0-0.34","610f2eabb45be8717fc155e0","650c16f0f2faf8d7a0d14c09","651c1b091818b94a21e1f1a4","null","null","<p style=""font-size: 60px; font-family: BACS"">YZJmkGua</p>","","","","","","","","",""
"html-keyboard-response","286","371284","0.0-14.0-0.35","610f2eabb45be8717fc155e0","650c16f0f2faf8d7a0d14c09","651c1b091818b94a21e1f1a4","null","null","<p style=""font-size: 60px; font-family: BACS"">damYbNUZ</p>","","","","","","","","",""
"html-keyboard-response","287","372297","0.0-14.0-0.36","610f2eabb45be8717fc155e0","650c16f0f2faf8d7a0d14c09","651c1b091818b94a21e1f1a4","null","null","<p style=""font-size: 60px; font-family: BACS"">KTDTBPTl</p>","","","","","","","","",""
"html-keyboard-response","288","373299","0.0-14.0-0.37","610f2eabb45be8717fc155e0","650c16f0f2faf8d7a0d14c09","651c1b091818b94a21e1f1a4","null","null","<p style=""font-size: 60px; font-family: BACS"">YcdOkdrO</p>","","","","","","","","",""
"html-keyboard-response","289","374315","0.0-14.0-0.38","610f2eabb45be8717fc155e0","650c16f0f2faf8d7a0d14c09","651c1b091818b94a21e1f1a4","null","null","<p style=""font-size: 60px; font-family: BACS"">aONdkGua</p>","","","","","","","","",""
"html-keyboard-response","290","375328","0.0-14.0-0.39","610f2eabb45be8717fc155e0","650c16f0f2faf8d7a0d14c09","651c1b091818b94a21e1f1a4","null","null","<p style=""font-size: 60px; font-family: BACS"">damYbYUYa</p>","","","","","","","","",""
"html-keyboard-response","291","376335","0.0-14.0-0.40","610f2eabb45be8717fc155e0","650c16f0f2faf8d7a0d14c09","651c1b091818b94a21e1f1a4","null","null","<p style=""font-size: 60px; font-family: BACS"">AlTdTRK</p>","","","","","","","","",""
"html-keyboard-response","292","377345","0.0-14.0-0.41","610f2eabb45be8717fc155e0","650c16f0f2faf8d7a0d14c09","651c1b091818b94a21e1f1a4","null","null","<p style=""font-size: 60px; font-family: BACS"">damYbkGua</p>","","","","","","","","",""
"html-keyboard-response","293","378353","0.0-14.0-0.42","610f2eabb45be8717fc155e0","650c16f0f2faf8d7a0d14c09","651c1b091818b94a21e1f1a4","null","null","<p style=""font-size: 60px; font-family: BACS"">ukYZkdrO</p>","","","","","","","","",""
"html-keyboard-response","294","379363","0.0-14.0-0.43","610f2eabb45be8717fc155e0","650c16f0f2faf8d7a0d14c09","651c1b091818b94a21e1f1a4","null","null","<p style=""font-size: 60px; font-family: BACS"">LAclAYUYa</p>","","","","","","","","",""
"html-keyboard-response","295","380374","0.0-14.0-0.44","610f2eabb45be8717fc155e0","650c16f0f2faf8d7a0d14c09","651c1b091818b94a21e1f1a4","null","null","<p style=""font-size: 60px; font-family: BACS"">kdEdYkMEC</p>","","","","","","","","",""
"html-keyboard-response","296","381382","0.0-14.0-0.45","610f2eabb45be8717fc155e0","650c16f0f2faf8d7a0d14c09","651c1b091818b94a21e1f1a4","null","null","<p style=""font-size: 60px; font-family: BACS"">hbmACMdP</p>","","","","","","","","",""
"html-keyboard-response","297","382386","0.0-14.0-0.46","610f2eabb45be8717fc155e0","650c16f0f2faf8d7a0d14c09","651c1b091818b94a21e1f1a4","null","null","<p style=""font-size: 60px; font-family: BACS"">ckdAmKOYC</p>","","","","","","","","",""
"html-keyboard-response","298","383388","0.0-14.0-0.47","610f2eabb45be8717fc155e0","650c16f0f2faf8d7a0d14c09","651c1b091818b94a21e1f1a4","null","null","<p style=""font-size: 60px; font-family: BACS"">ukYZNac</p>","","","","","","","","",""
"html-keyboard-response","299","384400","0.0-14.0-0.48","610f2eabb45be8717fc155e0","650c16f0f2faf8d7a0d14c09","651c1b091818b94a21e1f1a4","null","null","<p style=""font-size: 60px; font-family: BACS"">AlTdkMEC</p>","","","","","","","","",""
"html-keyboard-response","300","385410","0.0-14.0-0.49","610f2eabb45be8717fc155e0","650c16f0f2faf8d7a0d14c09","651c1b091818b94a21e1f1a4","null","null","<p style=""font-size: 60px; font-family: BACS"">RYtkcKOYC</p>","","","","","","","","",""
"html-keyboard-response","301","386425","0.0-14.0-0.50","610f2eabb45be8717fc155e0","650c16f0f2faf8d7a0d14c09","651c1b091818b94a21e1f1a4","null","null","<p style=""font-size: 60px; font-family: BACS"">hlbtbCMdP</p>","","","","","","","","",""
"html-keyboard-response","302","387438","0.0-14.0-0.51","610f2eabb45be8717fc155e0","650c16f0f2faf8d7a0d14c09","651c1b091818b94a21e1f1a4","null","null","<p style=""font-size: 60px; font-family: BACS"">kdEdYPTl</p>","","","","","","","","",""
"html-keyboard-response","303","388448","0.0-14.0-0.52","610f2eabb45be8717fc155e0","650c16f0f2faf8d7a0d14c09","651c1b091818b94a21e1f1a4","null","null","<p style=""font-size: 60px; font-family: BACS"">bGuONac</p>","","","","","","","","",""
"html-keyboard-response","304","389460","0.0-14.0-0.53","610f2eabb45be8717fc155e0","650c16f0f2faf8d7a0d14c09","651c1b091818b94a21e1f1a4","null","null","<p style=""font-size: 60px; font-family: BACS"">ukYZkGua</p>","","","","","","","","",""
"html-keyboard-response","305","390476","0.0-14.0-0.54","610f2eabb45be8717fc155e0","650c16f0f2faf8d7a0d14c09","651c1b091818b94a21e1f1a4","null","null","<p style=""font-size: 60px; font-family: BACS"">TdTDKOYC</p>","","","","","","","","",""
"html-keyboard-response","306","391489","0.0-14.0-0.55","610f2eabb45be8717fc155e0","650c16f0f2faf8d7a0d14c09","651c1b091818b94a21e1f1a4","null","null","<p style=""font-size: 60px; font-family: BACS"">RYtkcTRK</p>","","","","","","","","",""
"html-keyboard-response","307","392499","0.0-14.0-0.56","610f2eabb45be8717fc155e0","650c16f0f2faf8d7a0d14c09","651c1b091818b94a21e1f1a4","null","null","<p style=""font-size: 60px; font-family: BACS"">OmtlDkMEC</p>","","","","","","","","",""
"html-keyboard-response","308","393515","0.0-14.0-0.57","610f2eabb45be8717fc155e0","650c16f0f2faf8d7a0d14c09","651c1b091818b94a21e1f1a4","null","null","<p style=""font-size: 60px; font-family: BACS"">KTDTBKOYC</p>","","","","","","","","",""
"html-keyboard-response","309","394531","0.0-14.0-0.58","610f2eabb45be8717fc155e0","650c16f0f2faf8d7a0d14c09","651c1b091818b94a21e1f1a4","null","null","<p style=""font-size: 60px; font-family: BACS"">kdEdYTRK</p>","","","","","","","","",""
"html-keyboard-response","310","395546","0.0-14.0-0.59","610f2eabb45be8717fc155e0","650c16f0f2faf8d7a0d14c09","651c1b091818b94a21e1f1a4","null","null","<p style=""font-size: 60px; font-family: BACS"">OmtlDPTl</p>","","","","","","","","",""
"html-keyboard-response","311","396559","0.0-14.0-0.60","610f2eabb45be8717fc155e0","650c16f0f2faf8d7a0d14c09","651c1b091818b94a21e1f1a4","null","null","<p style=""font-size: 60px; font-family: BACS"">kdEdYKOYC</p>","","","","","","","","",""
"html-keyboard-response","312","397573","0.0-14.0-0.61","610f2eabb45be8717fc155e0","650c16f0f2faf8d7a0d14c09","651c1b091818b94a21e1f1a4","null","null","<p style=""font-size: 60px; font-family: BACS"">dGLAlkdrO</p>","","","","","","","","",""
"html-keyboard-response","313","398585","0.0-14.0-0.62","610f2eabb45be8717fc155e0","650c16f0f2faf8d7a0d14c09","651c1b091818b94a21e1f1a4","null","null","<p style=""font-size: 60px; font-family: BACS"">TdTDCMdP</p>","","","","","","","","",""
"html-keyboard-response","314","399597","0.0-14.0-0.63","610f2eabb45be8717fc155e0","650c16f0f2faf8d7a0d14c09","651c1b091818b94a21e1f1a4","null","null","<p style=""font-size: 60px; font-family: BACS"">ckdAmkMEC</p>","","","","","","","","",""
"html-keyboard-response","315","400610","0.0-14.0-0.64","610f2eabb45be8717fc155e0","650c16f0f2faf8d7a0d14c09","651c1b091818b94a21e1f1a4","null","null","<p style=""font-size: 60px; font-family: BACS"">hbmATRK</p>","","","","","","","","",""
"html-keyboard-response","316","401612","0.0-14.0-0.65","610f2eabb45be8717fc155e0","650c16f0f2faf8d7a0d14c09","651c1b091818b94a21e1f1a4","null","null","<p style=""font-size: 60px; font-family: BACS"">LuNZkGua</p>","","","","","","","","",""
"html-keyboard-response","317","402625","0.0-14.0-0.66","610f2eabb45be8717fc155e0","650c16f0f2faf8d7a0d14c09","651c1b091818b94a21e1f1a4","null","null","<p style=""font-size: 60px; font-family: BACS"">YcdONac</p>","","","","","","","","",""
"html-keyboard-response","318","403638","0.0-14.0-0.67","610f2eabb45be8717fc155e0","650c16f0f2faf8d7a0d14c09","651c1b091818b94a21e1f1a4","null","null","<p style=""font-size: 60px; font-family: BACS"">KTDTBkMEC</p>","","","","","","","","",""
"html-keyboard-response","319","404652","0.0-14.0-0.68","610f2eabb45be8717fc155e0","650c16f0f2faf8d7a0d14c09","651c1b091818b94a21e1f1a4","null","null","<p style=""font-size: 60px; font-family: BACS"">YcdONUZ</p>","","","","","","","","",""
"html-keyboard-response","320","405664","0.0-14.0-0.69","610f2eabb45be8717fc155e0","650c16f0f2faf8d7a0d14c09","651c1b091818b94a21e1f1a4","null","null","<p style=""font-size: 60px; font-family: BACS"">dGLAlNac</p>","","","","","","","","",""
"html-keyboard-response","321","406675","0.0-14.0-0.70","610f2eabb45be8717fc155e0","650c16f0f2faf8d7a0d14c09","651c1b091818b94a21e1f1a4","null","null","<p style=""font-size: 60px; font-family: BACS"">rkYLkdrO</p>","","","","","","","","",""
"html-keyboard-response","322","407686","0.0-14.0-0.71","610f2eabb45be8717fc155e0","650c16f0f2faf8d7a0d14c09","651c1b091818b94a21e1f1a4","null","null","<p style=""font-size: 60px; font-family: BACS"">ckdAmPTl</p>","","","","","","","","",""
"html-keyboard-response","323","408700","0.0-14.0-0.72","610f2eabb45be8717fc155e0","650c16f0f2faf8d7a0d14c09","651c1b091818b94a21e1f1a4","null","null","<p style=""font-size: 60px; font-family: BACS"">aONdNUZ</p>","","","","","","","","",""
"html-keyboard-response","324","409715","0.0-14.0-0.73","610f2eabb45be8717fc155e0","650c16f0f2faf8d7a0d14c09","651c1b091818b94a21e1f1a4","null","null","<p style=""font-size: 60px; font-family: BACS"">LuNZYUYa</p>","","","","","","","","",""
"html-keyboard-response","325","410725","0.0-14.0-0.74","610f2eabb45be8717fc155e0","650c16f0f2faf8d7a0d14c09","651c1b091818b94a21e1f1a4","null","null","<p style=""font-size: 60px; font-family: BACS"">dGLAlkGua</p>","","","","","","","","",""
"html-keyboard-response","326","411741","0.0-14.0-0.75","610f2eabb45be8717fc155e0","650c16f0f2faf8d7a0d14c09","651c1b091818b94a21e1f1a4","null","null","<p style=""font-size: 60px; font-family: BACS"">rkYLYUYa</p>","","","","","","","","",""
"html-keyboard-response","327","412754","0.0-14.0-0.76","610f2eabb45be8717fc155e0","650c16f0f2faf8d7a0d14c09","651c1b091818b94a21e1f1a4","null","null","<p style=""font-size: 60px; font-family: BACS"">ECtbDKOYC</p>","","","","","","","","",""
"html-keyboard-response","328","413767","0.0-14.0-0.77","610f2eabb45be8717fc155e0","650c16f0f2faf8d7a0d14c09","651c1b091818b94a21e1f1a4","null","null","<p style=""font-size: 60px; font-family: BACS"">LAclANUZ</p>","","","","","","","","",""
"html-keyboard-response","329","414781","0.0-14.0-0.78","610f2eabb45be8717fc155e0","650c16f0f2faf8d7a0d14c09","651c1b091818b94a21e1f1a4","null","null","<p style=""font-size: 60px; font-family: BACS"">rkYLkGua</p>","","","","","","","","",""
"html-keyboard-response","330","415795","0.0-14.0-0.79","610f2eabb45be8717fc155e0","650c16f0f2faf8d7a0d14c09","651c1b091818b94a21e1f1a4","null","null","<p style=""font-size: 60px; font-family: BACS"">ECtbDPTl</p>","","","","","","","","",""
"html-keyboard-response","331","440955","0.0-15.0","610f2eabb45be8717fc155e0","650c16f0f2faf8d7a0d14c09","651c1b091818b94a21e1f1a4","25159"," ","<p>Great, you've seen the fourth block of words. You may now take a short break.</p>
      <p>Press the spacebar when you're ready to continue.</p>","","","","","","","","",""
"html-keyboard-response","332","441966","0.0-16.0-0.0","610f2eabb45be8717fc155e0","650c16f0f2faf8d7a0d14c09","651c1b091818b94a21e1f1a4","null","null","<p style=""font-size: 60px; font-family: BACS"">rkYLkGua</p>","","","","","","","","",""
"html-keyboard-response","333","442971","0.0-16.0-0.1","610f2eabb45be8717fc155e0","650c16f0f2faf8d7a0d14c09","651c1b091818b94a21e1f1a4","null","null","<p style=""font-size: 60px; font-family: BACS"">rkYLkGua</p>","","","","","","","","",""
"html-keyboard-response","334","443976","0.0-16.0-0.2","610f2eabb45be8717fc155e0","650c16f0f2faf8d7a0d14c09","651c1b091818b94a21e1f1a4","null","null","<p style=""font-size: 60px; font-family: BACS"">rkYLkGua</p>","","","","","","","","",""
"html-keyboard-response","335","444984","0.0-16.0-0.3","610f2eabb45be8717fc155e0","650c16f0f2faf8d7a0d14c09","651c1b091818b94a21e1f1a4","null","null","<p style=""font-size: 60px; font-family: BACS"">rkYLkGua</p>","","","","","","","","",""
"html-keyboard-response","336","446000","0.0-16.0-0.4","610f2eabb45be8717fc155e0","650c16f0f2faf8d7a0d14c09","651c1b091818b94a21e1f1a4","null","null","<p style=""font-size: 60px; font-family: BACS"">rkYLkGua</p>","","","","","","","","",""
"html-keyboard-response","337","447006","0.0-16.0-0.5","610f2eabb45be8717fc155e0","650c16f0f2faf8d7a0d14c09","651c1b091818b94a21e1f1a4","null","null","<p style=""font-size: 60px; font-family: BACS"">rkYLkGua</p>","","","","","","","","",""
"html-keyboard-response","338","448008","0.0-16.0-0.6","610f2eabb45be8717fc155e0","650c16f0f2faf8d7a0d14c09","651c1b091818b94a21e1f1a4","null","null","<p style=""font-size: 60px; font-family: BACS"">rkYLkGua</p>","","","","","","","","",""
"html-keyboard-response","339","449009","0.0-16.0-0.7","610f2eabb45be8717fc155e0","650c16f0f2faf8d7a0d14c09","651c1b091818b94a21e1f1a4","null","null","<p style=""font-size: 60px; font-family: BACS"">rkYLkGua</p>","","","","","","","","",""
"html-keyboard-response","340","450011","0.0-16.0-0.8","610f2eabb45be8717fc155e0","650c16f0f2faf8d7a0d14c09","651c1b091818b94a21e1f1a4","null","null","<p style=""font-size: 60px; font-family: BACS"">rkYLkGua</p>","","","","","","","","",""
"html-keyboard-response","341","451027","0.0-16.0-0.9","610f2eabb45be8717fc155e0","650c16f0f2faf8d7a0d14c09","651c1b091818b94a21e1f1a4","null","null","<p style=""font-size: 60px; font-family: BACS"">rkYLkGua</p>","","","","","","","","",""
"html-keyboard-response","342","452034","0.0-16.0-0.10","610f2eabb45be8717fc155e0","650c16f0f2faf8d7a0d14c09","651c1b091818b94a21e1f1a4","null","null","<p style=""font-size: 60px; font-family: BACS"">rkYLkGua</p>","","","","","","","","",""
"html-keyboard-response","343","453044","0.0-16.0-0.11","610f2eabb45be8717fc155e0","650c16f0f2faf8d7a0d14c09","651c1b091818b94a21e1f1a4","null","null","<p style=""font-size: 60px; font-family: BACS"">rkYLkGua</p>","","","","","","","","",""
"html-keyboard-response","344","454053","0.0-16.0-0.12","610f2eabb45be8717fc155e0","650c16f0f2faf8d7a0d14c09","651c1b091818b94a21e1f1a4","null","null","<p style=""font-size: 60px; font-family: BACS"">rkYLkGua</p>","","","","","","","","",""
"html-keyboard-response","345","455065","0.0-16.0-0.13","610f2eabb45be8717fc155e0","650c16f0f2faf8d7a0d14c09","651c1b091818b94a21e1f1a4","null","null","<p style=""font-size: 60px; font-family: BACS"">rkYLkGua</p>","","","","","","","","",""
"html-keyboard-response","346","456070","0.0-16.0-0.14","610f2eabb45be8717fc155e0","650c16f0f2faf8d7a0d14c09","651c1b091818b94a21e1f1a4","null","null","<p style=""font-size: 60px; font-family: BACS"">rkYLkGua</p>","","","","","","","","",""
"html-keyboard-response","347","457086","0.0-16.0-0.15","610f2eabb45be8717fc155e0","650c16f0f2faf8d7a0d14c09","651c1b091818b94a21e1f1a4","null","null","<p style=""font-size: 60px; font-family: BACS"">rkYLkGua</p>","","","","","","","","",""
"html-keyboard-response","348","458092","0.0-16.0-0.16","610f2eabb45be8717fc155e0","650c16f0f2faf8d7a0d14c09","651c1b091818b94a21e1f1a4","null","null","<p style=""font-size: 60px; font-family: BACS"">rkYLkGua</p>","","","","","","","","",""
"html-keyboard-response","349","459099","0.0-16.0-0.17","610f2eabb45be8717fc155e0","650c16f0f2faf8d7a0d14c09","651c1b091818b94a21e1f1a4","null","null","<p style=""font-size: 60px; font-family: BACS"">rkYLkGua</p>","","","","","","","","",""
"html-keyboard-response","350","460109","0.0-16.0-0.18","610f2eabb45be8717fc155e0","650c16f0f2faf8d7a0d14c09","651c1b091818b94a21e1f1a4","null","null","<p style=""font-size: 60px; font-family: BACS"">rkYLkGua</p>","","","","","","","","",""
"html-keyboard-response","351","461120","0.0-16.0-0.19","610f2eabb45be8717fc155e0","650c16f0f2faf8d7a0d14c09","651c1b091818b94a21e1f1a4","null","null","<p style=""font-size: 60px; font-family: BACS"">rkYLkGua</p>","","","","","","","","",""
"html-keyboard-response","352","462125","0.0-16.0-0.20","610f2eabb45be8717fc155e0","650c16f0f2faf8d7a0d14c09","651c1b091818b94a21e1f1a4","null","null","<p style=""font-size: 60px; font-family: BACS"">rkYLkGua</p>","","","","","","","","",""
"html-keyboard-response","353","463133","0.0-16.0-0.21","610f2eabb45be8717fc155e0","650c16f0f2faf8d7a0d14c09","651c1b091818b94a21e1f1a4","null","null","<p style=""font-size: 60px; font-family: BACS"">rkYLkGua</p>","","","","","","","","",""
"html-keyboard-response","354","464141","0.0-16.0-0.22","610f2eabb45be8717fc155e0","650c16f0f2faf8d7a0d14c09","651c1b091818b94a21e1f1a4","null","null","<p style=""font-size: 60px; font-family: BACS"">rkYLkGua</p>","","","","","","","","",""
"html-keyboard-response","355","465150","0.0-16.0-0.23","610f2eabb45be8717fc155e0","650c16f0f2faf8d7a0d14c09","651c1b091818b94a21e1f1a4","null","null","<p style=""font-size: 60px; font-family: BACS"">rkYLkGua</p>","","","","","","","","",""
"html-keyboard-response","356","466164","0.0-16.0-0.24","610f2eabb45be8717fc155e0","650c16f0f2faf8d7a0d14c09","651c1b091818b94a21e1f1a4","null","null","<p style=""font-size: 60px; font-family: BACS"">rkYLkGua</p>","","","","","","","","",""
"html-keyboard-response","357","467174","0.0-16.0-0.25","610f2eabb45be8717fc155e0","650c16f0f2faf8d7a0d14c09","651c1b091818b94a21e1f1a4","null","null","<p style=""font-size: 60px; font-family: BACS"">rkYLkGua</p>","","","","","","","","",""
"html-keyboard-response","358","468182","0.0-16.0-0.26","610f2eabb45be8717fc155e0","650c16f0f2faf8d7a0d14c09","651c1b091818b94a21e1f1a4","null","null","<p style=""font-size: 60px; font-family: BACS"">rkYLkGua</p>","","","","","","","","",""
"html-keyboard-response","359","469183","0.0-16.0-0.27","610f2eabb45be8717fc155e0","650c16f0f2faf8d7a0d14c09","651c1b091818b94a21e1f1a4","null","null","<p style=""font-size: 60px; font-family: BACS"">rkYLkGua</p>","","","","","","","","",""
"html-keyboard-response","360","470192","0.0-16.0-0.28","610f2eabb45be8717fc155e0","650c16f0f2faf8d7a0d14c09","651c1b091818b94a21e1f1a4","null","null","<p style=""font-size: 60px; font-family: BACS"">rkYLkGua</p>","","","","","","","","",""
"html-keyboard-response","361","471195","0.0-16.0-0.29","610f2eabb45be8717fc155e0","650c16f0f2faf8d7a0d14c09","651c1b091818b94a21e1f1a4","null","null","<p style=""font-size: 60px; font-family: BACS"">rkYLkGua</p>","","","","","","","","",""
"html-keyboard-response","362","472202","0.0-16.0-0.30","610f2eabb45be8717fc155e0","650c16f0f2faf8d7a0d14c09","651c1b091818b94a21e1f1a4","null","null","<p style=""font-size: 60px; font-family: BACS"">rkYLkGua</p>","","","","","","","","",""
"html-keyboard-response","363","473210","0.0-16.0-0.31","610f2eabb45be8717fc155e0","650c16f0f2faf8d7a0d14c09","651c1b091818b94a21e1f1a4","null","null","<p style=""font-size: 60px; font-family: BACS"">rkYLkGua</p>","","","","","","","","",""
"html-keyboard-response","364","474217","0.0-16.0-0.32","610f2eabb45be8717fc155e0","650c16f0f2faf8d7a0d14c09","651c1b091818b94a21e1f1a4","null","null","<p style=""font-size: 60px; font-family: BACS"">rkYLkGua</p>","","","","","","","","",""
"html-keyboard-response","365","475229","0.0-16.0-0.33","610f2eabb45be8717fc155e0","650c16f0f2faf8d7a0d14c09","651c1b091818b94a21e1f1a4","null","null","<p style=""font-size: 60px; font-family: BACS"">rkYLkGua</p>","","","","","","","","",""
"html-keyboard-response","366","476237","0.0-16.0-0.34","610f2eabb45be8717fc155e0","650c16f0f2faf8d7a0d14c09","651c1b091818b94a21e1f1a4","null","null","<p style=""font-size: 60px; font-family: BACS"">rkYLkGua</p>","","","","","","","","",""
"html-keyboard-response","367","477245","0.0-16.0-0.35","610f2eabb45be8717fc155e0","650c16f0f2faf8d7a0d14c09","651c1b091818b94a21e1f1a4","null","null","<p style=""font-size: 60px; font-family: BACS"">rkYLkGua</p>","","","","","","","","",""
"html-keyboard-response","368","478251","0.0-16.0-0.36","610f2eabb45be8717fc155e0","650c16f0f2faf8d7a0d14c09","651c1b091818b94a21e1f1a4","null","null","<p style=""font-size: 60px; font-family: BACS"">rkYLkGua</p>","","","","","","","","",""
"html-keyboard-response","369","479259","0.0-16.0-0.37","610f2eabb45be8717fc155e0","650c16f0f2faf8d7a0d14c09","651c1b091818b94a21e1f1a4","null","null","<p style=""font-size: 60px; font-family: BACS"">rkYLkGua</p>","","","","","","","","",""
"html-keyboard-response","370","480273","0.0-16.0-0.38","610f2eabb45be8717fc155e0","650c16f0f2faf8d7a0d14c09","651c1b091818b94a21e1f1a4","null","null","<p style=""font-size: 60px; font-family: BACS"">rkYLkGua</p>","","","","","","","","",""
"html-keyboard-response","371","481287","0.0-16.0-0.39","610f2eabb45be8717fc155e0","650c16f0f2faf8d7a0d14c09","651c1b091818b94a21e1f1a4","null","null","<p style=""font-size: 60px; font-family: BACS"">rkYLkGua</p>","","","","","","","","",""
"html-keyboard-response","372","482296","0.0-16.0-0.40","610f2eabb45be8717fc155e0","650c16f0f2faf8d7a0d14c09","651c1b091818b94a21e1f1a4","null","null","<p style=""font-size: 60px; font-family: BACS"">rkYLkGua</p>","","","","","","","","",""
"html-keyboard-response","373","483306","0.0-16.0-0.41","610f2eabb45be8717fc155e0","650c16f0f2faf8d7a0d14c09","651c1b091818b94a21e1f1a4","null","null","<p style=""font-size: 60px; font-family: BACS"">rkYLkGua</p>","","","","","","","","",""
"html-keyboard-response","374","484312","0.0-16.0-0.42","610f2eabb45be8717fc155e0","650c16f0f2faf8d7a0d14c09","651c1b091818b94a21e1f1a4","null","null","<p style=""font-size: 60px; font-family: BACS"">rkYLkGua</p>","","","","","","","","",""
"html-keyboard-response","375","485326","0.0-16.0-0.43","610f2eabb45be8717fc155e0","650c16f0f2faf8d7a0d14c09","651c1b091818b94a21e1f1a4","null","null","<p style=""font-size: 60px; font-family: BACS"">rkYLkGua</p>","","","","","","","","",""
"html-keyboard-response","376","486331","0.0-16.0-0.44","610f2eabb45be8717fc155e0","650c16f0f2faf8d7a0d14c09","651c1b091818b94a21e1f1a4","null","null","<p style=""font-size: 60px; font-family: BACS"">rkYLkGua</p>","","","","","","","","",""
"html-keyboard-response","377","487340","0.0-16.0-0.45","610f2eabb45be8717fc155e0","650c16f0f2faf8d7a0d14c09","651c1b091818b94a21e1f1a4","null","null","<p style=""font-size: 60px; font-family: BACS"">rkYLkGua</p>","","","","","","","","",""
"html-keyboard-response","378","488349","0.0-16.0-0.46","610f2eabb45be8717fc155e0","650c16f0f2faf8d7a0d14c09","651c1b091818b94a21e1f1a4","null","null","<p style=""font-size: 60px; font-family: BACS"">rkYLkGua</p>","","","","","","","","",""
"html-keyboard-response","379","489358","0.0-16.0-0.47","610f2eabb45be8717fc155e0","650c16f0f2faf8d7a0d14c09","651c1b091818b94a21e1f1a4","null","null","<p style=""font-size: 60px; font-family: BACS"">rkYLkGua</p>","","","","","","","","",""
"html-keyboard-response","380","490366","0.0-16.0-0.48","610f2eabb45be8717fc155e0","650c16f0f2faf8d7a0d14c09","651c1b091818b94a21e1f1a4","null","null","<p style=""font-size: 60px; font-family: BACS"">rkYLkGua</p>","","","","","","","","",""
"html-keyboard-response","381","491379","0.0-16.0-0.49","610f2eabb45be8717fc155e0","650c16f0f2faf8d7a0d14c09","651c1b091818b94a21e1f1a4","null","null","<p style=""font-size: 60px; font-family: BACS"">rkYLkGua</p>","","","","","","","","",""
"html-keyboard-response","382","492395","0.0-16.0-0.50","610f2eabb45be8717fc155e0","650c16f0f2faf8d7a0d14c09","651c1b091818b94a21e1f1a4","null","null","<p style=""font-size: 60px; font-family: BACS"">rkYLkGua</p>","","","","","","","","",""
"html-keyboard-response","383","493399","0.0-16.0-0.51","610f2eabb45be8717fc155e0","650c16f0f2faf8d7a0d14c09","651c1b091818b94a21e1f1a4","null","null","<p style=""font-size: 60px; font-family: BACS"">rkYLkGua</p>","","","","","","","","",""
"html-keyboard-response","384","494412","0.0-16.0-0.52","610f2eabb45be8717fc155e0","650c16f0f2faf8d7a0d14c09","651c1b091818b94a21e1f1a4","null","null","<p style=""font-size: 60px; font-family: BACS"">rkYLkGua</p>","","","","","","","","",""
"html-keyboard-response","385","495418","0.0-16.0-0.53","610f2eabb45be8717fc155e0","650c16f0f2faf8d7a0d14c09","651c1b091818b94a21e1f1a4","null","null","<p style=""font-size: 60px; font-family: BACS"">rkYLkGua</p>","","","","","","","","",""
"html-keyboard-response","386","496429","0.0-16.0-0.54","610f2eabb45be8717fc155e0","650c16f0f2faf8d7a0d14c09","651c1b091818b94a21e1f1a4","null","null","<p style=""font-size: 60px; font-family: BACS"">rkYLkGua</p>","","","","","","","","",""
"html-keyboard-response","387","497436","0.0-16.0-0.55","610f2eabb45be8717fc155e0","650c16f0f2faf8d7a0d14c09","651c1b091818b94a21e1f1a4","null","null","<p style=""font-size: 60px; font-family: BACS"">rkYLkGua</p>","","","","","","","","",""
"html-keyboard-response","388","498446","0.0-16.0-0.56","610f2eabb45be8717fc155e0","650c16f0f2faf8d7a0d14c09","651c1b091818b94a21e1f1a4","null","null","<p style=""font-size: 60px; font-family: BACS"">rkYLkGua</p>","","","","","","","","",""
"html-keyboard-response","389","499455","0.0-16.0-0.57","610f2eabb45be8717fc155e0","650c16f0f2faf8d7a0d14c09","651c1b091818b94a21e1f1a4","null","null","<p style=""font-size: 60px; font-family: BACS"">rkYLkGua</p>","","","","","","","","",""
"html-keyboard-response","390","500465","0.0-16.0-0.58","610f2eabb45be8717fc155e0","650c16f0f2faf8d7a0d14c09","651c1b091818b94a21e1f1a4","null","null","<p style=""font-size: 60px; font-family: BACS"">rkYLkGua</p>","","","","","","","","",""
"html-keyboard-response","391","501477","0.0-16.0-0.59","610f2eabb45be8717fc155e0","650c16f0f2faf8d7a0d14c09","651c1b091818b94a21e1f1a4","null","null","<p style=""font-size: 60px; font-family: BACS"">rkYLkGua</p>","","","","","","","","",""
"html-keyboard-response","392","502485","0.0-16.0-0.60","610f2eabb45be8717fc155e0","650c16f0f2faf8d7a0d14c09","651c1b091818b94a21e1f1a4","null","null","<p style=""font-size: 60px; font-family: BACS"">rkYLkGua</p>","","","","","","","","",""
"html-keyboard-response","393","503499","0.0-16.0-0.61","610f2eabb45be8717fc155e0","650c16f0f2faf8d7a0d14c09","651c1b091818b94a21e1f1a4","null","null","<p style=""font-size: 60px; font-family: BACS"">rkYLkGua</p>","","","","","","","","",""
"html-keyboard-response","394","504507","0.0-16.0-0.62","610f2eabb45be8717fc155e0","650c16f0f2faf8d7a0d14c09","651c1b091818b94a21e1f1a4","null","null","<p style=""font-size: 60px; font-family: BACS"">rkYLkGua</p>","","","","","","","","",""
"html-keyboard-response","395","505518","0.0-16.0-0.63","610f2eabb45be8717fc155e0","650c16f0f2faf8d7a0d14c09","651c1b091818b94a21e1f1a4","null","null","<p style=""font-size: 60px; font-family: BACS"">rkYLkGua</p>","","","","","","","","",""
"html-keyboard-response","396","506533","0.0-16.0-0.64","610f2eabb45be8717fc155e0","650c16f0f2faf8d7a0d14c09","651c1b091818b94a21e1f1a4","null","null","<p style=""font-size: 60px; font-family: BACS"">rkYLkGua</p>","","","","","","","","",""
"html-keyboard-response","397","507544","0.0-16.0-0.65","610f2eabb45be8717fc155e0","650c16f0f2faf8d7a0d14c09","651c1b091818b94a21e1f1a4","null","null","<p style=""font-size: 60px; font-family: BACS"">rkYLkGua</p>","","","","","","","","",""
"html-keyboard-response","398","508550","0.0-16.0-0.66","610f2eabb45be8717fc155e0","650c16f0f2faf8d7a0d14c09","651c1b091818b94a21e1f1a4","null","null","<p style=""font-size: 60px; font-family: BACS"">rkYLkGua</p>","","","","","","","","",""
"html-keyboard-response","399","509558","0.0-16.0-0.67","610f2eabb45be8717fc155e0","650c16f0f2faf8d7a0d14c09","651c1b091818b94a21e1f1a4","null","null","<p style=""font-size: 60px; font-family: BACS"">rkYLkGua</p>","","","","","","","","",""
