"trial_type","trial_index","time_elapsed","internal_node_id","subject_id","study_id","session_id","rt","response","stimulus","success","item","task","correct_response","testing_condition","correct","target","confound","name"
"pavlovia","0","802","0.0-0.0","5d9a125f1714540016a40a27","650c16f0f2faf8d7a0d14c09","651c1d2478491dadcb55d0d2","","","","","","","","","","","",""
"survey-html-form","1","15890","0.0-1.0","5d9a125f1714540016a40a27","650c16f0f2faf8d7a0d14c09","651c1d2478491dadcb55d0d2","15086","{""ID"":""5d9a125f1714540016a40a27""}","","","","","","","","","",""
"html-keyboard-response","2","23325","0.0-2.0","5d9a125f1714540016a40a27","650c16f0f2faf8d7a0d14c09","651c1d2478491dadcb55d0d2","7432"," ","<p style=""font-size: 15px;"">Before beginning, we ask that you read the consent information and confirm your agreement to participate in the experiment.</p>
      <p style=""font-size: 15px;""> We ask that you remember that this is a research project and that your participation is entirely voluntary. You can stop your participation at any time, without needing to provide any explanation. The study we're asking you to participate in aims at examining how readers process written words. You will be engaged in a session of apprximately 20 minutes, followed by a brief questionnaire. You will have the opportunity to take a few breaks during the experiment. You will be paid £4 for your participation, corresponding to a rate of £8/hour. While this experiment looks at cognitive faculties, this experiment doesn't constitute clinical proof of eventual pathologies.</p>
      <p style=""font-size: 15px;"">All of the information collected thanks to yours and others' participation will be held in a secure password-protected server, and will not be shared with anyone not authorised to view it. Your personal information will be kept with an arbitrary participant ID. Thanks to this data anonymity process, any researcher analysing the data won't be able to track the information back to a specific participant. Therefore, this process will make identifying you impossibile, even when results from the study will be published in scientific reviews, presented at congresses, or at any other public forum. More generally, the collected data will be treated in accordance with the laws on privacy and conformity to the Legislative Degree n. 196 ""Code regarding the protection of personal data"" of the 30th of June 2003 and to the European Regulation 2016/670 (General Data Protection Regulation - GDPR). The Data Protection Officer is Avv. Valentina Carollo, who can be contacted at the following email addresses: <a href=""mailto:dpo@sissa.it"">dpo@sissa.it</a> or <a href=""mailto:rpd@sissa.it"">rpd@sissa.it</a> - PEC: <a href=""mailto:protocollo@pec.sissa.it"">protocollo@pec.sissa.it</a>.</p>
      <p style=""font-size: 15px;""> Before expressing your consent to participate, we would like to remind you again that in case you need explanations on any aspect of the experimental procedure, the researcher is at your disposition (<a href=""mailto:aliebelt@sissa.it"">aliebelt@sissa.it</a>, <a href=""mailto:davide.crepaldi@sissa.it"">davide.crepaldi@sissa.it</a>).</p>
      <p style=""font-size: 15px;"">If you would like to download the informed consent form, you can do so here: <a href=""BASL-Informed_Consent.pdf"" download>informed consent form</a>.</p>
      <p style=""font-size: 15px;"">We ask that you press the spacebar to proceed to the consent section.</p>","","","","","","","","",""
"survey-html-form","3","44384","0.0-3.0","5d9a125f1714540016a40a27","650c16f0f2faf8d7a0d14c09","651c1d2478491dadcb55d0d2","21053","{""consent1"":""YES"",""consent2"":""YES"",""consent3"":""YES"",""consent4"":""YES"",""consent5"":""YES"",""consent6"":""YES""}","","","","","","","","","",""
"fullscreen","4","50402","0.0-4.0","5d9a125f1714540016a40a27","650c16f0f2faf8d7a0d14c09","651c1d2478491dadcb55d0d2","","","","true","","","","","","","",""
"html-keyboard-response","5","75390","0.0-5.0","5d9a125f1714540016a40a27","650c16f0f2faf8d7a0d14c09","651c1d2478491dadcb55d0d2","24985"," ","<p>Welcome, and thank you very much for your time!</p>
      <p>In this experiment, you'll be a language expert who's been asked to take a look at words that Earth has received in its first communication with aliens. Your task, in this first part of the experiment, is to pay close attention to the words you'll be shown; later, world leaders will ask you questions on what you saw. The words will be shown to you quite quickly; it seems that the aliens were in a hurry :-)</p>
      <p>Press the spacebar to continue.<p>","","","","","","","","",""
"html-keyboard-response","6","75443","0.0-6.0","5d9a125f1714540016a40a27","650c16f0f2faf8d7a0d14c09","651c1d2478491dadcb55d0d2","null","null","<p style=""font-size: 120px; font-family: BACS""> </p>","","","","","","","","",""
"html-keyboard-response","7","82741","0.0-7.0","5d9a125f1714540016a40a27","650c16f0f2faf8d7a0d14c09","651c1d2478491dadcb55d0d2","7297"," ","<p>Here is an example of the words you'll see:</p>
      <img src='esempio.png' height='400px'>
      <p>When you're ready to begin, press the spacebar.</p></div>","","","","","","","","",""
"html-keyboard-response","8","83757","0.0-8.0-0.0","5d9a125f1714540016a40a27","650c16f0f2faf8d7a0d14c09","651c1d2478491dadcb55d0d2","null","null","<p style=""font-size: 60px; font-family: BACS"">EPERdtAY</p>","","","","","","","","",""
"html-keyboard-response","9","84765","0.0-8.0-0.1","5d9a125f1714540016a40a27","650c16f0f2faf8d7a0d14c09","651c1d2478491dadcb55d0d2","null","null","<p style=""font-size: 60px; font-family: BACS"">TAdhMOMC</p>","","","","","","","","",""
"html-keyboard-response","10","85769","0.0-8.0-0.2","5d9a125f1714540016a40a27","650c16f0f2faf8d7a0d14c09","651c1d2478491dadcb55d0d2","null","null","<p style=""font-size: 60px; font-family: BACS"">EhRmYcM</p>","","","","","","","","",""
"html-keyboard-response","11","86785","0.0-8.0-0.3","5d9a125f1714540016a40a27","650c16f0f2faf8d7a0d14c09","651c1d2478491dadcb55d0d2","null","null","<p style=""font-size: 60px; font-family: BACS"">tmYhtAY</p>","","","","","","","","",""
"html-keyboard-response","12","87802","0.0-8.0-0.4","5d9a125f1714540016a40a27","650c16f0f2faf8d7a0d14c09","651c1d2478491dadcb55d0d2","null","null","<p style=""font-size: 60px; font-family: BACS"">lhCTCYcM</p>","","","","","","","","",""
"html-keyboard-response","13","88815","0.0-8.0-0.5","5d9a125f1714540016a40a27","650c16f0f2faf8d7a0d14c09","651c1d2478491dadcb55d0d2","null","null","<p style=""font-size: 60px; font-family: BACS"">vAarYmb</p>","","","","","","","","",""
"html-keyboard-response","14","89825","0.0-8.0-0.6","5d9a125f1714540016a40a27","650c16f0f2faf8d7a0d14c09","651c1d2478491dadcb55d0d2","null","null","<p style=""font-size: 60px; font-family: BACS"">EhRmDKP</p>","","","","","","","","",""
"html-keyboard-response","15","90843","0.0-8.0-0.7","5d9a125f1714540016a40a27","650c16f0f2faf8d7a0d14c09","651c1d2478491dadcb55d0d2","null","null","<p style=""font-size: 60px; font-family: BACS"">lhCTCOBT</p>","","","","","","","","",""
"html-keyboard-response","16","91875","0.0-8.0-0.8","5d9a125f1714540016a40a27","650c16f0f2faf8d7a0d14c09","651c1d2478491dadcb55d0d2","null","null","<p style=""font-size: 60px; font-family: BACS"">EPERdDKP</p>","","","","","","","","",""
"html-keyboard-response","17","92892","0.0-8.0-0.9","5d9a125f1714540016a40a27","650c16f0f2faf8d7a0d14c09","651c1d2478491dadcb55d0d2","null","null","<p style=""font-size: 60px; font-family: BACS"">rbYbumLJ</p>","","","","","","","","",""
"html-keyboard-response","18","93897","0.0-8.0-0.10","5d9a125f1714540016a40a27","650c16f0f2faf8d7a0d14c09","651c1d2478491dadcb55d0d2","null","null","<p style=""font-size: 60px; font-family: BACS"">lrZGJcL</p>","","","","","","","","",""
"html-keyboard-response","19","94914","0.0-8.0-0.11","5d9a125f1714540016a40a27","650c16f0f2faf8d7a0d14c09","651c1d2478491dadcb55d0d2","null","null","<p style=""font-size: 60px; font-family: BACS"">dCtMAOBT</p>","","","","","","","","",""
"html-keyboard-response","20","95929","0.0-8.0-0.12","5d9a125f1714540016a40a27","650c16f0f2faf8d7a0d14c09","651c1d2478491dadcb55d0d2","null","null","<p style=""font-size: 60px; font-family: BACS"">lYruaJcL</p>","","","","","","","","",""
"html-keyboard-response","21","96938","0.0-8.0-0.13","5d9a125f1714540016a40a27","650c16f0f2faf8d7a0d14c09","651c1d2478491dadcb55d0d2","null","null","<p style=""font-size: 60px; font-family: BACS"">TKDkOMC</p>","","","","","","","","",""
"html-keyboard-response","22","97953","0.0-8.0-0.14","5d9a125f1714540016a40a27","650c16f0f2faf8d7a0d14c09","651c1d2478491dadcb55d0d2","null","null","<p style=""font-size: 60px; font-family: BACS"">ukYZYmb</p>","","","","","","","","",""
"html-keyboard-response","23","98967","0.0-8.0-0.15","5d9a125f1714540016a40a27","650c16f0f2faf8d7a0d14c09","651c1d2478491dadcb55d0d2","null","null","<p style=""font-size: 60px; font-family: BACS"">NkUALkNc</p>","","","","","","","","",""
"html-keyboard-response","24","99996","0.0-8.0-0.16","5d9a125f1714540016a40a27","650c16f0f2faf8d7a0d14c09","651c1d2478491dadcb55d0d2","null","null","<p style=""font-size: 60px; font-family: BACS"">aYaNJcL</p>","","","","","","","","",""
"html-keyboard-response","25","101010","0.0-8.0-0.17","5d9a125f1714540016a40a27","650c16f0f2faf8d7a0d14c09","651c1d2478491dadcb55d0d2","null","null","<p style=""font-size: 60px; font-family: BACS"">UJmrOcZJ</p>","","","","","","","","",""
"html-keyboard-response","26","102027","0.0-8.0-0.18","5d9a125f1714540016a40a27","650c16f0f2faf8d7a0d14c09","651c1d2478491dadcb55d0d2","null","null","<p style=""font-size: 60px; font-family: BACS"">cDOEBOBT</p>","","","","","","","","",""
"html-keyboard-response","27","103043","0.0-8.0-0.19","5d9a125f1714540016a40a27","650c16f0f2faf8d7a0d14c09","651c1d2478491dadcb55d0d2","null","null","<p style=""font-size: 60px; font-family: BACS"">rbYbuYmb</p>","","","","","","","","",""
"html-keyboard-response","28","104047","0.0-8.0-0.20","5d9a125f1714540016a40a27","650c16f0f2faf8d7a0d14c09","651c1d2478491dadcb55d0d2","null","null","<p style=""font-size: 60px; font-family: BACS"">LAclAJcL</p>","","","","","","","","",""
"html-keyboard-response","29","105073","0.0-8.0-0.21","5d9a125f1714540016a40a27","650c16f0f2faf8d7a0d14c09","651c1d2478491dadcb55d0d2","null","null","<p style=""font-size: 60px; font-family: BACS"">TKDktAY</p>","","","","","","","","",""
"html-keyboard-response","30","106091","0.0-8.0-0.22","5d9a125f1714540016a40a27","650c16f0f2faf8d7a0d14c09","651c1d2478491dadcb55d0d2","null","null","<p style=""font-size: 60px; font-family: BACS"">lhCTCOMC</p>","","","","","","","","",""
"html-keyboard-response","31","107101","0.0-8.0-0.23","5d9a125f1714540016a40a27","650c16f0f2faf8d7a0d14c09","651c1d2478491dadcb55d0d2","null","null","<p style=""font-size: 60px; font-family: BACS"">cDOEBYcM</p>","","","","","","","","",""
"html-keyboard-response","32","108107","0.0-8.0-0.24","5d9a125f1714540016a40a27","650c16f0f2faf8d7a0d14c09","651c1d2478491dadcb55d0d2","null","null","<p style=""font-size: 60px; font-family: BACS"">LAclALkNc</p>","","","","","","","","",""
"html-keyboard-response","33","109120","0.0-8.0-0.25","5d9a125f1714540016a40a27","650c16f0f2faf8d7a0d14c09","651c1d2478491dadcb55d0d2","null","null","<p style=""font-size: 60px; font-family: BACS"">LckGNYmb</p>","","","","","","","","",""
"html-keyboard-response","34","110122","0.0-8.0-0.26","5d9a125f1714540016a40a27","650c16f0f2faf8d7a0d14c09","651c1d2478491dadcb55d0d2","null","null","<p style=""font-size: 60px; font-family: BACS"">lrZGOcZJ</p>","","","","","","","","",""
"html-keyboard-response","35","111156","0.0-8.0-0.27","5d9a125f1714540016a40a27","650c16f0f2faf8d7a0d14c09","651c1d2478491dadcb55d0d2","null","null","<p style=""font-size: 60px; font-family: BACS"">NkUAYmb</p>","","","","","","","","",""
"html-keyboard-response","36","112164","0.0-8.0-0.28","5d9a125f1714540016a40a27","650c16f0f2faf8d7a0d14c09","651c1d2478491dadcb55d0d2","null","null","<p style=""font-size: 60px; font-family: BACS"">cDOEBDKP</p>","","","","","","","","",""
"html-keyboard-response","37","113180","0.0-8.0-0.29","5d9a125f1714540016a40a27","650c16f0f2faf8d7a0d14c09","651c1d2478491dadcb55d0d2","null","null","<p style=""font-size: 60px; font-family: BACS"">lrZGmLJ</p>","","","","","","","","",""
"html-keyboard-response","38","114195","0.0-8.0-0.30","5d9a125f1714540016a40a27","650c16f0f2faf8d7a0d14c09","651c1d2478491dadcb55d0d2","null","null","<p style=""font-size: 60px; font-family: BACS"">LAclAYmb</p>","","","","","","","","",""
"html-keyboard-response","39","115214","0.0-8.0-0.31","5d9a125f1714540016a40a27","650c16f0f2faf8d7a0d14c09","651c1d2478491dadcb55d0d2","null","null","<p style=""font-size: 60px; font-family: BACS"">vAarLkNc</p>","","","","","","","","",""
"html-keyboard-response","40","116261","0.0-8.0-0.32","5d9a125f1714540016a40a27","650c16f0f2faf8d7a0d14c09","651c1d2478491dadcb55d0d2","null","null","<p style=""font-size: 60px; font-family: BACS"">lYruaOcZJ</p>","","","","","","","","",""
"html-keyboard-response","41","117267","0.0-8.0-0.33","5d9a125f1714540016a40a27","650c16f0f2faf8d7a0d14c09","651c1d2478491dadcb55d0d2","null","null","<p style=""font-size: 60px; font-family: BACS"">EPERdYcM</p>","","","","","","","","",""
"html-keyboard-response","42","118282","0.0-8.0-0.34","5d9a125f1714540016a40a27","650c16f0f2faf8d7a0d14c09","651c1d2478491dadcb55d0d2","null","null","<p style=""font-size: 60px; font-family: BACS"">lYruaLkNc</p>","","","","","","","","",""
"html-keyboard-response","43","119285","0.0-8.0-0.35","5d9a125f1714540016a40a27","650c16f0f2faf8d7a0d14c09","651c1d2478491dadcb55d0d2","null","null","<p style=""font-size: 60px; font-family: BACS"">tmYhOBT</p>","","","","","","","","",""
"html-keyboard-response","44","120292","0.0-8.0-0.36","5d9a125f1714540016a40a27","650c16f0f2faf8d7a0d14c09","651c1d2478491dadcb55d0d2","null","null","<p style=""font-size: 60px; font-family: BACS"">ukYZJcL</p>","","","","","","","","",""
"html-keyboard-response","45","121306","0.0-8.0-0.37","5d9a125f1714540016a40a27","650c16f0f2faf8d7a0d14c09","651c1d2478491dadcb55d0d2","null","null","<p style=""font-size: 60px; font-family: BACS"">LckGNLkNc</p>","","","","","","","","",""
"html-keyboard-response","46","122314","0.0-8.0-0.38","5d9a125f1714540016a40a27","650c16f0f2faf8d7a0d14c09","651c1d2478491dadcb55d0d2","null","null","<p style=""font-size: 60px; font-family: BACS"">rbYbuJcL</p>","","","","","","","","",""
"html-keyboard-response","47","123347","0.0-8.0-0.39","5d9a125f1714540016a40a27","650c16f0f2faf8d7a0d14c09","651c1d2478491dadcb55d0d2","null","null","<p style=""font-size: 60px; font-family: BACS"">aYaNOcZJ</p>","","","","","","","","",""
"html-keyboard-response","48","124362","0.0-8.0-0.40","5d9a125f1714540016a40a27","650c16f0f2faf8d7a0d14c09","651c1d2478491dadcb55d0d2","null","null","<p style=""font-size: 60px; font-family: BACS"">dCtMAYcM</p>","","","","","","","","",""
"html-keyboard-response","49","125379","0.0-8.0-0.41","5d9a125f1714540016a40a27","650c16f0f2faf8d7a0d14c09","651c1d2478491dadcb55d0d2","null","null","<p style=""font-size: 60px; font-family: BACS"">BOckPOBT</p>","","","","","","","","",""
"html-keyboard-response","50","126411","0.0-8.0-0.42","5d9a125f1714540016a40a27","650c16f0f2faf8d7a0d14c09","651c1d2478491dadcb55d0d2","null","null","<p style=""font-size: 60px; font-family: BACS"">NkUAmLJ</p>","","","","","","","","",""
"html-keyboard-response","51","127426","0.0-8.0-0.43","5d9a125f1714540016a40a27","650c16f0f2faf8d7a0d14c09","651c1d2478491dadcb55d0d2","null","null","<p style=""font-size: 60px; font-family: BACS"">TKDkOBT</p>","","","","","","","","",""
"html-keyboard-response","52","128444","0.0-8.0-0.44","5d9a125f1714540016a40a27","650c16f0f2faf8d7a0d14c09","651c1d2478491dadcb55d0d2","null","null","<p style=""font-size: 60px; font-family: BACS"">ukYZmLJ</p>","","","","","","","","",""
"html-keyboard-response","53","129462","0.0-8.0-0.45","5d9a125f1714540016a40a27","650c16f0f2faf8d7a0d14c09","651c1d2478491dadcb55d0d2","null","null","<p style=""font-size: 60px; font-family: BACS"">UJmrLkNc</p>","","","","","","","","",""
"html-keyboard-response","54","130477","0.0-8.0-0.46","5d9a125f1714540016a40a27","650c16f0f2faf8d7a0d14c09","651c1d2478491dadcb55d0d2","null","null","<p style=""font-size: 60px; font-family: BACS"">rbYbuOcZJ</p>","","","","","","","","",""
"html-keyboard-response","55","131479","0.0-8.0-0.47","5d9a125f1714540016a40a27","650c16f0f2faf8d7a0d14c09","651c1d2478491dadcb55d0d2","null","null","<p style=""font-size: 60px; font-family: BACS"">TKDkDKP</p>","","","","","","","","",""
"html-keyboard-response","56","132489","0.0-8.0-0.48","5d9a125f1714540016a40a27","650c16f0f2faf8d7a0d14c09","651c1d2478491dadcb55d0d2","null","null","<p style=""font-size: 60px; font-family: BACS"">UJmrJcL</p>","","","","","","","","",""
"html-keyboard-response","57","133492","0.0-8.0-0.49","5d9a125f1714540016a40a27","650c16f0f2faf8d7a0d14c09","651c1d2478491dadcb55d0d2","null","null","<p style=""font-size: 60px; font-family: BACS"">vAarmLJ</p>","","","","","","","","",""
"html-keyboard-response","58","134501","0.0-8.0-0.50","5d9a125f1714540016a40a27","650c16f0f2faf8d7a0d14c09","651c1d2478491dadcb55d0d2","null","null","<p style=""font-size: 60px; font-family: BACS"">BOckPYcM</p>","","","","","","","","",""
"html-keyboard-response","59","135510","0.0-8.0-0.51","5d9a125f1714540016a40a27","650c16f0f2faf8d7a0d14c09","651c1d2478491dadcb55d0d2","null","null","<p style=""font-size: 60px; font-family: BACS"">NkUAJcL</p>","","","","","","","","",""
"html-keyboard-response","60","136517","0.0-8.0-0.52","5d9a125f1714540016a40a27","650c16f0f2faf8d7a0d14c09","651c1d2478491dadcb55d0d2","null","null","<p style=""font-size: 60px; font-family: BACS"">LckGNmLJ</p>","","","","","","","","",""
"html-keyboard-response","61","137525","0.0-8.0-0.53","5d9a125f1714540016a40a27","650c16f0f2faf8d7a0d14c09","651c1d2478491dadcb55d0d2","null","null","<p style=""font-size: 60px; font-family: BACS"">dCtMAtAY</p>","","","","","","","","",""
"html-keyboard-response","62","138538","0.0-8.0-0.54","5d9a125f1714540016a40a27","650c16f0f2faf8d7a0d14c09","651c1d2478491dadcb55d0d2","null","null","<p style=""font-size: 60px; font-family: BACS"">TAdhMDKP</p>","","","","","","","","",""
"html-keyboard-response","63","139553","0.0-8.0-0.55","5d9a125f1714540016a40a27","650c16f0f2faf8d7a0d14c09","651c1d2478491dadcb55d0d2","null","null","<p style=""font-size: 60px; font-family: BACS"">KDPAtAY</p>","","","","","","","","",""
"html-keyboard-response","64","140563","0.0-8.0-0.56","5d9a125f1714540016a40a27","650c16f0f2faf8d7a0d14c09","651c1d2478491dadcb55d0d2","null","null","<p style=""font-size: 60px; font-family: BACS"">dCtMADKP</p>","","","","","","","","",""
"html-keyboard-response","65","141568","0.0-8.0-0.57","5d9a125f1714540016a40a27","650c16f0f2faf8d7a0d14c09","651c1d2478491dadcb55d0d2","null","null","<p style=""font-size: 60px; font-family: BACS"">lhCTCtAY</p>","","","","","","","","",""
"html-keyboard-response","66","142570","0.0-8.0-0.58","5d9a125f1714540016a40a27","650c16f0f2faf8d7a0d14c09","651c1d2478491dadcb55d0d2","null","null","<p style=""font-size: 60px; font-family: BACS"">aYaNmLJ</p>","","","","","","","","",""
"html-keyboard-response","67","143585","0.0-8.0-0.59","5d9a125f1714540016a40a27","650c16f0f2faf8d7a0d14c09","651c1d2478491dadcb55d0d2","null","null","<p style=""font-size: 60px; font-family: BACS"">KDPAOMC</p>","","","","","","","","",""
"html-keyboard-response","68","144592","0.0-8.0-0.60","5d9a125f1714540016a40a27","650c16f0f2faf8d7a0d14c09","651c1d2478491dadcb55d0d2","null","null","<p style=""font-size: 60px; font-family: BACS"">lrZGLkNc</p>","","","","","","","","",""
"html-keyboard-response","69","145601","0.0-8.0-0.61","5d9a125f1714540016a40a27","650c16f0f2faf8d7a0d14c09","651c1d2478491dadcb55d0d2","null","null","<p style=""font-size: 60px; font-family: BACS"">lYruaYmb</p>","","","","","","","","",""
"html-keyboard-response","70","146604","0.0-8.0-0.62","5d9a125f1714540016a40a27","650c16f0f2faf8d7a0d14c09","651c1d2478491dadcb55d0d2","null","null","<p style=""font-size: 60px; font-family: BACS"">cDOEBOMC</p>","","","","","","","","",""
"html-keyboard-response","71","147628","0.0-8.0-0.63","5d9a125f1714540016a40a27","650c16f0f2faf8d7a0d14c09","651c1d2478491dadcb55d0d2","null","null","<p style=""font-size: 60px; font-family: BACS"">KDPAYcM</p>","","","","","","","","",""
"html-keyboard-response","72","148634","0.0-8.0-0.64","5d9a125f1714540016a40a27","650c16f0f2faf8d7a0d14c09","651c1d2478491dadcb55d0d2","null","null","<p style=""font-size: 60px; font-family: BACS"">EPERdOMC</p>","","","","","","","","",""
"html-keyboard-response","73","149640","0.0-8.0-0.65","5d9a125f1714540016a40a27","650c16f0f2faf8d7a0d14c09","651c1d2478491dadcb55d0d2","null","null","<p style=""font-size: 60px; font-family: BACS"">KDPADKP</p>","","","","","","","","",""
"html-keyboard-response","74","150656","0.0-8.0-0.66","5d9a125f1714540016a40a27","650c16f0f2faf8d7a0d14c09","651c1d2478491dadcb55d0d2","null","null","<p style=""font-size: 60px; font-family: BACS"">LckGNOcZJ</p>","","","","","","","","",""
"html-keyboard-response","75","151679","0.0-8.0-0.67","5d9a125f1714540016a40a27","650c16f0f2faf8d7a0d14c09","651c1d2478491dadcb55d0d2","null","null","<p style=""font-size: 60px; font-family: BACS"">EhRmOBT</p>","","","","","","","","",""
"html-keyboard-response","76","152681","0.0-8.0-0.68","5d9a125f1714540016a40a27","650c16f0f2faf8d7a0d14c09","651c1d2478491dadcb55d0d2","null","null","<p style=""font-size: 60px; font-family: BACS"">aYaNLkNc</p>","","","","","","","","",""
"html-keyboard-response","77","153689","0.0-8.0-0.69","5d9a125f1714540016a40a27","650c16f0f2faf8d7a0d14c09","651c1d2478491dadcb55d0d2","null","null","<p style=""font-size: 60px; font-family: BACS"">EhRmtAY</p>","","","","","","","","",""
"html-keyboard-response","78","154702","0.0-8.0-0.70","5d9a125f1714540016a40a27","650c16f0f2faf8d7a0d14c09","651c1d2478491dadcb55d0d2","null","null","<p style=""font-size: 60px; font-family: BACS"">BOckPOMC</p>","","","","","","","","",""
"html-keyboard-response","79","155719","0.0-8.0-0.71","5d9a125f1714540016a40a27","650c16f0f2faf8d7a0d14c09","651c1d2478491dadcb55d0d2","null","null","<p style=""font-size: 60px; font-family: BACS"">TAdhMOBT</p>","","","","","","","","",""
"html-keyboard-response","80","156759","0.0-8.0-0.72","5d9a125f1714540016a40a27","650c16f0f2faf8d7a0d14c09","651c1d2478491dadcb55d0d2","null","null","<p style=""font-size: 60px; font-family: BACS"">UJmrYmb</p>","","","","","","","","",""
"html-keyboard-response","81","157786","0.0-8.0-0.73","5d9a125f1714540016a40a27","650c16f0f2faf8d7a0d14c09","651c1d2478491dadcb55d0d2","null","null","<p style=""font-size: 60px; font-family: BACS"">tmYhOMC</p>","","","","","","","","",""
"html-keyboard-response","82","158796","0.0-8.0-0.74","5d9a125f1714540016a40a27","650c16f0f2faf8d7a0d14c09","651c1d2478491dadcb55d0d2","null","null","<p style=""font-size: 60px; font-family: BACS"">ukYZOcZJ</p>","","","","","","","","",""
"html-keyboard-response","83","159810","0.0-8.0-0.75","5d9a125f1714540016a40a27","650c16f0f2faf8d7a0d14c09","651c1d2478491dadcb55d0d2","null","null","<p style=""font-size: 60px; font-family: BACS"">TAdhMtAY</p>","","","","","","","","",""
"html-keyboard-response","84","160826","0.0-8.0-0.76","5d9a125f1714540016a40a27","650c16f0f2faf8d7a0d14c09","651c1d2478491dadcb55d0d2","null","null","<p style=""font-size: 60px; font-family: BACS"">LAclAmLJ</p>","","","","","","","","",""
"html-keyboard-response","85","161842","0.0-8.0-0.77","5d9a125f1714540016a40a27","650c16f0f2faf8d7a0d14c09","651c1d2478491dadcb55d0d2","null","null","<p style=""font-size: 60px; font-family: BACS"">tmYhYcM</p>","","","","","","","","",""
"html-keyboard-response","86","162852","0.0-8.0-0.78","5d9a125f1714540016a40a27","650c16f0f2faf8d7a0d14c09","651c1d2478491dadcb55d0d2","null","null","<p style=""font-size: 60px; font-family: BACS"">BOckPDKP</p>","","","","","","","","",""
"html-keyboard-response","87","163858","0.0-8.0-0.79","5d9a125f1714540016a40a27","650c16f0f2faf8d7a0d14c09","651c1d2478491dadcb55d0d2","null","null","<p style=""font-size: 60px; font-family: BACS"">vAarOcZJ</p>","","","","","","","","",""
"html-keyboard-response","88","164270","0.0-9.0","5d9a125f1714540016a40a27","650c16f0f2faf8d7a0d14c09","651c1d2478491dadcb55d0d2","411"," ","<p>Great, you've seen the first block of words. You may now take a short break.</p>
      <p>Press the spacebar when you're ready to continue.</p>","","","","","","","","",""
"html-keyboard-response","89","165275","0.0-10.0-0.0","5d9a125f1714540016a40a27","650c16f0f2faf8d7a0d14c09","651c1d2478491dadcb55d0d2","null","null","<p style=""font-size: 60px; font-family: BACS"">UJmrOcZJ</p>","","","","","","","","",""
"html-keyboard-response","90","166288","0.0-10.0-0.1","5d9a125f1714540016a40a27","650c16f0f2faf8d7a0d14c09","651c1d2478491dadcb55d0d2","null","null","<p style=""font-size: 60px; font-family: BACS"">vAarLkNc</p>","","","","","","","","",""
"html-keyboard-response","91","167298","0.0-10.0-0.2","5d9a125f1714540016a40a27","650c16f0f2faf8d7a0d14c09","651c1d2478491dadcb55d0d2","null","null","<p style=""font-size: 60px; font-family: BACS"">TKDkDKP</p>","","","","","","","","",""
"html-keyboard-response","92","168303","0.0-10.0-0.3","5d9a125f1714540016a40a27","650c16f0f2faf8d7a0d14c09","651c1d2478491dadcb55d0d2","null","null","<p style=""font-size: 60px; font-family: BACS"">EPERdtAY</p>","","","","","","","","",""
"html-keyboard-response","93","169320","0.0-10.0-0.4","5d9a125f1714540016a40a27","650c16f0f2faf8d7a0d14c09","651c1d2478491dadcb55d0d2","null","null","<p style=""font-size: 60px; font-family: BACS"">NkUALkNc</p>","","","","","","","","",""
"html-keyboard-response","94","170326","0.0-10.0-0.5","5d9a125f1714540016a40a27","650c16f0f2faf8d7a0d14c09","651c1d2478491dadcb55d0d2","null","null","<p style=""font-size: 60px; font-family: BACS"">lhCTCYcM</p>","","","","","","","","",""
"html-keyboard-response","95","171331","0.0-10.0-0.6","5d9a125f1714540016a40a27","650c16f0f2faf8d7a0d14c09","651c1d2478491dadcb55d0d2","null","null","<p style=""font-size: 60px; font-family: BACS"">lrZGOcZJ</p>","","","","","","","","",""
"html-keyboard-response","96","172344","0.0-10.0-0.7","5d9a125f1714540016a40a27","650c16f0f2faf8d7a0d14c09","651c1d2478491dadcb55d0d2","null","null","<p style=""font-size: 60px; font-family: BACS"">ukYZYmb</p>","","","","","","","","",""
"html-keyboard-response","97","173353","0.0-10.0-0.8","5d9a125f1714540016a40a27","650c16f0f2faf8d7a0d14c09","651c1d2478491dadcb55d0d2","null","null","<p style=""font-size: 60px; font-family: BACS"">TKDkOMC</p>","","","","","","","","",""
"html-keyboard-response","98","174358","0.0-10.0-0.9","5d9a125f1714540016a40a27","650c16f0f2faf8d7a0d14c09","651c1d2478491dadcb55d0d2","null","null","<p style=""font-size: 60px; font-family: BACS"">ukYZJcL</p>","","","","","","","","",""
"html-keyboard-response","99","175371","0.0-10.0-0.10","5d9a125f1714540016a40a27","650c16f0f2faf8d7a0d14c09","651c1d2478491dadcb55d0d2","null","null","<p style=""font-size: 60px; font-family: BACS"">NkUAmLJ</p>","","","","","","","","",""
"html-keyboard-response","100","176383","0.0-10.0-0.11","5d9a125f1714540016a40a27","650c16f0f2faf8d7a0d14c09","651c1d2478491dadcb55d0d2","null","null","<p style=""font-size: 60px; font-family: BACS"">LAclAYmb</p>","","","","","","","","",""
"html-keyboard-response","101","177394","0.0-10.0-0.12","5d9a125f1714540016a40a27","650c16f0f2faf8d7a0d14c09","651c1d2478491dadcb55d0d2","null","null","<p style=""font-size: 60px; font-family: BACS"">rbYbuOcZJ</p>","","","","","","","","",""
"html-keyboard-response","102","178399","0.0-10.0-0.13","5d9a125f1714540016a40a27","650c16f0f2faf8d7a0d14c09","651c1d2478491dadcb55d0d2","null","null","<p style=""font-size: 60px; font-family: BACS"">lrZGmLJ</p>","","","","","","","","",""
"html-keyboard-response","103","179416","0.0-10.0-0.14","5d9a125f1714540016a40a27","650c16f0f2faf8d7a0d14c09","651c1d2478491dadcb55d0d2","null","null","<p style=""font-size: 60px; font-family: BACS"">tmYhOMC</p>","","","","","","","","",""
"html-keyboard-response","104","180425","0.0-10.0-0.15","5d9a125f1714540016a40a27","650c16f0f2faf8d7a0d14c09","651c1d2478491dadcb55d0d2","null","null","<p style=""font-size: 60px; font-family: BACS"">cDOEBYcM</p>","","","","","","","","",""
"html-keyboard-response","105","181430","0.0-10.0-0.16","5d9a125f1714540016a40a27","650c16f0f2faf8d7a0d14c09","651c1d2478491dadcb55d0d2","null","null","<p style=""font-size: 60px; font-family: BACS"">lrZGLkNc</p>","","","","","","","","",""
"html-keyboard-response","106","182448","0.0-10.0-0.17","5d9a125f1714540016a40a27","650c16f0f2faf8d7a0d14c09","651c1d2478491dadcb55d0d2","null","null","<p style=""font-size: 60px; font-family: BACS"">lYruaJcL</p>","","","","","","","","",""
"html-keyboard-response","107","183460","0.0-10.0-0.18","5d9a125f1714540016a40a27","650c16f0f2faf8d7a0d14c09","651c1d2478491dadcb55d0d2","null","null","<p style=""font-size: 60px; font-family: BACS"">cDOEBDKP</p>","","","","","","","","",""
"html-keyboard-response","108","184475","0.0-10.0-0.19","5d9a125f1714540016a40a27","650c16f0f2faf8d7a0d14c09","651c1d2478491dadcb55d0d2","null","null","<p style=""font-size: 60px; font-family: BACS"">vAarOcZJ</p>","","","","","","","","",""
"html-keyboard-response","109","185484","0.0-10.0-0.20","5d9a125f1714540016a40a27","650c16f0f2faf8d7a0d14c09","651c1d2478491dadcb55d0d2","null","null","<p style=""font-size: 60px; font-family: BACS"">BOckPDKP</p>","","","","","","","","",""
"html-keyboard-response","110","186496","0.0-10.0-0.21","5d9a125f1714540016a40a27","650c16f0f2faf8d7a0d14c09","651c1d2478491dadcb55d0d2","null","null","<p style=""font-size: 60px; font-family: BACS"">cDOEBOBT</p>","","","","","","","","",""
"html-keyboard-response","111","187504","0.0-10.0-0.22","5d9a125f1714540016a40a27","650c16f0f2faf8d7a0d14c09","651c1d2478491dadcb55d0d2","null","null","<p style=""font-size: 60px; font-family: BACS"">EPERdOMC</p>","","","","","","","","",""
"html-keyboard-response","112","188510","0.0-10.0-0.23","5d9a125f1714540016a40a27","650c16f0f2faf8d7a0d14c09","651c1d2478491dadcb55d0d2","null","null","<p style=""font-size: 60px; font-family: BACS"">rbYbumLJ</p>","","","","","","","","",""
"html-keyboard-response","113","189526","0.0-10.0-0.24","5d9a125f1714540016a40a27","650c16f0f2faf8d7a0d14c09","651c1d2478491dadcb55d0d2","null","null","<p style=""font-size: 60px; font-family: BACS"">EPERdDKP</p>","","","","","","","","",""
"html-keyboard-response","114","190540","0.0-10.0-0.25","5d9a125f1714540016a40a27","650c16f0f2faf8d7a0d14c09","651c1d2478491dadcb55d0d2","null","null","<p style=""font-size: 60px; font-family: BACS"">vAarYmb</p>","","","","","","","","",""
"html-keyboard-response","115","191543","0.0-10.0-0.26","5d9a125f1714540016a40a27","650c16f0f2faf8d7a0d14c09","651c1d2478491dadcb55d0d2","null","null","<p style=""font-size: 60px; font-family: BACS"">TAdhMOMC</p>","","","","","","","","",""
"html-keyboard-response","116","192567","0.0-10.0-0.27","5d9a125f1714540016a40a27","650c16f0f2faf8d7a0d14c09","651c1d2478491dadcb55d0d2","null","null","<p style=""font-size: 60px; font-family: BACS"">tmYhtAY</p>","","","","","","","","",""
"html-keyboard-response","117","193588","0.0-10.0-0.28","5d9a125f1714540016a40a27","650c16f0f2faf8d7a0d14c09","651c1d2478491dadcb55d0d2","null","null","<p style=""font-size: 60px; font-family: BACS"">EhRmOBT</p>","","","","","","","","",""
"html-keyboard-response","118","194593","0.0-10.0-0.29","5d9a125f1714540016a40a27","650c16f0f2faf8d7a0d14c09","651c1d2478491dadcb55d0d2","null","null","<p style=""font-size: 60px; font-family: BACS"">LckGNmLJ</p>","","","","","","","","",""
"html-keyboard-response","119","195600","0.0-10.0-0.30","5d9a125f1714540016a40a27","650c16f0f2faf8d7a0d14c09","651c1d2478491dadcb55d0d2","null","null","<p style=""font-size: 60px; font-family: BACS"">TAdhMOBT</p>","","","","","","","","",""
"html-keyboard-response","120","196608","0.0-10.0-0.31","5d9a125f1714540016a40a27","650c16f0f2faf8d7a0d14c09","651c1d2478491dadcb55d0d2","null","null","<p style=""font-size: 60px; font-family: BACS"">NkUAJcL</p>","","","","","","","","",""
"html-keyboard-response","121","197612","0.0-10.0-0.32","5d9a125f1714540016a40a27","650c16f0f2faf8d7a0d14c09","651c1d2478491dadcb55d0d2","null","null","<p style=""font-size: 60px; font-family: BACS"">KDPAOMC</p>","","","","","","","","",""
"html-keyboard-response","122","198620","0.0-10.0-0.33","5d9a125f1714540016a40a27","650c16f0f2faf8d7a0d14c09","651c1d2478491dadcb55d0d2","null","null","<p style=""font-size: 60px; font-family: BACS"">UJmrLkNc</p>","","","","","","","","",""
"html-keyboard-response","123","199628","0.0-10.0-0.34","5d9a125f1714540016a40a27","650c16f0f2faf8d7a0d14c09","651c1d2478491dadcb55d0d2","null","null","<p style=""font-size: 60px; font-family: BACS"">EPERdYcM</p>","","","","","","","","",""
"html-keyboard-response","124","200636","0.0-10.0-0.35","5d9a125f1714540016a40a27","650c16f0f2faf8d7a0d14c09","651c1d2478491dadcb55d0d2","null","null","<p style=""font-size: 60px; font-family: BACS"">tmYhOBT</p>","","","","","","","","",""
"html-keyboard-response","125","201651","0.0-10.0-0.36","5d9a125f1714540016a40a27","650c16f0f2faf8d7a0d14c09","651c1d2478491dadcb55d0d2","null","null","<p style=""font-size: 60px; font-family: BACS"">EhRmDKP</p>","","","","","","","","",""
"html-keyboard-response","126","202655","0.0-10.0-0.37","5d9a125f1714540016a40a27","650c16f0f2faf8d7a0d14c09","651c1d2478491dadcb55d0d2","null","null","<p style=""font-size: 60px; font-family: BACS"">BOckPYcM</p>","","","","","","","","",""
"html-keyboard-response","127","203674","0.0-10.0-0.38","5d9a125f1714540016a40a27","650c16f0f2faf8d7a0d14c09","651c1d2478491dadcb55d0d2","null","null","<p style=""font-size: 60px; font-family: BACS"">EhRmtAY</p>","","","","","","","","",""
"html-keyboard-response","128","204700","0.0-10.0-0.39","5d9a125f1714540016a40a27","650c16f0f2faf8d7a0d14c09","651c1d2478491dadcb55d0d2","null","null","<p style=""font-size: 60px; font-family: BACS"">LAclALkNc</p>","","","","","","","","",""
"html-keyboard-response","129","205717","0.0-10.0-0.40","5d9a125f1714540016a40a27","650c16f0f2faf8d7a0d14c09","651c1d2478491dadcb55d0d2","null","null","<p style=""font-size: 60px; font-family: BACS"">aYaNmLJ</p>","","","","","","","","",""
"html-keyboard-response","130","206719","0.0-10.0-0.41","5d9a125f1714540016a40a27","650c16f0f2faf8d7a0d14c09","651c1d2478491dadcb55d0d2","null","null","<p style=""font-size: 60px; font-family: BACS"">tmYhYcM</p>","","","","","","","","",""
"html-keyboard-response","131","207736","0.0-10.0-0.42","5d9a125f1714540016a40a27","650c16f0f2faf8d7a0d14c09","651c1d2478491dadcb55d0d2","null","null","<p style=""font-size: 60px; font-family: BACS"">UJmrYmb</p>","","","","","","","","",""
"html-keyboard-response","132","208749","0.0-10.0-0.43","5d9a125f1714540016a40a27","650c16f0f2faf8d7a0d14c09","651c1d2478491dadcb55d0d2","null","null","<p style=""font-size: 60px; font-family: BACS"">ukYZOcZJ</p>","","","","","","","","",""
"html-keyboard-response","133","209764","0.0-10.0-0.44","5d9a125f1714540016a40a27","650c16f0f2faf8d7a0d14c09","651c1d2478491dadcb55d0d2","null","null","<p style=""font-size: 60px; font-family: BACS"">lrZGJcL</p>","","","","","","","","",""
"html-keyboard-response","134","210781","0.0-10.0-0.45","5d9a125f1714540016a40a27","650c16f0f2faf8d7a0d14c09","651c1d2478491dadcb55d0d2","null","null","<p style=""font-size: 60px; font-family: BACS"">aYaNOcZJ</p>","","","","","","","","",""
"html-keyboard-response","135","211790","0.0-10.0-0.46","5d9a125f1714540016a40a27","650c16f0f2faf8d7a0d14c09","651c1d2478491dadcb55d0d2","null","null","<p style=""font-size: 60px; font-family: BACS"">TKDktAY</p>","","","","","","","","",""
"html-keyboard-response","136","212792","0.0-10.0-0.47","5d9a125f1714540016a40a27","650c16f0f2faf8d7a0d14c09","651c1d2478491dadcb55d0d2","null","null","<p style=""font-size: 60px; font-family: BACS"">lhCTCOBT</p>","","","","","","","","",""
"html-keyboard-response","137","213807","0.0-10.0-0.48","5d9a125f1714540016a40a27","650c16f0f2faf8d7a0d14c09","651c1d2478491dadcb55d0d2","null","null","<p style=""font-size: 60px; font-family: BACS"">LAclAJcL</p>","","","","","","","","",""
"html-keyboard-response","138","214818","0.0-10.0-0.49","5d9a125f1714540016a40a27","650c16f0f2faf8d7a0d14c09","651c1d2478491dadcb55d0d2","null","null","<p style=""font-size: 60px; font-family: BACS"">dCtMAtAY</p>","","","","","","","","",""
"html-keyboard-response","139","215830","0.0-10.0-0.50","5d9a125f1714540016a40a27","650c16f0f2faf8d7a0d14c09","651c1d2478491dadcb55d0d2","null","null","<p style=""font-size: 60px; font-family: BACS"">ukYZmLJ</p>","","","","","","","","",""
"html-keyboard-response","140","216845","0.0-10.0-0.51","5d9a125f1714540016a40a27","650c16f0f2faf8d7a0d14c09","651c1d2478491dadcb55d0d2","null","null","<p style=""font-size: 60px; font-family: BACS"">aYaNLkNc</p>","","","","","","","","",""
"html-keyboard-response","141","217846","0.0-10.0-0.52","5d9a125f1714540016a40a27","650c16f0f2faf8d7a0d14c09","651c1d2478491dadcb55d0d2","null","null","<p style=""font-size: 60px; font-family: BACS"">rbYbuJcL</p>","","","","","","","","",""
"html-keyboard-response","142","218854","0.0-10.0-0.53","5d9a125f1714540016a40a27","650c16f0f2faf8d7a0d14c09","651c1d2478491dadcb55d0d2","null","null","<p style=""font-size: 60px; font-family: BACS"">lhCTCOMC</p>","","","","","","","","",""
"html-keyboard-response","143","219891","0.0-10.0-0.54","5d9a125f1714540016a40a27","650c16f0f2faf8d7a0d14c09","651c1d2478491dadcb55d0d2","null","null","<p style=""font-size: 60px; font-family: BACS"">TKDkOBT</p>","","","","","","","","",""
"html-keyboard-response","144","220903","0.0-10.0-0.55","5d9a125f1714540016a40a27","650c16f0f2faf8d7a0d14c09","651c1d2478491dadcb55d0d2","null","null","<p style=""font-size: 60px; font-family: BACS"">LckGNLkNc</p>","","","","","","","","",""
"html-keyboard-response","145","221918","0.0-10.0-0.56","5d9a125f1714540016a40a27","650c16f0f2faf8d7a0d14c09","651c1d2478491dadcb55d0d2","null","null","<p style=""font-size: 60px; font-family: BACS"">LAclAmLJ</p>","","","","","","","","",""
"html-keyboard-response","146","222927","0.0-10.0-0.57","5d9a125f1714540016a40a27","650c16f0f2faf8d7a0d14c09","651c1d2478491dadcb55d0d2","null","null","<p style=""font-size: 60px; font-family: BACS"">EhRmYcM</p>","","","","","","","","",""
"html-keyboard-response","147","223940","0.0-10.0-0.58","5d9a125f1714540016a40a27","650c16f0f2faf8d7a0d14c09","651c1d2478491dadcb55d0d2","null","null","<p style=""font-size: 60px; font-family: BACS"">lhCTCtAY</p>","","","","","","","","",""
"html-keyboard-response","148","224951","0.0-10.0-0.59","5d9a125f1714540016a40a27","650c16f0f2faf8d7a0d14c09","651c1d2478491dadcb55d0d2","null","null","<p style=""font-size: 60px; font-family: BACS"">lYruaYmb</p>","","","","","","","","",""
"html-keyboard-response","149","225956","0.0-10.0-0.60","5d9a125f1714540016a40a27","650c16f0f2faf8d7a0d14c09","651c1d2478491dadcb55d0d2","null","null","<p style=""font-size: 60px; font-family: BACS"">TAdhMDKP</p>","","","","","","","","",""
"html-keyboard-response","150","226964","0.0-10.0-0.61","5d9a125f1714540016a40a27","650c16f0f2faf8d7a0d14c09","651c1d2478491dadcb55d0d2","null","null","<p style=""font-size: 60px; font-family: BACS"">lYruaOcZJ</p>","","","","","","","","",""
"html-keyboard-response","151","227973","0.0-10.0-0.62","5d9a125f1714540016a40a27","650c16f0f2faf8d7a0d14c09","651c1d2478491dadcb55d0d2","null","null","<p style=""font-size: 60px; font-family: BACS"">dCtMAOBT</p>","","","","","","","","",""
"html-keyboard-response","152","229002","0.0-10.0-0.63","5d9a125f1714540016a40a27","650c16f0f2faf8d7a0d14c09","651c1d2478491dadcb55d0d2","null","null","<p style=""font-size: 60px; font-family: BACS"">LckGNYmb</p>","","","","","","","","",""
"html-keyboard-response","153","230014","0.0-10.0-0.64","5d9a125f1714540016a40a27","650c16f0f2faf8d7a0d14c09","651c1d2478491dadcb55d0d2","null","null","<p style=""font-size: 60px; font-family: BACS"">TAdhMtAY</p>","","","","","","","","",""
"html-keyboard-response","154","231030","0.0-10.0-0.65","5d9a125f1714540016a40a27","650c16f0f2faf8d7a0d14c09","651c1d2478491dadcb55d0d2","null","null","<p style=""font-size: 60px; font-family: BACS"">NkUAYmb</p>","","","","","","","","",""
"html-keyboard-response","155","232087","0.0-10.0-0.66","5d9a125f1714540016a40a27","650c16f0f2faf8d7a0d14c09","651c1d2478491dadcb55d0d2","null","null","<p style=""font-size: 60px; font-family: BACS"">KDPAtAY</p>","","","","","","","","",""
"html-keyboard-response","156","233096","0.0-10.0-0.67","5d9a125f1714540016a40a27","650c16f0f2faf8d7a0d14c09","651c1d2478491dadcb55d0d2","null","null","<p style=""font-size: 60px; font-family: BACS"">dCtMAYcM</p>","","","","","","","","",""
"html-keyboard-response","157","234103","0.0-10.0-0.68","5d9a125f1714540016a40a27","650c16f0f2faf8d7a0d14c09","651c1d2478491dadcb55d0d2","null","null","<p style=""font-size: 60px; font-family: BACS"">LckGNOcZJ</p>","","","","","","","","",""
"html-keyboard-response","158","235115","0.0-10.0-0.69","5d9a125f1714540016a40a27","650c16f0f2faf8d7a0d14c09","651c1d2478491dadcb55d0d2","null","null","<p style=""font-size: 60px; font-family: BACS"">aYaNJcL</p>","","","","","","","","",""
"html-keyboard-response","159","236118","0.0-10.0-0.70","5d9a125f1714540016a40a27","650c16f0f2faf8d7a0d14c09","651c1d2478491dadcb55d0d2","null","null","<p style=""font-size: 60px; font-family: BACS"">rbYbuYmb</p>","","","","","","","","",""
"html-keyboard-response","160","237146","0.0-10.0-0.71","5d9a125f1714540016a40a27","650c16f0f2faf8d7a0d14c09","651c1d2478491dadcb55d0d2","null","null","<p style=""font-size: 60px; font-family: BACS"">KDPAYcM</p>","","","","","","","","",""
"html-keyboard-response","161","238151","0.0-10.0-0.72","5d9a125f1714540016a40a27","650c16f0f2faf8d7a0d14c09","651c1d2478491dadcb55d0d2","null","null","<p style=""font-size: 60px; font-family: BACS"">lYruaLkNc</p>","","","","","","","","",""
"html-keyboard-response","162","239164","0.0-10.0-0.73","5d9a125f1714540016a40a27","650c16f0f2faf8d7a0d14c09","651c1d2478491dadcb55d0d2","null","null","<p style=""font-size: 60px; font-family: BACS"">cDOEBOMC</p>","","","","","","","","",""
"html-keyboard-response","163","240184","0.0-10.0-0.74","5d9a125f1714540016a40a27","650c16f0f2faf8d7a0d14c09","651c1d2478491dadcb55d0d2","null","null","<p style=""font-size: 60px; font-family: BACS"">BOckPOBT</p>","","","","","","","","",""
"html-keyboard-response","164","241192","0.0-10.0-0.75","5d9a125f1714540016a40a27","650c16f0f2faf8d7a0d14c09","651c1d2478491dadcb55d0d2","null","null","<p style=""font-size: 60px; font-family: BACS"">KDPADKP</p>","","","","","","","","",""
"html-keyboard-response","165","242204","0.0-10.0-0.76","5d9a125f1714540016a40a27","650c16f0f2faf8d7a0d14c09","651c1d2478491dadcb55d0d2","null","null","<p style=""font-size: 60px; font-family: BACS"">UJmrJcL</p>","","","","","","","","",""
"html-keyboard-response","166","243214","0.0-10.0-0.77","5d9a125f1714540016a40a27","650c16f0f2faf8d7a0d14c09","651c1d2478491dadcb55d0d2","null","null","<p style=""font-size: 60px; font-family: BACS"">dCtMADKP</p>","","","","","","","","",""
"html-keyboard-response","167","244229","0.0-10.0-0.78","5d9a125f1714540016a40a27","650c16f0f2faf8d7a0d14c09","651c1d2478491dadcb55d0d2","null","null","<p style=""font-size: 60px; font-family: BACS"">vAarmLJ</p>","","","","","","","","",""
"html-keyboard-response","168","245246","0.0-10.0-0.79","5d9a125f1714540016a40a27","650c16f0f2faf8d7a0d14c09","651c1d2478491dadcb55d0d2","null","null","<p style=""font-size: 60px; font-family: BACS"">BOckPOMC</p>","","","","","","","","",""
"html-keyboard-response","169","307119","0.0-11.0","5d9a125f1714540016a40a27","650c16f0f2faf8d7a0d14c09","651c1d2478491dadcb55d0d2","61872"," ","<p>Great, you've seen the second block of words. You may now take a short break.</p>
      <p>Press the spacebar when you're ready to continue.</p>","","","","","","","","",""
"html-keyboard-response","170","308126","0.0-12.0-0.0","5d9a125f1714540016a40a27","650c16f0f2faf8d7a0d14c09","651c1d2478491dadcb55d0d2","null","null","<p style=""font-size: 60px; font-family: BACS"">dCtMAtAY</p>","","","","","","","","",""
"html-keyboard-response","171","309135","0.0-12.0-0.1","5d9a125f1714540016a40a27","650c16f0f2faf8d7a0d14c09","651c1d2478491dadcb55d0d2","null","null","<p style=""font-size: 60px; font-family: BACS"">BOckPOBT</p>","","","","","","","","",""
"html-keyboard-response","172","310151","0.0-12.0-0.2","5d9a125f1714540016a40a27","650c16f0f2faf8d7a0d14c09","651c1d2478491dadcb55d0d2","null","null","<p style=""font-size: 60px; font-family: BACS"">rbYbumLJ</p>","","","","","","","","",""
"html-keyboard-response","173","311166","0.0-12.0-0.3","5d9a125f1714540016a40a27","650c16f0f2faf8d7a0d14c09","651c1d2478491dadcb55d0d2","null","null","<p style=""font-size: 60px; font-family: BACS"">BOckPDKP</p>","","","","","","","","",""
"html-keyboard-response","174","312175","0.0-12.0-0.4","5d9a125f1714540016a40a27","650c16f0f2faf8d7a0d14c09","651c1d2478491dadcb55d0d2","null","null","<p style=""font-size: 60px; font-family: BACS"">ukYZYmb</p>","","","","","","","","",""
"html-keyboard-response","175","313182","0.0-12.0-0.5","5d9a125f1714540016a40a27","650c16f0f2faf8d7a0d14c09","651c1d2478491dadcb55d0d2","null","null","<p style=""font-size: 60px; font-family: BACS"">EPERdOMC</p>","","","","","","","","",""
"html-keyboard-response","176","314198","0.0-12.0-0.6","5d9a125f1714540016a40a27","650c16f0f2faf8d7a0d14c09","651c1d2478491dadcb55d0d2","null","null","<p style=""font-size: 60px; font-family: BACS"">UJmrJcL</p>","","","","","","","","",""
"html-keyboard-response","177","315206","0.0-12.0-0.7","5d9a125f1714540016a40a27","650c16f0f2faf8d7a0d14c09","651c1d2478491dadcb55d0d2","null","null","<p style=""font-size: 60px; font-family: BACS"">EPERdtAY</p>","","","","","","","","",""
"html-keyboard-response","178","316221","0.0-12.0-0.8","5d9a125f1714540016a40a27","650c16f0f2faf8d7a0d14c09","651c1d2478491dadcb55d0d2","null","null","<p style=""font-size: 60px; font-family: BACS"">lhCTCOMC</p>","","","","","","","","",""
"html-keyboard-response","179","317229","0.0-12.0-0.9","5d9a125f1714540016a40a27","650c16f0f2faf8d7a0d14c09","651c1d2478491dadcb55d0d2","null","null","<p style=""font-size: 60px; font-family: BACS"">lYruaJcL</p>","","","","","","","","",""
"html-keyboard-response","180","318237","0.0-12.0-0.10","5d9a125f1714540016a40a27","650c16f0f2faf8d7a0d14c09","651c1d2478491dadcb55d0d2","null","null","<p style=""font-size: 60px; font-family: BACS"">dCtMAOBT</p>","","","","","","","","",""
"html-keyboard-response","181","319255","0.0-12.0-0.11","5d9a125f1714540016a40a27","650c16f0f2faf8d7a0d14c09","651c1d2478491dadcb55d0d2","null","null","<p style=""font-size: 60px; font-family: BACS"">UJmrYmb</p>","","","","","","","","",""
"html-keyboard-response","182","320270","0.0-12.0-0.12","5d9a125f1714540016a40a27","650c16f0f2faf8d7a0d14c09","651c1d2478491dadcb55d0d2","null","null","<p style=""font-size: 60px; font-family: BACS"">lhCTCOBT</p>","","","","","","","","",""
"html-keyboard-response","183","321273","0.0-12.0-0.13","5d9a125f1714540016a40a27","650c16f0f2faf8d7a0d14c09","651c1d2478491dadcb55d0d2","null","null","<p style=""font-size: 60px; font-family: BACS"">dCtMADKP</p>","","","","","","","","",""
"html-keyboard-response","184","322285","0.0-12.0-0.14","5d9a125f1714540016a40a27","650c16f0f2faf8d7a0d14c09","651c1d2478491dadcb55d0d2","null","null","<p style=""font-size: 60px; font-family: BACS"">vAarYmb</p>","","","","","","","","",""
"html-keyboard-response","185","323297","0.0-12.0-0.15","5d9a125f1714540016a40a27","650c16f0f2faf8d7a0d14c09","651c1d2478491dadcb55d0d2","null","null","<p style=""font-size: 60px; font-family: BACS"">cDOEBYcM</p>","","","","","","","","",""
"html-keyboard-response","186","324301","0.0-12.0-0.16","5d9a125f1714540016a40a27","650c16f0f2faf8d7a0d14c09","651c1d2478491dadcb55d0d2","null","null","<p style=""font-size: 60px; font-family: BACS"">lrZGJcL</p>","","","","","","","","",""
"html-keyboard-response","187","325314","0.0-12.0-0.17","5d9a125f1714540016a40a27","650c16f0f2faf8d7a0d14c09","651c1d2478491dadcb55d0d2","null","null","<p style=""font-size: 60px; font-family: BACS"">TKDkOMC</p>","","","","","","","","",""
"html-keyboard-response","188","326316","0.0-12.0-0.18","5d9a125f1714540016a40a27","650c16f0f2faf8d7a0d14c09","651c1d2478491dadcb55d0d2","null","null","<p style=""font-size: 60px; font-family: BACS"">EPERdYcM</p>","","","","","","","","",""
"html-keyboard-response","189","327333","0.0-12.0-0.19","5d9a125f1714540016a40a27","650c16f0f2faf8d7a0d14c09","651c1d2478491dadcb55d0d2","null","null","<p style=""font-size: 60px; font-family: BACS"">lrZGOcZJ</p>","","","","","","","","",""
"html-keyboard-response","190","328334","0.0-12.0-0.20","5d9a125f1714540016a40a27","650c16f0f2faf8d7a0d14c09","651c1d2478491dadcb55d0d2","null","null","<p style=""font-size: 60px; font-family: BACS"">ukYZmLJ</p>","","","","","","","","",""
"html-keyboard-response","191","329345","0.0-12.0-0.21","5d9a125f1714540016a40a27","650c16f0f2faf8d7a0d14c09","651c1d2478491dadcb55d0d2","null","null","<p style=""font-size: 60px; font-family: BACS"">tmYhtAY</p>","","","","","","","","",""
"html-keyboard-response","192","330355","0.0-12.0-0.22","5d9a125f1714540016a40a27","650c16f0f2faf8d7a0d14c09","651c1d2478491dadcb55d0d2","null","null","<p style=""font-size: 60px; font-family: BACS"">lhCTCYcM</p>","","","","","","","","",""
"html-keyboard-response","193","331387","0.0-12.0-0.23","5d9a125f1714540016a40a27","650c16f0f2faf8d7a0d14c09","651c1d2478491dadcb55d0d2","null","null","<p style=""font-size: 60px; font-family: BACS"">ukYZJcL</p>","","","","","","","","",""
"html-keyboard-response","194","332396","0.0-12.0-0.24","5d9a125f1714540016a40a27","650c16f0f2faf8d7a0d14c09","651c1d2478491dadcb55d0d2","null","null","<p style=""font-size: 60px; font-family: BACS"">cDOEBOBT</p>","","","","","","","","",""
"html-keyboard-response","195","333412","0.0-12.0-0.25","5d9a125f1714540016a40a27","650c16f0f2faf8d7a0d14c09","651c1d2478491dadcb55d0d2","null","null","<p style=""font-size: 60px; font-family: BACS"">aYaNOcZJ</p>","","","","","","","","",""
"html-keyboard-response","196","334429","0.0-12.0-0.26","5d9a125f1714540016a40a27","650c16f0f2faf8d7a0d14c09","651c1d2478491dadcb55d0d2","null","null","<p style=""font-size: 60px; font-family: BACS"">EhRmDKP</p>","","","","","","","","",""
"html-keyboard-response","197","335443","0.0-12.0-0.27","5d9a125f1714540016a40a27","650c16f0f2faf8d7a0d14c09","651c1d2478491dadcb55d0d2","null","null","<p style=""font-size: 60px; font-family: BACS"">LckGNYmb</p>","","","","","","","","",""
"html-keyboard-response","198","336460","0.0-12.0-0.28","5d9a125f1714540016a40a27","650c16f0f2faf8d7a0d14c09","651c1d2478491dadcb55d0d2","null","null","<p style=""font-size: 60px; font-family: BACS"">aYaNJcL</p>","","","","","","","","",""
"html-keyboard-response","199","337472","0.0-12.0-0.29","5d9a125f1714540016a40a27","650c16f0f2faf8d7a0d14c09","651c1d2478491dadcb55d0d2","null","null","<p style=""font-size: 60px; font-family: BACS"">EhRmYcM</p>","","","","","","","","",""
"html-keyboard-response","200","338492","0.0-12.0-0.30","5d9a125f1714540016a40a27","650c16f0f2faf8d7a0d14c09","651c1d2478491dadcb55d0d2","null","null","<p style=""font-size: 60px; font-family: BACS"">vAarmLJ</p>","","","","","","","","",""
"html-keyboard-response","201","339497","0.0-12.0-0.31","5d9a125f1714540016a40a27","650c16f0f2faf8d7a0d14c09","651c1d2478491dadcb55d0d2","null","null","<p style=""font-size: 60px; font-family: BACS"">KDPAtAY</p>","","","","","","","","",""
"html-keyboard-response","202","340502","0.0-12.0-0.32","5d9a125f1714540016a40a27","650c16f0f2faf8d7a0d14c09","651c1d2478491dadcb55d0d2","null","null","<p style=""font-size: 60px; font-family: BACS"">vAarOcZJ</p>","","","","","","","","",""
"html-keyboard-response","203","341516","0.0-12.0-0.33","5d9a125f1714540016a40a27","650c16f0f2faf8d7a0d14c09","651c1d2478491dadcb55d0d2","null","null","<p style=""font-size: 60px; font-family: BACS"">NkUAmLJ</p>","","","","","","","","",""
"html-keyboard-response","204","342526","0.0-12.0-0.34","5d9a125f1714540016a40a27","650c16f0f2faf8d7a0d14c09","651c1d2478491dadcb55d0d2","null","null","<p style=""font-size: 60px; font-family: BACS"">rbYbuJcL</p>","","","","","","","","",""
"html-keyboard-response","205","343540","0.0-12.0-0.35","5d9a125f1714540016a40a27","650c16f0f2faf8d7a0d14c09","651c1d2478491dadcb55d0d2","null","null","<p style=""font-size: 60px; font-family: BACS"">TKDkDKP</p>","","","","","","","","",""
"html-keyboard-response","206","344552","0.0-12.0-0.36","5d9a125f1714540016a40a27","650c16f0f2faf8d7a0d14c09","651c1d2478491dadcb55d0d2","null","null","<p style=""font-size: 60px; font-family: BACS"">KDPAYcM</p>","","","","","","","","",""
"html-keyboard-response","207","345569","0.0-12.0-0.37","5d9a125f1714540016a40a27","650c16f0f2faf8d7a0d14c09","651c1d2478491dadcb55d0d2","null","null","<p style=""font-size: 60px; font-family: BACS"">NkUALkNc</p>","","","","","","","","",""
"html-keyboard-response","208","346584","0.0-12.0-0.38","5d9a125f1714540016a40a27","650c16f0f2faf8d7a0d14c09","651c1d2478491dadcb55d0d2","null","null","<p style=""font-size: 60px; font-family: BACS"">TAdhMOMC</p>","","","","","","","","",""
"html-keyboard-response","209","347589","0.0-12.0-0.39","5d9a125f1714540016a40a27","650c16f0f2faf8d7a0d14c09","651c1d2478491dadcb55d0d2","null","null","<p style=""font-size: 60px; font-family: BACS"">EhRmOBT</p>","","","","","","","","",""
"html-keyboard-response","210","348603","0.0-12.0-0.40","5d9a125f1714540016a40a27","650c16f0f2faf8d7a0d14c09","651c1d2478491dadcb55d0d2","null","null","<p style=""font-size: 60px; font-family: BACS"">UJmrLkNc</p>","","","","","","","","",""
"html-keyboard-response","211","349612","0.0-12.0-0.41","5d9a125f1714540016a40a27","650c16f0f2faf8d7a0d14c09","651c1d2478491dadcb55d0d2","null","null","<p style=""font-size: 60px; font-family: BACS"">LckGNOcZJ</p>","","","","","","","","",""
"html-keyboard-response","212","350631","0.0-12.0-0.42","5d9a125f1714540016a40a27","650c16f0f2faf8d7a0d14c09","651c1d2478491dadcb55d0d2","null","null","<p style=""font-size: 60px; font-family: BACS"">cDOEBDKP</p>","","","","","","","","",""
"html-keyboard-response","213","351634","0.0-12.0-0.43","5d9a125f1714540016a40a27","650c16f0f2faf8d7a0d14c09","651c1d2478491dadcb55d0d2","null","null","<p style=""font-size: 60px; font-family: BACS"">LAclAmLJ</p>","","","","","","","","",""
"html-keyboard-response","214","352651","0.0-12.0-0.44","5d9a125f1714540016a40a27","650c16f0f2faf8d7a0d14c09","651c1d2478491dadcb55d0d2","null","null","<p style=""font-size: 60px; font-family: BACS"">lYruaOcZJ</p>","","","","","","","","",""
"html-keyboard-response","215","353660","0.0-12.0-0.45","5d9a125f1714540016a40a27","650c16f0f2faf8d7a0d14c09","651c1d2478491dadcb55d0d2","null","null","<p style=""font-size: 60px; font-family: BACS"">vAarLkNc</p>","","","","","","","","",""
"html-keyboard-response","216","354662","0.0-12.0-0.46","5d9a125f1714540016a40a27","650c16f0f2faf8d7a0d14c09","651c1d2478491dadcb55d0d2","null","null","<p style=""font-size: 60px; font-family: BACS"">TAdhMtAY</p>","","","","","","","","",""
"html-keyboard-response","217","355667","0.0-12.0-0.47","5d9a125f1714540016a40a27","650c16f0f2faf8d7a0d14c09","651c1d2478491dadcb55d0d2","null","null","<p style=""font-size: 60px; font-family: BACS"">tmYhOBT</p>","","","","","","","","",""
"html-keyboard-response","218","356671","0.0-12.0-0.48","5d9a125f1714540016a40a27","650c16f0f2faf8d7a0d14c09","651c1d2478491dadcb55d0d2","null","null","<p style=""font-size: 60px; font-family: BACS"">ukYZOcZJ</p>","","","","","","","","",""
"html-keyboard-response","219","357686","0.0-12.0-0.49","5d9a125f1714540016a40a27","650c16f0f2faf8d7a0d14c09","651c1d2478491dadcb55d0d2","null","null","<p style=""font-size: 60px; font-family: BACS"">BOckPYcM</p>","","","","","","","","",""
"html-keyboard-response","220","358691","0.0-12.0-0.50","5d9a125f1714540016a40a27","650c16f0f2faf8d7a0d14c09","651c1d2478491dadcb55d0d2","null","null","<p style=""font-size: 60px; font-family: BACS"">NkUAJcL</p>","","","","","","","","",""
"html-keyboard-response","221","359703","0.0-12.0-0.51","5d9a125f1714540016a40a27","650c16f0f2faf8d7a0d14c09","651c1d2478491dadcb55d0d2","null","null","<p style=""font-size: 60px; font-family: BACS"">lrZGmLJ</p>","","","","","","","","",""
"html-keyboard-response","222","360729","0.0-12.0-0.52","5d9a125f1714540016a40a27","650c16f0f2faf8d7a0d14c09","651c1d2478491dadcb55d0d2","null","null","<p style=""font-size: 60px; font-family: BACS"">rbYbuOcZJ</p>","","","","","","","","",""
"html-keyboard-response","223","361745","0.0-12.0-0.53","5d9a125f1714540016a40a27","650c16f0f2faf8d7a0d14c09","651c1d2478491dadcb55d0d2","null","null","<p style=""font-size: 60px; font-family: BACS"">EhRmtAY</p>","","","","","","","","",""
"html-keyboard-response","224","362749","0.0-12.0-0.54","5d9a125f1714540016a40a27","650c16f0f2faf8d7a0d14c09","651c1d2478491dadcb55d0d2","null","null","<p style=""font-size: 60px; font-family: BACS"">lYruaLkNc</p>","","","","","","","","",""
"html-keyboard-response","225","363754","0.0-12.0-0.55","5d9a125f1714540016a40a27","650c16f0f2faf8d7a0d14c09","651c1d2478491dadcb55d0d2","null","null","<p style=""font-size: 60px; font-family: BACS"">NkUAYmb</p>","","","","","","","","",""
"html-keyboard-response","226","364756","0.0-12.0-0.56","5d9a125f1714540016a40a27","650c16f0f2faf8d7a0d14c09","651c1d2478491dadcb55d0d2","null","null","<p style=""font-size: 60px; font-family: BACS"">TAdhMDKP</p>","","","","","","","","",""
"html-keyboard-response","227","365770","0.0-12.0-0.57","5d9a125f1714540016a40a27","650c16f0f2faf8d7a0d14c09","651c1d2478491dadcb55d0d2","null","null","<p style=""font-size: 60px; font-family: BACS"">KDPAOMC</p>","","","","","","","","",""
"html-keyboard-response","228","366779","0.0-12.0-0.58","5d9a125f1714540016a40a27","650c16f0f2faf8d7a0d14c09","651c1d2478491dadcb55d0d2","null","null","<p style=""font-size: 60px; font-family: BACS"">TAdhMOBT</p>","","","","","","","","",""
"html-keyboard-response","229","367777","0.0-12.0-0.59","5d9a125f1714540016a40a27","650c16f0f2faf8d7a0d14c09","651c1d2478491dadcb55d0d2","null","null","<p style=""font-size: 60px; font-family: BACS"">dCtMAYcM</p>","","","","","","","","",""
"html-keyboard-response","230","368798","0.0-12.0-0.60","5d9a125f1714540016a40a27","650c16f0f2faf8d7a0d14c09","651c1d2478491dadcb55d0d2","null","null","<p style=""font-size: 60px; font-family: BACS"">EPERdDKP</p>","","","","","","","","",""
"html-keyboard-response","231","369840","0.0-12.0-0.61","5d9a125f1714540016a40a27","650c16f0f2faf8d7a0d14c09","651c1d2478491dadcb55d0d2","null","null","<p style=""font-size: 60px; font-family: BACS"">LckGNmLJ</p>","","","","","","","","",""
"html-keyboard-response","232","370855","0.0-12.0-0.62","5d9a125f1714540016a40a27","650c16f0f2faf8d7a0d14c09","651c1d2478491dadcb55d0d2","null","null","<p style=""font-size: 60px; font-family: BACS"">LAclALkNc</p>","","","","","","","","",""
"html-keyboard-response","233","371879","0.0-12.0-0.63","5d9a125f1714540016a40a27","650c16f0f2faf8d7a0d14c09","651c1d2478491dadcb55d0d2","null","null","<p style=""font-size: 60px; font-family: BACS"">KDPADKP</p>","","","","","","","","",""
"html-keyboard-response","234","372896","0.0-12.0-0.64","5d9a125f1714540016a40a27","650c16f0f2faf8d7a0d14c09","651c1d2478491dadcb55d0d2","null","null","<p style=""font-size: 60px; font-family: BACS"">lrZGLkNc</p>","","","","","","","","",""
"html-keyboard-response","235","373912","0.0-12.0-0.65","5d9a125f1714540016a40a27","650c16f0f2faf8d7a0d14c09","651c1d2478491dadcb55d0d2","null","null","<p style=""font-size: 60px; font-family: BACS"">rbYbuYmb</p>","","","","","","","","",""
"html-keyboard-response","236","374921","0.0-12.0-0.66","5d9a125f1714540016a40a27","650c16f0f2faf8d7a0d14c09","651c1d2478491dadcb55d0d2","null","null","<p style=""font-size: 60px; font-family: BACS"">tmYhOMC</p>","","","","","","","","",""
"html-keyboard-response","237","375936","0.0-12.0-0.67","5d9a125f1714540016a40a27","650c16f0f2faf8d7a0d14c09","651c1d2478491dadcb55d0d2","null","null","<p style=""font-size: 60px; font-family: BACS"">lhCTCtAY</p>","","","","","","","","",""
"html-keyboard-response","238","376943","0.0-12.0-0.68","5d9a125f1714540016a40a27","650c16f0f2faf8d7a0d14c09","651c1d2478491dadcb55d0d2","null","null","<p style=""font-size: 60px; font-family: BACS"">LAclAYmb</p>","","","","","","","","",""
"html-keyboard-response","239","377945","0.0-12.0-0.69","5d9a125f1714540016a40a27","650c16f0f2faf8d7a0d14c09","651c1d2478491dadcb55d0d2","null","null","<p style=""font-size: 60px; font-family: BACS"">BOckPOMC</p>","","","","","","","","",""
"html-keyboard-response","240","378954","0.0-12.0-0.70","5d9a125f1714540016a40a27","650c16f0f2faf8d7a0d14c09","651c1d2478491dadcb55d0d2","null","null","<p style=""font-size: 60px; font-family: BACS"">TKDktAY</p>","","","","","","","","",""
"html-keyboard-response","241","379965","0.0-12.0-0.71","5d9a125f1714540016a40a27","650c16f0f2faf8d7a0d14c09","651c1d2478491dadcb55d0d2","null","null","<p style=""font-size: 60px; font-family: BACS"">LAclAJcL</p>","","","","","","","","",""
"html-keyboard-response","242","380969","0.0-12.0-0.72","5d9a125f1714540016a40a27","650c16f0f2faf8d7a0d14c09","651c1d2478491dadcb55d0d2","null","null","<p style=""font-size: 60px; font-family: BACS"">cDOEBOMC</p>","","","","","","","","",""
"html-keyboard-response","243","381997","0.0-12.0-0.73","5d9a125f1714540016a40a27","650c16f0f2faf8d7a0d14c09","651c1d2478491dadcb55d0d2","null","null","<p style=""font-size: 60px; font-family: BACS"">LckGNLkNc</p>","","","","","","","","",""
"html-keyboard-response","244","383000","0.0-12.0-0.74","5d9a125f1714540016a40a27","650c16f0f2faf8d7a0d14c09","651c1d2478491dadcb55d0d2","null","null","<p style=""font-size: 60px; font-family: BACS"">lYruaYmb</p>","","","","","","","","",""
"html-keyboard-response","245","384014","0.0-12.0-0.75","5d9a125f1714540016a40a27","650c16f0f2faf8d7a0d14c09","651c1d2478491dadcb55d0d2","null","null","<p style=""font-size: 60px; font-family: BACS"">aYaNmLJ</p>","","","","","","","","",""
"html-keyboard-response","246","385026","0.0-12.0-0.76","5d9a125f1714540016a40a27","650c16f0f2faf8d7a0d14c09","651c1d2478491dadcb55d0d2","null","null","<p style=""font-size: 60px; font-family: BACS"">TKDkOBT</p>","","","","","","","","",""
"html-keyboard-response","247","386030","0.0-12.0-0.77","5d9a125f1714540016a40a27","650c16f0f2faf8d7a0d14c09","651c1d2478491dadcb55d0d2","null","null","<p style=""font-size: 60px; font-family: BACS"">tmYhYcM</p>","","","","","","","","",""
"html-keyboard-response","248","387046","0.0-12.0-0.78","5d9a125f1714540016a40a27","650c16f0f2faf8d7a0d14c09","651c1d2478491dadcb55d0d2","null","null","<p style=""font-size: 60px; font-family: BACS"">aYaNLkNc</p>","","","","","","","","",""
"html-keyboard-response","249","388060","0.0-12.0-0.79","5d9a125f1714540016a40a27","650c16f0f2faf8d7a0d14c09","651c1d2478491dadcb55d0d2","null","null","<p style=""font-size: 60px; font-family: BACS"">UJmrOcZJ</p>","","","","","","","","",""
"html-keyboard-response","250","391083","0.0-13.0","5d9a125f1714540016a40a27","650c16f0f2faf8d7a0d14c09","651c1d2478491dadcb55d0d2","3022"," ","<p>Great, you've seen the third block of words. You may now take a short break.</p>
      <p>Press the spacebar when you're ready to continue.</p>","","","","","","","","",""
"html-keyboard-response","251","392096","0.0-14.0-0.0","5d9a125f1714540016a40a27","650c16f0f2faf8d7a0d14c09","651c1d2478491dadcb55d0d2","null","null","<p style=""font-size: 60px; font-family: BACS"">LckGNOcZJ</p>","","","","","","","","",""
"html-keyboard-response","252","393124","0.0-14.0-0.1","5d9a125f1714540016a40a27","650c16f0f2faf8d7a0d14c09","651c1d2478491dadcb55d0d2","null","null","<p style=""font-size: 60px; font-family: BACS"">lhCTCOMC</p>","","","","","","","","",""
"html-keyboard-response","253","394170","0.0-14.0-0.2","5d9a125f1714540016a40a27","650c16f0f2faf8d7a0d14c09","651c1d2478491dadcb55d0d2","null","null","<p style=""font-size: 60px; font-family: BACS"">rbYbuOcZJ</p>","","","","","","","","",""
"html-keyboard-response","254","395181","0.0-14.0-0.3","5d9a125f1714540016a40a27","650c16f0f2faf8d7a0d14c09","651c1d2478491dadcb55d0d2","null","null","<p style=""font-size: 60px; font-family: BACS"">tmYhOBT</p>","","","","","","","","",""
"html-keyboard-response","255","396192","0.0-14.0-0.4","5d9a125f1714540016a40a27","650c16f0f2faf8d7a0d14c09","651c1d2478491dadcb55d0d2","null","null","<p style=""font-size: 60px; font-family: BACS"">aYaNLkNc</p>","","","","","","","","",""
"html-keyboard-response","256","397206","0.0-14.0-0.5","5d9a125f1714540016a40a27","650c16f0f2faf8d7a0d14c09","651c1d2478491dadcb55d0d2","null","null","<p style=""font-size: 60px; font-family: BACS"">EhRmOBT</p>","","","","","","","","",""
"html-keyboard-response","257","398223","0.0-14.0-0.6","5d9a125f1714540016a40a27","650c16f0f2faf8d7a0d14c09","651c1d2478491dadcb55d0d2","null","null","<p style=""font-size: 60px; font-family: BACS"">KDPAYcM</p>","","","","","","","","",""
"html-keyboard-response","258","399237","0.0-14.0-0.7","5d9a125f1714540016a40a27","650c16f0f2faf8d7a0d14c09","651c1d2478491dadcb55d0d2","null","null","<p style=""font-size: 60px; font-family: BACS"">ukYZmLJ</p>","","","","","","","","",""
"html-keyboard-response","259","400252","0.0-14.0-0.8","5d9a125f1714540016a40a27","650c16f0f2faf8d7a0d14c09","651c1d2478491dadcb55d0d2","null","null","<p style=""font-size: 60px; font-family: BACS"">aYaNOcZJ</p>","","","","","","","","",""
"html-keyboard-response","260","401263","0.0-14.0-0.9","5d9a125f1714540016a40a27","650c16f0f2faf8d7a0d14c09","651c1d2478491dadcb55d0d2","null","null","<p style=""font-size: 60px; font-family: BACS"">BOckPOMC</p>","","","","","","","","",""
"html-keyboard-response","261","402269","0.0-14.0-0.10","5d9a125f1714540016a40a27","650c16f0f2faf8d7a0d14c09","651c1d2478491dadcb55d0d2","null","null","<p style=""font-size: 60px; font-family: BACS"">LckGNLkNc</p>","","","","","","","","",""
"html-keyboard-response","262","403271","0.0-14.0-0.11","5d9a125f1714540016a40a27","650c16f0f2faf8d7a0d14c09","651c1d2478491dadcb55d0d2","null","null","<p style=""font-size: 60px; font-family: BACS"">KDPAOMC</p>","","","","","","","","",""
"html-keyboard-response","263","404278","0.0-14.0-0.12","5d9a125f1714540016a40a27","650c16f0f2faf8d7a0d14c09","651c1d2478491dadcb55d0d2","null","null","<p style=""font-size: 60px; font-family: BACS"">TKDkOBT</p>","","","","","","","","",""
"html-keyboard-response","264","405292","0.0-14.0-0.13","5d9a125f1714540016a40a27","650c16f0f2faf8d7a0d14c09","651c1d2478491dadcb55d0d2","null","null","<p style=""font-size: 60px; font-family: BACS"">LAclAJcL</p>","","","","","","","","",""
"html-keyboard-response","265","406301","0.0-14.0-0.14","5d9a125f1714540016a40a27","650c16f0f2faf8d7a0d14c09","651c1d2478491dadcb55d0d2","null","null","<p style=""font-size: 60px; font-family: BACS"">lrZGOcZJ</p>","","","","","","","","",""
"html-keyboard-response","266","407312","0.0-14.0-0.15","5d9a125f1714540016a40a27","650c16f0f2faf8d7a0d14c09","651c1d2478491dadcb55d0d2","null","null","<p style=""font-size: 60px; font-family: BACS"">rbYbuJcL</p>","","","","","","","","",""
"html-keyboard-response","267","408315","0.0-14.0-0.16","5d9a125f1714540016a40a27","650c16f0f2faf8d7a0d14c09","651c1d2478491dadcb55d0d2","null","null","<p style=""font-size: 60px; font-family: BACS"">vAarLkNc</p>","","","","","","","","",""
"html-keyboard-response","268","409331","0.0-14.0-0.17","5d9a125f1714540016a40a27","650c16f0f2faf8d7a0d14c09","651c1d2478491dadcb55d0d2","null","null","<p style=""font-size: 60px; font-family: BACS"">LckGNmLJ</p>","","","","","","","","",""
"html-keyboard-response","269","410334","0.0-14.0-0.18","5d9a125f1714540016a40a27","650c16f0f2faf8d7a0d14c09","651c1d2478491dadcb55d0d2","null","null","<p style=""font-size: 60px; font-family: BACS"">lrZGJcL</p>","","","","","","","","",""
"html-keyboard-response","270","411348","0.0-14.0-0.19","5d9a125f1714540016a40a27","650c16f0f2faf8d7a0d14c09","651c1d2478491dadcb55d0d2","null","null","<p style=""font-size: 60px; font-family: BACS"">EhRmYcM</p>","","","","","","","","",""
"html-keyboard-response","271","412353","0.0-14.0-0.20","5d9a125f1714540016a40a27","650c16f0f2faf8d7a0d14c09","651c1d2478491dadcb55d0d2","null","null","<p style=""font-size: 60px; font-family: BACS"">lhCTCOBT</p>","","","","","","","","",""
"html-keyboard-response","272","413367","0.0-14.0-0.21","5d9a125f1714540016a40a27","650c16f0f2faf8d7a0d14c09","651c1d2478491dadcb55d0d2","null","null","<p style=""font-size: 60px; font-family: BACS"">cDOEBOMC</p>","","","","","","","","",""
"html-keyboard-response","273","414379","0.0-14.0-0.22","5d9a125f1714540016a40a27","650c16f0f2faf8d7a0d14c09","651c1d2478491dadcb55d0d2","null","null","<p style=""font-size: 60px; font-family: BACS"">vAarmLJ</p>","","","","","","","","",""
"html-keyboard-response","274","415385","0.0-14.0-0.23","5d9a125f1714540016a40a27","650c16f0f2faf8d7a0d14c09","651c1d2478491dadcb55d0d2","null","null","<p style=""font-size: 60px; font-family: BACS"">LckGNYmb</p>","","","","","","","","",""
"html-keyboard-response","275","416396","0.0-14.0-0.24","5d9a125f1714540016a40a27","650c16f0f2faf8d7a0d14c09","651c1d2478491dadcb55d0d2","null","null","<p style=""font-size: 60px; font-family: BACS"">EPERdDKP</p>","","","","","","","","",""
"html-keyboard-response","276","417411","0.0-14.0-0.25","5d9a125f1714540016a40a27","650c16f0f2faf8d7a0d14c09","651c1d2478491dadcb55d0d2","null","null","<p style=""font-size: 60px; font-family: BACS"">LAclALkNc</p>","","","","","","","","",""
"html-keyboard-response","277","418413","0.0-14.0-0.26","5d9a125f1714540016a40a27","650c16f0f2faf8d7a0d14c09","651c1d2478491dadcb55d0d2","null","null","<p style=""font-size: 60px; font-family: BACS"">lYruaYmb</p>","","","","","","","","",""
"html-keyboard-response","278","419427","0.0-14.0-0.27","5d9a125f1714540016a40a27","650c16f0f2faf8d7a0d14c09","651c1d2478491dadcb55d0d2","null","null","<p style=""font-size: 60px; font-family: BACS"">lhCTCtAY</p>","","","","","","","","",""
"html-keyboard-response","279","420443","0.0-14.0-0.28","5d9a125f1714540016a40a27","650c16f0f2faf8d7a0d14c09","651c1d2478491dadcb55d0d2","null","null","<p style=""font-size: 60px; font-family: BACS"">BOckPYcM</p>","","","","","","","","",""
"html-keyboard-response","280","421451","0.0-14.0-0.29","5d9a125f1714540016a40a27","650c16f0f2faf8d7a0d14c09","651c1d2478491dadcb55d0d2","null","null","<p style=""font-size: 60px; font-family: BACS"">EPERdtAY</p>","","","","","","","","",""
"html-keyboard-response","281","422459","0.0-14.0-0.30","5d9a125f1714540016a40a27","650c16f0f2faf8d7a0d14c09","651c1d2478491dadcb55d0d2","null","null","<p style=""font-size: 60px; font-family: BACS"">lrZGLkNc</p>","","","","","","","","",""
"html-keyboard-response","282","423466","0.0-14.0-0.31","5d9a125f1714540016a40a27","650c16f0f2faf8d7a0d14c09","651c1d2478491dadcb55d0d2","null","null","<p style=""font-size: 60px; font-family: BACS"">lhCTCYcM</p>","","","","","","","","",""
"html-keyboard-response","283","424476","0.0-14.0-0.32","5d9a125f1714540016a40a27","650c16f0f2faf8d7a0d14c09","651c1d2478491dadcb55d0d2","null","null","<p style=""font-size: 60px; font-family: BACS"">NkUAmLJ</p>","","","","","","","","",""
"html-keyboard-response","284","425477","0.0-14.0-0.33","5d9a125f1714540016a40a27","650c16f0f2faf8d7a0d14c09","651c1d2478491dadcb55d0d2","null","null","<p style=""font-size: 60px; font-family: BACS"">ukYZYmb</p>","","","","","","","","",""
"html-keyboard-response","285","426491","0.0-14.0-0.34","5d9a125f1714540016a40a27","650c16f0f2faf8d7a0d14c09","651c1d2478491dadcb55d0d2","null","null","<p style=""font-size: 60px; font-family: BACS"">cDOEBYcM</p>","","","","","","","","",""
"html-keyboard-response","286","427497","0.0-14.0-0.35","5d9a125f1714540016a40a27","650c16f0f2faf8d7a0d14c09","651c1d2478491dadcb55d0d2","null","null","<p style=""font-size: 60px; font-family: BACS"">EPERdOMC</p>","","","","","","","","",""
"html-keyboard-response","287","428509","0.0-14.0-0.36","5d9a125f1714540016a40a27","650c16f0f2faf8d7a0d14c09","651c1d2478491dadcb55d0d2","null","null","<p style=""font-size: 60px; font-family: BACS"">dCtMAYcM</p>","","","","","","","","",""
"html-keyboard-response","288","429517","0.0-14.0-0.37","5d9a125f1714540016a40a27","650c16f0f2faf8d7a0d14c09","651c1d2478491dadcb55d0d2","null","null","<p style=""font-size: 60px; font-family: BACS"">KDPAtAY</p>","","","","","","","","",""
"html-keyboard-response","289","430520","0.0-14.0-0.38","5d9a125f1714540016a40a27","650c16f0f2faf8d7a0d14c09","651c1d2478491dadcb55d0d2","null","null","<p style=""font-size: 60px; font-family: BACS"">tmYhOMC</p>","","","","","","","","",""
"html-keyboard-response","290","431526","0.0-14.0-0.39","5d9a125f1714540016a40a27","650c16f0f2faf8d7a0d14c09","651c1d2478491dadcb55d0d2","null","null","<p style=""font-size: 60px; font-family: BACS"">EPERdYcM</p>","","","","","","","","",""
"html-keyboard-response","291","432539","0.0-14.0-0.40","5d9a125f1714540016a40a27","650c16f0f2faf8d7a0d14c09","651c1d2478491dadcb55d0d2","null","null","<p style=""font-size: 60px; font-family: BACS"">NkUAJcL</p>","","","","","","","","",""
"html-keyboard-response","292","433541","0.0-14.0-0.41","5d9a125f1714540016a40a27","650c16f0f2faf8d7a0d14c09","651c1d2478491dadcb55d0d2","null","null","<p style=""font-size: 60px; font-family: BACS"">dCtMAtAY</p>","","","","","","","","",""
"html-keyboard-response","293","434549","0.0-14.0-0.42","5d9a125f1714540016a40a27","650c16f0f2faf8d7a0d14c09","651c1d2478491dadcb55d0d2","null","null","<p style=""font-size: 60px; font-family: BACS"">vAarYmb</p>","","","","","","","","",""
"html-keyboard-response","294","435570","0.0-14.0-0.43","5d9a125f1714540016a40a27","650c16f0f2faf8d7a0d14c09","651c1d2478491dadcb55d0d2","null","null","<p style=""font-size: 60px; font-family: BACS"">TAdhMOBT</p>","","","","","","","","",""
"html-keyboard-response","295","436577","0.0-14.0-0.44","5d9a125f1714540016a40a27","650c16f0f2faf8d7a0d14c09","651c1d2478491dadcb55d0d2","null","null","<p style=""font-size: 60px; font-family: BACS"">aYaNJcL</p>","","","","","","","","",""
"html-keyboard-response","296","437587","0.0-14.0-0.45","5d9a125f1714540016a40a27","650c16f0f2faf8d7a0d14c09","651c1d2478491dadcb55d0d2","null","null","<p style=""font-size: 60px; font-family: BACS"">lYruaOcZJ</p>","","","","","","","","",""
"html-keyboard-response","297","438589","0.0-14.0-0.46","5d9a125f1714540016a40a27","650c16f0f2faf8d7a0d14c09","651c1d2478491dadcb55d0d2","null","null","<p style=""font-size: 60px; font-family: BACS"">UJmrJcL</p>","","","","","","","","",""
"html-keyboard-response","298","439597","0.0-14.0-0.47","5d9a125f1714540016a40a27","650c16f0f2faf8d7a0d14c09","651c1d2478491dadcb55d0d2","null","null","<p style=""font-size: 60px; font-family: BACS"">tmYhtAY</p>","","","","","","","","",""
"html-keyboard-response","299","440604","0.0-14.0-0.48","5d9a125f1714540016a40a27","650c16f0f2faf8d7a0d14c09","651c1d2478491dadcb55d0d2","null","null","<p style=""font-size: 60px; font-family: BACS"">UJmrYmb</p>","","","","","","","","",""
"html-keyboard-response","300","441610","0.0-14.0-0.49","5d9a125f1714540016a40a27","650c16f0f2faf8d7a0d14c09","651c1d2478491dadcb55d0d2","null","null","<p style=""font-size: 60px; font-family: BACS"">rbYbumLJ</p>","","","","","","","","",""
"html-keyboard-response","301","442630","0.0-14.0-0.50","5d9a125f1714540016a40a27","650c16f0f2faf8d7a0d14c09","651c1d2478491dadcb55d0d2","null","null","<p style=""font-size: 60px; font-family: BACS"">TKDkDKP</p>","","","","","","","","",""
"html-keyboard-response","302","443641","0.0-14.0-0.51","5d9a125f1714540016a40a27","650c16f0f2faf8d7a0d14c09","651c1d2478491dadcb55d0d2","null","null","<p style=""font-size: 60px; font-family: BACS"">cDOEBOBT</p>","","","","","","","","",""
"html-keyboard-response","303","444643","0.0-14.0-0.52","5d9a125f1714540016a40a27","650c16f0f2faf8d7a0d14c09","651c1d2478491dadcb55d0d2","null","null","<p style=""font-size: 60px; font-family: BACS"">EhRmDKP</p>","","","","","","","","",""
"html-keyboard-response","304","445651","0.0-14.0-0.53","5d9a125f1714540016a40a27","650c16f0f2faf8d7a0d14c09","651c1d2478491dadcb55d0d2","null","null","<p style=""font-size: 60px; font-family: BACS"">LAclAmLJ</p>","","","","","","","","",""
"html-keyboard-response","305","446661","0.0-14.0-0.54","5d9a125f1714540016a40a27","650c16f0f2faf8d7a0d14c09","651c1d2478491dadcb55d0d2","null","null","<p style=""font-size: 60px; font-family: BACS"">vAarOcZJ</p>","","","","","","","","",""
"html-keyboard-response","306","447667","0.0-14.0-0.55","5d9a125f1714540016a40a27","650c16f0f2faf8d7a0d14c09","651c1d2478491dadcb55d0d2","null","null","<p style=""font-size: 60px; font-family: BACS"">tmYhYcM</p>","","","","","","","","",""
"html-keyboard-response","307","448729","0.0-14.0-0.56","5d9a125f1714540016a40a27","650c16f0f2faf8d7a0d14c09","651c1d2478491dadcb55d0d2","null","null","<p style=""font-size: 60px; font-family: BACS"">lrZGmLJ</p>","","","","","","","","",""
"html-keyboard-response","308","449732","0.0-14.0-0.57","5d9a125f1714540016a40a27","650c16f0f2faf8d7a0d14c09","651c1d2478491dadcb55d0d2","null","null","<p style=""font-size: 60px; font-family: BACS"">TKDkOMC</p>","","","","","","","","",""
"html-keyboard-response","309","450746","0.0-14.0-0.58","5d9a125f1714540016a40a27","650c16f0f2faf8d7a0d14c09","651c1d2478491dadcb55d0d2","null","null","<p style=""font-size: 60px; font-family: BACS"">lYruaJcL</p>","","","","","","","","",""
"html-keyboard-response","310","451756","0.0-14.0-0.59","5d9a125f1714540016a40a27","650c16f0f2faf8d7a0d14c09","651c1d2478491dadcb55d0d2","null","null","<p style=""font-size: 60px; font-family: BACS"">TAdhMtAY</p>","","","","","","","","",""
"html-keyboard-response","311","452764","0.0-14.0-0.60","5d9a125f1714540016a40a27","650c16f0f2faf8d7a0d14c09","651c1d2478491dadcb55d0d2","null","null","<p style=""font-size: 60px; font-family: BACS"">cDOEBDKP</p>","","","","","","","","",""
"html-keyboard-response","312","453771","0.0-14.0-0.61","5d9a125f1714540016a40a27","650c16f0f2faf8d7a0d14c09","651c1d2478491dadcb55d0d2","null","null","<p style=""font-size: 60px; font-family: BACS"">UJmrOcZJ</p>","","","","","","","","",""
"html-keyboard-response","313","454779","0.0-14.0-0.62","5d9a125f1714540016a40a27","650c16f0f2faf8d7a0d14c09","651c1d2478491dadcb55d0d2","null","null","<p style=""font-size: 60px; font-family: BACS"">dCtMADKP</p>","","","","","","","","",""
"html-keyboard-response","314","455788","0.0-14.0-0.63","5d9a125f1714540016a40a27","650c16f0f2faf8d7a0d14c09","651c1d2478491dadcb55d0d2","null","null","<p style=""font-size: 60px; font-family: BACS"">ukYZOcZJ</p>","","","","","","","","",""
"html-keyboard-response","315","456818","0.0-14.0-0.64","5d9a125f1714540016a40a27","650c16f0f2faf8d7a0d14c09","651c1d2478491dadcb55d0d2","null","null","<p style=""font-size: 60px; font-family: BACS"">aYaNmLJ</p>","","","","","","","","",""
"html-keyboard-response","316","457827","0.0-14.0-0.65","5d9a125f1714540016a40a27","650c16f0f2faf8d7a0d14c09","651c1d2478491dadcb55d0d2","null","null","<p style=""font-size: 60px; font-family: BACS"">EhRmtAY</p>","","","","","","","","",""
"html-keyboard-response","317","458844","0.0-14.0-0.66","5d9a125f1714540016a40a27","650c16f0f2faf8d7a0d14c09","651c1d2478491dadcb55d0d2","null","null","<p style=""font-size: 60px; font-family: BACS"">LAclAYmb</p>","","","","","","","","",""
"html-keyboard-response","318","459884","0.0-14.0-0.67","5d9a125f1714540016a40a27","650c16f0f2faf8d7a0d14c09","651c1d2478491dadcb55d0d2","null","null","<p style=""font-size: 60px; font-family: BACS"">dCtMAOBT</p>","","","","","","","","",""
"html-keyboard-response","319","460893","0.0-14.0-0.68","5d9a125f1714540016a40a27","650c16f0f2faf8d7a0d14c09","651c1d2478491dadcb55d0d2","null","null","<p style=""font-size: 60px; font-family: BACS"">TAdhMDKP</p>","","","","","","","","",""
"html-keyboard-response","320","461906","0.0-14.0-0.69","5d9a125f1714540016a40a27","650c16f0f2faf8d7a0d14c09","651c1d2478491dadcb55d0d2","null","null","<p style=""font-size: 60px; font-family: BACS"">lYruaLkNc</p>","","","","","","","","",""
"html-keyboard-response","321","462908","0.0-14.0-0.70","5d9a125f1714540016a40a27","650c16f0f2faf8d7a0d14c09","651c1d2478491dadcb55d0d2","null","null","<p style=""font-size: 60px; font-family: BACS"">ukYZJcL</p>","","","","","","","","",""
"html-keyboard-response","322","463940","0.0-14.0-0.71","5d9a125f1714540016a40a27","650c16f0f2faf8d7a0d14c09","651c1d2478491dadcb55d0d2","null","null","<p style=""font-size: 60px; font-family: BACS"">UJmrLkNc</p>","","","","","","","","",""
"html-keyboard-response","323","464956","0.0-14.0-0.72","5d9a125f1714540016a40a27","650c16f0f2faf8d7a0d14c09","651c1d2478491dadcb55d0d2","null","null","<p style=""font-size: 60px; font-family: BACS"">rbYbuYmb</p>","","","","","","","","",""
"html-keyboard-response","324","465971","0.0-14.0-0.73","5d9a125f1714540016a40a27","650c16f0f2faf8d7a0d14c09","651c1d2478491dadcb55d0d2","null","null","<p style=""font-size: 60px; font-family: BACS"">TKDktAY</p>","","","","","","","","",""
"html-keyboard-response","325","466982","0.0-14.0-0.74","5d9a125f1714540016a40a27","650c16f0f2faf8d7a0d14c09","651c1d2478491dadcb55d0d2","null","null","<p style=""font-size: 60px; font-family: BACS"">KDPADKP</p>","","","","","","","","",""
"html-keyboard-response","326","467997","0.0-14.0-0.75","5d9a125f1714540016a40a27","650c16f0f2faf8d7a0d14c09","651c1d2478491dadcb55d0d2","null","null","<p style=""font-size: 60px; font-family: BACS"">TAdhMOMC</p>","","","","","","","","",""
"html-keyboard-response","327","469004","0.0-14.0-0.76","5d9a125f1714540016a40a27","650c16f0f2faf8d7a0d14c09","651c1d2478491dadcb55d0d2","null","null","<p style=""font-size: 60px; font-family: BACS"">NkUALkNc</p>","","","","","","","","",""
"html-keyboard-response","328","470012","0.0-14.0-0.77","5d9a125f1714540016a40a27","650c16f0f2faf8d7a0d14c09","651c1d2478491dadcb55d0d2","null","null","<p style=""font-size: 60px; font-family: BACS"">BOckPOBT</p>","","","","","","","","",""
"html-keyboard-response","329","471019","0.0-14.0-0.78","5d9a125f1714540016a40a27","650c16f0f2faf8d7a0d14c09","651c1d2478491dadcb55d0d2","null","null","<p style=""font-size: 60px; font-family: BACS"">NkUAYmb</p>","","","","","","","","",""
"html-keyboard-response","330","472044","0.0-14.0-0.79","5d9a125f1714540016a40a27","650c16f0f2faf8d7a0d14c09","651c1d2478491dadcb55d0d2","null","null","<p style=""font-size: 60px; font-family: BACS"">BOckPDKP</p>","","","","","","","","",""
"html-keyboard-response","331","522764","0.0-15.0","5d9a125f1714540016a40a27","650c16f0f2faf8d7a0d14c09","651c1d2478491dadcb55d0d2","50721"," ","<p>Great, you've seen the fourth block of words. You may now take a short break.</p>
      <p>Press the spacebar when you're ready to continue.</p>","","","","","","","","",""
"html-keyboard-response","332","523771","0.0-16.0-0.0","5d9a125f1714540016a40a27","650c16f0f2faf8d7a0d14c09","651c1d2478491dadcb55d0d2","null","null","<p style=""font-size: 60px; font-family: BACS"">vAarOcZJ</p>","","","","","","","","",""
"html-keyboard-response","333","524778","0.0-16.0-0.1","5d9a125f1714540016a40a27","650c16f0f2faf8d7a0d14c09","651c1d2478491dadcb55d0d2","null","null","<p style=""font-size: 60px; font-family: BACS"">vAarOcZJ</p>","","","","","","","","",""
"html-keyboard-response","334","525786","0.0-16.0-0.2","5d9a125f1714540016a40a27","650c16f0f2faf8d7a0d14c09","651c1d2478491dadcb55d0d2","null","null","<p style=""font-size: 60px; font-family: BACS"">vAarOcZJ</p>","","","","","","","","",""
"html-keyboard-response","335","526802","0.0-16.0-0.3","5d9a125f1714540016a40a27","650c16f0f2faf8d7a0d14c09","651c1d2478491dadcb55d0d2","null","null","<p style=""font-size: 60px; font-family: BACS"">vAarOcZJ</p>","","","","","","","","",""
"html-keyboard-response","336","527818","0.0-16.0-0.4","5d9a125f1714540016a40a27","650c16f0f2faf8d7a0d14c09","651c1d2478491dadcb55d0d2","null","null","<p style=""font-size: 60px; font-family: BACS"">vAarOcZJ</p>","","","","","","","","",""
"html-keyboard-response","337","528834","0.0-16.0-0.5","5d9a125f1714540016a40a27","650c16f0f2faf8d7a0d14c09","651c1d2478491dadcb55d0d2","null","null","<p style=""font-size: 60px; font-family: BACS"">vAarOcZJ</p>","","","","","","","","",""
"html-keyboard-response","338","529836","0.0-16.0-0.6","5d9a125f1714540016a40a27","650c16f0f2faf8d7a0d14c09","651c1d2478491dadcb55d0d2","null","null","<p style=""font-size: 60px; font-family: BACS"">vAarOcZJ</p>","","","","","","","","",""
"html-keyboard-response","339","530852","0.0-16.0-0.7","5d9a125f1714540016a40a27","650c16f0f2faf8d7a0d14c09","651c1d2478491dadcb55d0d2","null","null","<p style=""font-size: 60px; font-family: BACS"">vAarOcZJ</p>","","","","","","","","",""
"html-keyboard-response","340","531859","0.0-16.0-0.8","5d9a125f1714540016a40a27","650c16f0f2faf8d7a0d14c09","651c1d2478491dadcb55d0d2","null","null","<p style=""font-size: 60px; font-family: BACS"">vAarOcZJ</p>","","","","","","","","",""
"html-keyboard-response","341","532873","0.0-16.0-0.9","5d9a125f1714540016a40a27","650c16f0f2faf8d7a0d14c09","651c1d2478491dadcb55d0d2","null","null","<p style=""font-size: 60px; font-family: BACS"">vAarOcZJ</p>","","","","","","","","",""
"html-keyboard-response","342","533881","0.0-16.0-0.10","5d9a125f1714540016a40a27","650c16f0f2faf8d7a0d14c09","651c1d2478491dadcb55d0d2","null","null","<p style=""font-size: 60px; font-family: BACS"">vAarOcZJ</p>","","","","","","","","",""
"html-keyboard-response","343","534896","0.0-16.0-0.11","5d9a125f1714540016a40a27","650c16f0f2faf8d7a0d14c09","651c1d2478491dadcb55d0d2","null","null","<p style=""font-size: 60px; font-family: BACS"">vAarOcZJ</p>","","","","","","","","",""
"html-keyboard-response","344","535914","0.0-16.0-0.12","5d9a125f1714540016a40a27","650c16f0f2faf8d7a0d14c09","651c1d2478491dadcb55d0d2","null","null","<p style=""font-size: 60px; font-family: BACS"">vAarOcZJ</p>","","","","","","","","",""
"html-keyboard-response","345","536926","0.0-16.0-0.13","5d9a125f1714540016a40a27","650c16f0f2faf8d7a0d14c09","651c1d2478491dadcb55d0d2","null","null","<p style=""font-size: 60px; font-family: BACS"">vAarOcZJ</p>","","","","","","","","",""
"html-keyboard-response","346","537929","0.0-16.0-0.14","5d9a125f1714540016a40a27","650c16f0f2faf8d7a0d14c09","651c1d2478491dadcb55d0d2","null","null","<p style=""font-size: 60px; font-family: BACS"">vAarOcZJ</p>","","","","","","","","",""
"html-keyboard-response","347","538937","0.0-16.0-0.15","5d9a125f1714540016a40a27","650c16f0f2faf8d7a0d14c09","651c1d2478491dadcb55d0d2","null","null","<p style=""font-size: 60px; font-family: BACS"">vAarOcZJ</p>","","","","","","","","",""
"html-keyboard-response","348","539946","0.0-16.0-0.16","5d9a125f1714540016a40a27","650c16f0f2faf8d7a0d14c09","651c1d2478491dadcb55d0d2","null","null","<p style=""font-size: 60px; font-family: BACS"">vAarOcZJ</p>","","","","","","","","",""
"html-keyboard-response","349","540961","0.0-16.0-0.17","5d9a125f1714540016a40a27","650c16f0f2faf8d7a0d14c09","651c1d2478491dadcb55d0d2","null","null","<p style=""font-size: 60px; font-family: BACS"">vAarOcZJ</p>","","","","","","","","",""
"html-keyboard-response","350","541979","0.0-16.0-0.18","5d9a125f1714540016a40a27","650c16f0f2faf8d7a0d14c09","651c1d2478491dadcb55d0d2","null","null","<p style=""font-size: 60px; font-family: BACS"">vAarOcZJ</p>","","","","","","","","",""
"html-keyboard-response","351","542993","0.0-16.0-0.19","5d9a125f1714540016a40a27","650c16f0f2faf8d7a0d14c09","651c1d2478491dadcb55d0d2","null","null","<p style=""font-size: 60px; font-family: BACS"">vAarOcZJ</p>","","","","","","","","",""
"html-keyboard-response","352","544009","0.0-16.0-0.20","5d9a125f1714540016a40a27","650c16f0f2faf8d7a0d14c09","651c1d2478491dadcb55d0d2","null","null","<p style=""font-size: 60px; font-family: BACS"">vAarOcZJ</p>","","","","","","","","",""
"html-keyboard-response","353","545013","0.0-16.0-0.21","5d9a125f1714540016a40a27","650c16f0f2faf8d7a0d14c09","651c1d2478491dadcb55d0d2","null","null","<p style=""font-size: 60px; font-family: BACS"">vAarOcZJ</p>","","","","","","","","",""
"html-keyboard-response","354","546015","0.0-16.0-0.22","5d9a125f1714540016a40a27","650c16f0f2faf8d7a0d14c09","651c1d2478491dadcb55d0d2","null","null","<p style=""font-size: 60px; font-family: BACS"">vAarOcZJ</p>","","","","","","","","",""
"html-keyboard-response","355","547033","0.0-16.0-0.23","5d9a125f1714540016a40a27","650c16f0f2faf8d7a0d14c09","651c1d2478491dadcb55d0d2","null","null","<p style=""font-size: 60px; font-family: BACS"">vAarOcZJ</p>","","","","","","","","",""
"html-keyboard-response","356","548048","0.0-16.0-0.24","5d9a125f1714540016a40a27","650c16f0f2faf8d7a0d14c09","651c1d2478491dadcb55d0d2","null","null","<p style=""font-size: 60px; font-family: BACS"">vAarOcZJ</p>","","","","","","","","",""
"html-keyboard-response","357","549072","0.0-16.0-0.25","5d9a125f1714540016a40a27","650c16f0f2faf8d7a0d14c09","651c1d2478491dadcb55d0d2","null","null","<p style=""font-size: 60px; font-family: BACS"">vAarOcZJ</p>","","","","","","","","",""
"html-keyboard-response","358","550074","0.0-16.0-0.26","5d9a125f1714540016a40a27","650c16f0f2faf8d7a0d14c09","651c1d2478491dadcb55d0d2","null","null","<p style=""font-size: 60px; font-family: BACS"">vAarOcZJ</p>","","","","","","","","",""
"html-keyboard-response","359","551088","0.0-16.0-0.27","5d9a125f1714540016a40a27","650c16f0f2faf8d7a0d14c09","651c1d2478491dadcb55d0d2","null","null","<p style=""font-size: 60px; font-family: BACS"">vAarOcZJ</p>","","","","","","","","",""
"html-keyboard-response","360","552105","0.0-16.0-0.28","5d9a125f1714540016a40a27","650c16f0f2faf8d7a0d14c09","651c1d2478491dadcb55d0d2","null","null","<p style=""font-size: 60px; font-family: BACS"">vAarOcZJ</p>","","","","","","","","",""
"html-keyboard-response","361","553136","0.0-16.0-0.29","5d9a125f1714540016a40a27","650c16f0f2faf8d7a0d14c09","651c1d2478491dadcb55d0d2","null","null","<p style=""font-size: 60px; font-family: BACS"">vAarOcZJ</p>","","","","","","","","",""
"html-keyboard-response","362","554152","0.0-16.0-0.30","5d9a125f1714540016a40a27","650c16f0f2faf8d7a0d14c09","651c1d2478491dadcb55d0d2","null","null","<p style=""font-size: 60px; font-family: BACS"">vAarOcZJ</p>","","","","","","","","",""
"html-keyboard-response","363","555155","0.0-16.0-0.31","5d9a125f1714540016a40a27","650c16f0f2faf8d7a0d14c09","651c1d2478491dadcb55d0d2","null","null","<p style=""font-size: 60px; font-family: BACS"">vAarOcZJ</p>","","","","","","","","",""
"html-keyboard-response","364","556186","0.0-16.0-0.32","5d9a125f1714540016a40a27","650c16f0f2faf8d7a0d14c09","651c1d2478491dadcb55d0d2","null","null","<p style=""font-size: 60px; font-family: BACS"">vAarOcZJ</p>","","","","","","","","",""
"html-keyboard-response","365","557201","0.0-16.0-0.33","5d9a125f1714540016a40a27","650c16f0f2faf8d7a0d14c09","651c1d2478491dadcb55d0d2","null","null","<p style=""font-size: 60px; font-family: BACS"">vAarOcZJ</p>","","","","","","","","",""
"html-keyboard-response","366","558210","0.0-16.0-0.34","5d9a125f1714540016a40a27","650c16f0f2faf8d7a0d14c09","651c1d2478491dadcb55d0d2","null","null","<p style=""font-size: 60px; font-family: BACS"">vAarOcZJ</p>","","","","","","","","",""
"html-keyboard-response","367","559225","0.0-16.0-0.35","5d9a125f1714540016a40a27","650c16f0f2faf8d7a0d14c09","651c1d2478491dadcb55d0d2","null","null","<p style=""font-size: 60px; font-family: BACS"">vAarOcZJ</p>","","","","","","","","",""
"html-keyboard-response","368","560236","0.0-16.0-0.36","5d9a125f1714540016a40a27","650c16f0f2faf8d7a0d14c09","651c1d2478491dadcb55d0d2","null","null","<p style=""font-size: 60px; font-family: BACS"">vAarOcZJ</p>","","","","","","","","",""
"html-keyboard-response","369","561251","0.0-16.0-0.37","5d9a125f1714540016a40a27","650c16f0f2faf8d7a0d14c09","651c1d2478491dadcb55d0d2","null","null","<p style=""font-size: 60px; font-family: BACS"">vAarOcZJ</p>","","","","","","","","",""
"html-keyboard-response","370","562282","0.0-16.0-0.38","5d9a125f1714540016a40a27","650c16f0f2faf8d7a0d14c09","651c1d2478491dadcb55d0d2","null","null","<p style=""font-size: 60px; font-family: BACS"">vAarOcZJ</p>","","","","","","","","",""
"html-keyboard-response","371","563292","0.0-16.0-0.39","5d9a125f1714540016a40a27","650c16f0f2faf8d7a0d14c09","651c1d2478491dadcb55d0d2","null","null","<p style=""font-size: 60px; font-family: BACS"">vAarOcZJ</p>","","","","","","","","",""
"html-keyboard-response","372","564314","0.0-16.0-0.40","5d9a125f1714540016a40a27","650c16f0f2faf8d7a0d14c09","651c1d2478491dadcb55d0d2","null","null","<p style=""font-size: 60px; font-family: BACS"">vAarOcZJ</p>","","","","","","","","",""
"html-keyboard-response","373","565329","0.0-16.0-0.41","5d9a125f1714540016a40a27","650c16f0f2faf8d7a0d14c09","651c1d2478491dadcb55d0d2","null","null","<p style=""font-size: 60px; font-family: BACS"">vAarOcZJ</p>","","","","","","","","",""
"html-keyboard-response","374","566332","0.0-16.0-0.42","5d9a125f1714540016a40a27","650c16f0f2faf8d7a0d14c09","651c1d2478491dadcb55d0d2","null","null","<p style=""font-size: 60px; font-family: BACS"">vAarOcZJ</p>","","","","","","","","",""
"html-keyboard-response","375","567348","0.0-16.0-0.43","5d9a125f1714540016a40a27","650c16f0f2faf8d7a0d14c09","651c1d2478491dadcb55d0d2","null","null","<p style=""font-size: 60px; font-family: BACS"">vAarOcZJ</p>","","","","","","","","",""
"html-keyboard-response","376","568373","0.0-16.0-0.44","5d9a125f1714540016a40a27","650c16f0f2faf8d7a0d14c09","651c1d2478491dadcb55d0d2","null","null","<p style=""font-size: 60px; font-family: BACS"">vAarOcZJ</p>","","","","","","","","",""
"html-keyboard-response","377","569376","0.0-16.0-0.45","5d9a125f1714540016a40a27","650c16f0f2faf8d7a0d14c09","651c1d2478491dadcb55d0d2","null","null","<p style=""font-size: 60px; font-family: BACS"">vAarOcZJ</p>","","","","","","","","",""
"html-keyboard-response","378","570378","0.0-16.0-0.46","5d9a125f1714540016a40a27","650c16f0f2faf8d7a0d14c09","651c1d2478491dadcb55d0d2","null","null","<p style=""font-size: 60px; font-family: BACS"">vAarOcZJ</p>","","","","","","","","",""
"html-keyboard-response","379","571408","0.0-16.0-0.47","5d9a125f1714540016a40a27","650c16f0f2faf8d7a0d14c09","651c1d2478491dadcb55d0d2","null","null","<p style=""font-size: 60px; font-family: BACS"">vAarOcZJ</p>","","","","","","","","",""
"html-keyboard-response","380","572410","0.0-16.0-0.48","5d9a125f1714540016a40a27","650c16f0f2faf8d7a0d14c09","651c1d2478491dadcb55d0d2","null","null","<p style=""font-size: 60px; font-family: BACS"">vAarOcZJ</p>","","","","","","","","",""
"html-keyboard-response","381","573443","0.0-16.0-0.49","5d9a125f1714540016a40a27","650c16f0f2faf8d7a0d14c09","651c1d2478491dadcb55d0d2","null","null","<p style=""font-size: 60px; font-family: BACS"">vAarOcZJ</p>","","","","","","","","",""
"html-keyboard-response","382","574445","0.0-16.0-0.50","5d9a125f1714540016a40a27","650c16f0f2faf8d7a0d14c09","651c1d2478491dadcb55d0d2","null","null","<p style=""font-size: 60px; font-family: BACS"">vAarOcZJ</p>","","","","","","","","",""
"html-keyboard-response","383","575458","0.0-16.0-0.51","5d9a125f1714540016a40a27","650c16f0f2faf8d7a0d14c09","651c1d2478491dadcb55d0d2","null","null","<p style=""font-size: 60px; font-family: BACS"">vAarOcZJ</p>","","","","","","","","",""
"html-keyboard-response","384","576476","0.0-16.0-0.52","5d9a125f1714540016a40a27","650c16f0f2faf8d7a0d14c09","651c1d2478491dadcb55d0d2","null","null","<p style=""font-size: 60px; font-family: BACS"">vAarOcZJ</p>","","","","","","","","",""
"html-keyboard-response","385","577484","0.0-16.0-0.53","5d9a125f1714540016a40a27","650c16f0f2faf8d7a0d14c09","651c1d2478491dadcb55d0d2","null","null","<p style=""font-size: 60px; font-family: BACS"">vAarOcZJ</p>","","","","","","","","",""
"html-keyboard-response","386","578492","0.0-16.0-0.54","5d9a125f1714540016a40a27","650c16f0f2faf8d7a0d14c09","651c1d2478491dadcb55d0d2","null","null","<p style=""font-size: 60px; font-family: BACS"">vAarOcZJ</p>","","","","","","","","",""
"html-keyboard-response","387","579508","0.0-16.0-0.55","5d9a125f1714540016a40a27","650c16f0f2faf8d7a0d14c09","651c1d2478491dadcb55d0d2","null","null","<p style=""font-size: 60px; font-family: BACS"">vAarOcZJ</p>","","","","","","","","",""
"html-keyboard-response","388","580513","0.0-16.0-0.56","5d9a125f1714540016a40a27","650c16f0f2faf8d7a0d14c09","651c1d2478491dadcb55d0d2","null","null","<p style=""font-size: 60px; font-family: BACS"">vAarOcZJ</p>","","","","","","","","",""
"html-keyboard-response","389","581522","0.0-16.0-0.57","5d9a125f1714540016a40a27","650c16f0f2faf8d7a0d14c09","651c1d2478491dadcb55d0d2","null","null","<p style=""font-size: 60px; font-family: BACS"">vAarOcZJ</p>","","","","","","","","",""
"html-keyboard-response","390","582554","0.0-16.0-0.58","5d9a125f1714540016a40a27","650c16f0f2faf8d7a0d14c09","651c1d2478491dadcb55d0d2","null","null","<p style=""font-size: 60px; font-family: BACS"">vAarOcZJ</p>","","","","","","","","",""
"html-keyboard-response","391","583572","0.0-16.0-0.59","5d9a125f1714540016a40a27","650c16f0f2faf8d7a0d14c09","651c1d2478491dadcb55d0d2","null","null","<p style=""font-size: 60px; font-family: BACS"">vAarOcZJ</p>","","","","","","","","",""
"html-keyboard-response","392","584574","0.0-16.0-0.60","5d9a125f1714540016a40a27","650c16f0f2faf8d7a0d14c09","651c1d2478491dadcb55d0d2","null","null","<p style=""font-size: 60px; font-family: BACS"">vAarOcZJ</p>","","","","","","","","",""
"html-keyboard-response","393","585588","0.0-16.0-0.61","5d9a125f1714540016a40a27","650c16f0f2faf8d7a0d14c09","651c1d2478491dadcb55d0d2","null","null","<p style=""font-size: 60px; font-family: BACS"">vAarOcZJ</p>","","","","","","","","",""
"html-keyboard-response","394","586602","0.0-16.0-0.62","5d9a125f1714540016a40a27","650c16f0f2faf8d7a0d14c09","651c1d2478491dadcb55d0d2","null","null","<p style=""font-size: 60px; font-family: BACS"">vAarOcZJ</p>","","","","","","","","",""
"html-keyboard-response","395","587629","0.0-16.0-0.63","5d9a125f1714540016a40a27","650c16f0f2faf8d7a0d14c09","651c1d2478491dadcb55d0d2","null","null","<p style=""font-size: 60px; font-family: BACS"">vAarOcZJ</p>","","","","","","","","",""
"html-keyboard-response","396","588646","0.0-16.0-0.64","5d9a125f1714540016a40a27","650c16f0f2faf8d7a0d14c09","651c1d2478491dadcb55d0d2","null","null","<p style=""font-size: 60px; font-family: BACS"">vAarOcZJ</p>","","","","","","","","",""
"html-keyboard-response","397","589654","0.0-16.0-0.65","5d9a125f1714540016a40a27","650c16f0f2faf8d7a0d14c09","651c1d2478491dadcb55d0d2","null","null","<p style=""font-size: 60px; font-family: BACS"">vAarOcZJ</p>","","","","","","","","",""
"html-keyboard-response","398","590668","0.0-16.0-0.66","5d9a125f1714540016a40a27","650c16f0f2faf8d7a0d14c09","651c1d2478491dadcb55d0d2","null","null","<p style=""font-size: 60px; font-family: BACS"">vAarOcZJ</p>","","","","","","","","",""
"html-keyboard-response","399","591676","0.0-16.0-0.67","5d9a125f1714540016a40a27","650c16f0f2faf8d7a0d14c09","651c1d2478491dadcb55d0d2","null","null","<p style=""font-size: 60px; font-family: BACS"">vAarOcZJ</p>","","","","","","","","",""
"html-keyboard-response","400","592685","0.0-16.0-0.68","5d9a125f1714540016a40a27","650c16f0f2faf8d7a0d14c09","651c1d2478491dadcb55d0d2","null","null","<p style=""font-size: 60px; font-family: BACS"">vAarOcZJ</p>","","","","","","","","",""
