"trial_type","trial_index","time_elapsed","internal_node_id","subject_id","study_id","session_id","rt","response","stimulus","success","item","task","correct_response","testing_condition","correct","target","confound","name"
"pavlovia","0","871","0.0-0.0","60664619eac28843177fee96","650c16f0f2faf8d7a0d14c09","651c1b169a806b7d581df914","","","","","","","","","","","",""
"survey-html-form","1","33476","0.0-1.0","60664619eac28843177fee96","650c16f0f2faf8d7a0d14c09","651c1b169a806b7d581df914","32603","{""ID"":""60664619eac28843177fee96""}","","","","","","","","","",""
"html-keyboard-response","2","52057","0.0-2.0","60664619eac28843177fee96","650c16f0f2faf8d7a0d14c09","651c1b169a806b7d581df914","18580"," ","<p style=""font-size: 15px;"">Before beginning, we ask that you read the consent information and confirm your agreement to participate in the experiment.</p>
      <p style=""font-size: 15px;""> We ask that you remember that this is a research project and that your participation is entirely voluntary. You can stop your participation at any time, without needing to provide any explanation. The study we're asking you to participate in aims at examining how readers process written words. You will be engaged in a session of apprximately 20 minutes, followed by a brief questionnaire. You will have the opportunity to take a few breaks during the experiment. You will be paid £4 for your participation, corresponding to a rate of £8/hour. While this experiment looks at cognitive faculties, this experiment doesn't constitute clinical proof of eventual pathologies.</p>
      <p style=""font-size: 15px;"">All of the information collected thanks to yours and others' participation will be held in a secure password-protected server, and will not be shared with anyone not authorised to view it. Your personal information will be kept with an arbitrary participant ID. Thanks to this data anonymity process, any researcher analysing the data won't be able to track the information back to a specific participant. Therefore, this process will make identifying you impossibile, even when results from the study will be published in scientific reviews, presented at congresses, or at any other public forum. More generally, the collected data will be treated in accordance with the laws on privacy and conformity to the Legislative Degree n. 196 ""Code regarding the protection of personal data"" of the 30th of June 2003 and to the European Regulation 2016/670 (General Data Protection Regulation - GDPR). The Data Protection Officer is Avv. Valentina Carollo, who can be contacted at the following email addresses: <a href=""mailto:dpo@sissa.it"">dpo@sissa.it</a> or <a href=""mailto:rpd@sissa.it"">rpd@sissa.it</a> - PEC: <a href=""mailto:protocollo@pec.sissa.it"">protocollo@pec.sissa.it</a>.</p>
      <p style=""font-size: 15px;""> Before expressing your consent to participate, we would like to remind you again that in case you need explanations on any aspect of the experimental procedure, the researcher is at your disposition (<a href=""mailto:aliebelt@sissa.it"">aliebelt@sissa.it</a>, <a href=""mailto:davide.crepaldi@sissa.it"">davide.crepaldi@sissa.it</a>).</p>
      <p style=""font-size: 15px;"">If you would like to download the informed consent form, you can do so here: <a href=""BASL-Informed_Consent.pdf"" download>informed consent form</a>.</p>
      <p style=""font-size: 15px;"">We ask that you press the spacebar to proceed to the consent section.</p>","","","","","","","","",""
"survey-html-form","3","67955","0.0-3.0","60664619eac28843177fee96","650c16f0f2faf8d7a0d14c09","651c1b169a806b7d581df914","15898","{""consent1"":""YES"",""consent2"":""YES"",""consent3"":""YES"",""consent4"":""YES"",""consent5"":""YES"",""consent6"":""YES""}","","","","","","","","","",""
"fullscreen","4","76739","0.0-4.0","60664619eac28843177fee96","650c16f0f2faf8d7a0d14c09","651c1b169a806b7d581df914","","","","true","","","","","","","",""
"html-keyboard-response","5","96297","0.0-5.0","60664619eac28843177fee96","650c16f0f2faf8d7a0d14c09","651c1b169a806b7d581df914","19558"," ","<p>Welcome, and thank you very much for your time!</p>
      <p>In this experiment, you'll be a language expert who's been asked to take a look at words that Earth has received in its first communication with aliens. Your task, in this first part of the experiment, is to pay close attention to the words you'll be shown; later, world leaders will ask you questions on what you saw. The words will be shown to you quite quickly; it seems that the aliens were in a hurry :-)</p>
      <p>Press the spacebar to continue.<p>","","","","","","","","",""
"html-keyboard-response","6","96351","0.0-6.0","60664619eac28843177fee96","650c16f0f2faf8d7a0d14c09","651c1b169a806b7d581df914","null","null","<p style=""font-size: 120px; font-family: BACS""> </p>","","","","","","","","",""
"html-keyboard-response","7","107224","0.0-7.0","60664619eac28843177fee96","650c16f0f2faf8d7a0d14c09","651c1b169a806b7d581df914","10872"," ","<p>Here is an example of the words you'll see:</p>
      <img src='esempio.png' height='400px'>
      <p>When you're ready to begin, press the spacebar.</p></div>","","","","","","","","",""
"html-keyboard-response","8","108225","0.0-8.0-0.0","60664619eac28843177fee96","650c16f0f2faf8d7a0d14c09","651c1b169a806b7d581df914","null","null","<p style=""font-size: 60px; font-family: BACS"">ECtbDlMck</p>","","","","","","","","",""
"html-keyboard-response","9","109236","0.0-8.0-0.1","60664619eac28843177fee96","650c16f0f2faf8d7a0d14c09","651c1b169a806b7d581df914","null","null","<p style=""font-size: 60px; font-family: BACS"">COTKTRK</p>","","","","","","","","",""
"html-keyboard-response","10","110238","0.0-8.0-0.2","60664619eac28843177fee96","650c16f0f2faf8d7a0d14c09","651c1b169a806b7d581df914","null","null","<p style=""font-size: 60px; font-family: BACS"">OmtlDYBO</p>","","","","","","","","",""
"html-keyboard-response","11","111247","0.0-8.0-0.3","60664619eac28843177fee96","650c16f0f2faf8d7a0d14c09","651c1b169a806b7d581df914","null","null","<p style=""font-size: 60px; font-family: BACS"">mLdkZbLd</p>","","","","","","","","",""
"html-keyboard-response","12","112257","0.0-8.0-0.4","60664619eac28843177fee96","650c16f0f2faf8d7a0d14c09","651c1b169a806b7d581df914","null","null","<p style=""font-size: 60px; font-family: BACS"">kCRmlMck</p>","","","","","","","","",""
"html-keyboard-response","13","113264","0.0-8.0-0.5","60664619eac28843177fee96","650c16f0f2faf8d7a0d14c09","651c1b169a806b7d581df914","null","null","<p style=""font-size: 60px; font-family: BACS"">YmBdYBO</p>","","","","","","","","",""
"html-keyboard-response","14","114277","0.0-8.0-0.6","60664619eac28843177fee96","650c16f0f2faf8d7a0d14c09","651c1b169a806b7d581df914","null","null","<p style=""font-size: 60px; font-family: BACS"">kDRKcYDTk</p>","","","","","","","","",""
"html-keyboard-response","15","115280","0.0-8.0-0.7","60664619eac28843177fee96","650c16f0f2faf8d7a0d14c09","651c1b169a806b7d581df914","null","null","<p style=""font-size: 60px; font-family: BACS"">rckOvUdm</p>","","","","","","","","",""
"html-keyboard-response","16","116286","0.0-8.0-0.8","60664619eac28843177fee96","650c16f0f2faf8d7a0d14c09","651c1b169a806b7d581df914","null","null","<p style=""font-size: 60px; font-family: BACS"">mLdkZJQA</p>","","","","","","","","",""
"html-keyboard-response","17","117292","0.0-8.0-0.9","60664619eac28843177fee96","650c16f0f2faf8d7a0d14c09","651c1b169a806b7d581df914","null","null","<p style=""font-size: 60px; font-family: BACS"">hmKPMTRK</p>","","","","","","","","",""
"html-keyboard-response","18","118308","0.0-8.0-0.10","60664619eac28843177fee96","650c16f0f2faf8d7a0d14c09","651c1b169a806b7d581df914","null","null","<p style=""font-size: 60px; font-family: BACS"">ctktYBO</p>","","","","","","","","",""
"html-keyboard-response","19","119320","0.0-8.0-0.11","60664619eac28843177fee96","650c16f0f2faf8d7a0d14c09","651c1b169a806b7d581df914","null","null","<p style=""font-size: 60px; font-family: BACS"">ckLALuOAO</p>","","","","","","","","",""
"html-keyboard-response","20","120322","0.0-8.0-0.12","60664619eac28843177fee96","650c16f0f2faf8d7a0d14c09","651c1b169a806b7d581df914","null","null","<p style=""font-size: 60px; font-family: BACS"">vkYGlAld</p>","","","","","","","","",""
"html-keyboard-response","21","121338","0.0-8.0-0.13","60664619eac28843177fee96","650c16f0f2faf8d7a0d14c09","651c1b169a806b7d581df914","null","null","<p style=""font-size: 60px; font-family: BACS"">ECtbDTRK</p>","","","","","","","","",""
"html-keyboard-response","22","122347","0.0-8.0-0.14","60664619eac28843177fee96","650c16f0f2faf8d7a0d14c09","651c1b169a806b7d581df914","null","null","<p style=""font-size: 60px; font-family: BACS"">EPERdYBO</p>","","","","","","","","",""
"html-keyboard-response","23","123353","0.0-8.0-0.15","60664619eac28843177fee96","650c16f0f2faf8d7a0d14c09","651c1b169a806b7d581df914","null","null","<p style=""font-size: 60px; font-family: BACS"">JZOAkuOAO</p>","","","","","","","","",""
"html-keyboard-response","24","124368","0.0-8.0-0.16","60664619eac28843177fee96","650c16f0f2faf8d7a0d14c09","651c1b169a806b7d581df914","null","null","<p style=""font-size: 60px; font-family: BACS"">hmKPMYDTk</p>","","","","","","","","",""
"html-keyboard-response","25","125382","0.0-8.0-0.17","60664619eac28843177fee96","650c16f0f2faf8d7a0d14c09","651c1b169a806b7d581df914","null","null","<p style=""font-size: 60px; font-family: BACS"">YmBdlMck</p>","","","","","","","","",""
"html-keyboard-response","26","126399","0.0-8.0-0.18","60664619eac28843177fee96","650c16f0f2faf8d7a0d14c09","651c1b169a806b7d581df914","null","null","<p style=""font-size: 60px; font-family: BACS"">OmtlDYDTk</p>","","","","","","","","",""
"html-keyboard-response","27","127406","0.0-8.0-0.19","60664619eac28843177fee96","650c16f0f2faf8d7a0d14c09","651c1b169a806b7d581df914","null","null","<p style=""font-size: 60px; font-family: BACS"">ctktBCAd</p>","","","","","","","","",""
"html-keyboard-response","28","128408","0.0-8.0-0.20","60664619eac28843177fee96","650c16f0f2faf8d7a0d14c09","651c1b169a806b7d581df914","null","null","<p style=""font-size: 60px; font-family: BACS"">kDRKclMck</p>","","","","","","","","",""
"html-keyboard-response","29","129420","0.0-8.0-0.21","60664619eac28843177fee96","650c16f0f2faf8d7a0d14c09","651c1b169a806b7d581df914","null","null","<p style=""font-size: 60px; font-family: BACS"">LckGNJQA</p>","","","","","","","","",""
"html-keyboard-response","30","130426","0.0-8.0-0.22","60664619eac28843177fee96","650c16f0f2faf8d7a0d14c09","651c1b169a806b7d581df914","null","null","<p style=""font-size: 60px; font-family: BACS"">COTKlMck</p>","","","","","","","","",""
"html-keyboard-response","31","131432","0.0-8.0-0.23","60664619eac28843177fee96","650c16f0f2faf8d7a0d14c09","651c1b169a806b7d581df914","null","null","<p style=""font-size: 60px; font-family: BACS"">BATOcBCAd</p>","","","","","","","","",""
"html-keyboard-response","32","132442","0.0-8.0-0.24","60664619eac28843177fee96","650c16f0f2faf8d7a0d14c09","651c1b169a806b7d581df914","null","null","<p style=""font-size: 60px; font-family: BACS"">ctktTRK</p>","","","","","","","","",""
"html-keyboard-response","33","133444","0.0-8.0-0.25","60664619eac28843177fee96","650c16f0f2faf8d7a0d14c09","651c1b169a806b7d581df914","null","null","<p style=""font-size: 60px; font-family: BACS"">kDRKcYBO</p>","","","","","","","","",""
"html-keyboard-response","34","134449","0.0-8.0-0.26","60664619eac28843177fee96","650c16f0f2faf8d7a0d14c09","651c1b169a806b7d581df914","null","null","<p style=""font-size: 60px; font-family: BACS"">LQurbLd</p>","","","","","","","","",""
"html-keyboard-response","35","135460","0.0-8.0-0.27","60664619eac28843177fee96","650c16f0f2faf8d7a0d14c09","651c1b169a806b7d581df914","null","null","<p style=""font-size: 60px; font-family: BACS"">JZOAkAld</p>","","","","","","","","",""
"html-keyboard-response","36","136463","0.0-8.0-0.28","60664619eac28843177fee96","650c16f0f2faf8d7a0d14c09","651c1b169a806b7d581df914","null","null","<p style=""font-size: 60px; font-family: BACS"">ckLALbLd</p>","","","","","","","","",""
"html-keyboard-response","37","137473","0.0-8.0-0.29","60664619eac28843177fee96","650c16f0f2faf8d7a0d14c09","651c1b169a806b7d581df914","null","null","<p style=""font-size: 60px; font-family: BACS"">JZOAkJQA</p>","","","","","","","","",""
"html-keyboard-response","38","138474","0.0-8.0-0.30","60664619eac28843177fee96","650c16f0f2faf8d7a0d14c09","651c1b169a806b7d581df914","null","null","<p style=""font-size: 60px; font-family: BACS"">EPERdYDTk</p>","","","","","","","","",""
"html-keyboard-response","39","139474","0.0-8.0-0.31","60664619eac28843177fee96","650c16f0f2faf8d7a0d14c09","651c1b169a806b7d581df914","null","null","<p style=""font-size: 60px; font-family: BACS"">YmBdTRK</p>","","","","","","","","",""
"html-keyboard-response","40","140489","0.0-8.0-0.32","60664619eac28843177fee96","650c16f0f2faf8d7a0d14c09","651c1b169a806b7d581df914","null","null","<p style=""font-size: 60px; font-family: BACS"">kGlUbLd</p>","","","","","","","","",""
"html-keyboard-response","41","141492","0.0-8.0-0.33","60664619eac28843177fee96","650c16f0f2faf8d7a0d14c09","651c1b169a806b7d581df914","null","null","<p style=""font-size: 60px; font-family: BACS"">EPERdlMck</p>","","","","","","","","",""
"html-keyboard-response","42","142499","0.0-8.0-0.34","60664619eac28843177fee96","650c16f0f2faf8d7a0d14c09","651c1b169a806b7d581df914","null","null","<p style=""font-size: 60px; font-family: BACS"">GAcYbLd</p>","","","","","","","","",""
"html-keyboard-response","43","143503","0.0-8.0-0.35","60664619eac28843177fee96","650c16f0f2faf8d7a0d14c09","651c1b169a806b7d581df914","null","null","<p style=""font-size: 60px; font-family: BACS"">rdLJauOAO</p>","","","","","","","","",""
"html-keyboard-response","44","144504","0.0-8.0-0.36","60664619eac28843177fee96","650c16f0f2faf8d7a0d14c09","651c1b169a806b7d581df914","null","null","<p style=""font-size: 60px; font-family: BACS"">vkYGlvUdm</p>","","","","","","","","",""
"html-keyboard-response","45","145520","0.0-8.0-0.37","60664619eac28843177fee96","650c16f0f2faf8d7a0d14c09","651c1b169a806b7d581df914","null","null","<p style=""font-size: 60px; font-family: BACS"">ECtbDBCAd</p>","","","","","","","","",""
"html-keyboard-response","46","146522","0.0-8.0-0.38","60664619eac28843177fee96","650c16f0f2faf8d7a0d14c09","651c1b169a806b7d581df914","null","null","<p style=""font-size: 60px; font-family: BACS"">LQurJQA</p>","","","","","","","","",""
"html-keyboard-response","47","147532","0.0-8.0-0.39","60664619eac28843177fee96","650c16f0f2faf8d7a0d14c09","651c1b169a806b7d581df914","null","null","<p style=""font-size: 60px; font-family: BACS"">mLdkZAld</p>","","","","","","","","",""
"html-keyboard-response","48","148536","0.0-8.0-0.40","60664619eac28843177fee96","650c16f0f2faf8d7a0d14c09","651c1b169a806b7d581df914","null","null","<p style=""font-size: 60px; font-family: BACS"">BATOcYBO</p>","","","","","","","","",""
"html-keyboard-response","49","149542","0.0-8.0-0.41","60664619eac28843177fee96","650c16f0f2faf8d7a0d14c09","651c1b169a806b7d581df914","null","null","<p style=""font-size: 60px; font-family: BACS"">GAcYuOAO</p>","","","","","","","","",""
"html-keyboard-response","50","150546","0.0-8.0-0.42","60664619eac28843177fee96","650c16f0f2faf8d7a0d14c09","651c1b169a806b7d581df914","null","null","<p style=""font-size: 60px; font-family: BACS"">ckLALAld</p>","","","","","","","","",""
"html-keyboard-response","51","151548","0.0-8.0-0.43","60664619eac28843177fee96","650c16f0f2faf8d7a0d14c09","651c1b169a806b7d581df914","null","null","<p style=""font-size: 60px; font-family: BACS"">rdLJabLd</p>","","","","","","","","",""
"html-keyboard-response","52","152549","0.0-8.0-0.44","60664619eac28843177fee96","650c16f0f2faf8d7a0d14c09","651c1b169a806b7d581df914","null","null","<p style=""font-size: 60px; font-family: BACS"">kCRmTRK</p>","","","","","","","","",""
"html-keyboard-response","53","153554","0.0-8.0-0.45","60664619eac28843177fee96","650c16f0f2faf8d7a0d14c09","651c1b169a806b7d581df914","null","null","<p style=""font-size: 60px; font-family: BACS"">ctktYDTk</p>","","","","","","","","",""
"html-keyboard-response","54","154567","0.0-8.0-0.46","60664619eac28843177fee96","650c16f0f2faf8d7a0d14c09","651c1b169a806b7d581df914","null","null","<p style=""font-size: 60px; font-family: BACS"">OmtlDTRK</p>","","","","","","","","",""
"html-keyboard-response","55","155575","0.0-8.0-0.47","60664619eac28843177fee96","650c16f0f2faf8d7a0d14c09","651c1b169a806b7d581df914","null","null","<p style=""font-size: 60px; font-family: BACS"">COTKBCAd</p>","","","","","","","","",""
"html-keyboard-response","56","156578","0.0-8.0-0.48","60664619eac28843177fee96","650c16f0f2faf8d7a0d14c09","651c1b169a806b7d581df914","null","null","<p style=""font-size: 60px; font-family: BACS"">mLdkZuOAO</p>","","","","","","","","",""
"html-keyboard-response","57","157582","0.0-8.0-0.49","60664619eac28843177fee96","650c16f0f2faf8d7a0d14c09","651c1b169a806b7d581df914","null","null","<p style=""font-size: 60px; font-family: BACS"">BATOclMck</p>","","","","","","","","",""
"html-keyboard-response","58","158584","0.0-8.0-0.50","60664619eac28843177fee96","650c16f0f2faf8d7a0d14c09","651c1b169a806b7d581df914","null","null","<p style=""font-size: 60px; font-family: BACS"">LckGNvUdm</p>","","","","","","","","",""
"html-keyboard-response","59","159590","0.0-8.0-0.51","60664619eac28843177fee96","650c16f0f2faf8d7a0d14c09","651c1b169a806b7d581df914","null","null","<p style=""font-size: 60px; font-family: BACS"">vkYGlbLd</p>","","","","","","","","",""
"html-keyboard-response","60","160597","0.0-8.0-0.52","60664619eac28843177fee96","650c16f0f2faf8d7a0d14c09","651c1b169a806b7d581df914","null","null","<p style=""font-size: 60px; font-family: BACS"">rckOJQA</p>","","","","","","","","",""
"html-keyboard-response","61","161602","0.0-8.0-0.53","60664619eac28843177fee96","650c16f0f2faf8d7a0d14c09","651c1b169a806b7d581df914","null","null","<p style=""font-size: 60px; font-family: BACS"">BATOcTRK</p>","","","","","","","","",""
"html-keyboard-response","62","162610","0.0-8.0-0.54","60664619eac28843177fee96","650c16f0f2faf8d7a0d14c09","651c1b169a806b7d581df914","null","null","<p style=""font-size: 60px; font-family: BACS"">JZOAkbLd</p>","","","","","","","","",""
"html-keyboard-response","63","163616","0.0-8.0-0.55","60664619eac28843177fee96","650c16f0f2faf8d7a0d14c09","651c1b169a806b7d581df914","null","null","<p style=""font-size: 60px; font-family: BACS"">rckOAld</p>","","","","","","","","",""
"html-keyboard-response","64","164619","0.0-8.0-0.56","60664619eac28843177fee96","650c16f0f2faf8d7a0d14c09","651c1b169a806b7d581df914","null","null","<p style=""font-size: 60px; font-family: BACS"">hmKPMlMck</p>","","","","","","","","",""
"html-keyboard-response","65","165625","0.0-8.0-0.57","60664619eac28843177fee96","650c16f0f2faf8d7a0d14c09","651c1b169a806b7d581df914","null","null","<p style=""font-size: 60px; font-family: BACS"">COTKYBO</p>","","","","","","","","",""
"html-keyboard-response","66","166640","0.0-8.0-0.58","60664619eac28843177fee96","650c16f0f2faf8d7a0d14c09","651c1b169a806b7d581df914","null","null","<p style=""font-size: 60px; font-family: BACS"">rdLJavUdm</p>","","","","","","","","",""
"html-keyboard-response","67","167647","0.0-8.0-0.59","60664619eac28843177fee96","650c16f0f2faf8d7a0d14c09","651c1b169a806b7d581df914","null","null","<p style=""font-size: 60px; font-family: BACS"">hmKPMBCAd</p>","","","","","","","","",""
"html-keyboard-response","68","168649","0.0-8.0-0.60","60664619eac28843177fee96","650c16f0f2faf8d7a0d14c09","651c1b169a806b7d581df914","null","null","<p style=""font-size: 60px; font-family: BACS"">LckGNuOAO</p>","","","","","","","","",""
"html-keyboard-response","69","169650","0.0-8.0-0.61","60664619eac28843177fee96","650c16f0f2faf8d7a0d14c09","651c1b169a806b7d581df914","null","null","<p style=""font-size: 60px; font-family: BACS"">kGlUJQA</p>","","","","","","","","",""
"html-keyboard-response","70","170659","0.0-8.0-0.62","60664619eac28843177fee96","650c16f0f2faf8d7a0d14c09","651c1b169a806b7d581df914","null","null","<p style=""font-size: 60px; font-family: BACS"">EPERdBCAd</p>","","","","","","","","",""
"html-keyboard-response","71","171669","0.0-8.0-0.63","60664619eac28843177fee96","650c16f0f2faf8d7a0d14c09","651c1b169a806b7d581df914","null","null","<p style=""font-size: 60px; font-family: BACS"">kCRmYBO</p>","","","","","","","","",""
"html-keyboard-response","72","172676","0.0-8.0-0.64","60664619eac28843177fee96","650c16f0f2faf8d7a0d14c09","651c1b169a806b7d581df914","null","null","<p style=""font-size: 60px; font-family: BACS"">vkYGlJQA</p>","","","","","","","","",""
"html-keyboard-response","73","173682","0.0-8.0-0.65","60664619eac28843177fee96","650c16f0f2faf8d7a0d14c09","651c1b169a806b7d581df914","null","null","<p style=""font-size: 60px; font-family: BACS"">LQurAld</p>","","","","","","","","",""
"html-keyboard-response","74","174687","0.0-8.0-0.66","60664619eac28843177fee96","650c16f0f2faf8d7a0d14c09","651c1b169a806b7d581df914","null","null","<p style=""font-size: 60px; font-family: BACS"">ECtbDYDTk</p>","","","","","","","","",""
"html-keyboard-response","75","175693","0.0-8.0-0.67","60664619eac28843177fee96","650c16f0f2faf8d7a0d14c09","651c1b169a806b7d581df914","null","null","<p style=""font-size: 60px; font-family: BACS"">rdLJaAld</p>","","","","","","","","",""
"html-keyboard-response","76","176700","0.0-8.0-0.68","60664619eac28843177fee96","650c16f0f2faf8d7a0d14c09","651c1b169a806b7d581df914","null","null","<p style=""font-size: 60px; font-family: BACS"">LQurvUdm</p>","","","","","","","","",""
"html-keyboard-response","77","177708","0.0-8.0-0.69","60664619eac28843177fee96","650c16f0f2faf8d7a0d14c09","651c1b169a806b7d581df914","null","null","<p style=""font-size: 60px; font-family: BACS"">GAcYJQA</p>","","","","","","","","",""
"html-keyboard-response","78","178711","0.0-8.0-0.70","60664619eac28843177fee96","650c16f0f2faf8d7a0d14c09","651c1b169a806b7d581df914","null","null","<p style=""font-size: 60px; font-family: BACS"">LckGNAld</p>","","","","","","","","",""
"html-keyboard-response","79","179717","0.0-8.0-0.71","60664619eac28843177fee96","650c16f0f2faf8d7a0d14c09","651c1b169a806b7d581df914","null","null","<p style=""font-size: 60px; font-family: BACS"">YmBdYDTk</p>","","","","","","","","",""
"html-keyboard-response","80","180724","0.0-8.0-0.72","60664619eac28843177fee96","650c16f0f2faf8d7a0d14c09","651c1b169a806b7d581df914","null","null","<p style=""font-size: 60px; font-family: BACS"">rckOuOAO</p>","","","","","","","","",""
"html-keyboard-response","81","181726","0.0-8.0-0.73","60664619eac28843177fee96","650c16f0f2faf8d7a0d14c09","651c1b169a806b7d581df914","null","null","<p style=""font-size: 60px; font-family: BACS"">kCRmYDTk</p>","","","","","","","","",""
"html-keyboard-response","82","182739","0.0-8.0-0.74","60664619eac28843177fee96","650c16f0f2faf8d7a0d14c09","651c1b169a806b7d581df914","null","null","<p style=""font-size: 60px; font-family: BACS"">kGlUvUdm</p>","","","","","","","","",""
"html-keyboard-response","83","183740","0.0-8.0-0.75","60664619eac28843177fee96","650c16f0f2faf8d7a0d14c09","651c1b169a806b7d581df914","null","null","<p style=""font-size: 60px; font-family: BACS"">kDRKcBCAd</p>","","","","","","","","",""
"html-keyboard-response","84","184751","0.0-8.0-0.76","60664619eac28843177fee96","650c16f0f2faf8d7a0d14c09","651c1b169a806b7d581df914","null","null","<p style=""font-size: 60px; font-family: BACS"">kGlUuOAO</p>","","","","","","","","",""
"html-keyboard-response","85","185752","0.0-8.0-0.77","60664619eac28843177fee96","650c16f0f2faf8d7a0d14c09","651c1b169a806b7d581df914","null","null","<p style=""font-size: 60px; font-family: BACS"">ckLALvUdm</p>","","","","","","","","",""
"html-keyboard-response","86","186768","0.0-8.0-0.78","60664619eac28843177fee96","650c16f0f2faf8d7a0d14c09","651c1b169a806b7d581df914","null","null","<p style=""font-size: 60px; font-family: BACS"">OmtlDBCAd</p>","","","","","","","","",""
"html-keyboard-response","87","187770","0.0-8.0-0.79","60664619eac28843177fee96","650c16f0f2faf8d7a0d14c09","651c1b169a806b7d581df914","null","null","<p style=""font-size: 60px; font-family: BACS"">GAcYvUdm</p>","","","","","","","","",""
"html-keyboard-response","88","191584","0.0-9.0","60664619eac28843177fee96","650c16f0f2faf8d7a0d14c09","651c1b169a806b7d581df914","3814"," ","<p>Great, you've seen the first block of words. You may now take a short break.</p>
      <p>Press the spacebar when you're ready to continue.</p>","","","","","","","","",""
"html-keyboard-response","89","192586","0.0-10.0-0.0","60664619eac28843177fee96","650c16f0f2faf8d7a0d14c09","651c1b169a806b7d581df914","null","null","<p style=""font-size: 60px; font-family: BACS"">JZOAkAld</p>","","","","","","","","",""
"html-keyboard-response","90","193588","0.0-10.0-0.1","60664619eac28843177fee96","650c16f0f2faf8d7a0d14c09","651c1b169a806b7d581df914","null","null","<p style=""font-size: 60px; font-family: BACS"">BATOcTRK</p>","","","","","","","","",""
"html-keyboard-response","91","194588","0.0-10.0-0.2","60664619eac28843177fee96","650c16f0f2faf8d7a0d14c09","651c1b169a806b7d581df914","null","null","<p style=""font-size: 60px; font-family: BACS"">ckLALuOAO</p>","","","","","","","","",""
"html-keyboard-response","92","195590","0.0-10.0-0.3","60664619eac28843177fee96","650c16f0f2faf8d7a0d14c09","651c1b169a806b7d581df914","null","null","<p style=""font-size: 60px; font-family: BACS"">kGlUvUdm</p>","","","","","","","","",""
"html-keyboard-response","93","196599","0.0-10.0-0.4","60664619eac28843177fee96","650c16f0f2faf8d7a0d14c09","651c1b169a806b7d581df914","null","null","<p style=""font-size: 60px; font-family: BACS"">JZOAkbLd</p>","","","","","","","","",""
"html-keyboard-response","94","197603","0.0-10.0-0.5","60664619eac28843177fee96","650c16f0f2faf8d7a0d14c09","651c1b169a806b7d581df914","null","null","<p style=""font-size: 60px; font-family: BACS"">ctktYBO</p>","","","","","","","","",""
"html-keyboard-response","95","198612","0.0-10.0-0.6","60664619eac28843177fee96","650c16f0f2faf8d7a0d14c09","651c1b169a806b7d581df914","null","null","<p style=""font-size: 60px; font-family: BACS"">mLdkZAld</p>","","","","","","","","",""
"html-keyboard-response","96","199621","0.0-10.0-0.7","60664619eac28843177fee96","650c16f0f2faf8d7a0d14c09","651c1b169a806b7d581df914","null","null","<p style=""font-size: 60px; font-family: BACS"">OmtlDYBO</p>","","","","","","","","",""
"html-keyboard-response","97","200625","0.0-10.0-0.8","60664619eac28843177fee96","650c16f0f2faf8d7a0d14c09","651c1b169a806b7d581df914","null","null","<p style=""font-size: 60px; font-family: BACS"">ctktBCAd</p>","","","","","","","","",""
"html-keyboard-response","98","201626","0.0-10.0-0.9","60664619eac28843177fee96","650c16f0f2faf8d7a0d14c09","651c1b169a806b7d581df914","null","null","<p style=""font-size: 60px; font-family: BACS"">GAcYJQA</p>","","","","","","","","",""
"html-keyboard-response","99","202633","0.0-10.0-0.10","60664619eac28843177fee96","650c16f0f2faf8d7a0d14c09","651c1b169a806b7d581df914","null","null","<p style=""font-size: 60px; font-family: BACS"">BATOcBCAd</p>","","","","","","","","",""
"html-keyboard-response","100","203637","0.0-10.0-0.11","60664619eac28843177fee96","650c16f0f2faf8d7a0d14c09","651c1b169a806b7d581df914","null","null","<p style=""font-size: 60px; font-family: BACS"">ECtbDTRK</p>","","","","","","","","",""
"html-keyboard-response","101","204640","0.0-10.0-0.12","60664619eac28843177fee96","650c16f0f2faf8d7a0d14c09","651c1b169a806b7d581df914","null","null","<p style=""font-size: 60px; font-family: BACS"">hmKPMYDTk</p>","","","","","","","","",""
"html-keyboard-response","102","205644","0.0-10.0-0.13","60664619eac28843177fee96","650c16f0f2faf8d7a0d14c09","651c1b169a806b7d581df914","null","null","<p style=""font-size: 60px; font-family: BACS"">OmtlDBCAd</p>","","","","","","","","",""
"html-keyboard-response","103","206652","0.0-10.0-0.14","60664619eac28843177fee96","650c16f0f2faf8d7a0d14c09","651c1b169a806b7d581df914","null","null","<p style=""font-size: 60px; font-family: BACS"">mLdkZbLd</p>","","","","","","","","",""
"html-keyboard-response","104","207655","0.0-10.0-0.15","60664619eac28843177fee96","650c16f0f2faf8d7a0d14c09","651c1b169a806b7d581df914","null","null","<p style=""font-size: 60px; font-family: BACS"">vkYGlJQA</p>","","","","","","","","",""
"html-keyboard-response","105","208657","0.0-10.0-0.16","60664619eac28843177fee96","650c16f0f2faf8d7a0d14c09","651c1b169a806b7d581df914","null","null","<p style=""font-size: 60px; font-family: BACS"">COTKBCAd</p>","","","","","","","","",""
"html-keyboard-response","106","209673","0.0-10.0-0.17","60664619eac28843177fee96","650c16f0f2faf8d7a0d14c09","651c1b169a806b7d581df914","null","null","<p style=""font-size: 60px; font-family: BACS"">YmBdYDTk</p>","","","","","","","","",""
"html-keyboard-response","107","210680","0.0-10.0-0.18","60664619eac28843177fee96","650c16f0f2faf8d7a0d14c09","651c1b169a806b7d581df914","null","null","<p style=""font-size: 60px; font-family: BACS"">rckOAld</p>","","","","","","","","",""
"html-keyboard-response","108","211682","0.0-10.0-0.19","60664619eac28843177fee96","650c16f0f2faf8d7a0d14c09","651c1b169a806b7d581df914","null","null","<p style=""font-size: 60px; font-family: BACS"">COTKTRK</p>","","","","","","","","",""
"html-keyboard-response","109","212697","0.0-10.0-0.20","60664619eac28843177fee96","650c16f0f2faf8d7a0d14c09","651c1b169a806b7d581df914","null","null","<p style=""font-size: 60px; font-family: BACS"">LckGNvUdm</p>","","","","","","","","",""
"html-keyboard-response","110","213701","0.0-10.0-0.21","60664619eac28843177fee96","650c16f0f2faf8d7a0d14c09","651c1b169a806b7d581df914","null","null","<p style=""font-size: 60px; font-family: BACS"">kDRKcYDTk</p>","","","","","","","","",""
"html-keyboard-response","111","214705","0.0-10.0-0.22","60664619eac28843177fee96","650c16f0f2faf8d7a0d14c09","651c1b169a806b7d581df914","null","null","<p style=""font-size: 60px; font-family: BACS"">ckLALbLd</p>","","","","","","","","",""
"html-keyboard-response","112","215710","0.0-10.0-0.23","60664619eac28843177fee96","650c16f0f2faf8d7a0d14c09","651c1b169a806b7d581df914","null","null","<p style=""font-size: 60px; font-family: BACS"">EPERdYBO</p>","","","","","","","","",""
"html-keyboard-response","113","216726","0.0-10.0-0.24","60664619eac28843177fee96","650c16f0f2faf8d7a0d14c09","651c1b169a806b7d581df914","null","null","<p style=""font-size: 60px; font-family: BACS"">mLdkZuOAO</p>","","","","","","","","",""
"html-keyboard-response","114","217729","0.0-10.0-0.25","60664619eac28843177fee96","650c16f0f2faf8d7a0d14c09","651c1b169a806b7d581df914","null","null","<p style=""font-size: 60px; font-family: BACS"">LckGNAld</p>","","","","","","","","",""
"html-keyboard-response","115","218737","0.0-10.0-0.26","60664619eac28843177fee96","650c16f0f2faf8d7a0d14c09","651c1b169a806b7d581df914","null","null","<p style=""font-size: 60px; font-family: BACS"">kCRmTRK</p>","","","","","","","","",""
"html-keyboard-response","116","219743","0.0-10.0-0.27","60664619eac28843177fee96","650c16f0f2faf8d7a0d14c09","651c1b169a806b7d581df914","null","null","<p style=""font-size: 60px; font-family: BACS"">mLdkZJQA</p>","","","","","","","","",""
"html-keyboard-response","117","220746","0.0-10.0-0.28","60664619eac28843177fee96","650c16f0f2faf8d7a0d14c09","651c1b169a806b7d581df914","null","null","<p style=""font-size: 60px; font-family: BACS"">hmKPMlMck</p>","","","","","","","","",""
"html-keyboard-response","118","221748","0.0-10.0-0.29","60664619eac28843177fee96","650c16f0f2faf8d7a0d14c09","651c1b169a806b7d581df914","null","null","<p style=""font-size: 60px; font-family: BACS"">LQurvUdm</p>","","","","","","","","",""
"html-keyboard-response","119","222762","0.0-10.0-0.30","60664619eac28843177fee96","650c16f0f2faf8d7a0d14c09","651c1b169a806b7d581df914","null","null","<p style=""font-size: 60px; font-family: BACS"">vkYGlbLd</p>","","","","","","","","",""
"html-keyboard-response","120","223766","0.0-10.0-0.31","60664619eac28843177fee96","650c16f0f2faf8d7a0d14c09","651c1b169a806b7d581df914","null","null","<p style=""font-size: 60px; font-family: BACS"">LckGNuOAO</p>","","","","","","","","",""
"html-keyboard-response","121","224773","0.0-10.0-0.32","60664619eac28843177fee96","650c16f0f2faf8d7a0d14c09","651c1b169a806b7d581df914","null","null","<p style=""font-size: 60px; font-family: BACS"">kCRmYDTk</p>","","","","","","","","",""
"html-keyboard-response","122","225777","0.0-10.0-0.33","60664619eac28843177fee96","650c16f0f2faf8d7a0d14c09","651c1b169a806b7d581df914","null","null","<p style=""font-size: 60px; font-family: BACS"">rckOvUdm</p>","","","","","","","","",""
"html-keyboard-response","123","226779","0.0-10.0-0.34","60664619eac28843177fee96","650c16f0f2faf8d7a0d14c09","651c1b169a806b7d581df914","null","null","<p style=""font-size: 60px; font-family: BACS"">ECtbDlMck</p>","","","","","","","","",""
"html-keyboard-response","124","227784","0.0-10.0-0.35","60664619eac28843177fee96","650c16f0f2faf8d7a0d14c09","651c1b169a806b7d581df914","null","null","<p style=""font-size: 60px; font-family: BACS"">rdLJaAld</p>","","","","","","","","",""
"html-keyboard-response","125","228790","0.0-10.0-0.36","60664619eac28843177fee96","650c16f0f2faf8d7a0d14c09","651c1b169a806b7d581df914","null","null","<p style=""font-size: 60px; font-family: BACS"">JZOAkJQA</p>","","","","","","","","",""
"html-keyboard-response","126","229797","0.0-10.0-0.37","60664619eac28843177fee96","650c16f0f2faf8d7a0d14c09","651c1b169a806b7d581df914","null","null","<p style=""font-size: 60px; font-family: BACS"">LQurAld</p>","","","","","","","","",""
"html-keyboard-response","127","230801","0.0-10.0-0.38","60664619eac28843177fee96","650c16f0f2faf8d7a0d14c09","651c1b169a806b7d581df914","null","null","<p style=""font-size: 60px; font-family: BACS"">kGlUJQA</p>","","","","","","","","",""
"html-keyboard-response","128","231802","0.0-10.0-0.39","60664619eac28843177fee96","650c16f0f2faf8d7a0d14c09","651c1b169a806b7d581df914","null","null","<p style=""font-size: 60px; font-family: BACS"">kDRKcYBO</p>","","","","","","","","",""
"html-keyboard-response","129","232803","0.0-10.0-0.40","60664619eac28843177fee96","650c16f0f2faf8d7a0d14c09","651c1b169a806b7d581df914","null","null","<p style=""font-size: 60px; font-family: BACS"">rckOJQA</p>","","","","","","","","",""
"html-keyboard-response","130","233814","0.0-10.0-0.41","60664619eac28843177fee96","650c16f0f2faf8d7a0d14c09","651c1b169a806b7d581df914","null","null","<p style=""font-size: 60px; font-family: BACS"">hmKPMBCAd</p>","","","","","","","","",""
"html-keyboard-response","131","234815","0.0-10.0-0.42","60664619eac28843177fee96","650c16f0f2faf8d7a0d14c09","651c1b169a806b7d581df914","null","null","<p style=""font-size: 60px; font-family: BACS"">LckGNJQA</p>","","","","","","","","",""
"html-keyboard-response","132","235821","0.0-10.0-0.43","60664619eac28843177fee96","650c16f0f2faf8d7a0d14c09","651c1b169a806b7d581df914","null","null","<p style=""font-size: 60px; font-family: BACS"">rdLJavUdm</p>","","","","","","","","",""
"html-keyboard-response","133","236826","0.0-10.0-0.44","60664619eac28843177fee96","650c16f0f2faf8d7a0d14c09","651c1b169a806b7d581df914","null","null","<p style=""font-size: 60px; font-family: BACS"">kGlUuOAO</p>","","","","","","","","",""
"html-keyboard-response","134","237837","0.0-10.0-0.45","60664619eac28843177fee96","650c16f0f2faf8d7a0d14c09","651c1b169a806b7d581df914","null","null","<p style=""font-size: 60px; font-family: BACS"">EPERdlMck</p>","","","","","","","","",""
"html-keyboard-response","135","238840","0.0-10.0-0.46","60664619eac28843177fee96","650c16f0f2faf8d7a0d14c09","651c1b169a806b7d581df914","null","null","<p style=""font-size: 60px; font-family: BACS"">GAcYbLd</p>","","","","","","","","",""
"html-keyboard-response","136","239842","0.0-10.0-0.47","60664619eac28843177fee96","650c16f0f2faf8d7a0d14c09","651c1b169a806b7d581df914","null","null","<p style=""font-size: 60px; font-family: BACS"">ctktYDTk</p>","","","","","","","","",""
"html-keyboard-response","137","240844","0.0-10.0-0.48","60664619eac28843177fee96","650c16f0f2faf8d7a0d14c09","651c1b169a806b7d581df914","null","null","<p style=""font-size: 60px; font-family: BACS"">kDRKclMck</p>","","","","","","","","",""
"html-keyboard-response","138","241852","0.0-10.0-0.49","60664619eac28843177fee96","650c16f0f2faf8d7a0d14c09","651c1b169a806b7d581df914","null","null","<p style=""font-size: 60px; font-family: BACS"">OmtlDYDTk</p>","","","","","","","","",""
"html-keyboard-response","139","242856","0.0-10.0-0.50","60664619eac28843177fee96","650c16f0f2faf8d7a0d14c09","651c1b169a806b7d581df914","null","null","<p style=""font-size: 60px; font-family: BACS"">kCRmlMck</p>","","","","","","","","",""
"html-keyboard-response","140","243858","0.0-10.0-0.51","60664619eac28843177fee96","650c16f0f2faf8d7a0d14c09","651c1b169a806b7d581df914","null","null","<p style=""font-size: 60px; font-family: BACS"">LQurbLd</p>","","","","","","","","",""
"html-keyboard-response","141","244868","0.0-10.0-0.52","60664619eac28843177fee96","650c16f0f2faf8d7a0d14c09","651c1b169a806b7d581df914","null","null","<p style=""font-size: 60px; font-family: BACS"">ckLALAld</p>","","","","","","","","",""
"html-keyboard-response","142","245875","0.0-10.0-0.53","60664619eac28843177fee96","650c16f0f2faf8d7a0d14c09","651c1b169a806b7d581df914","null","null","<p style=""font-size: 60px; font-family: BACS"">YmBdTRK</p>","","","","","","","","",""
"html-keyboard-response","143","246881","0.0-10.0-0.54","60664619eac28843177fee96","650c16f0f2faf8d7a0d14c09","651c1b169a806b7d581df914","null","null","<p style=""font-size: 60px; font-family: BACS"">EPERdYDTk</p>","","","","","","","","",""
"html-keyboard-response","144","247888","0.0-10.0-0.55","60664619eac28843177fee96","650c16f0f2faf8d7a0d14c09","651c1b169a806b7d581df914","null","null","<p style=""font-size: 60px; font-family: BACS"">rdLJabLd</p>","","","","","","","","",""
"html-keyboard-response","145","248894","0.0-10.0-0.56","60664619eac28843177fee96","650c16f0f2faf8d7a0d14c09","651c1b169a806b7d581df914","null","null","<p style=""font-size: 60px; font-family: BACS"">GAcYvUdm</p>","","","","","","","","",""
"html-keyboard-response","146","249899","0.0-10.0-0.57","60664619eac28843177fee96","650c16f0f2faf8d7a0d14c09","651c1b169a806b7d581df914","null","null","<p style=""font-size: 60px; font-family: BACS"">kGlUbLd</p>","","","","","","","","",""
"html-keyboard-response","147","250914","0.0-10.0-0.58","60664619eac28843177fee96","650c16f0f2faf8d7a0d14c09","651c1b169a806b7d581df914","null","null","<p style=""font-size: 60px; font-family: BACS"">vkYGlvUdm</p>","","","","","","","","",""
"html-keyboard-response","148","251917","0.0-10.0-0.59","60664619eac28843177fee96","650c16f0f2faf8d7a0d14c09","651c1b169a806b7d581df914","null","null","<p style=""font-size: 60px; font-family: BACS"">YmBdlMck</p>","","","","","","","","",""
"html-keyboard-response","149","252925","0.0-10.0-0.60","60664619eac28843177fee96","650c16f0f2faf8d7a0d14c09","651c1b169a806b7d581df914","null","null","<p style=""font-size: 60px; font-family: BACS"">ECtbDYDTk</p>","","","","","","","","",""
"html-keyboard-response","150","253931","0.0-10.0-0.61","60664619eac28843177fee96","650c16f0f2faf8d7a0d14c09","651c1b169a806b7d581df914","null","null","<p style=""font-size: 60px; font-family: BACS"">JZOAkuOAO</p>","","","","","","","","",""
"html-keyboard-response","151","254935","0.0-10.0-0.62","60664619eac28843177fee96","650c16f0f2faf8d7a0d14c09","651c1b169a806b7d581df914","null","null","<p style=""font-size: 60px; font-family: BACS"">ckLALvUdm</p>","","","","","","","","",""
"html-keyboard-response","152","255945","0.0-10.0-0.63","60664619eac28843177fee96","650c16f0f2faf8d7a0d14c09","651c1b169a806b7d581df914","null","null","<p style=""font-size: 60px; font-family: BACS"">vkYGlAld</p>","","","","","","","","",""
"html-keyboard-response","153","256947","0.0-10.0-0.64","60664619eac28843177fee96","650c16f0f2faf8d7a0d14c09","651c1b169a806b7d581df914","null","null","<p style=""font-size: 60px; font-family: BACS"">BATOclMck</p>","","","","","","","","",""
"html-keyboard-response","154","257958","0.0-10.0-0.65","60664619eac28843177fee96","650c16f0f2faf8d7a0d14c09","651c1b169a806b7d581df914","null","null","<p style=""font-size: 60px; font-family: BACS"">rckOuOAO</p>","","","","","","","","",""
"html-keyboard-response","155","258961","0.0-10.0-0.66","60664619eac28843177fee96","650c16f0f2faf8d7a0d14c09","651c1b169a806b7d581df914","null","null","<p style=""font-size: 60px; font-family: BACS"">BATOcYBO</p>","","","","","","","","",""
"html-keyboard-response","156","259965","0.0-10.0-0.67","60664619eac28843177fee96","650c16f0f2faf8d7a0d14c09","651c1b169a806b7d581df914","null","null","<p style=""font-size: 60px; font-family: BACS"">EPERdBCAd</p>","","","","","","","","",""
"html-keyboard-response","157","260981","0.0-10.0-0.68","60664619eac28843177fee96","650c16f0f2faf8d7a0d14c09","651c1b169a806b7d581df914","null","null","<p style=""font-size: 60px; font-family: BACS"">ctktTRK</p>","","","","","","","","",""
"html-keyboard-response","158","261983","0.0-10.0-0.69","60664619eac28843177fee96","650c16f0f2faf8d7a0d14c09","651c1b169a806b7d581df914","null","null","<p style=""font-size: 60px; font-family: BACS"">YmBdYBO</p>","","","","","","","","",""
"html-keyboard-response","159","262989","0.0-10.0-0.70","60664619eac28843177fee96","650c16f0f2faf8d7a0d14c09","651c1b169a806b7d581df914","null","null","<p style=""font-size: 60px; font-family: BACS"">rdLJauOAO</p>","","","","","","","","",""
"html-keyboard-response","160","263991","0.0-10.0-0.71","60664619eac28843177fee96","650c16f0f2faf8d7a0d14c09","651c1b169a806b7d581df914","null","null","<p style=""font-size: 60px; font-family: BACS"">OmtlDTRK</p>","","","","","","","","",""
"html-keyboard-response","161","264995","0.0-10.0-0.72","60664619eac28843177fee96","650c16f0f2faf8d7a0d14c09","651c1b169a806b7d581df914","null","null","<p style=""font-size: 60px; font-family: BACS"">ECtbDBCAd</p>","","","","","","","","",""
"html-keyboard-response","162","266005","0.0-10.0-0.73","60664619eac28843177fee96","650c16f0f2faf8d7a0d14c09","651c1b169a806b7d581df914","null","null","<p style=""font-size: 60px; font-family: BACS"">GAcYuOAO</p>","","","","","","","","",""
"html-keyboard-response","163","267008","0.0-10.0-0.74","60664619eac28843177fee96","650c16f0f2faf8d7a0d14c09","651c1b169a806b7d581df914","null","null","<p style=""font-size: 60px; font-family: BACS"">kCRmYBO</p>","","","","","","","","",""
"html-keyboard-response","164","268024","0.0-10.0-0.75","60664619eac28843177fee96","650c16f0f2faf8d7a0d14c09","651c1b169a806b7d581df914","null","null","<p style=""font-size: 60px; font-family: BACS"">LQurJQA</p>","","","","","","","","",""
"html-keyboard-response","165","269041","0.0-10.0-0.76","60664619eac28843177fee96","650c16f0f2faf8d7a0d14c09","651c1b169a806b7d581df914","null","null","<p style=""font-size: 60px; font-family: BACS"">hmKPMTRK</p>","","","","","","","","",""
"html-keyboard-response","166","270044","0.0-10.0-0.77","60664619eac28843177fee96","650c16f0f2faf8d7a0d14c09","651c1b169a806b7d581df914","null","null","<p style=""font-size: 60px; font-family: BACS"">COTKlMck</p>","","","","","","","","",""
"html-keyboard-response","167","271050","0.0-10.0-0.78","60664619eac28843177fee96","650c16f0f2faf8d7a0d14c09","651c1b169a806b7d581df914","null","null","<p style=""font-size: 60px; font-family: BACS"">kDRKcBCAd</p>","","","","","","","","",""
"html-keyboard-response","168","272057","0.0-10.0-0.79","60664619eac28843177fee96","650c16f0f2faf8d7a0d14c09","651c1b169a806b7d581df914","null","null","<p style=""font-size: 60px; font-family: BACS"">COTKYBO</p>","","","","","","","","",""
"html-keyboard-response","169","274716","0.0-11.0","60664619eac28843177fee96","650c16f0f2faf8d7a0d14c09","651c1b169a806b7d581df914","2659"," ","<p>Great, you've seen the second block of words. You may now take a short break.</p>
      <p>Press the spacebar when you're ready to continue.</p>","","","","","","","","",""
"html-keyboard-response","170","275732","0.0-12.0-0.0","60664619eac28843177fee96","650c16f0f2faf8d7a0d14c09","651c1b169a806b7d581df914","null","null","<p style=""font-size: 60px; font-family: BACS"">kGlUbLd</p>","","","","","","","","",""
"html-keyboard-response","171","276736","0.0-12.0-0.1","60664619eac28843177fee96","650c16f0f2faf8d7a0d14c09","651c1b169a806b7d581df914","null","null","<p style=""font-size: 60px; font-family: BACS"">rdLJauOAO</p>","","","","","","","","",""
"html-keyboard-response","172","277741","0.0-12.0-0.2","60664619eac28843177fee96","650c16f0f2faf8d7a0d14c09","651c1b169a806b7d581df914","null","null","<p style=""font-size: 60px; font-family: BACS"">mLdkZJQA</p>","","","","","","","","",""
"html-keyboard-response","173","278748","0.0-12.0-0.3","60664619eac28843177fee96","650c16f0f2faf8d7a0d14c09","651c1b169a806b7d581df914","null","null","<p style=""font-size: 60px; font-family: BACS"">EPERdlMck</p>","","","","","","","","",""
"html-keyboard-response","174","279759","0.0-12.0-0.4","60664619eac28843177fee96","650c16f0f2faf8d7a0d14c09","651c1b169a806b7d581df914","null","null","<p style=""font-size: 60px; font-family: BACS"">BATOcYBO</p>","","","","","","","","",""
"html-keyboard-response","175","280775","0.0-12.0-0.5","60664619eac28843177fee96","650c16f0f2faf8d7a0d14c09","651c1b169a806b7d581df914","null","null","<p style=""font-size: 60px; font-family: BACS"">OmtlDYDTk</p>","","","","","","","","",""
"html-keyboard-response","176","281778","0.0-12.0-0.6","60664619eac28843177fee96","650c16f0f2faf8d7a0d14c09","651c1b169a806b7d581df914","null","null","<p style=""font-size: 60px; font-family: BACS"">mLdkZbLd</p>","","","","","","","","",""
"html-keyboard-response","177","282788","0.0-12.0-0.7","60664619eac28843177fee96","650c16f0f2faf8d7a0d14c09","651c1b169a806b7d581df914","null","null","<p style=""font-size: 60px; font-family: BACS"">ctktYDTk</p>","","","","","","","","",""
"html-keyboard-response","178","283790","0.0-12.0-0.8","60664619eac28843177fee96","650c16f0f2faf8d7a0d14c09","651c1b169a806b7d581df914","null","null","<p style=""font-size: 60px; font-family: BACS"">hmKPMTRK</p>","","","","","","","","",""
"html-keyboard-response","179","284806","0.0-12.0-0.9","60664619eac28843177fee96","650c16f0f2faf8d7a0d14c09","651c1b169a806b7d581df914","null","null","<p style=""font-size: 60px; font-family: BACS"">YmBdYBO</p>","","","","","","","","",""
"html-keyboard-response","180","285809","0.0-12.0-0.10","60664619eac28843177fee96","650c16f0f2faf8d7a0d14c09","651c1b169a806b7d581df914","null","null","<p style=""font-size: 60px; font-family: BACS"">LckGNJQA</p>","","","","","","","","",""
"html-keyboard-response","181","286819","0.0-12.0-0.11","60664619eac28843177fee96","650c16f0f2faf8d7a0d14c09","651c1b169a806b7d581df914","null","null","<p style=""font-size: 60px; font-family: BACS"">LQurAld</p>","","","","","","","","",""
"html-keyboard-response","182","287821","0.0-12.0-0.12","60664619eac28843177fee96","650c16f0f2faf8d7a0d14c09","651c1b169a806b7d581df914","null","null","<p style=""font-size: 60px; font-family: BACS"">BATOclMck</p>","","","","","","","","",""
"html-keyboard-response","183","288826","0.0-12.0-0.13","60664619eac28843177fee96","650c16f0f2faf8d7a0d14c09","651c1b169a806b7d581df914","null","null","<p style=""font-size: 60px; font-family: BACS"">LQurbLd</p>","","","","","","","","",""
"html-keyboard-response","184","289830","0.0-12.0-0.14","60664619eac28843177fee96","650c16f0f2faf8d7a0d14c09","651c1b169a806b7d581df914","null","null","<p style=""font-size: 60px; font-family: BACS"">kDRKcYDTk</p>","","","","","","","","",""
"html-keyboard-response","185","290833","0.0-12.0-0.15","60664619eac28843177fee96","650c16f0f2faf8d7a0d14c09","651c1b169a806b7d581df914","null","null","<p style=""font-size: 60px; font-family: BACS"">rckOJQA</p>","","","","","","","","",""
"html-keyboard-response","186","291847","0.0-12.0-0.16","60664619eac28843177fee96","650c16f0f2faf8d7a0d14c09","651c1b169a806b7d581df914","null","null","<p style=""font-size: 60px; font-family: BACS"">ctktBCAd</p>","","","","","","","","",""
"html-keyboard-response","187","292852","0.0-12.0-0.17","60664619eac28843177fee96","650c16f0f2faf8d7a0d14c09","651c1b169a806b7d581df914","null","null","<p style=""font-size: 60px; font-family: BACS"">ckLALbLd</p>","","","","","","","","",""
"html-keyboard-response","188","293867","0.0-12.0-0.18","60664619eac28843177fee96","650c16f0f2faf8d7a0d14c09","651c1b169a806b7d581df914","null","null","<p style=""font-size: 60px; font-family: BACS"">ECtbDYDTk</p>","","","","","","","","",""
"html-keyboard-response","189","294879","0.0-12.0-0.19","60664619eac28843177fee96","650c16f0f2faf8d7a0d14c09","651c1b169a806b7d581df914","null","null","<p style=""font-size: 60px; font-family: BACS"">rckOuOAO</p>","","","","","","","","",""
"html-keyboard-response","190","295882","0.0-12.0-0.20","60664619eac28843177fee96","650c16f0f2faf8d7a0d14c09","651c1b169a806b7d581df914","null","null","<p style=""font-size: 60px; font-family: BACS"">LQurJQA</p>","","","","","","","","",""
"html-keyboard-response","191","296887","0.0-12.0-0.21","60664619eac28843177fee96","650c16f0f2faf8d7a0d14c09","651c1b169a806b7d581df914","null","null","<p style=""font-size: 60px; font-family: BACS"">COTKYBO</p>","","","","","","","","",""
"html-keyboard-response","192","297894","0.0-12.0-0.22","60664619eac28843177fee96","650c16f0f2faf8d7a0d14c09","651c1b169a806b7d581df914","null","null","<p style=""font-size: 60px; font-family: BACS"">ckLALAld</p>","","","","","","","","",""
"html-keyboard-response","193","298909","0.0-12.0-0.23","60664619eac28843177fee96","650c16f0f2faf8d7a0d14c09","651c1b169a806b7d581df914","null","null","<p style=""font-size: 60px; font-family: BACS"">kGlUJQA</p>","","","","","","","","",""
"html-keyboard-response","194","299911","0.0-12.0-0.24","60664619eac28843177fee96","650c16f0f2faf8d7a0d14c09","651c1b169a806b7d581df914","null","null","<p style=""font-size: 60px; font-family: BACS"">COTKlMck</p>","","","","","","","","",""
"html-keyboard-response","195","300927","0.0-12.0-0.25","60664619eac28843177fee96","650c16f0f2faf8d7a0d14c09","651c1b169a806b7d581df914","null","null","<p style=""font-size: 60px; font-family: BACS"">kGlUuOAO</p>","","","","","","","","",""
"html-keyboard-response","196","301934","0.0-12.0-0.26","60664619eac28843177fee96","650c16f0f2faf8d7a0d14c09","651c1b169a806b7d581df914","null","null","<p style=""font-size: 60px; font-family: BACS"">rdLJavUdm</p>","","","","","","","","",""
"html-keyboard-response","197","302941","0.0-12.0-0.27","60664619eac28843177fee96","650c16f0f2faf8d7a0d14c09","651c1b169a806b7d581df914","null","null","<p style=""font-size: 60px; font-family: BACS"">kDRKcYBO</p>","","","","","","","","",""
"html-keyboard-response","198","303950","0.0-12.0-0.28","60664619eac28843177fee96","650c16f0f2faf8d7a0d14c09","651c1b169a806b7d581df914","null","null","<p style=""font-size: 60px; font-family: BACS"">JZOAkbLd</p>","","","","","","","","",""
"html-keyboard-response","199","304953","0.0-12.0-0.29","60664619eac28843177fee96","650c16f0f2faf8d7a0d14c09","651c1b169a806b7d581df914","null","null","<p style=""font-size: 60px; font-family: BACS"">OmtlDTRK</p>","","","","","","","","",""
"html-keyboard-response","200","305955","0.0-12.0-0.30","60664619eac28843177fee96","650c16f0f2faf8d7a0d14c09","651c1b169a806b7d581df914","null","null","<p style=""font-size: 60px; font-family: BACS"">EPERdYBO</p>","","","","","","","","",""
"html-keyboard-response","201","306960","0.0-12.0-0.31","60664619eac28843177fee96","650c16f0f2faf8d7a0d14c09","651c1b169a806b7d581df914","null","null","<p style=""font-size: 60px; font-family: BACS"">hmKPMBCAd</p>","","","","","","","","",""
"html-keyboard-response","202","307961","0.0-12.0-0.32","60664619eac28843177fee96","650c16f0f2faf8d7a0d14c09","651c1b169a806b7d581df914","null","null","<p style=""font-size: 60px; font-family: BACS"">BATOcTRK</p>","","","","","","","","",""
"html-keyboard-response","203","308967","0.0-12.0-0.33","60664619eac28843177fee96","650c16f0f2faf8d7a0d14c09","651c1b169a806b7d581df914","null","null","<p style=""font-size: 60px; font-family: BACS"">EPERdYDTk</p>","","","","","","","","",""
"html-keyboard-response","204","309976","0.0-12.0-0.34","60664619eac28843177fee96","650c16f0f2faf8d7a0d14c09","651c1b169a806b7d581df914","null","null","<p style=""font-size: 60px; font-family: BACS"">kCRmTRK</p>","","","","","","","","",""
"html-keyboard-response","205","310978","0.0-12.0-0.35","60664619eac28843177fee96","650c16f0f2faf8d7a0d14c09","651c1b169a806b7d581df914","null","null","<p style=""font-size: 60px; font-family: BACS"">kDRKcBCAd</p>","","","","","","","","",""
"html-keyboard-response","206","311983","0.0-12.0-0.36","60664619eac28843177fee96","650c16f0f2faf8d7a0d14c09","651c1b169a806b7d581df914","null","null","<p style=""font-size: 60px; font-family: BACS"">LQurvUdm</p>","","","","","","","","",""
"html-keyboard-response","207","312994","0.0-12.0-0.37","60664619eac28843177fee96","650c16f0f2faf8d7a0d14c09","651c1b169a806b7d581df914","null","null","<p style=""font-size: 60px; font-family: BACS"">ctktYBO</p>","","","","","","","","",""
"html-keyboard-response","208","313997","0.0-12.0-0.38","60664619eac28843177fee96","650c16f0f2faf8d7a0d14c09","651c1b169a806b7d581df914","null","null","<p style=""font-size: 60px; font-family: BACS"">rdLJaAld</p>","","","","","","","","",""
"html-keyboard-response","209","315003","0.0-12.0-0.39","60664619eac28843177fee96","650c16f0f2faf8d7a0d14c09","651c1b169a806b7d581df914","null","null","<p style=""font-size: 60px; font-family: BACS"">vkYGlJQA</p>","","","","","","","","",""
"html-keyboard-response","210","316007","0.0-12.0-0.40","60664619eac28843177fee96","650c16f0f2faf8d7a0d14c09","651c1b169a806b7d581df914","null","null","<p style=""font-size: 60px; font-family: BACS"">rckOvUdm</p>","","","","","","","","",""
"html-keyboard-response","211","317017","0.0-12.0-0.41","60664619eac28843177fee96","650c16f0f2faf8d7a0d14c09","651c1b169a806b7d581df914","null","null","<p style=""font-size: 60px; font-family: BACS"">kCRmYDTk</p>","","","","","","","","",""
"html-keyboard-response","212","318027","0.0-12.0-0.42","60664619eac28843177fee96","650c16f0f2faf8d7a0d14c09","651c1b169a806b7d581df914","null","null","<p style=""font-size: 60px; font-family: BACS"">LckGNAld</p>","","","","","","","","",""
"html-keyboard-response","213","319033","0.0-12.0-0.43","60664619eac28843177fee96","650c16f0f2faf8d7a0d14c09","651c1b169a806b7d581df914","null","null","<p style=""font-size: 60px; font-family: BACS"">GAcYJQA</p>","","","","","","","","",""
"html-keyboard-response","214","320038","0.0-12.0-0.44","60664619eac28843177fee96","650c16f0f2faf8d7a0d14c09","651c1b169a806b7d581df914","null","null","<p style=""font-size: 60px; font-family: BACS"">JZOAkAld</p>","","","","","","","","",""
"html-keyboard-response","215","321053","0.0-12.0-0.45","60664619eac28843177fee96","650c16f0f2faf8d7a0d14c09","651c1b169a806b7d581df914","null","null","<p style=""font-size: 60px; font-family: BACS"">GAcYvUdm</p>","","","","","","","","",""
"html-keyboard-response","216","322058","0.0-12.0-0.46","60664619eac28843177fee96","650c16f0f2faf8d7a0d14c09","651c1b169a806b7d581df914","null","null","<p style=""font-size: 60px; font-family: BACS"">ctktTRK</p>","","","","","","","","",""
"html-keyboard-response","217","323072","0.0-12.0-0.47","60664619eac28843177fee96","650c16f0f2faf8d7a0d14c09","651c1b169a806b7d581df914","null","null","<p style=""font-size: 60px; font-family: BACS"">vkYGlvUdm</p>","","","","","","","","",""
"html-keyboard-response","218","324076","0.0-12.0-0.48","60664619eac28843177fee96","650c16f0f2faf8d7a0d14c09","651c1b169a806b7d581df914","null","null","<p style=""font-size: 60px; font-family: BACS"">COTKTRK</p>","","","","","","","","",""
"html-keyboard-response","219","325082","0.0-12.0-0.49","60664619eac28843177fee96","650c16f0f2faf8d7a0d14c09","651c1b169a806b7d581df914","null","null","<p style=""font-size: 60px; font-family: BACS"">YmBdYDTk</p>","","","","","","","","",""
"html-keyboard-response","220","326089","0.0-12.0-0.50","60664619eac28843177fee96","650c16f0f2faf8d7a0d14c09","651c1b169a806b7d581df914","null","null","<p style=""font-size: 60px; font-family: BACS"">BATOcBCAd</p>","","","","","","","","",""
"html-keyboard-response","221","327093","0.0-12.0-0.51","60664619eac28843177fee96","650c16f0f2faf8d7a0d14c09","651c1b169a806b7d581df914","null","null","<p style=""font-size: 60px; font-family: BACS"">JZOAkuOAO</p>","","","","","","","","",""
"html-keyboard-response","222","328104","0.0-12.0-0.52","60664619eac28843177fee96","650c16f0f2faf8d7a0d14c09","651c1b169a806b7d581df914","null","null","<p style=""font-size: 60px; font-family: BACS"">kCRmlMck</p>","","","","","","","","",""
"html-keyboard-response","223","329106","0.0-12.0-0.53","60664619eac28843177fee96","650c16f0f2faf8d7a0d14c09","651c1b169a806b7d581df914","null","null","<p style=""font-size: 60px; font-family: BACS"">LckGNuOAO</p>","","","","","","","","",""
"html-keyboard-response","224","330111","0.0-12.0-0.54","60664619eac28843177fee96","650c16f0f2faf8d7a0d14c09","651c1b169a806b7d581df914","null","null","<p style=""font-size: 60px; font-family: BACS"">YmBdlMck</p>","","","","","","","","",""
"html-keyboard-response","225","331117","0.0-12.0-0.55","60664619eac28843177fee96","650c16f0f2faf8d7a0d14c09","651c1b169a806b7d581df914","null","null","<p style=""font-size: 60px; font-family: BACS"">GAcYbLd</p>","","","","","","","","",""
"html-keyboard-response","226","332133","0.0-12.0-0.56","60664619eac28843177fee96","650c16f0f2faf8d7a0d14c09","651c1b169a806b7d581df914","null","null","<p style=""font-size: 60px; font-family: BACS"">vkYGlAld</p>","","","","","","","","",""
"html-keyboard-response","227","333145","0.0-12.0-0.57","60664619eac28843177fee96","650c16f0f2faf8d7a0d14c09","651c1b169a806b7d581df914","null","null","<p style=""font-size: 60px; font-family: BACS"">OmtlDBCAd</p>","","","","","","","","",""
"html-keyboard-response","228","334150","0.0-12.0-0.58","60664619eac28843177fee96","650c16f0f2faf8d7a0d14c09","651c1b169a806b7d581df914","null","null","<p style=""font-size: 60px; font-family: BACS"">YmBdTRK</p>","","","","","","","","",""
"html-keyboard-response","229","335153","0.0-12.0-0.59","60664619eac28843177fee96","650c16f0f2faf8d7a0d14c09","651c1b169a806b7d581df914","null","null","<p style=""font-size: 60px; font-family: BACS"">ECtbDlMck</p>","","","","","","","","",""
"html-keyboard-response","230","336154","0.0-12.0-0.60","60664619eac28843177fee96","650c16f0f2faf8d7a0d14c09","651c1b169a806b7d581df914","null","null","<p style=""font-size: 60px; font-family: BACS"">GAcYuOAO</p>","","","","","","","","",""
"html-keyboard-response","231","337163","0.0-12.0-0.61","60664619eac28843177fee96","650c16f0f2faf8d7a0d14c09","651c1b169a806b7d581df914","null","null","<p style=""font-size: 60px; font-family: BACS"">mLdkZAld</p>","","","","","","","","",""
"html-keyboard-response","232","338176","0.0-12.0-0.62","60664619eac28843177fee96","650c16f0f2faf8d7a0d14c09","651c1b169a806b7d581df914","null","null","<p style=""font-size: 60px; font-family: BACS"">hmKPMYDTk</p>","","","","","","","","",""
"html-keyboard-response","233","339181","0.0-12.0-0.63","60664619eac28843177fee96","650c16f0f2faf8d7a0d14c09","651c1b169a806b7d581df914","null","null","<p style=""font-size: 60px; font-family: BACS"">kCRmYBO</p>","","","","","","","","",""
"html-keyboard-response","234","340183","0.0-12.0-0.64","60664619eac28843177fee96","650c16f0f2faf8d7a0d14c09","651c1b169a806b7d581df914","null","null","<p style=""font-size: 60px; font-family: BACS"">rdLJabLd</p>","","","","","","","","",""
"html-keyboard-response","235","341191","0.0-12.0-0.65","60664619eac28843177fee96","650c16f0f2faf8d7a0d14c09","651c1b169a806b7d581df914","null","null","<p style=""font-size: 60px; font-family: BACS"">JZOAkJQA</p>","","","","","","","","",""
"html-keyboard-response","236","342196","0.0-12.0-0.66","60664619eac28843177fee96","650c16f0f2faf8d7a0d14c09","651c1b169a806b7d581df914","null","null","<p style=""font-size: 60px; font-family: BACS"">vkYGlbLd</p>","","","","","","","","",""
"html-keyboard-response","237","343206","0.0-12.0-0.67","60664619eac28843177fee96","650c16f0f2faf8d7a0d14c09","651c1b169a806b7d581df914","null","null","<p style=""font-size: 60px; font-family: BACS"">rckOAld</p>","","","","","","","","",""
"html-keyboard-response","238","344208","0.0-12.0-0.68","60664619eac28843177fee96","650c16f0f2faf8d7a0d14c09","651c1b169a806b7d581df914","null","null","<p style=""font-size: 60px; font-family: BACS"">ECtbDBCAd</p>","","","","","","","","",""
"html-keyboard-response","239","345220","0.0-12.0-0.69","60664619eac28843177fee96","650c16f0f2faf8d7a0d14c09","651c1b169a806b7d581df914","null","null","<p style=""font-size: 60px; font-family: BACS"">ckLALvUdm</p>","","","","","","","","",""
"html-keyboard-response","240","346236","0.0-12.0-0.70","60664619eac28843177fee96","650c16f0f2faf8d7a0d14c09","651c1b169a806b7d581df914","null","null","<p style=""font-size: 60px; font-family: BACS"">COTKBCAd</p>","","","","","","","","",""
"html-keyboard-response","241","347239","0.0-12.0-0.71","60664619eac28843177fee96","650c16f0f2faf8d7a0d14c09","651c1b169a806b7d581df914","null","null","<p style=""font-size: 60px; font-family: BACS"">kGlUvUdm</p>","","","","","","","","",""
"html-keyboard-response","242","348246","0.0-12.0-0.72","60664619eac28843177fee96","650c16f0f2faf8d7a0d14c09","651c1b169a806b7d581df914","null","null","<p style=""font-size: 60px; font-family: BACS"">ECtbDTRK</p>","","","","","","","","",""
"html-keyboard-response","243","349252","0.0-12.0-0.73","60664619eac28843177fee96","650c16f0f2faf8d7a0d14c09","651c1b169a806b7d581df914","null","null","<p style=""font-size: 60px; font-family: BACS"">EPERdBCAd</p>","","","","","","","","",""
"html-keyboard-response","244","350257","0.0-12.0-0.74","60664619eac28843177fee96","650c16f0f2faf8d7a0d14c09","651c1b169a806b7d581df914","null","null","<p style=""font-size: 60px; font-family: BACS"">ckLALuOAO</p>","","","","","","","","",""
"html-keyboard-response","245","351267","0.0-12.0-0.75","60664619eac28843177fee96","650c16f0f2faf8d7a0d14c09","651c1b169a806b7d581df914","null","null","<p style=""font-size: 60px; font-family: BACS"">OmtlDYBO</p>","","","","","","","","",""
"html-keyboard-response","246","352276","0.0-12.0-0.76","60664619eac28843177fee96","650c16f0f2faf8d7a0d14c09","651c1b169a806b7d581df914","null","null","<p style=""font-size: 60px; font-family: BACS"">hmKPMlMck</p>","","","","","","","","",""
"html-keyboard-response","247","353292","0.0-12.0-0.77","60664619eac28843177fee96","650c16f0f2faf8d7a0d14c09","651c1b169a806b7d581df914","null","null","<p style=""font-size: 60px; font-family: BACS"">LckGNvUdm</p>","","","","","","","","",""
"html-keyboard-response","248","354294","0.0-12.0-0.78","60664619eac28843177fee96","650c16f0f2faf8d7a0d14c09","651c1b169a806b7d581df914","null","null","<p style=""font-size: 60px; font-family: BACS"">mLdkZuOAO</p>","","","","","","","","",""
"html-keyboard-response","249","355299","0.0-12.0-0.79","60664619eac28843177fee96","650c16f0f2faf8d7a0d14c09","651c1b169a806b7d581df914","null","null","<p style=""font-size: 60px; font-family: BACS"">kDRKclMck</p>","","","","","","","","",""
"html-keyboard-response","250","359052","0.0-13.0","60664619eac28843177fee96","650c16f0f2faf8d7a0d14c09","651c1b169a806b7d581df914","3753"," ","<p>Great, you've seen the third block of words. You may now take a short break.</p>
      <p>Press the spacebar when you're ready to continue.</p>","","","","","","","","",""
"html-keyboard-response","251","360057","0.0-14.0-0.0","60664619eac28843177fee96","650c16f0f2faf8d7a0d14c09","651c1b169a806b7d581df914","null","null","<p style=""font-size: 60px; font-family: BACS"">vkYGlAld</p>","","","","","","","","",""
"html-keyboard-response","252","361064","0.0-14.0-0.1","60664619eac28843177fee96","650c16f0f2faf8d7a0d14c09","651c1b169a806b7d581df914","null","null","<p style=""font-size: 60px; font-family: BACS"">LckGNvUdm</p>","","","","","","","","",""
"html-keyboard-response","253","362070","0.0-14.0-0.2","60664619eac28843177fee96","650c16f0f2faf8d7a0d14c09","651c1b169a806b7d581df914","null","null","<p style=""font-size: 60px; font-family: BACS"">kDRKcBCAd</p>","","","","","","","","",""
"html-keyboard-response","254","363079","0.0-14.0-0.3","60664619eac28843177fee96","650c16f0f2faf8d7a0d14c09","651c1b169a806b7d581df914","null","null","<p style=""font-size: 60px; font-family: BACS"">ckLALvUdm</p>","","","","","","","","",""
"html-keyboard-response","255","364091","0.0-14.0-0.4","60664619eac28843177fee96","650c16f0f2faf8d7a0d14c09","651c1b169a806b7d581df914","null","null","<p style=""font-size: 60px; font-family: BACS"">rckOuOAO</p>","","","","","","","","",""
"html-keyboard-response","256","365103","0.0-14.0-0.5","60664619eac28843177fee96","650c16f0f2faf8d7a0d14c09","651c1b169a806b7d581df914","null","null","<p style=""font-size: 60px; font-family: BACS"">rdLJavUdm</p>","","","","","","","","",""
"html-keyboard-response","257","366115","0.0-14.0-0.6","60664619eac28843177fee96","650c16f0f2faf8d7a0d14c09","651c1b169a806b7d581df914","null","null","<p style=""font-size: 60px; font-family: BACS"">GAcYuOAO</p>","","","","","","","","",""
"html-keyboard-response","258","367118","0.0-14.0-0.7","60664619eac28843177fee96","650c16f0f2faf8d7a0d14c09","651c1b169a806b7d581df914","null","null","<p style=""font-size: 60px; font-family: BACS"">rckOvUdm</p>","","","","","","","","",""
"html-keyboard-response","259","368126","0.0-14.0-0.8","60664619eac28843177fee96","650c16f0f2faf8d7a0d14c09","651c1b169a806b7d581df914","null","null","<p style=""font-size: 60px; font-family: BACS"">hmKPMTRK</p>","","","","","","","","",""
"html-keyboard-response","260","369138","0.0-14.0-0.9","60664619eac28843177fee96","650c16f0f2faf8d7a0d14c09","651c1b169a806b7d581df914","null","null","<p style=""font-size: 60px; font-family: BACS"">kGlUvUdm</p>","","","","","","","","",""
"html-keyboard-response","261","370152","0.0-14.0-0.10","60664619eac28843177fee96","650c16f0f2faf8d7a0d14c09","651c1b169a806b7d581df914","null","null","<p style=""font-size: 60px; font-family: BACS"">ctktYDTk</p>","","","","","","","","",""
"html-keyboard-response","262","371156","0.0-14.0-0.11","60664619eac28843177fee96","650c16f0f2faf8d7a0d14c09","651c1b169a806b7d581df914","null","null","<p style=""font-size: 60px; font-family: BACS"">EPERdlMck</p>","","","","","","","","",""
"html-keyboard-response","263","372170","0.0-14.0-0.12","60664619eac28843177fee96","650c16f0f2faf8d7a0d14c09","651c1b169a806b7d581df914","null","null","<p style=""font-size: 60px; font-family: BACS"">mLdkZuOAO</p>","","","","","","","","",""
"html-keyboard-response","264","373182","0.0-14.0-0.13","60664619eac28843177fee96","650c16f0f2faf8d7a0d14c09","651c1b169a806b7d581df914","null","null","<p style=""font-size: 60px; font-family: BACS"">ctktYBO</p>","","","","","","","","",""
"html-keyboard-response","265","374194","0.0-14.0-0.14","60664619eac28843177fee96","650c16f0f2faf8d7a0d14c09","651c1b169a806b7d581df914","null","null","<p style=""font-size: 60px; font-family: BACS"">JZOAkbLd</p>","","","","","","","","",""
"html-keyboard-response","266","375207","0.0-14.0-0.15","60664619eac28843177fee96","650c16f0f2faf8d7a0d14c09","651c1b169a806b7d581df914","null","null","<p style=""font-size: 60px; font-family: BACS"">BATOcTRK</p>","","","","","","","","",""
"html-keyboard-response","267","376209","0.0-14.0-0.16","60664619eac28843177fee96","650c16f0f2faf8d7a0d14c09","651c1b169a806b7d581df914","null","null","<p style=""font-size: 60px; font-family: BACS"">vkYGlJQA</p>","","","","","","","","",""
"html-keyboard-response","268","377220","0.0-14.0-0.17","60664619eac28843177fee96","650c16f0f2faf8d7a0d14c09","651c1b169a806b7d581df914","null","null","<p style=""font-size: 60px; font-family: BACS"">LckGNAld</p>","","","","","","","","",""
"html-keyboard-response","269","378230","0.0-14.0-0.18","60664619eac28843177fee96","650c16f0f2faf8d7a0d14c09","651c1b169a806b7d581df914","null","null","<p style=""font-size: 60px; font-family: BACS"">hmKPMYDTk</p>","","","","","","","","",""
"html-keyboard-response","270","379243","0.0-14.0-0.19","60664619eac28843177fee96","650c16f0f2faf8d7a0d14c09","651c1b169a806b7d581df914","null","null","<p style=""font-size: 60px; font-family: BACS"">OmtlDBCAd</p>","","","","","","","","",""
"html-keyboard-response","271","380250","0.0-14.0-0.20","60664619eac28843177fee96","650c16f0f2faf8d7a0d14c09","651c1b169a806b7d581df914","null","null","<p style=""font-size: 60px; font-family: BACS"">ECtbDlMck</p>","","","","","","","","",""
"html-keyboard-response","272","381252","0.0-14.0-0.21","60664619eac28843177fee96","650c16f0f2faf8d7a0d14c09","651c1b169a806b7d581df914","null","null","<p style=""font-size: 60px; font-family: BACS"">rdLJabLd</p>","","","","","","","","",""
"html-keyboard-response","273","382267","0.0-14.0-0.22","60664619eac28843177fee96","650c16f0f2faf8d7a0d14c09","651c1b169a806b7d581df914","null","null","<p style=""font-size: 60px; font-family: BACS"">OmtlDTRK</p>","","","","","","","","",""
"html-keyboard-response","274","383278","0.0-14.0-0.23","60664619eac28843177fee96","650c16f0f2faf8d7a0d14c09","651c1b169a806b7d581df914","null","null","<p style=""font-size: 60px; font-family: BACS"">mLdkZAld</p>","","","","","","","","",""
"html-keyboard-response","275","384292","0.0-14.0-0.24","60664619eac28843177fee96","650c16f0f2faf8d7a0d14c09","651c1b169a806b7d581df914","null","null","<p style=""font-size: 60px; font-family: BACS"">kCRmlMck</p>","","","","","","","","",""
"html-keyboard-response","276","385297","0.0-14.0-0.25","60664619eac28843177fee96","650c16f0f2faf8d7a0d14c09","651c1b169a806b7d581df914","null","null","<p style=""font-size: 60px; font-family: BACS"">JZOAkuOAO</p>","","","","","","","","",""
"html-keyboard-response","277","386310","0.0-14.0-0.26","60664619eac28843177fee96","650c16f0f2faf8d7a0d14c09","651c1b169a806b7d581df914","null","null","<p style=""font-size: 60px; font-family: BACS"">LQurvUdm</p>","","","","","","","","",""
"html-keyboard-response","278","387324","0.0-14.0-0.27","60664619eac28843177fee96","650c16f0f2faf8d7a0d14c09","651c1b169a806b7d581df914","null","null","<p style=""font-size: 60px; font-family: BACS"">rdLJaAld</p>","","","","","","","","",""
"html-keyboard-response","279","388330","0.0-14.0-0.28","60664619eac28843177fee96","650c16f0f2faf8d7a0d14c09","651c1b169a806b7d581df914","null","null","<p style=""font-size: 60px; font-family: BACS"">kGlUuOAO</p>","","","","","","","","",""
"html-keyboard-response","280","389332","0.0-14.0-0.29","60664619eac28843177fee96","650c16f0f2faf8d7a0d14c09","651c1b169a806b7d581df914","null","null","<p style=""font-size: 60px; font-family: BACS"">kCRmYBO</p>","","","","","","","","",""
"html-keyboard-response","281","390345","0.0-14.0-0.30","60664619eac28843177fee96","650c16f0f2faf8d7a0d14c09","651c1b169a806b7d581df914","null","null","<p style=""font-size: 60px; font-family: BACS"">COTKlMck</p>","","","","","","","","",""
"html-keyboard-response","282","391352","0.0-14.0-0.31","60664619eac28843177fee96","650c16f0f2faf8d7a0d14c09","651c1b169a806b7d581df914","null","null","<p style=""font-size: 60px; font-family: BACS"">GAcYvUdm</p>","","","","","","","","",""
"html-keyboard-response","283","392364","0.0-14.0-0.32","60664619eac28843177fee96","650c16f0f2faf8d7a0d14c09","651c1b169a806b7d581df914","null","null","<p style=""font-size: 60px; font-family: BACS"">BATOcBCAd</p>","","","","","","","","",""
"html-keyboard-response","284","393376","0.0-14.0-0.33","60664619eac28843177fee96","650c16f0f2faf8d7a0d14c09","651c1b169a806b7d581df914","null","null","<p style=""font-size: 60px; font-family: BACS"">ckLALbLd</p>","","","","","","","","",""
"html-keyboard-response","285","394388","0.0-14.0-0.34","60664619eac28843177fee96","650c16f0f2faf8d7a0d14c09","651c1b169a806b7d581df914","null","null","<p style=""font-size: 60px; font-family: BACS"">ECtbDTRK</p>","","","","","","","","",""
"html-keyboard-response","286","395390","0.0-14.0-0.35","60664619eac28843177fee96","650c16f0f2faf8d7a0d14c09","651c1b169a806b7d581df914","null","null","<p style=""font-size: 60px; font-family: BACS"">LckGNJQA</p>","","","","","","","","",""
"html-keyboard-response","287","396391","0.0-14.0-0.36","60664619eac28843177fee96","650c16f0f2faf8d7a0d14c09","651c1b169a806b7d581df914","null","null","<p style=""font-size: 60px; font-family: BACS"">YmBdlMck</p>","","","","","","","","",""
"html-keyboard-response","288","397398","0.0-14.0-0.37","60664619eac28843177fee96","650c16f0f2faf8d7a0d14c09","651c1b169a806b7d581df914","null","null","<p style=""font-size: 60px; font-family: BACS"">ECtbDBCAd</p>","","","","","","","","",""
"html-keyboard-response","289","398411","0.0-14.0-0.38","60664619eac28843177fee96","650c16f0f2faf8d7a0d14c09","651c1b169a806b7d581df914","null","null","<p style=""font-size: 60px; font-family: BACS"">JZOAkAld</p>","","","","","","","","",""
"html-keyboard-response","290","399424","0.0-14.0-0.39","60664619eac28843177fee96","650c16f0f2faf8d7a0d14c09","651c1b169a806b7d581df914","null","null","<p style=""font-size: 60px; font-family: BACS"">LQurJQA</p>","","","","","","","","",""
"html-keyboard-response","291","400438","0.0-14.0-0.40","60664619eac28843177fee96","650c16f0f2faf8d7a0d14c09","651c1b169a806b7d581df914","null","null","<p style=""font-size: 60px; font-family: BACS"">OmtlDYBO</p>","","","","","","","","",""
"html-keyboard-response","292","401449","0.0-14.0-0.41","60664619eac28843177fee96","650c16f0f2faf8d7a0d14c09","651c1b169a806b7d581df914","null","null","<p style=""font-size: 60px; font-family: BACS"">rckOJQA</p>","","","","","","","","",""
"html-keyboard-response","293","402462","0.0-14.0-0.42","60664619eac28843177fee96","650c16f0f2faf8d7a0d14c09","651c1b169a806b7d581df914","null","null","<p style=""font-size: 60px; font-family: BACS"">OmtlDYDTk</p>","","","","","","","","",""
"html-keyboard-response","294","403472","0.0-14.0-0.43","60664619eac28843177fee96","650c16f0f2faf8d7a0d14c09","651c1b169a806b7d581df914","null","null","<p style=""font-size: 60px; font-family: BACS"">LckGNuOAO</p>","","","","","","","","",""
"html-keyboard-response","295","404485","0.0-14.0-0.44","60664619eac28843177fee96","650c16f0f2faf8d7a0d14c09","651c1b169a806b7d581df914","null","null","<p style=""font-size: 60px; font-family: BACS"">hmKPMBCAd</p>","","","","","","","","",""
"html-keyboard-response","296","405498","0.0-14.0-0.45","60664619eac28843177fee96","650c16f0f2faf8d7a0d14c09","651c1b169a806b7d581df914","null","null","<p style=""font-size: 60px; font-family: BACS"">ckLALAld</p>","","","","","","","","",""
"html-keyboard-response","297","406509","0.0-14.0-0.46","60664619eac28843177fee96","650c16f0f2faf8d7a0d14c09","651c1b169a806b7d581df914","null","null","<p style=""font-size: 60px; font-family: BACS"">EPERdYBO</p>","","","","","","","","",""
"html-keyboard-response","298","407523","0.0-14.0-0.47","60664619eac28843177fee96","650c16f0f2faf8d7a0d14c09","651c1b169a806b7d581df914","null","null","<p style=""font-size: 60px; font-family: BACS"">rdLJauOAO</p>","","","","","","","","",""
"html-keyboard-response","299","408525","0.0-14.0-0.48","60664619eac28843177fee96","650c16f0f2faf8d7a0d14c09","651c1b169a806b7d581df914","null","null","<p style=""font-size: 60px; font-family: BACS"">LQurAld</p>","","","","","","","","",""
"html-keyboard-response","300","409533","0.0-14.0-0.49","60664619eac28843177fee96","650c16f0f2faf8d7a0d14c09","651c1b169a806b7d581df914","null","null","<p style=""font-size: 60px; font-family: BACS"">EPERdYDTk</p>","","","","","","","","",""
"html-keyboard-response","301","410545","0.0-14.0-0.50","60664619eac28843177fee96","650c16f0f2faf8d7a0d14c09","651c1b169a806b7d581df914","null","null","<p style=""font-size: 60px; font-family: BACS"">vkYGlbLd</p>","","","","","","","","",""
"html-keyboard-response","302","411559","0.0-14.0-0.51","60664619eac28843177fee96","650c16f0f2faf8d7a0d14c09","651c1b169a806b7d581df914","null","null","<p style=""font-size: 60px; font-family: BACS"">YmBdYDTk</p>","","","","","","","","",""
"html-keyboard-response","303","412570","0.0-14.0-0.52","60664619eac28843177fee96","650c16f0f2faf8d7a0d14c09","651c1b169a806b7d581df914","null","null","<p style=""font-size: 60px; font-family: BACS"">rckOAld</p>","","","","","","","","",""
"html-keyboard-response","304","413573","0.0-14.0-0.53","60664619eac28843177fee96","650c16f0f2faf8d7a0d14c09","651c1b169a806b7d581df914","null","null","<p style=""font-size: 60px; font-family: BACS"">JZOAkJQA</p>","","","","","","","","",""
"html-keyboard-response","305","414579","0.0-14.0-0.54","60664619eac28843177fee96","650c16f0f2faf8d7a0d14c09","651c1b169a806b7d581df914","null","null","<p style=""font-size: 60px; font-family: BACS"">COTKYBO</p>","","","","","","","","",""
"html-keyboard-response","306","415589","0.0-14.0-0.55","60664619eac28843177fee96","650c16f0f2faf8d7a0d14c09","651c1b169a806b7d581df914","null","null","<p style=""font-size: 60px; font-family: BACS"">kDRKclMck</p>","","","","","","","","",""
"html-keyboard-response","307","416602","0.0-14.0-0.56","60664619eac28843177fee96","650c16f0f2faf8d7a0d14c09","651c1b169a806b7d581df914","null","null","<p style=""font-size: 60px; font-family: BACS"">mLdkZbLd</p>","","","","","","","","",""
"html-keyboard-response","308","417612","0.0-14.0-0.57","60664619eac28843177fee96","650c16f0f2faf8d7a0d14c09","651c1b169a806b7d581df914","null","null","<p style=""font-size: 60px; font-family: BACS"">ctktBCAd</p>","","","","","","","","",""
"html-keyboard-response","309","418625","0.0-14.0-0.58","60664619eac28843177fee96","650c16f0f2faf8d7a0d14c09","651c1b169a806b7d581df914","null","null","<p style=""font-size: 60px; font-family: BACS"">YmBdTRK</p>","","","","","","","","",""
"html-keyboard-response","310","419638","0.0-14.0-0.59","60664619eac28843177fee96","650c16f0f2faf8d7a0d14c09","651c1b169a806b7d581df914","null","null","<p style=""font-size: 60px; font-family: BACS"">kDRKcYBO</p>","","","","","","","","",""
"html-keyboard-response","311","420651","0.0-14.0-0.60","60664619eac28843177fee96","650c16f0f2faf8d7a0d14c09","651c1b169a806b7d581df914","null","null","<p style=""font-size: 60px; font-family: BACS"">hmKPMlMck</p>","","","","","","","","",""
"html-keyboard-response","312","421654","0.0-14.0-0.61","60664619eac28843177fee96","650c16f0f2faf8d7a0d14c09","651c1b169a806b7d581df914","null","null","<p style=""font-size: 60px; font-family: BACS"">ctktTRK</p>","","","","","","","","",""
"html-keyboard-response","313","422660","0.0-14.0-0.62","60664619eac28843177fee96","650c16f0f2faf8d7a0d14c09","651c1b169a806b7d581df914","null","null","<p style=""font-size: 60px; font-family: BACS"">mLdkZJQA</p>","","","","","","","","",""
"html-keyboard-response","314","423675","0.0-14.0-0.63","60664619eac28843177fee96","650c16f0f2faf8d7a0d14c09","651c1b169a806b7d581df914","null","null","<p style=""font-size: 60px; font-family: BACS"">YmBdYBO</p>","","","","","","","","",""
"html-keyboard-response","315","424684","0.0-14.0-0.64","60664619eac28843177fee96","650c16f0f2faf8d7a0d14c09","651c1b169a806b7d581df914","null","null","<p style=""font-size: 60px; font-family: BACS"">GAcYbLd</p>","","","","","","","","",""
"html-keyboard-response","316","425697","0.0-14.0-0.65","60664619eac28843177fee96","650c16f0f2faf8d7a0d14c09","651c1b169a806b7d581df914","null","null","<p style=""font-size: 60px; font-family: BACS"">BATOclMck</p>","","","","","","","","",""
"html-keyboard-response","317","426700","0.0-14.0-0.66","60664619eac28843177fee96","650c16f0f2faf8d7a0d14c09","651c1b169a806b7d581df914","null","null","<p style=""font-size: 60px; font-family: BACS"">kGlUbLd</p>","","","","","","","","",""
"html-keyboard-response","318","427705","0.0-14.0-0.67","60664619eac28843177fee96","650c16f0f2faf8d7a0d14c09","651c1b169a806b7d581df914","null","null","<p style=""font-size: 60px; font-family: BACS"">COTKBCAd</p>","","","","","","","","",""
"html-keyboard-response","319","428713","0.0-14.0-0.68","60664619eac28843177fee96","650c16f0f2faf8d7a0d14c09","651c1b169a806b7d581df914","null","null","<p style=""font-size: 60px; font-family: BACS"">kCRmTRK</p>","","","","","","","","",""
"html-keyboard-response","320","429717","0.0-14.0-0.69","60664619eac28843177fee96","650c16f0f2faf8d7a0d14c09","651c1b169a806b7d581df914","null","null","<p style=""font-size: 60px; font-family: BACS"">ckLALuOAO</p>","","","","","","","","",""
"html-keyboard-response","321","430728","0.0-14.0-0.70","60664619eac28843177fee96","650c16f0f2faf8d7a0d14c09","651c1b169a806b7d581df914","null","null","<p style=""font-size: 60px; font-family: BACS"">kDRKcYDTk</p>","","","","","","","","",""
"html-keyboard-response","322","431738","0.0-14.0-0.71","60664619eac28843177fee96","650c16f0f2faf8d7a0d14c09","651c1b169a806b7d581df914","null","null","<p style=""font-size: 60px; font-family: BACS"">BATOcYBO</p>","","","","","","","","",""
"html-keyboard-response","323","432754","0.0-14.0-0.72","60664619eac28843177fee96","650c16f0f2faf8d7a0d14c09","651c1b169a806b7d581df914","null","null","<p style=""font-size: 60px; font-family: BACS"">vkYGlvUdm</p>","","","","","","","","",""
"html-keyboard-response","324","433764","0.0-14.0-0.73","60664619eac28843177fee96","650c16f0f2faf8d7a0d14c09","651c1b169a806b7d581df914","null","null","<p style=""font-size: 60px; font-family: BACS"">GAcYJQA</p>","","","","","","","","",""
"html-keyboard-response","325","434775","0.0-14.0-0.74","60664619eac28843177fee96","650c16f0f2faf8d7a0d14c09","651c1b169a806b7d581df914","null","null","<p style=""font-size: 60px; font-family: BACS"">kCRmYDTk</p>","","","","","","","","",""
"html-keyboard-response","326","435789","0.0-14.0-0.75","60664619eac28843177fee96","650c16f0f2faf8d7a0d14c09","651c1b169a806b7d581df914","null","null","<p style=""font-size: 60px; font-family: BACS"">COTKTRK</p>","","","","","","","","",""
"html-keyboard-response","327","436802","0.0-14.0-0.76","60664619eac28843177fee96","650c16f0f2faf8d7a0d14c09","651c1b169a806b7d581df914","null","null","<p style=""font-size: 60px; font-family: BACS"">LQurbLd</p>","","","","","","","","",""
"html-keyboard-response","328","437818","0.0-14.0-0.77","60664619eac28843177fee96","650c16f0f2faf8d7a0d14c09","651c1b169a806b7d581df914","null","null","<p style=""font-size: 60px; font-family: BACS"">kGlUJQA</p>","","","","","","","","",""
"html-keyboard-response","329","438831","0.0-14.0-0.78","60664619eac28843177fee96","650c16f0f2faf8d7a0d14c09","651c1b169a806b7d581df914","null","null","<p style=""font-size: 60px; font-family: BACS"">ECtbDYDTk</p>","","","","","","","","",""
"html-keyboard-response","330","439843","0.0-14.0-0.79","60664619eac28843177fee96","650c16f0f2faf8d7a0d14c09","651c1b169a806b7d581df914","null","null","<p style=""font-size: 60px; font-family: BACS"">EPERdBCAd</p>","","","","","","","","",""
"html-keyboard-response","331","442555","0.0-15.0","60664619eac28843177fee96","650c16f0f2faf8d7a0d14c09","651c1b169a806b7d581df914","2712"," ","<p>Great, you've seen the fourth block of words. You may now take a short break.</p>
      <p>Press the spacebar when you're ready to continue.</p>","","","","","","","","",""
"html-keyboard-response","332","443570","0.0-16.0-0.0","60664619eac28843177fee96","650c16f0f2faf8d7a0d14c09","651c1b169a806b7d581df914","null","null","<p style=""font-size: 60px; font-family: BACS"">GAcYvUdm</p>","","","","","","","","",""
"html-keyboard-response","333","444584","0.0-16.0-0.1","60664619eac28843177fee96","650c16f0f2faf8d7a0d14c09","651c1b169a806b7d581df914","null","null","<p style=""font-size: 60px; font-family: BACS"">GAcYvUdm</p>","","","","","","","","",""
"html-keyboard-response","334","445601","0.0-16.0-0.2","60664619eac28843177fee96","650c16f0f2faf8d7a0d14c09","651c1b169a806b7d581df914","null","null","<p style=""font-size: 60px; font-family: BACS"">GAcYvUdm</p>","","","","","","","","",""
"html-keyboard-response","335","446613","0.0-16.0-0.3","60664619eac28843177fee96","650c16f0f2faf8d7a0d14c09","651c1b169a806b7d581df914","null","null","<p style=""font-size: 60px; font-family: BACS"">GAcYvUdm</p>","","","","","","","","",""
"html-keyboard-response","336","447617","0.0-16.0-0.4","60664619eac28843177fee96","650c16f0f2faf8d7a0d14c09","651c1b169a806b7d581df914","null","null","<p style=""font-size: 60px; font-family: BACS"">GAcYvUdm</p>","","","","","","","","",""
"html-keyboard-response","337","448620","0.0-16.0-0.5","60664619eac28843177fee96","650c16f0f2faf8d7a0d14c09","651c1b169a806b7d581df914","null","null","<p style=""font-size: 60px; font-family: BACS"">GAcYvUdm</p>","","","","","","","","",""
"html-keyboard-response","338","449629","0.0-16.0-0.6","60664619eac28843177fee96","650c16f0f2faf8d7a0d14c09","651c1b169a806b7d581df914","null","null","<p style=""font-size: 60px; font-family: BACS"">GAcYvUdm</p>","","","","","","","","",""
"html-keyboard-response","339","450643","0.0-16.0-0.7","60664619eac28843177fee96","650c16f0f2faf8d7a0d14c09","651c1b169a806b7d581df914","null","null","<p style=""font-size: 60px; font-family: BACS"">GAcYvUdm</p>","","","","","","","","",""
"html-keyboard-response","340","451654","0.0-16.0-0.8","60664619eac28843177fee96","650c16f0f2faf8d7a0d14c09","651c1b169a806b7d581df914","null","null","<p style=""font-size: 60px; font-family: BACS"">GAcYvUdm</p>","","","","","","","","",""
"html-keyboard-response","341","452667","0.0-16.0-0.9","60664619eac28843177fee96","650c16f0f2faf8d7a0d14c09","651c1b169a806b7d581df914","null","null","<p style=""font-size: 60px; font-family: BACS"">GAcYvUdm</p>","","","","","","","","",""
"html-keyboard-response","342","453679","0.0-16.0-0.10","60664619eac28843177fee96","650c16f0f2faf8d7a0d14c09","651c1b169a806b7d581df914","null","null","<p style=""font-size: 60px; font-family: BACS"">GAcYvUdm</p>","","","","","","","","",""
"html-keyboard-response","343","454690","0.0-16.0-0.11","60664619eac28843177fee96","650c16f0f2faf8d7a0d14c09","651c1b169a806b7d581df914","null","null","<p style=""font-size: 60px; font-family: BACS"">GAcYvUdm</p>","","","","","","","","",""
"html-keyboard-response","344","455703","0.0-16.0-0.12","60664619eac28843177fee96","650c16f0f2faf8d7a0d14c09","651c1b169a806b7d581df914","null","null","<p style=""font-size: 60px; font-family: BACS"">GAcYvUdm</p>","","","","","","","","",""
"html-keyboard-response","345","456715","0.0-16.0-0.13","60664619eac28843177fee96","650c16f0f2faf8d7a0d14c09","651c1b169a806b7d581df914","null","null","<p style=""font-size: 60px; font-family: BACS"">GAcYvUdm</p>","","","","","","","","",""
"html-keyboard-response","346","457721","0.0-16.0-0.14","60664619eac28843177fee96","650c16f0f2faf8d7a0d14c09","651c1b169a806b7d581df914","null","null","<p style=""font-size: 60px; font-family: BACS"">GAcYvUdm</p>","","","","","","","","",""
"html-keyboard-response","347","458732","0.0-16.0-0.15","60664619eac28843177fee96","650c16f0f2faf8d7a0d14c09","651c1b169a806b7d581df914","null","null","<p style=""font-size: 60px; font-family: BACS"">GAcYvUdm</p>","","","","","","","","",""
"html-keyboard-response","348","459745","0.0-16.0-0.16","60664619eac28843177fee96","650c16f0f2faf8d7a0d14c09","651c1b169a806b7d581df914","null","null","<p style=""font-size: 60px; font-family: BACS"">GAcYvUdm</p>","","","","","","","","",""
"html-keyboard-response","349","460759","0.0-16.0-0.17","60664619eac28843177fee96","650c16f0f2faf8d7a0d14c09","651c1b169a806b7d581df914","null","null","<p style=""font-size: 60px; font-family: BACS"">GAcYvUdm</p>","","","","","","","","",""
"html-keyboard-response","350","461770","0.0-16.0-0.18","60664619eac28843177fee96","650c16f0f2faf8d7a0d14c09","651c1b169a806b7d581df914","null","null","<p style=""font-size: 60px; font-family: BACS"">GAcYvUdm</p>","","","","","","","","",""
"html-keyboard-response","351","462780","0.0-16.0-0.19","60664619eac28843177fee96","650c16f0f2faf8d7a0d14c09","651c1b169a806b7d581df914","null","null","<p style=""font-size: 60px; font-family: BACS"">GAcYvUdm</p>","","","","","","","","",""
"html-keyboard-response","352","463794","0.0-16.0-0.20","60664619eac28843177fee96","650c16f0f2faf8d7a0d14c09","651c1b169a806b7d581df914","null","null","<p style=""font-size: 60px; font-family: BACS"">GAcYvUdm</p>","","","","","","","","",""
"html-keyboard-response","353","464805","0.0-16.0-0.21","60664619eac28843177fee96","650c16f0f2faf8d7a0d14c09","651c1b169a806b7d581df914","null","null","<p style=""font-size: 60px; font-family: BACS"">GAcYvUdm</p>","","","","","","","","",""
"html-keyboard-response","354","465819","0.0-16.0-0.22","60664619eac28843177fee96","650c16f0f2faf8d7a0d14c09","651c1b169a806b7d581df914","null","null","<p style=""font-size: 60px; font-family: BACS"">GAcYvUdm</p>","","","","","","","","",""
"html-keyboard-response","355","466832","0.0-16.0-0.23","60664619eac28843177fee96","650c16f0f2faf8d7a0d14c09","651c1b169a806b7d581df914","null","null","<p style=""font-size: 60px; font-family: BACS"">GAcYvUdm</p>","","","","","","","","",""
"html-keyboard-response","356","467845","0.0-16.0-0.24","60664619eac28843177fee96","650c16f0f2faf8d7a0d14c09","651c1b169a806b7d581df914","null","null","<p style=""font-size: 60px; font-family: BACS"">GAcYvUdm</p>","","","","","","","","",""
"html-keyboard-response","357","468854","0.0-16.0-0.25","60664619eac28843177fee96","650c16f0f2faf8d7a0d14c09","651c1b169a806b7d581df914","null","null","<p style=""font-size: 60px; font-family: BACS"">GAcYvUdm</p>","","","","","","","","",""
"html-keyboard-response","358","469866","0.0-16.0-0.26","60664619eac28843177fee96","650c16f0f2faf8d7a0d14c09","651c1b169a806b7d581df914","null","null","<p style=""font-size: 60px; font-family: BACS"">GAcYvUdm</p>","","","","","","","","",""
"html-keyboard-response","359","470870","0.0-16.0-0.27","60664619eac28843177fee96","650c16f0f2faf8d7a0d14c09","651c1b169a806b7d581df914","null","null","<p style=""font-size: 60px; font-family: BACS"">GAcYvUdm</p>","","","","","","","","",""
"html-keyboard-response","360","471878","0.0-16.0-0.28","60664619eac28843177fee96","650c16f0f2faf8d7a0d14c09","651c1b169a806b7d581df914","null","null","<p style=""font-size: 60px; font-family: BACS"">GAcYvUdm</p>","","","","","","","","",""
"html-keyboard-response","361","472882","0.0-16.0-0.29","60664619eac28843177fee96","650c16f0f2faf8d7a0d14c09","651c1b169a806b7d581df914","null","null","<p style=""font-size: 60px; font-family: BACS"">GAcYvUdm</p>","","","","","","","","",""
"html-keyboard-response","362","473891","0.0-16.0-0.30","60664619eac28843177fee96","650c16f0f2faf8d7a0d14c09","651c1b169a806b7d581df914","null","null","<p style=""font-size: 60px; font-family: BACS"">GAcYvUdm</p>","","","","","","","","",""
"html-keyboard-response","363","474893","0.0-16.0-0.31","60664619eac28843177fee96","650c16f0f2faf8d7a0d14c09","651c1b169a806b7d581df914","null","null","<p style=""font-size: 60px; font-family: BACS"">GAcYvUdm</p>","","","","","","","","",""
"html-keyboard-response","364","475899","0.0-16.0-0.32","60664619eac28843177fee96","650c16f0f2faf8d7a0d14c09","651c1b169a806b7d581df914","null","null","<p style=""font-size: 60px; font-family: BACS"">GAcYvUdm</p>","","","","","","","","",""
"html-keyboard-response","365","476906","0.0-16.0-0.33","60664619eac28843177fee96","650c16f0f2faf8d7a0d14c09","651c1b169a806b7d581df914","null","null","<p style=""font-size: 60px; font-family: BACS"">GAcYvUdm</p>","","","","","","","","",""
"html-keyboard-response","366","477911","0.0-16.0-0.34","60664619eac28843177fee96","650c16f0f2faf8d7a0d14c09","651c1b169a806b7d581df914","null","null","<p style=""font-size: 60px; font-family: BACS"">GAcYvUdm</p>","","","","","","","","",""
"html-keyboard-response","367","478924","0.0-16.0-0.35","60664619eac28843177fee96","650c16f0f2faf8d7a0d14c09","651c1b169a806b7d581df914","null","null","<p style=""font-size: 60px; font-family: BACS"">GAcYvUdm</p>","","","","","","","","",""
"html-keyboard-response","368","479938","0.0-16.0-0.36","60664619eac28843177fee96","650c16f0f2faf8d7a0d14c09","651c1b169a806b7d581df914","null","null","<p style=""font-size: 60px; font-family: BACS"">GAcYvUdm</p>","","","","","","","","",""
"html-keyboard-response","369","480944","0.0-16.0-0.37","60664619eac28843177fee96","650c16f0f2faf8d7a0d14c09","651c1b169a806b7d581df914","null","null","<p style=""font-size: 60px; font-family: BACS"">GAcYvUdm</p>","","","","","","","","",""
"html-keyboard-response","370","481951","0.0-16.0-0.38","60664619eac28843177fee96","650c16f0f2faf8d7a0d14c09","651c1b169a806b7d581df914","null","null","<p style=""font-size: 60px; font-family: BACS"">GAcYvUdm</p>","","","","","","","","",""
"html-keyboard-response","371","482957","0.0-16.0-0.39","60664619eac28843177fee96","650c16f0f2faf8d7a0d14c09","651c1b169a806b7d581df914","null","null","<p style=""font-size: 60px; font-family: BACS"">GAcYvUdm</p>","","","","","","","","",""
"html-keyboard-response","372","483969","0.0-16.0-0.40","60664619eac28843177fee96","650c16f0f2faf8d7a0d14c09","651c1b169a806b7d581df914","null","null","<p style=""font-size: 60px; font-family: BACS"">GAcYvUdm</p>","","","","","","","","",""
"html-keyboard-response","373","484983","0.0-16.0-0.41","60664619eac28843177fee96","650c16f0f2faf8d7a0d14c09","651c1b169a806b7d581df914","null","null","<p style=""font-size: 60px; font-family: BACS"">GAcYvUdm</p>","","","","","","","","",""
"html-keyboard-response","374","485990","0.0-16.0-0.42","60664619eac28843177fee96","650c16f0f2faf8d7a0d14c09","651c1b169a806b7d581df914","null","null","<p style=""font-size: 60px; font-family: BACS"">GAcYvUdm</p>","","","","","","","","",""
"html-keyboard-response","375","487001","0.0-16.0-0.43","60664619eac28843177fee96","650c16f0f2faf8d7a0d14c09","651c1b169a806b7d581df914","null","null","<p style=""font-size: 60px; font-family: BACS"">GAcYvUdm</p>","","","","","","","","",""
"html-keyboard-response","376","488010","0.0-16.0-0.44","60664619eac28843177fee96","650c16f0f2faf8d7a0d14c09","651c1b169a806b7d581df914","null","null","<p style=""font-size: 60px; font-family: BACS"">GAcYvUdm</p>","","","","","","","","",""
"html-keyboard-response","377","489019","0.0-16.0-0.45","60664619eac28843177fee96","650c16f0f2faf8d7a0d14c09","651c1b169a806b7d581df914","null","null","<p style=""font-size: 60px; font-family: BACS"">GAcYvUdm</p>","","","","","","","","",""
"html-keyboard-response","378","490021","0.0-16.0-0.46","60664619eac28843177fee96","650c16f0f2faf8d7a0d14c09","651c1b169a806b7d581df914","null","null","<p style=""font-size: 60px; font-family: BACS"">GAcYvUdm</p>","","","","","","","","",""
"html-keyboard-response","379","491029","0.0-16.0-0.47","60664619eac28843177fee96","650c16f0f2faf8d7a0d14c09","651c1b169a806b7d581df914","null","null","<p style=""font-size: 60px; font-family: BACS"">GAcYvUdm</p>","","","","","","","","",""
"html-keyboard-response","380","492034","0.0-16.0-0.48","60664619eac28843177fee96","650c16f0f2faf8d7a0d14c09","651c1b169a806b7d581df914","null","null","<p style=""font-size: 60px; font-family: BACS"">GAcYvUdm</p>","","","","","","","","",""
"html-keyboard-response","381","493038","0.0-16.0-0.49","60664619eac28843177fee96","650c16f0f2faf8d7a0d14c09","651c1b169a806b7d581df914","null","null","<p style=""font-size: 60px; font-family: BACS"">GAcYvUdm</p>","","","","","","","","",""
"html-keyboard-response","382","494046","0.0-16.0-0.50","60664619eac28843177fee96","650c16f0f2faf8d7a0d14c09","651c1b169a806b7d581df914","null","null","<p style=""font-size: 60px; font-family: BACS"">GAcYvUdm</p>","","","","","","","","",""
"html-keyboard-response","383","495056","0.0-16.0-0.51","60664619eac28843177fee96","650c16f0f2faf8d7a0d14c09","651c1b169a806b7d581df914","null","null","<p style=""font-size: 60px; font-family: BACS"">GAcYvUdm</p>","","","","","","","","",""
"html-keyboard-response","384","496068","0.0-16.0-0.52","60664619eac28843177fee96","650c16f0f2faf8d7a0d14c09","651c1b169a806b7d581df914","null","null","<p style=""font-size: 60px; font-family: BACS"">GAcYvUdm</p>","","","","","","","","",""
"html-keyboard-response","385","497082","0.0-16.0-0.53","60664619eac28843177fee96","650c16f0f2faf8d7a0d14c09","651c1b169a806b7d581df914","null","null","<p style=""font-size: 60px; font-family: BACS"">GAcYvUdm</p>","","","","","","","","",""
"html-keyboard-response","386","498088","0.0-16.0-0.54","60664619eac28843177fee96","650c16f0f2faf8d7a0d14c09","651c1b169a806b7d581df914","null","null","<p style=""font-size: 60px; font-family: BACS"">GAcYvUdm</p>","","","","","","","","",""
"html-keyboard-response","387","499089","0.0-16.0-0.55","60664619eac28843177fee96","650c16f0f2faf8d7a0d14c09","651c1b169a806b7d581df914","null","null","<p style=""font-size: 60px; font-family: BACS"">GAcYvUdm</p>","","","","","","","","",""
"html-keyboard-response","388","500104","0.0-16.0-0.56","60664619eac28843177fee96","650c16f0f2faf8d7a0d14c09","651c1b169a806b7d581df914","null","null","<p style=""font-size: 60px; font-family: BACS"">GAcYvUdm</p>","","","","","","","","",""
"html-keyboard-response","389","501107","0.0-16.0-0.57","60664619eac28843177fee96","650c16f0f2faf8d7a0d14c09","651c1b169a806b7d581df914","null","null","<p style=""font-size: 60px; font-family: BACS"">GAcYvUdm</p>","","","","","","","","",""
"html-keyboard-response","390","502111","0.0-16.0-0.58","60664619eac28843177fee96","650c16f0f2faf8d7a0d14c09","651c1b169a806b7d581df914","null","null","<p style=""font-size: 60px; font-family: BACS"">GAcYvUdm</p>","","","","","","","","",""
"html-keyboard-response","391","503122","0.0-16.0-0.59","60664619eac28843177fee96","650c16f0f2faf8d7a0d14c09","651c1b169a806b7d581df914","null","null","<p style=""font-size: 60px; font-family: BACS"">GAcYvUdm</p>","","","","","","","","",""
"html-keyboard-response","392","504126","0.0-16.0-0.60","60664619eac28843177fee96","650c16f0f2faf8d7a0d14c09","651c1b169a806b7d581df914","null","null","<p style=""font-size: 60px; font-family: BACS"">GAcYvUdm</p>","","","","","","","","",""
"html-keyboard-response","393","505132","0.0-16.0-0.61","60664619eac28843177fee96","650c16f0f2faf8d7a0d14c09","651c1b169a806b7d581df914","null","null","<p style=""font-size: 60px; font-family: BACS"">GAcYvUdm</p>","","","","","","","","",""
"html-keyboard-response","394","506148","0.0-16.0-0.62","60664619eac28843177fee96","650c16f0f2faf8d7a0d14c09","651c1b169a806b7d581df914","null","null","<p style=""font-size: 60px; font-family: BACS"">GAcYvUdm</p>","","","","","","","","",""
"html-keyboard-response","395","507159","0.0-16.0-0.63","60664619eac28843177fee96","650c16f0f2faf8d7a0d14c09","651c1b169a806b7d581df914","null","null","<p style=""font-size: 60px; font-family: BACS"">GAcYvUdm</p>","","","","","","","","",""
"html-keyboard-response","396","508164","0.0-16.0-0.64","60664619eac28843177fee96","650c16f0f2faf8d7a0d14c09","651c1b169a806b7d581df914","null","null","<p style=""font-size: 60px; font-family: BACS"">GAcYvUdm</p>","","","","","","","","",""
"html-keyboard-response","397","509167","0.0-16.0-0.65","60664619eac28843177fee96","650c16f0f2faf8d7a0d14c09","651c1b169a806b7d581df914","null","null","<p style=""font-size: 60px; font-family: BACS"">GAcYvUdm</p>","","","","","","","","",""
"html-keyboard-response","398","510176","0.0-16.0-0.66","60664619eac28843177fee96","650c16f0f2faf8d7a0d14c09","651c1b169a806b7d581df914","null","null","<p style=""font-size: 60px; font-family: BACS"">GAcYvUdm</p>","","","","","","","","",""
"html-keyboard-response","399","511188","0.0-16.0-0.67","60664619eac28843177fee96","650c16f0f2faf8d7a0d14c09","651c1b169a806b7d581df914","null","null","<p style=""font-size: 60px; font-family: BACS"">GAcYvUdm</p>","","","","","","","","",""
