"trial_type","trial_index","time_elapsed","internal_node_id","subject_id","study_id","session_id","rt","response","stimulus","success","item","task","correct_response","correct","target","confound","name"
"pavlovia","0","4164","0.0-0.0","6161f43ddd46e845e7b3fab8","64b003020eef62ee308107cc","64b03ce94c8e9dc38d901b6a","","","","","","","","","","",""
"survey-html-form","1","36066","0.0-1.0","6161f43ddd46e845e7b3fab8","64b003020eef62ee308107cc","64b03ce94c8e9dc38d901b6a","31901","{""ID"":""6161f43ddd46e845e7b3fab8""}","","","","","","","","",""
"html-keyboard-response","2","41523","0.0-2.0","6161f43ddd46e845e7b3fab8","64b003020eef62ee308107cc","64b03ce94c8e9dc38d901b6a","5456"," ","<p style=""font-size: 15px;"">Prima di cominciare, le chiediamo di leggere il modulo di consenso informato e confermare la sua volontà di partecipare all'esperimento.</p>
      <p style=""font-size: 15px;""> La preghiamo di ricordare che questo è un progetto di ricerca e che la sua partecipazione è completamente volontaria. Lei si potra' ritirare in qualunque momento, senza necessariamente dover dare alcuna spiegazione. Lo studio al quale Le si chiede di partecipare ha lo scopo di esaminare come i lettori elaborano le parole scritte. La somministrazione delle prove è individuale. Lei sarà impegnato in una sessione di lavoro della durata media di 10 minuti, e un questionario di 10 minuti. L’ordine delle prove ed il loro svolgimento sono stabiliti in modo tale da evitare un eventuale affaticamento. Tutte le prove saranno precedute da un breve addestramento in modo tale che abbia la possibilità di familiarizzare con il compito. Sono previste alcune pause nel corso dello svolgimento dell’esperimento. Una ricompensa di £4 (£8 per ora) Le verrà consegnata al termine della sessione di testing. Nonostante il testing preveda delle prove cognitive, il presente esperimento non costituisce una prova clinica che permetta la diagnosi di eventuali patologie.</p>
      <p style=""font-size: 15px;"">Tutti i dati raccolti grazie alla partecipazione Sua e di altre persone volontarie saranno custoditi in server sicuri e protetti da password, e non sarà consentito ad alcuna persona non autorizzata di accedervi. Le Sue informazioni personali saranno conservate separatamente dai risultati della presente ricerca, cui saranno associati soltanto attraverso un ID arbitrario. Grazie a questo processo di anonimizzazione dei dati, a nessun ricercatore sarà possibile analizzare i risultati sapendo da quale specifico partecipante essi provengono. Inoltre, questa procedura renderà impossibile la Sua identificazione anche nel momento in cui i risultati della ricerca fossero pubblicati su riviste scientifiche, o presentati a congressi o in qualsiasi altro pubblico consesso. Più in generale, i dati raccolti saranno trattati in accordo con le leggi sulla privacy e in conformità al Decreto Legislativo 30 giugno 2003 n. 196 “Codice in materia di protezione dei dati personali” e al Regolamento Europeo 2016/679 (General Data Protection Regulation - GDPR). Il Responsabile della protezione dei dati (RPD) è l’Avv. Valentina Carollo che può essere contattato ai seguenti indirizzi email: <a href=""mailto:dpo@sissa.it"">dpo@sissa.it</a> oppure <a href=""mailto:rpd@sissa.it"">rpd@sissa.it</a> - PEC: <a href=""mailto:protocollo@pec.sissa.it"">protocollo@pec.sissa.it</a>.</p>
      <p style=""font-size: 15px;""> Prima di esprimere il suo consenso alla partecipazione, Le ricordiamo ancora che in caso Lei abbia bisogno di delucidazioni su qualunque aspetto della procedura sperimentale, il ricercatore è a Sua completa disposizione (<a href=""mailto:aliebelt@sissa.it"">aliebelt@sissa.it</a>, <a href=""mailto:davide.crepaldi@sissa.it"">davide.crepaldi@sissa.it</a>).</p>
      <p style=""font-size: 15px;"">Se vuole scaricare il modulo di consenso informato, clicca qui: <a href=""BASL_modulo_consenso.pdf"" download>modulo di consenso</a>.</p>
      <p style=""font-size: 15px;""> Le chiediamo di premere la barra per continuare al consenso.</p>","","","","","","","",""
"survey-html-form","3","53675","0.0-3.0","6161f43ddd46e845e7b3fab8","64b003020eef62ee308107cc","64b03ce94c8e9dc38d901b6a","12152","{""consent1"":""YES"",""consent2"":""YES"",""consent3"":""YES"",""consent4"":""YES"",""consent5"":""YES"",""consent6"":""YES""}","","","","","","","","",""
"fullscreen","4","59091","0.0-4.0","6161f43ddd46e845e7b3fab8","64b003020eef62ee308107cc","64b03ce94c8e9dc38d901b6a","","","","true","","","","","","",""
"html-keyboard-response","5","62988","0.0-5.0","6161f43ddd46e845e7b3fab8","64b003020eef62ee308107cc","64b03ce94c8e9dc38d901b6a","3897"," ","<p>Benvenuta/o, e grazie mille del tuo tempo!</p>
      <p>In questo esperimento sarai un esperto/un'esperta di linguaggio cui è stato chiesto di dare un'occhiata ad alcuni messaggi che la Terra ha ricevuto dallo spazio. Il tuo compito, in questa prima parte dell'esperimento, sarà di fare molta attenzione alle parole che ti verranno mostrate; più tardi, i leader del mondo ti chiederanno qualche informazione su quello che hai visto. Le parole si susseguiranno abbastanza velocemente; sembra che questi alieni abbiano una certa fretta :-) </p>
      <p>Per favore, chiama lo sperimentatore se ha qualche domanda.</p><p>Premi la barra per continuare.</p>","","","","","","","",""
"html-keyboard-response","6","93160","0.0-6.0","6161f43ddd46e845e7b3fab8","64b003020eef62ee308107cc","64b03ce94c8e9dc38d901b6a","30171"," ","<p>Ecco un esempio delle parole che vedrai:</p>
      <img src='esempio.png' height='400px'>
      <p>Quando sei pronti per iniziare, premi la barra.</p></div>","","","","","","","",""
"html-keyboard-response","7","94161","0.0-7.0-0.0","6161f43ddd46e845e7b3fab8","64b003020eef62ee308107cc","64b03ce94c8e9dc38d901b6a","null","null","<p style=""font-size: 60px; font-family: BACS"">ukcYrkra</p>","","","","","","","",""
"html-keyboard-response","8","95162","0.0-7.0-0.1","6161f43ddd46e845e7b3fab8","64b003020eef62ee308107cc","64b03ce94c8e9dc38d901b6a","null","null","<p style=""font-size: 60px; font-family: BACS"">kPOtEKBO</p>","","","","","","","",""
"html-keyboard-response","9","96164","0.0-7.0-0.2","6161f43ddd46e845e7b3fab8","64b003020eef62ee308107cc","64b03ce94c8e9dc38d901b6a","null","null","<p style=""font-size: 60px; font-family: BACS"">ukcYZAUu</p>","","","","","","","",""
"html-keyboard-response","10","97180","0.0-7.0-0.3","6161f43ddd46e845e7b3fab8","64b003020eef62ee308107cc","64b03ce94c8e9dc38d901b6a","null","null","<p style=""font-size: 60px; font-family: BACS"">OYuvbrkra</p>","","","","","","","",""
"html-keyboard-response","11","98181","0.0-7.0-0.4","6161f43ddd46e845e7b3fab8","64b003020eef62ee308107cc","64b03ce94c8e9dc38d901b6a","null","null","<p style=""font-size: 60px; font-family: BACS"">KElBcPK</p>","","","","","","","",""
"html-keyboard-response","12","99193","0.0-7.0-0.5","6161f43ddd46e845e7b3fab8","64b003020eef62ee308107cc","64b03ce94c8e9dc38d901b6a","null","null","<p style=""font-size: 60px; font-family: BACS"">TDKhEKBO</p>","","","","","","","",""
"html-keyboard-response","13","100201","0.0-7.0-0.6","6161f43ddd46e845e7b3fab8","64b003020eef62ee308107cc","64b03ce94c8e9dc38d901b6a","null","null","<p style=""font-size: 60px; font-family: BACS"">OYuvbark</p>","","","","","","","",""
"html-keyboard-response","14","101210","0.0-7.0-0.7","6161f43ddd46e845e7b3fab8","64b003020eef62ee308107cc","64b03ce94c8e9dc38d901b6a","null","null","<p style=""font-size: 60px; font-family: BACS"">amJmZAUu</p>","","","","","","","",""
"html-keyboard-response","15","102211","0.0-7.0-0.8","6161f43ddd46e845e7b3fab8","64b003020eef62ee308107cc","64b03ce94c8e9dc38d901b6a","null","null","<p style=""font-size: 60px; font-family: BACS"">LdQvrkra</p>","","","","","","","",""
"html-keyboard-response","16","103217","0.0-7.0-0.9","6161f43ddd46e845e7b3fab8","64b003020eef62ee308107cc","64b03ce94c8e9dc38d901b6a","null","null","<p style=""font-size: 60px; font-family: BACS"">DMRPCMdP</p>","","","","","","","",""
"html-keyboard-response","17","104219","0.0-7.0-0.10","6161f43ddd46e845e7b3fab8","64b003020eef62ee308107cc","64b03ce94c8e9dc38d901b6a","null","null","<p style=""font-size: 60px; font-family: BACS"">RhPmTRkY</p>","","","","","","","",""
"html-keyboard-response","18","105220","0.0-7.0-0.11","6161f43ddd46e845e7b3fab8","64b003020eef62ee308107cc","64b03ce94c8e9dc38d901b6a","null","null","<p style=""font-size: 60px; font-family: BACS"">JrGvJQA</p>","","","","","","","",""
"html-keyboard-response","19","106221","0.0-7.0-0.12","6161f43ddd46e845e7b3fab8","64b003020eef62ee308107cc","64b03ce94c8e9dc38d901b6a","null","null","<p style=""font-size: 60px; font-family: BACS"">TDKhOPE</p>","","","","","","","",""
"html-keyboard-response","20","107222","0.0-7.0-0.13","6161f43ddd46e845e7b3fab8","64b003020eef62ee308107cc","64b03ce94c8e9dc38d901b6a","null","null","<p style=""font-size: 60px; font-family: BACS"">ukcYJud</p>","","","","","","","",""
"html-keyboard-response","21","108223","0.0-7.0-0.14","6161f43ddd46e845e7b3fab8","64b003020eef62ee308107cc","64b03ce94c8e9dc38d901b6a","null","null","<p style=""font-size: 60px; font-family: BACS"">KElBCMdP</p>","","","","","","","",""
"html-keyboard-response","22","109238","0.0-7.0-0.15","6161f43ddd46e845e7b3fab8","64b003020eef62ee308107cc","64b03ce94c8e9dc38d901b6a","null","null","<p style=""font-size: 60px; font-family: BACS"">krGuJQA</p>","","","","","","","",""
"html-keyboard-response","23","110239","0.0-7.0-0.16","6161f43ddd46e845e7b3fab8","64b003020eef62ee308107cc","64b03ce94c8e9dc38d901b6a","null","null","<p style=""font-size: 60px; font-family: BACS"">amJmark</p>","","","","","","","",""
"html-keyboard-response","24","111240","0.0-7.0-0.17","6161f43ddd46e845e7b3fab8","64b003020eef62ee308107cc","64b03ce94c8e9dc38d901b6a","null","null","<p style=""font-size: 60px; font-family: BACS"">RhPmOPE</p>","","","","","","","",""
"html-keyboard-response","25","112255","0.0-7.0-0.18","6161f43ddd46e845e7b3fab8","64b003020eef62ee308107cc","64b03ce94c8e9dc38d901b6a","null","null","<p style=""font-size: 60px; font-family: BACS"">QbkAcrkra</p>","","","","","","","",""
"html-keyboard-response","26","113265","0.0-7.0-0.19","6161f43ddd46e845e7b3fab8","64b003020eef62ee308107cc","64b03ce94c8e9dc38d901b6a","null","null","<p style=""font-size: 60px; font-family: BACS"">QcladJud</p>","","","","","","","",""
"html-keyboard-response","27","114266","0.0-7.0-0.20","6161f43ddd46e845e7b3fab8","64b003020eef62ee308107cc","64b03ce94c8e9dc38d901b6a","null","null","<p style=""font-size: 60px; font-family: BACS"">LckGNrkra</p>","","","","","","","",""
"html-keyboard-response","28","115266","0.0-7.0-0.21","6161f43ddd46e845e7b3fab8","64b003020eef62ee308107cc","64b03ce94c8e9dc38d901b6a","null","null","<p style=""font-size: 60px; font-family: BACS"">DlDdOPE</p>","","","","","","","",""
"html-keyboard-response","29","116268","0.0-7.0-0.22","6161f43ddd46e845e7b3fab8","64b003020eef62ee308107cc","64b03ce94c8e9dc38d901b6a","null","null","<p style=""font-size: 60px; font-family: BACS"">KElBEKBO</p>","","","","","","","",""
"html-keyboard-response","30","117269","0.0-7.0-0.23","6161f43ddd46e845e7b3fab8","64b003020eef62ee308107cc","64b03ce94c8e9dc38d901b6a","null","null","<p style=""font-size: 60px; font-family: BACS"">LdQvJQA</p>","","","","","","","",""
"html-keyboard-response","31","118285","0.0-7.0-0.24","6161f43ddd46e845e7b3fab8","64b003020eef62ee308107cc","64b03ce94c8e9dc38d901b6a","null","null","<p style=""font-size: 60px; font-family: BACS"">QbkAcJud</p>","","","","","","","",""
"html-keyboard-response","32","119296","0.0-7.0-0.25","6161f43ddd46e845e7b3fab8","64b003020eef62ee308107cc","64b03ce94c8e9dc38d901b6a","null","null","<p style=""font-size: 60px; font-family: BACS"">OYuvbJQA</p>","","","","","","","",""
"html-keyboard-response","33","120302","0.0-7.0-0.26","6161f43ddd46e845e7b3fab8","64b003020eef62ee308107cc","64b03ce94c8e9dc38d901b6a","null","null","<p style=""font-size: 60px; font-family: BACS"">dCtMAEKBO</p>","","","","","","","",""
"html-keyboard-response","34","121303","0.0-7.0-0.27","6161f43ddd46e845e7b3fab8","64b003020eef62ee308107cc","64b03ce94c8e9dc38d901b6a","null","null","<p style=""font-size: 60px; font-family: BACS"">RhPmcPK</p>","","","","","","","",""
"html-keyboard-response","35","122304","0.0-7.0-0.28","6161f43ddd46e845e7b3fab8","64b003020eef62ee308107cc","64b03ce94c8e9dc38d901b6a","null","null","<p style=""font-size: 60px; font-family: BACS"">TDKhTRkY</p>","","","","","","","",""
"html-keyboard-response","36","123305","0.0-7.0-0.29","6161f43ddd46e845e7b3fab8","64b003020eef62ee308107cc","64b03ce94c8e9dc38d901b6a","null","null","<p style=""font-size: 60px; font-family: BACS"">DlDdEKBO</p>","","","","","","","",""
"html-keyboard-response","37","124319","0.0-7.0-0.30","6161f43ddd46e845e7b3fab8","64b003020eef62ee308107cc","64b03ce94c8e9dc38d901b6a","null","null","<p style=""font-size: 60px; font-family: BACS"">kPOtcPK</p>","","","","","","","",""
"html-keyboard-response","38","125320","0.0-7.0-0.31","6161f43ddd46e845e7b3fab8","64b003020eef62ee308107cc","64b03ce94c8e9dc38d901b6a","null","null","<p style=""font-size: 60px; font-family: BACS"">LckGNJud</p>","","","","","","","",""
"html-keyboard-response","39","126320","0.0-7.0-0.32","6161f43ddd46e845e7b3fab8","64b003020eef62ee308107cc","64b03ce94c8e9dc38d901b6a","null","null","<p style=""font-size: 60px; font-family: BACS"">KElBOPE</p>","","","","","","","",""
"html-keyboard-response","40","127321","0.0-7.0-0.33","6161f43ddd46e845e7b3fab8","64b003020eef62ee308107cc","64b03ce94c8e9dc38d901b6a","null","null","<p style=""font-size: 60px; font-family: BACS"">ukcYJQA</p>","","","","","","","",""
"html-keyboard-response","41","128322","0.0-7.0-0.34","6161f43ddd46e845e7b3fab8","64b003020eef62ee308107cc","64b03ce94c8e9dc38d901b6a","null","null","<p style=""font-size: 60px; font-family: BACS"">bcOROPE</p>","","","","","","","",""
"html-keyboard-response","42","129330","0.0-7.0-0.35","6161f43ddd46e845e7b3fab8","64b003020eef62ee308107cc","64b03ce94c8e9dc38d901b6a","null","null","<p style=""font-size: 60px; font-family: BACS"">DMRPEKBO</p>","","","","","","","",""
"html-keyboard-response","43","130331","0.0-7.0-0.36","6161f43ddd46e845e7b3fab8","64b003020eef62ee308107cc","64b03ce94c8e9dc38d901b6a","null","null","<p style=""font-size: 60px; font-family: BACS"">bRABtTRkY</p>","","","","","","","",""
"html-keyboard-response","44","131345","0.0-7.0-0.37","6161f43ddd46e845e7b3fab8","64b003020eef62ee308107cc","64b03ce94c8e9dc38d901b6a","null","null","<p style=""font-size: 60px; font-family: BACS"">OYuvbZAUu</p>","","","","","","","",""
"html-keyboard-response","45","132345","0.0-7.0-0.38","6161f43ddd46e845e7b3fab8","64b003020eef62ee308107cc","64b03ce94c8e9dc38d901b6a","null","null","<p style=""font-size: 60px; font-family: BACS"">RhPmEKBO</p>","","","","","","","",""
"html-keyboard-response","46","133347","0.0-7.0-0.39","6161f43ddd46e845e7b3fab8","64b003020eef62ee308107cc","64b03ce94c8e9dc38d901b6a","null","null","<p style=""font-size: 60px; font-family: BACS"">YQbcrkra</p>","","","","","","","",""
"html-keyboard-response","47","134348","0.0-7.0-0.40","6161f43ddd46e845e7b3fab8","64b003020eef62ee308107cc","64b03ce94c8e9dc38d901b6a","null","null","<p style=""font-size: 60px; font-family: BACS"">LckGNZAUu</p>","","","","","","","",""
"html-keyboard-response","48","135359","0.0-7.0-0.41","6161f43ddd46e845e7b3fab8","64b003020eef62ee308107cc","64b03ce94c8e9dc38d901b6a","null","null","<p style=""font-size: 60px; font-family: BACS"">bcORcPK</p>","","","","","","","",""
"html-keyboard-response","49","136360","0.0-7.0-0.42","6161f43ddd46e845e7b3fab8","64b003020eef62ee308107cc","64b03ce94c8e9dc38d901b6a","null","null","<p style=""font-size: 60px; font-family: BACS"">bRABtOPE</p>","","","","","","","",""
"html-keyboard-response","50","137362","0.0-7.0-0.43","6161f43ddd46e845e7b3fab8","64b003020eef62ee308107cc","64b03ce94c8e9dc38d901b6a","null","null","<p style=""font-size: 60px; font-family: BACS"">krGuJud</p>","","","","","","","",""
"html-keyboard-response","51","138376","0.0-7.0-0.44","6161f43ddd46e845e7b3fab8","64b003020eef62ee308107cc","64b03ce94c8e9dc38d901b6a","null","null","<p style=""font-size: 60px; font-family: BACS"">QbkAcark</p>","","","","","","","",""
"html-keyboard-response","52","139386","0.0-7.0-0.45","6161f43ddd46e845e7b3fab8","64b003020eef62ee308107cc","64b03ce94c8e9dc38d901b6a","null","null","<p style=""font-size: 60px; font-family: BACS"">YQbcJud</p>","","","","","","","",""
"html-keyboard-response","53","140387","0.0-7.0-0.46","6161f43ddd46e845e7b3fab8","64b003020eef62ee308107cc","64b03ce94c8e9dc38d901b6a","null","null","<p style=""font-size: 60px; font-family: BACS"">JrGvrkra</p>","","","","","","","",""
"html-keyboard-response","54","141389","0.0-7.0-0.47","6161f43ddd46e845e7b3fab8","64b003020eef62ee308107cc","64b03ce94c8e9dc38d901b6a","null","null","<p style=""font-size: 60px; font-family: BACS"">ODBDATRkY</p>","","","","","","","",""
"html-keyboard-response","55","142390","0.0-7.0-0.48","6161f43ddd46e845e7b3fab8","64b003020eef62ee308107cc","64b03ce94c8e9dc38d901b6a","null","null","<p style=""font-size: 60px; font-family: BACS"">dCtMACMdP</p>","","","","","","","",""
"html-keyboard-response","56","143392","0.0-7.0-0.49","6161f43ddd46e845e7b3fab8","64b003020eef62ee308107cc","64b03ce94c8e9dc38d901b6a","null","null","<p style=""font-size: 60px; font-family: BACS"">JrGvJud</p>","","","","","","","",""
"html-keyboard-response","57","144393","0.0-7.0-0.50","6161f43ddd46e845e7b3fab8","64b003020eef62ee308107cc","64b03ce94c8e9dc38d901b6a","null","null","<p style=""font-size: 60px; font-family: BACS"">dCtMATRkY</p>","","","","","","","",""
"html-keyboard-response","58","145393","0.0-7.0-0.51","6161f43ddd46e845e7b3fab8","64b003020eef62ee308107cc","64b03ce94c8e9dc38d901b6a","null","null","<p style=""font-size: 60px; font-family: BACS"">TDKhCMdP</p>","","","","","","","",""
"html-keyboard-response","59","146394","0.0-7.0-0.52","6161f43ddd46e845e7b3fab8","64b003020eef62ee308107cc","64b03ce94c8e9dc38d901b6a","null","null","<p style=""font-size: 60px; font-family: BACS"">LdQvark</p>","","","","","","","",""
"html-keyboard-response","60","147396","0.0-7.0-0.53","6161f43ddd46e845e7b3fab8","64b003020eef62ee308107cc","64b03ce94c8e9dc38d901b6a","null","null","<p style=""font-size: 60px; font-family: BACS"">krGuZAUu</p>","","","","","","","",""
"html-keyboard-response","61","148397","0.0-7.0-0.54","6161f43ddd46e845e7b3fab8","64b003020eef62ee308107cc","64b03ce94c8e9dc38d901b6a","null","null","<p style=""font-size: 60px; font-family: BACS"">DMRPTRkY</p>","","","","","","","",""
"html-keyboard-response","62","149398","0.0-7.0-0.55","6161f43ddd46e845e7b3fab8","64b003020eef62ee308107cc","64b03ce94c8e9dc38d901b6a","null","null","<p style=""font-size: 60px; font-family: BACS"">LdQvZAUu</p>","","","","","","","",""
"html-keyboard-response","63","150406","0.0-7.0-0.56","6161f43ddd46e845e7b3fab8","64b003020eef62ee308107cc","64b03ce94c8e9dc38d901b6a","null","null","<p style=""font-size: 60px; font-family: BACS"">bRABtCMdP</p>","","","","","","","",""
"html-keyboard-response","64","151407","0.0-7.0-0.57","6161f43ddd46e845e7b3fab8","64b003020eef62ee308107cc","64b03ce94c8e9dc38d901b6a","null","null","<p style=""font-size: 60px; font-family: BACS"">ODBDAcPK</p>","","","","","","","",""
"html-keyboard-response","65","152408","0.0-7.0-0.58","6161f43ddd46e845e7b3fab8","64b003020eef62ee308107cc","64b03ce94c8e9dc38d901b6a","null","null","<p style=""font-size: 60px; font-family: BACS"">bcOREKBO</p>","","","","","","","",""
"html-keyboard-response","66","153409","0.0-7.0-0.59","6161f43ddd46e845e7b3fab8","64b003020eef62ee308107cc","64b03ce94c8e9dc38d901b6a","null","null","<p style=""font-size: 60px; font-family: BACS"">QcladZAUu</p>","","","","","","","",""
"html-keyboard-response","67","154410","0.0-7.0-0.60","6161f43ddd46e845e7b3fab8","64b003020eef62ee308107cc","64b03ce94c8e9dc38d901b6a","null","null","<p style=""font-size: 60px; font-family: BACS"">kPOtTRkY</p>","","","","","","","",""
"html-keyboard-response","68","155411","0.0-7.0-0.61","6161f43ddd46e845e7b3fab8","64b003020eef62ee308107cc","64b03ce94c8e9dc38d901b6a","null","null","<p style=""font-size: 60px; font-family: BACS"">krGuark</p>","","","","","","","",""
"html-keyboard-response","69","156417","0.0-7.0-0.62","6161f43ddd46e845e7b3fab8","64b003020eef62ee308107cc","64b03ce94c8e9dc38d901b6a","null","null","<p style=""font-size: 60px; font-family: BACS"">YQbcZAUu</p>","","","","","","","",""
"html-keyboard-response","70","157432","0.0-7.0-0.63","6161f43ddd46e845e7b3fab8","64b003020eef62ee308107cc","64b03ce94c8e9dc38d901b6a","null","null","<p style=""font-size: 60px; font-family: BACS"">QbkAcJQA</p>","","","","","","","",""
"html-keyboard-response","71","158446","0.0-7.0-0.64","6161f43ddd46e845e7b3fab8","64b003020eef62ee308107cc","64b03ce94c8e9dc38d901b6a","null","null","<p style=""font-size: 60px; font-family: BACS"">DMRPcPK</p>","","","","","","","",""
"html-keyboard-response","72","159447","0.0-7.0-0.65","6161f43ddd46e845e7b3fab8","64b003020eef62ee308107cc","64b03ce94c8e9dc38d901b6a","null","null","<p style=""font-size: 60px; font-family: BACS"">DlDdTRkY</p>","","","","","","","",""
"html-keyboard-response","73","160451","0.0-7.0-0.66","6161f43ddd46e845e7b3fab8","64b003020eef62ee308107cc","64b03ce94c8e9dc38d901b6a","null","null","<p style=""font-size: 60px; font-family: BACS"">ODBDACMdP</p>","","","","","","","",""
"html-keyboard-response","74","161462","0.0-7.0-0.67","6161f43ddd46e845e7b3fab8","64b003020eef62ee308107cc","64b03ce94c8e9dc38d901b6a","null","null","<p style=""font-size: 60px; font-family: BACS"">JrGvark</p>","","","","","","","",""
"html-keyboard-response","75","162474","0.0-7.0-0.68","6161f43ddd46e845e7b3fab8","64b003020eef62ee308107cc","64b03ce94c8e9dc38d901b6a","null","null","<p style=""font-size: 60px; font-family: BACS"">LckGNJQA</p>","","","","","","","",""
"html-keyboard-response","76","163476","0.0-7.0-0.69","6161f43ddd46e845e7b3fab8","64b003020eef62ee308107cc","64b03ce94c8e9dc38d901b6a","null","null","<p style=""font-size: 60px; font-family: BACS"">amJmJud</p>","","","","","","","",""
"html-keyboard-response","77","164490","0.0-7.0-0.70","6161f43ddd46e845e7b3fab8","64b003020eef62ee308107cc","64b03ce94c8e9dc38d901b6a","null","null","<p style=""font-size: 60px; font-family: BACS"">DlDdCMdP</p>","","","","","","","",""
"html-keyboard-response","78","165491","0.0-7.0-0.71","6161f43ddd46e845e7b3fab8","64b003020eef62ee308107cc","64b03ce94c8e9dc38d901b6a","null","null","<p style=""font-size: 60px; font-family: BACS"">dCtMAcPK</p>","","","","","","","",""
"html-keyboard-response","79","166493","0.0-7.0-0.72","6161f43ddd46e845e7b3fab8","64b003020eef62ee308107cc","64b03ce94c8e9dc38d901b6a","null","null","<p style=""font-size: 60px; font-family: BACS"">ODBDAOPE</p>","","","","","","","",""
"html-keyboard-response","80","167493","0.0-7.0-0.73","6161f43ddd46e845e7b3fab8","64b003020eef62ee308107cc","64b03ce94c8e9dc38d901b6a","null","null","<p style=""font-size: 60px; font-family: BACS"">amJmrkra</p>","","","","","","","",""
"html-keyboard-response","81","168498","0.0-7.0-0.74","6161f43ddd46e845e7b3fab8","64b003020eef62ee308107cc","64b03ce94c8e9dc38d901b6a","null","null","<p style=""font-size: 60px; font-family: BACS"">Qcladark</p>","","","","","","","",""
"html-keyboard-response","82","169512","0.0-7.0-0.75","6161f43ddd46e845e7b3fab8","64b003020eef62ee308107cc","64b03ce94c8e9dc38d901b6a","null","null","<p style=""font-size: 60px; font-family: BACS"">kPOtOPE</p>","","","","","","","",""
"html-keyboard-response","83","170513","0.0-7.0-0.76","6161f43ddd46e845e7b3fab8","64b003020eef62ee308107cc","64b03ce94c8e9dc38d901b6a","null","null","<p style=""font-size: 60px; font-family: BACS"">bcORCMdP</p>","","","","","","","",""
"html-keyboard-response","84","171514","0.0-7.0-0.77","6161f43ddd46e845e7b3fab8","64b003020eef62ee308107cc","64b03ce94c8e9dc38d901b6a","null","null","<p style=""font-size: 60px; font-family: BACS"">YQbcark</p>","","","","","","","",""
"html-keyboard-response","85","172515","0.0-7.0-0.78","6161f43ddd46e845e7b3fab8","64b003020eef62ee308107cc","64b03ce94c8e9dc38d901b6a","null","null","<p style=""font-size: 60px; font-family: BACS"">QcladJQA</p>","","","","","","","",""
"html-keyboard-response","86","173516","0.0-7.0-0.79","6161f43ddd46e845e7b3fab8","64b003020eef62ee308107cc","64b03ce94c8e9dc38d901b6a","null","null","<p style=""font-size: 60px; font-family: BACS"">bRABtcPK</p>","","","","","","","",""
"html-keyboard-response","87","176880","0.0-8.0","6161f43ddd46e845e7b3fab8","64b003020eef62ee308107cc","64b03ce94c8e9dc38d901b6a","3364"," ","<p>Ottimo, hai visto il primo blocco di parole. Ora puoi prenderti una piccola pausa.</p>
      <p>Premi la barra quando sei pronta/o per riprendere.</p>","","","","","","","",""
"html-keyboard-response","88","177883","0.0-9.0-0.0","6161f43ddd46e845e7b3fab8","64b003020eef62ee308107cc","64b03ce94c8e9dc38d901b6a","null","null","<p style=""font-size: 60px; font-family: BACS"">RhPmOPE</p>","","","","","","","",""
"html-keyboard-response","89","178885","0.0-9.0-0.1","6161f43ddd46e845e7b3fab8","64b003020eef62ee308107cc","64b03ce94c8e9dc38d901b6a","null","null","<p style=""font-size: 60px; font-family: BACS"">YQbcrkra</p>","","","","","","","",""
"html-keyboard-response","90","179886","0.0-9.0-0.2","6161f43ddd46e845e7b3fab8","64b003020eef62ee308107cc","64b03ce94c8e9dc38d901b6a","null","null","<p style=""font-size: 60px; font-family: BACS"">kPOtEKBO</p>","","","","","","","",""
"html-keyboard-response","91","180889","0.0-9.0-0.3","6161f43ddd46e845e7b3fab8","64b003020eef62ee308107cc","64b03ce94c8e9dc38d901b6a","null","null","<p style=""font-size: 60px; font-family: BACS"">LdQvJQA</p>","","","","","","","",""
"html-keyboard-response","92","181904","0.0-9.0-0.4","6161f43ddd46e845e7b3fab8","64b003020eef62ee308107cc","64b03ce94c8e9dc38d901b6a","null","null","<p style=""font-size: 60px; font-family: BACS"">krGuark</p>","","","","","","","",""
"html-keyboard-response","93","182904","0.0-9.0-0.5","6161f43ddd46e845e7b3fab8","64b003020eef62ee308107cc","64b03ce94c8e9dc38d901b6a","null","null","<p style=""font-size: 60px; font-family: BACS"">ukcYZAUu</p>","","","","","","","",""
"html-keyboard-response","94","183910","0.0-9.0-0.6","6161f43ddd46e845e7b3fab8","64b003020eef62ee308107cc","64b03ce94c8e9dc38d901b6a","null","null","<p style=""font-size: 60px; font-family: BACS"">TDKhOPE</p>","","","","","","","",""
"html-keyboard-response","95","184911","0.0-9.0-0.7","6161f43ddd46e845e7b3fab8","64b003020eef62ee308107cc","64b03ce94c8e9dc38d901b6a","null","null","<p style=""font-size: 60px; font-family: BACS"">LdQvark</p>","","","","","","","",""
"html-keyboard-response","96","185912","0.0-9.0-0.8","6161f43ddd46e845e7b3fab8","64b003020eef62ee308107cc","64b03ce94c8e9dc38d901b6a","null","null","<p style=""font-size: 60px; font-family: BACS"">amJmJud</p>","","","","","","","",""
"html-keyboard-response","97","186914","0.0-9.0-0.9","6161f43ddd46e845e7b3fab8","64b003020eef62ee308107cc","64b03ce94c8e9dc38d901b6a","null","null","<p style=""font-size: 60px; font-family: BACS"">OYuvbZAUu</p>","","","","","","","",""
"html-keyboard-response","98","187929","0.0-9.0-0.10","6161f43ddd46e845e7b3fab8","64b003020eef62ee308107cc","64b03ce94c8e9dc38d901b6a","null","null","<p style=""font-size: 60px; font-family: BACS"">bcOREKBO</p>","","","","","","","",""
"html-keyboard-response","99","188931","0.0-9.0-0.11","6161f43ddd46e845e7b3fab8","64b003020eef62ee308107cc","64b03ce94c8e9dc38d901b6a","null","null","<p style=""font-size: 60px; font-family: BACS"">bRABtOPE</p>","","","","","","","",""
"html-keyboard-response","100","189932","0.0-9.0-0.12","6161f43ddd46e845e7b3fab8","64b003020eef62ee308107cc","64b03ce94c8e9dc38d901b6a","null","null","<p style=""font-size: 60px; font-family: BACS"">DlDdEKBO</p>","","","","","","","",""
"html-keyboard-response","101","190933","0.0-9.0-0.13","6161f43ddd46e845e7b3fab8","64b003020eef62ee308107cc","64b03ce94c8e9dc38d901b6a","null","null","<p style=""font-size: 60px; font-family: BACS"">bRABtTRkY</p>","","","","","","","",""
"html-keyboard-response","102","191934","0.0-9.0-0.14","6161f43ddd46e845e7b3fab8","64b003020eef62ee308107cc","64b03ce94c8e9dc38d901b6a","null","null","<p style=""font-size: 60px; font-family: BACS"">amJmZAUu</p>","","","","","","","",""
"html-keyboard-response","103","192934","0.0-9.0-0.15","6161f43ddd46e845e7b3fab8","64b003020eef62ee308107cc","64b03ce94c8e9dc38d901b6a","null","null","<p style=""font-size: 60px; font-family: BACS"">DlDdCMdP</p>","","","","","","","",""
"html-keyboard-response","104","193935","0.0-9.0-0.16","6161f43ddd46e845e7b3fab8","64b003020eef62ee308107cc","64b03ce94c8e9dc38d901b6a","null","null","<p style=""font-size: 60px; font-family: BACS"">ukcYJud</p>","","","","","","","",""
"html-keyboard-response","105","194936","0.0-9.0-0.17","6161f43ddd46e845e7b3fab8","64b003020eef62ee308107cc","64b03ce94c8e9dc38d901b6a","null","null","<p style=""font-size: 60px; font-family: BACS"">dCtMACMdP</p>","","","","","","","",""
"html-keyboard-response","106","195936","0.0-9.0-0.18","6161f43ddd46e845e7b3fab8","64b003020eef62ee308107cc","64b03ce94c8e9dc38d901b6a","null","null","<p style=""font-size: 60px; font-family: BACS"">krGuJud</p>","","","","","","","",""
"html-keyboard-response","107","196938","0.0-9.0-0.19","6161f43ddd46e845e7b3fab8","64b003020eef62ee308107cc","64b03ce94c8e9dc38d901b6a","null","null","<p style=""font-size: 60px; font-family: BACS"">JrGvrkra</p>","","","","","","","",""
"html-keyboard-response","108","197939","0.0-9.0-0.20","6161f43ddd46e845e7b3fab8","64b003020eef62ee308107cc","64b03ce94c8e9dc38d901b6a","null","null","<p style=""font-size: 60px; font-family: BACS"">bRABtCMdP</p>","","","","","","","",""
"html-keyboard-response","109","198948","0.0-9.0-0.21","6161f43ddd46e845e7b3fab8","64b003020eef62ee308107cc","64b03ce94c8e9dc38d901b6a","null","null","<p style=""font-size: 60px; font-family: BACS"">QcladJud</p>","","","","","","","",""
"html-keyboard-response","110","199949","0.0-9.0-0.22","6161f43ddd46e845e7b3fab8","64b003020eef62ee308107cc","64b03ce94c8e9dc38d901b6a","null","null","<p style=""font-size: 60px; font-family: BACS"">OYuvbJQA</p>","","","","","","","",""
"html-keyboard-response","111","200963","0.0-9.0-0.23","6161f43ddd46e845e7b3fab8","64b003020eef62ee308107cc","64b03ce94c8e9dc38d901b6a","null","null","<p style=""font-size: 60px; font-family: BACS"">bcORCMdP</p>","","","","","","","",""
"html-keyboard-response","112","201965","0.0-9.0-0.24","6161f43ddd46e845e7b3fab8","64b003020eef62ee308107cc","64b03ce94c8e9dc38d901b6a","null","null","<p style=""font-size: 60px; font-family: BACS"">krGuJQA</p>","","","","","","","",""
"html-keyboard-response","113","202966","0.0-9.0-0.25","6161f43ddd46e845e7b3fab8","64b003020eef62ee308107cc","64b03ce94c8e9dc38d901b6a","null","null","<p style=""font-size: 60px; font-family: BACS"">ukcYrkra</p>","","","","","","","",""
"html-keyboard-response","114","203967","0.0-9.0-0.26","6161f43ddd46e845e7b3fab8","64b003020eef62ee308107cc","64b03ce94c8e9dc38d901b6a","null","null","<p style=""font-size: 60px; font-family: BACS"">KElBOPE</p>","","","","","","","",""
"html-keyboard-response","115","204968","0.0-9.0-0.27","6161f43ddd46e845e7b3fab8","64b003020eef62ee308107cc","64b03ce94c8e9dc38d901b6a","null","null","<p style=""font-size: 60px; font-family: BACS"">QcladZAUu</p>","","","","","","","",""
"html-keyboard-response","116","205979","0.0-9.0-0.28","6161f43ddd46e845e7b3fab8","64b003020eef62ee308107cc","64b03ce94c8e9dc38d901b6a","null","null","<p style=""font-size: 60px; font-family: BACS"">OYuvbark</p>","","","","","","","",""
"html-keyboard-response","117","206979","0.0-9.0-0.29","6161f43ddd46e845e7b3fab8","64b003020eef62ee308107cc","64b03ce94c8e9dc38d901b6a","null","null","<p style=""font-size: 60px; font-family: BACS"">DMRPTRkY</p>","","","","","","","",""
"html-keyboard-response","118","207994","0.0-9.0-0.30","6161f43ddd46e845e7b3fab8","64b003020eef62ee308107cc","64b03ce94c8e9dc38d901b6a","null","null","<p style=""font-size: 60px; font-family: BACS"">RhPmcPK</p>","","","","","","","",""
"html-keyboard-response","119","208998","0.0-9.0-0.31","6161f43ddd46e845e7b3fab8","64b003020eef62ee308107cc","64b03ce94c8e9dc38d901b6a","null","null","<p style=""font-size: 60px; font-family: BACS"">LdQvZAUu</p>","","","","","","","",""
"html-keyboard-response","120","210011","0.0-9.0-0.32","6161f43ddd46e845e7b3fab8","64b003020eef62ee308107cc","64b03ce94c8e9dc38d901b6a","null","null","<p style=""font-size: 60px; font-family: BACS"">TDKhEKBO</p>","","","","","","","",""
"html-keyboard-response","121","211012","0.0-9.0-0.33","6161f43ddd46e845e7b3fab8","64b003020eef62ee308107cc","64b03ce94c8e9dc38d901b6a","null","null","<p style=""font-size: 60px; font-family: BACS"">LckGNZAUu</p>","","","","","","","",""
"html-keyboard-response","122","212015","0.0-9.0-0.34","6161f43ddd46e845e7b3fab8","64b003020eef62ee308107cc","64b03ce94c8e9dc38d901b6a","null","null","<p style=""font-size: 60px; font-family: BACS"">amJmark</p>","","","","","","","",""
"html-keyboard-response","123","213022","0.0-9.0-0.35","6161f43ddd46e845e7b3fab8","64b003020eef62ee308107cc","64b03ce94c8e9dc38d901b6a","null","null","<p style=""font-size: 60px; font-family: BACS"">krGuZAUu</p>","","","","","","","",""
"html-keyboard-response","124","214035","0.0-9.0-0.36","6161f43ddd46e845e7b3fab8","64b003020eef62ee308107cc","64b03ce94c8e9dc38d901b6a","null","null","<p style=""font-size: 60px; font-family: BACS"">LckGNrkra</p>","","","","","","","",""
"html-keyboard-response","125","215036","0.0-9.0-0.37","6161f43ddd46e845e7b3fab8","64b003020eef62ee308107cc","64b03ce94c8e9dc38d901b6a","null","null","<p style=""font-size: 60px; font-family: BACS"">DlDdTRkY</p>","","","","","","","",""
"html-keyboard-response","126","216036","0.0-9.0-0.38","6161f43ddd46e845e7b3fab8","64b003020eef62ee308107cc","64b03ce94c8e9dc38d901b6a","null","null","<p style=""font-size: 60px; font-family: BACS"">RhPmEKBO</p>","","","","","","","",""
"html-keyboard-response","127","217038","0.0-9.0-0.39","6161f43ddd46e845e7b3fab8","64b003020eef62ee308107cc","64b03ce94c8e9dc38d901b6a","null","null","<p style=""font-size: 60px; font-family: BACS"">DMRPcPK</p>","","","","","","","",""
"html-keyboard-response","128","218039","0.0-9.0-0.40","6161f43ddd46e845e7b3fab8","64b003020eef62ee308107cc","64b03ce94c8e9dc38d901b6a","null","null","<p style=""font-size: 60px; font-family: BACS"">QbkAcark</p>","","","","","","","",""
"html-keyboard-response","129","219040","0.0-9.0-0.41","6161f43ddd46e845e7b3fab8","64b003020eef62ee308107cc","64b03ce94c8e9dc38d901b6a","null","null","<p style=""font-size: 60px; font-family: BACS"">LckGNJQA</p>","","","","","","","",""
"html-keyboard-response","130","220042","0.0-9.0-0.42","6161f43ddd46e845e7b3fab8","64b003020eef62ee308107cc","64b03ce94c8e9dc38d901b6a","null","null","<p style=""font-size: 60px; font-family: BACS"">ODBDAcPK</p>","","","","","","","",""
"html-keyboard-response","131","221043","0.0-9.0-0.43","6161f43ddd46e845e7b3fab8","64b003020eef62ee308107cc","64b03ce94c8e9dc38d901b6a","null","null","<p style=""font-size: 60px; font-family: BACS"">kPOtTRkY</p>","","","","","","","",""
"html-keyboard-response","132","222044","0.0-9.0-0.44","6161f43ddd46e845e7b3fab8","64b003020eef62ee308107cc","64b03ce94c8e9dc38d901b6a","null","null","<p style=""font-size: 60px; font-family: BACS"">KElBcPK</p>","","","","","","","",""
"html-keyboard-response","133","223045","0.0-9.0-0.45","6161f43ddd46e845e7b3fab8","64b003020eef62ee308107cc","64b03ce94c8e9dc38d901b6a","null","null","<p style=""font-size: 60px; font-family: BACS"">JrGvJQA</p>","","","","","","","",""
"html-keyboard-response","134","224046","0.0-9.0-0.46","6161f43ddd46e845e7b3fab8","64b003020eef62ee308107cc","64b03ce94c8e9dc38d901b6a","null","null","<p style=""font-size: 60px; font-family: BACS"">bcORcPK</p>","","","","","","","",""
"html-keyboard-response","135","225047","0.0-9.0-0.47","6161f43ddd46e845e7b3fab8","64b003020eef62ee308107cc","64b03ce94c8e9dc38d901b6a","null","null","<p style=""font-size: 60px; font-family: BACS"">KElBCMdP</p>","","","","","","","",""
"html-keyboard-response","136","226059","0.0-9.0-0.48","6161f43ddd46e845e7b3fab8","64b003020eef62ee308107cc","64b03ce94c8e9dc38d901b6a","null","null","<p style=""font-size: 60px; font-family: BACS"">TDKhTRkY</p>","","","","","","","",""
"html-keyboard-response","137","227060","0.0-9.0-0.49","6161f43ddd46e845e7b3fab8","64b003020eef62ee308107cc","64b03ce94c8e9dc38d901b6a","null","null","<p style=""font-size: 60px; font-family: BACS"">Qcladark</p>","","","","","","","",""
"html-keyboard-response","138","228061","0.0-9.0-0.50","6161f43ddd46e845e7b3fab8","64b003020eef62ee308107cc","64b03ce94c8e9dc38d901b6a","null","null","<p style=""font-size: 60px; font-family: BACS"">bRABtcPK</p>","","","","","","","",""
"html-keyboard-response","139","229073","0.0-9.0-0.51","6161f43ddd46e845e7b3fab8","64b003020eef62ee308107cc","64b03ce94c8e9dc38d901b6a","null","null","<p style=""font-size: 60px; font-family: BACS"">TDKhCMdP</p>","","","","","","","",""
"html-keyboard-response","140","230075","0.0-9.0-0.52","6161f43ddd46e845e7b3fab8","64b003020eef62ee308107cc","64b03ce94c8e9dc38d901b6a","null","null","<p style=""font-size: 60px; font-family: BACS"">YQbcJud</p>","","","","","","","",""
"html-keyboard-response","141","231076","0.0-9.0-0.53","6161f43ddd46e845e7b3fab8","64b003020eef62ee308107cc","64b03ce94c8e9dc38d901b6a","null","null","<p style=""font-size: 60px; font-family: BACS"">kPOtcPK</p>","","","","","","","",""
"html-keyboard-response","142","232079","0.0-9.0-0.54","6161f43ddd46e845e7b3fab8","64b003020eef62ee308107cc","64b03ce94c8e9dc38d901b6a","null","null","<p style=""font-size: 60px; font-family: BACS"">ODBDAOPE</p>","","","","","","","",""
"html-keyboard-response","143","233080","0.0-9.0-0.55","6161f43ddd46e845e7b3fab8","64b003020eef62ee308107cc","64b03ce94c8e9dc38d901b6a","null","null","<p style=""font-size: 60px; font-family: BACS"">amJmrkra</p>","","","","","","","",""
"html-keyboard-response","144","234087","0.0-9.0-0.56","6161f43ddd46e845e7b3fab8","64b003020eef62ee308107cc","64b03ce94c8e9dc38d901b6a","null","null","<p style=""font-size: 60px; font-family: BACS"">dCtMAEKBO</p>","","","","","","","",""
"html-keyboard-response","145","235087","0.0-9.0-0.57","6161f43ddd46e845e7b3fab8","64b003020eef62ee308107cc","64b03ce94c8e9dc38d901b6a","null","null","<p style=""font-size: 60px; font-family: BACS"">YQbcark</p>","","","","","","","",""
"html-keyboard-response","146","236088","0.0-9.0-0.58","6161f43ddd46e845e7b3fab8","64b003020eef62ee308107cc","64b03ce94c8e9dc38d901b6a","null","null","<p style=""font-size: 60px; font-family: BACS"">QbkAcJud</p>","","","","","","","",""
"html-keyboard-response","147","237104","0.0-9.0-0.59","6161f43ddd46e845e7b3fab8","64b003020eef62ee308107cc","64b03ce94c8e9dc38d901b6a","null","null","<p style=""font-size: 60px; font-family: BACS"">LdQvrkra</p>","","","","","","","",""
"html-keyboard-response","148","238105","0.0-9.0-0.60","6161f43ddd46e845e7b3fab8","64b003020eef62ee308107cc","64b03ce94c8e9dc38d901b6a","null","null","<p style=""font-size: 60px; font-family: BACS"">dCtMAcPK</p>","","","","","","","",""
"html-keyboard-response","149","239116","0.0-9.0-0.61","6161f43ddd46e845e7b3fab8","64b003020eef62ee308107cc","64b03ce94c8e9dc38d901b6a","null","null","<p style=""font-size: 60px; font-family: BACS"">ODBDATRkY</p>","","","","","","","",""
"html-keyboard-response","150","240117","0.0-9.0-0.62","6161f43ddd46e845e7b3fab8","64b003020eef62ee308107cc","64b03ce94c8e9dc38d901b6a","null","null","<p style=""font-size: 60px; font-family: BACS"">KElBEKBO</p>","","","","","","","",""
"html-keyboard-response","151","241118","0.0-9.0-0.63","6161f43ddd46e845e7b3fab8","64b003020eef62ee308107cc","64b03ce94c8e9dc38d901b6a","null","null","<p style=""font-size: 60px; font-family: BACS"">LckGNJud</p>","","","","","","","",""
"html-keyboard-response","152","242118","0.0-9.0-0.64","6161f43ddd46e845e7b3fab8","64b003020eef62ee308107cc","64b03ce94c8e9dc38d901b6a","null","null","<p style=""font-size: 60px; font-family: BACS"">DMRPEKBO</p>","","","","","","","",""
"html-keyboard-response","153","243119","0.0-9.0-0.65","6161f43ddd46e845e7b3fab8","64b003020eef62ee308107cc","64b03ce94c8e9dc38d901b6a","null","null","<p style=""font-size: 60px; font-family: BACS"">QbkAcrkra</p>","","","","","","","",""
"html-keyboard-response","154","244119","0.0-9.0-0.66","6161f43ddd46e845e7b3fab8","64b003020eef62ee308107cc","64b03ce94c8e9dc38d901b6a","null","null","<p style=""font-size: 60px; font-family: BACS"">RhPmTRkY</p>","","","","","","","",""
"html-keyboard-response","155","245130","0.0-9.0-0.67","6161f43ddd46e845e7b3fab8","64b003020eef62ee308107cc","64b03ce94c8e9dc38d901b6a","null","null","<p style=""font-size: 60px; font-family: BACS"">DMRPCMdP</p>","","","","","","","",""
"html-keyboard-response","156","246144","0.0-9.0-0.68","6161f43ddd46e845e7b3fab8","64b003020eef62ee308107cc","64b03ce94c8e9dc38d901b6a","null","null","<p style=""font-size: 60px; font-family: BACS"">DlDdOPE</p>","","","","","","","",""
"html-keyboard-response","157","247158","0.0-9.0-0.69","6161f43ddd46e845e7b3fab8","64b003020eef62ee308107cc","64b03ce94c8e9dc38d901b6a","null","null","<p style=""font-size: 60px; font-family: BACS"">ukcYJQA</p>","","","","","","","",""
"html-keyboard-response","158","248160","0.0-9.0-0.70","6161f43ddd46e845e7b3fab8","64b003020eef62ee308107cc","64b03ce94c8e9dc38d901b6a","null","null","<p style=""font-size: 60px; font-family: BACS"">ODBDACMdP</p>","","","","","","","",""
"html-keyboard-response","159","249160","0.0-9.0-0.71","6161f43ddd46e845e7b3fab8","64b003020eef62ee308107cc","64b03ce94c8e9dc38d901b6a","null","null","<p style=""font-size: 60px; font-family: BACS"">JrGvJud</p>","","","","","","","",""
"html-keyboard-response","160","250162","0.0-9.0-0.72","6161f43ddd46e845e7b3fab8","64b003020eef62ee308107cc","64b03ce94c8e9dc38d901b6a","null","null","<p style=""font-size: 60px; font-family: BACS"">YQbcZAUu</p>","","","","","","","",""
"html-keyboard-response","161","251162","0.0-9.0-0.73","6161f43ddd46e845e7b3fab8","64b003020eef62ee308107cc","64b03ce94c8e9dc38d901b6a","null","null","<p style=""font-size: 60px; font-family: BACS"">JrGvark</p>","","","","","","","",""
"html-keyboard-response","162","252163","0.0-9.0-0.74","6161f43ddd46e845e7b3fab8","64b003020eef62ee308107cc","64b03ce94c8e9dc38d901b6a","null","null","<p style=""font-size: 60px; font-family: BACS"">kPOtOPE</p>","","","","","","","",""
"html-keyboard-response","163","253164","0.0-9.0-0.75","6161f43ddd46e845e7b3fab8","64b003020eef62ee308107cc","64b03ce94c8e9dc38d901b6a","null","null","<p style=""font-size: 60px; font-family: BACS"">QcladJQA</p>","","","","","","","",""
"html-keyboard-response","164","254166","0.0-9.0-0.76","6161f43ddd46e845e7b3fab8","64b003020eef62ee308107cc","64b03ce94c8e9dc38d901b6a","null","null","<p style=""font-size: 60px; font-family: BACS"">OYuvbrkra</p>","","","","","","","",""
"html-keyboard-response","165","255166","0.0-9.0-0.77","6161f43ddd46e845e7b3fab8","64b003020eef62ee308107cc","64b03ce94c8e9dc38d901b6a","null","null","<p style=""font-size: 60px; font-family: BACS"">QbkAcJQA</p>","","","","","","","",""
"html-keyboard-response","166","256167","0.0-9.0-0.78","6161f43ddd46e845e7b3fab8","64b003020eef62ee308107cc","64b03ce94c8e9dc38d901b6a","null","null","<p style=""font-size: 60px; font-family: BACS"">dCtMATRkY</p>","","","","","","","",""
"html-keyboard-response","167","257169","0.0-9.0-0.79","6161f43ddd46e845e7b3fab8","64b003020eef62ee308107cc","64b03ce94c8e9dc38d901b6a","null","null","<p style=""font-size: 60px; font-family: BACS"">bcOROPE</p>","","","","","","","",""
"html-keyboard-response","168","260504","0.0-10.0","6161f43ddd46e845e7b3fab8","64b003020eef62ee308107cc","64b03ce94c8e9dc38d901b6a","3334"," ","<p>Ottimo, hai visto il secondo blocco di parole. Ora puoi prenderti una piccola pausa.</p>
      <p>Premi la barra quando sei pronta/o per riprendere.</p>","","","","","","","",""
"html-keyboard-response","169","261505","0.0-11.0-0.0","6161f43ddd46e845e7b3fab8","64b003020eef62ee308107cc","64b03ce94c8e9dc38d901b6a","null","null","<p style=""font-size: 60px; font-family: BACS"">dCtMAEKBO</p>","","","","","","","",""
"html-keyboard-response","170","262514","0.0-11.0-0.1","6161f43ddd46e845e7b3fab8","64b003020eef62ee308107cc","64b03ce94c8e9dc38d901b6a","null","null","<p style=""font-size: 60px; font-family: BACS"">TDKhTRkY</p>","","","","","","","",""
"html-keyboard-response","171","263515","0.0-11.0-0.2","6161f43ddd46e845e7b3fab8","64b003020eef62ee308107cc","64b03ce94c8e9dc38d901b6a","null","null","<p style=""font-size: 60px; font-family: BACS"">LckGNJQA</p>","","","","","","","",""
"html-keyboard-response","172","264516","0.0-11.0-0.3","6161f43ddd46e845e7b3fab8","64b003020eef62ee308107cc","64b03ce94c8e9dc38d901b6a","null","null","<p style=""font-size: 60px; font-family: BACS"">QbkAcark</p>","","","","","","","",""
"html-keyboard-response","173","265518","0.0-11.0-0.4","6161f43ddd46e845e7b3fab8","64b003020eef62ee308107cc","64b03ce94c8e9dc38d901b6a","null","null","<p style=""font-size: 60px; font-family: BACS"">YQbcJud</p>","","","","","","","",""
"html-keyboard-response","174","266530","0.0-11.0-0.5","6161f43ddd46e845e7b3fab8","64b003020eef62ee308107cc","64b03ce94c8e9dc38d901b6a","null","null","<p style=""font-size: 60px; font-family: BACS"">DMRPTRkY</p>","","","","","","","",""
"html-keyboard-response","175","267531","0.0-11.0-0.6","6161f43ddd46e845e7b3fab8","64b003020eef62ee308107cc","64b03ce94c8e9dc38d901b6a","null","null","<p style=""font-size: 60px; font-family: BACS"">bcORCMdP</p>","","","","","","","",""
"html-keyboard-response","176","268532","0.0-11.0-0.7","6161f43ddd46e845e7b3fab8","64b003020eef62ee308107cc","64b03ce94c8e9dc38d901b6a","null","null","<p style=""font-size: 60px; font-family: BACS"">RhPmcPK</p>","","","","","","","",""
"html-keyboard-response","177","269533","0.0-11.0-0.8","6161f43ddd46e845e7b3fab8","64b003020eef62ee308107cc","64b03ce94c8e9dc38d901b6a","null","null","<p style=""font-size: 60px; font-family: BACS"">krGuJQA</p>","","","","","","","",""
"html-keyboard-response","178","270534","0.0-11.0-0.9","6161f43ddd46e845e7b3fab8","64b003020eef62ee308107cc","64b03ce94c8e9dc38d901b6a","null","null","<p style=""font-size: 60px; font-family: BACS"">JrGvark</p>","","","","","","","",""
"html-keyboard-response","179","271535","0.0-11.0-0.10","6161f43ddd46e845e7b3fab8","64b003020eef62ee308107cc","64b03ce94c8e9dc38d901b6a","null","null","<p style=""font-size: 60px; font-family: BACS"">QcladJud</p>","","","","","","","",""
"html-keyboard-response","180","272550","0.0-11.0-0.11","6161f43ddd46e845e7b3fab8","64b003020eef62ee308107cc","64b03ce94c8e9dc38d901b6a","null","null","<p style=""font-size: 60px; font-family: BACS"">DMRPEKBO</p>","","","","","","","",""
"html-keyboard-response","181","273551","0.0-11.0-0.12","6161f43ddd46e845e7b3fab8","64b003020eef62ee308107cc","64b03ce94c8e9dc38d901b6a","null","null","<p style=""font-size: 60px; font-family: BACS"">QcladJQA</p>","","","","","","","",""
"html-keyboard-response","182","274552","0.0-11.0-0.13","6161f43ddd46e845e7b3fab8","64b003020eef62ee308107cc","64b03ce94c8e9dc38d901b6a","null","null","<p style=""font-size: 60px; font-family: BACS"">ukcYZAUu</p>","","","","","","","",""
"html-keyboard-response","183","275554","0.0-11.0-0.14","6161f43ddd46e845e7b3fab8","64b003020eef62ee308107cc","64b03ce94c8e9dc38d901b6a","null","null","<p style=""font-size: 60px; font-family: BACS"">LdQvJQA</p>","","","","","","","",""
"html-keyboard-response","184","276555","0.0-11.0-0.15","6161f43ddd46e845e7b3fab8","64b003020eef62ee308107cc","64b03ce94c8e9dc38d901b6a","null","null","<p style=""font-size: 60px; font-family: BACS"">QcladZAUu</p>","","","","","","","",""
"html-keyboard-response","185","277556","0.0-11.0-0.16","6161f43ddd46e845e7b3fab8","64b003020eef62ee308107cc","64b03ce94c8e9dc38d901b6a","null","null","<p style=""font-size: 60px; font-family: BACS"">bcORcPK</p>","","","","","","","",""
"html-keyboard-response","186","278557","0.0-11.0-0.17","6161f43ddd46e845e7b3fab8","64b003020eef62ee308107cc","64b03ce94c8e9dc38d901b6a","null","null","<p style=""font-size: 60px; font-family: BACS"">JrGvrkra</p>","","","","","","","",""
"html-keyboard-response","187","279557","0.0-11.0-0.18","6161f43ddd46e845e7b3fab8","64b003020eef62ee308107cc","64b03ce94c8e9dc38d901b6a","null","null","<p style=""font-size: 60px; font-family: BACS"">ODBDAcPK</p>","","","","","","","",""
"html-keyboard-response","188","280565","0.0-11.0-0.19","6161f43ddd46e845e7b3fab8","64b003020eef62ee308107cc","64b03ce94c8e9dc38d901b6a","null","null","<p style=""font-size: 60px; font-family: BACS"">LdQvark</p>","","","","","","","",""
"html-keyboard-response","189","281569","0.0-11.0-0.20","6161f43ddd46e845e7b3fab8","64b003020eef62ee308107cc","64b03ce94c8e9dc38d901b6a","null","null","<p style=""font-size: 60px; font-family: BACS"">dCtMACMdP</p>","","","","","","","",""
"html-keyboard-response","190","282570","0.0-11.0-0.21","6161f43ddd46e845e7b3fab8","64b003020eef62ee308107cc","64b03ce94c8e9dc38d901b6a","null","null","<p style=""font-size: 60px; font-family: BACS"">kPOtcPK</p>","","","","","","","",""
"html-keyboard-response","191","283571","0.0-11.0-0.22","6161f43ddd46e845e7b3fab8","64b003020eef62ee308107cc","64b03ce94c8e9dc38d901b6a","null","null","<p style=""font-size: 60px; font-family: BACS"">OYuvbark</p>","","","","","","","",""
"html-keyboard-response","192","284572","0.0-11.0-0.23","6161f43ddd46e845e7b3fab8","64b003020eef62ee308107cc","64b03ce94c8e9dc38d901b6a","null","null","<p style=""font-size: 60px; font-family: BACS"">KElBCMdP</p>","","","","","","","",""
"html-keyboard-response","193","285574","0.0-11.0-0.24","6161f43ddd46e845e7b3fab8","64b003020eef62ee308107cc","64b03ce94c8e9dc38d901b6a","null","null","<p style=""font-size: 60px; font-family: BACS"">krGuZAUu</p>","","","","","","","",""
"html-keyboard-response","194","286574","0.0-11.0-0.25","6161f43ddd46e845e7b3fab8","64b003020eef62ee308107cc","64b03ce94c8e9dc38d901b6a","null","null","<p style=""font-size: 60px; font-family: BACS"">bRABtcPK</p>","","","","","","","",""
"html-keyboard-response","195","287581","0.0-11.0-0.26","6161f43ddd46e845e7b3fab8","64b003020eef62ee308107cc","64b03ce94c8e9dc38d901b6a","null","null","<p style=""font-size: 60px; font-family: BACS"">YQbcZAUu</p>","","","","","","","",""
"html-keyboard-response","196","288585","0.0-11.0-0.27","6161f43ddd46e845e7b3fab8","64b003020eef62ee308107cc","64b03ce94c8e9dc38d901b6a","null","null","<p style=""font-size: 60px; font-family: BACS"">amJmark</p>","","","","","","","",""
"html-keyboard-response","197","289587","0.0-11.0-0.28","6161f43ddd46e845e7b3fab8","64b003020eef62ee308107cc","64b03ce94c8e9dc38d901b6a","null","null","<p style=""font-size: 60px; font-family: BACS"">OYuvbZAUu</p>","","","","","","","",""
"html-keyboard-response","198","290588","0.0-11.0-0.29","6161f43ddd46e845e7b3fab8","64b003020eef62ee308107cc","64b03ce94c8e9dc38d901b6a","null","null","<p style=""font-size: 60px; font-family: BACS"">Qcladark</p>","","","","","","","",""
"html-keyboard-response","199","291588","0.0-11.0-0.30","6161f43ddd46e845e7b3fab8","64b003020eef62ee308107cc","64b03ce94c8e9dc38d901b6a","null","null","<p style=""font-size: 60px; font-family: BACS"">DMRPcPK</p>","","","","","","","",""
"html-keyboard-response","200","292589","0.0-11.0-0.31","6161f43ddd46e845e7b3fab8","64b003020eef62ee308107cc","64b03ce94c8e9dc38d901b6a","null","null","<p style=""font-size: 60px; font-family: BACS"">amJmrkra</p>","","","","","","","",""
"html-keyboard-response","201","293590","0.0-11.0-0.32","6161f43ddd46e845e7b3fab8","64b003020eef62ee308107cc","64b03ce94c8e9dc38d901b6a","null","null","<p style=""font-size: 60px; font-family: BACS"">JrGvJud</p>","","","","","","","",""
"html-keyboard-response","202","294591","0.0-11.0-0.33","6161f43ddd46e845e7b3fab8","64b003020eef62ee308107cc","64b03ce94c8e9dc38d901b6a","null","null","<p style=""font-size: 60px; font-family: BACS"">OYuvbJQA</p>","","","","","","","",""
"html-keyboard-response","203","295592","0.0-11.0-0.34","6161f43ddd46e845e7b3fab8","64b003020eef62ee308107cc","64b03ce94c8e9dc38d901b6a","null","null","<p style=""font-size: 60px; font-family: BACS"">kPOtEKBO</p>","","","","","","","",""
"html-keyboard-response","204","296594","0.0-11.0-0.35","6161f43ddd46e845e7b3fab8","64b003020eef62ee308107cc","64b03ce94c8e9dc38d901b6a","null","null","<p style=""font-size: 60px; font-family: BACS"">DlDdOPE</p>","","","","","","","",""
"html-keyboard-response","205","297595","0.0-11.0-0.36","6161f43ddd46e845e7b3fab8","64b003020eef62ee308107cc","64b03ce94c8e9dc38d901b6a","null","null","<p style=""font-size: 60px; font-family: BACS"">dCtMAcPK</p>","","","","","","","",""
"html-keyboard-response","206","298605","0.0-11.0-0.37","6161f43ddd46e845e7b3fab8","64b003020eef62ee308107cc","64b03ce94c8e9dc38d901b6a","null","null","<p style=""font-size: 60px; font-family: BACS"">bRABtOPE</p>","","","","","","","",""
"html-keyboard-response","207","299614","0.0-11.0-0.38","6161f43ddd46e845e7b3fab8","64b003020eef62ee308107cc","64b03ce94c8e9dc38d901b6a","null","null","<p style=""font-size: 60px; font-family: BACS"">kPOtTRkY</p>","","","","","","","",""
"html-keyboard-response","208","300616","0.0-11.0-0.39","6161f43ddd46e845e7b3fab8","64b003020eef62ee308107cc","64b03ce94c8e9dc38d901b6a","null","null","<p style=""font-size: 60px; font-family: BACS"">DlDdEKBO</p>","","","","","","","",""
"html-keyboard-response","209","301618","0.0-11.0-0.40","6161f43ddd46e845e7b3fab8","64b003020eef62ee308107cc","64b03ce94c8e9dc38d901b6a","null","null","<p style=""font-size: 60px; font-family: BACS"">ukcYrkra</p>","","","","","","","",""
"html-keyboard-response","210","302618","0.0-11.0-0.41","6161f43ddd46e845e7b3fab8","64b003020eef62ee308107cc","64b03ce94c8e9dc38d901b6a","null","null","<p style=""font-size: 60px; font-family: BACS"">ODBDACMdP</p>","","","","","","","",""
"html-keyboard-response","211","303628","0.0-11.0-0.42","6161f43ddd46e845e7b3fab8","64b003020eef62ee308107cc","64b03ce94c8e9dc38d901b6a","null","null","<p style=""font-size: 60px; font-family: BACS"">amJmZAUu</p>","","","","","","","",""
"html-keyboard-response","212","304630","0.0-11.0-0.43","6161f43ddd46e845e7b3fab8","64b003020eef62ee308107cc","64b03ce94c8e9dc38d901b6a","null","null","<p style=""font-size: 60px; font-family: BACS"">QbkAcJQA</p>","","","","","","","",""
"html-keyboard-response","213","305631","0.0-11.0-0.44","6161f43ddd46e845e7b3fab8","64b003020eef62ee308107cc","64b03ce94c8e9dc38d901b6a","null","null","<p style=""font-size: 60px; font-family: BACS"">LckGNrkra</p>","","","","","","","",""
"html-keyboard-response","214","306632","0.0-11.0-0.45","6161f43ddd46e845e7b3fab8","64b003020eef62ee308107cc","64b03ce94c8e9dc38d901b6a","null","null","<p style=""font-size: 60px; font-family: BACS"">bRABtCMdP</p>","","","","","","","",""
"html-keyboard-response","215","307633","0.0-11.0-0.46","6161f43ddd46e845e7b3fab8","64b003020eef62ee308107cc","64b03ce94c8e9dc38d901b6a","null","null","<p style=""font-size: 60px; font-family: BACS"">RhPmEKBO</p>","","","","","","","",""
"html-keyboard-response","216","308634","0.0-11.0-0.47","6161f43ddd46e845e7b3fab8","64b003020eef62ee308107cc","64b03ce94c8e9dc38d901b6a","null","null","<p style=""font-size: 60px; font-family: BACS"">kPOtOPE</p>","","","","","","","",""
"html-keyboard-response","217","309635","0.0-11.0-0.48","6161f43ddd46e845e7b3fab8","64b003020eef62ee308107cc","64b03ce94c8e9dc38d901b6a","null","null","<p style=""font-size: 60px; font-family: BACS"">JrGvJQA</p>","","","","","","","",""
"html-keyboard-response","218","310636","0.0-11.0-0.49","6161f43ddd46e845e7b3fab8","64b003020eef62ee308107cc","64b03ce94c8e9dc38d901b6a","null","null","<p style=""font-size: 60px; font-family: BACS"">DlDdTRkY</p>","","","","","","","",""
"html-keyboard-response","219","311637","0.0-11.0-0.50","6161f43ddd46e845e7b3fab8","64b003020eef62ee308107cc","64b03ce94c8e9dc38d901b6a","null","null","<p style=""font-size: 60px; font-family: BACS"">YQbcark</p>","","","","","","","",""
"html-keyboard-response","220","312638","0.0-11.0-0.51","6161f43ddd46e845e7b3fab8","64b003020eef62ee308107cc","64b03ce94c8e9dc38d901b6a","null","null","<p style=""font-size: 60px; font-family: BACS"">ukcYJQA</p>","","","","","","","",""
"html-keyboard-response","221","313638","0.0-11.0-0.52","6161f43ddd46e845e7b3fab8","64b003020eef62ee308107cc","64b03ce94c8e9dc38d901b6a","null","null","<p style=""font-size: 60px; font-family: BACS"">DMRPCMdP</p>","","","","","","","",""
"html-keyboard-response","222","314639","0.0-11.0-0.53","6161f43ddd46e845e7b3fab8","64b003020eef62ee308107cc","64b03ce94c8e9dc38d901b6a","null","null","<p style=""font-size: 60px; font-family: BACS"">bcOREKBO</p>","","","","","","","",""
"html-keyboard-response","223","315640","0.0-11.0-0.54","6161f43ddd46e845e7b3fab8","64b003020eef62ee308107cc","64b03ce94c8e9dc38d901b6a","null","null","<p style=""font-size: 60px; font-family: BACS"">YQbcrkra</p>","","","","","","","",""
"html-keyboard-response","224","316647","0.0-11.0-0.55","6161f43ddd46e845e7b3fab8","64b003020eef62ee308107cc","64b03ce94c8e9dc38d901b6a","null","null","<p style=""font-size: 60px; font-family: BACS"">TDKhCMdP</p>","","","","","","","",""
"html-keyboard-response","225","317648","0.0-11.0-0.56","6161f43ddd46e845e7b3fab8","64b003020eef62ee308107cc","64b03ce94c8e9dc38d901b6a","null","null","<p style=""font-size: 60px; font-family: BACS"">LdQvrkra</p>","","","","","","","",""
"html-keyboard-response","226","318648","0.0-11.0-0.57","6161f43ddd46e845e7b3fab8","64b003020eef62ee308107cc","64b03ce94c8e9dc38d901b6a","null","null","<p style=""font-size: 60px; font-family: BACS"">ODBDAOPE</p>","","","","","","","",""
"html-keyboard-response","227","319650","0.0-11.0-0.58","6161f43ddd46e845e7b3fab8","64b003020eef62ee308107cc","64b03ce94c8e9dc38d901b6a","null","null","<p style=""font-size: 60px; font-family: BACS"">QbkAcJud</p>","","","","","","","",""
"html-keyboard-response","228","320651","0.0-11.0-0.59","6161f43ddd46e845e7b3fab8","64b003020eef62ee308107cc","64b03ce94c8e9dc38d901b6a","null","null","<p style=""font-size: 60px; font-family: BACS"">RhPmOPE</p>","","","","","","","",""
"html-keyboard-response","229","321651","0.0-11.0-0.60","6161f43ddd46e845e7b3fab8","64b003020eef62ee308107cc","64b03ce94c8e9dc38d901b6a","null","null","<p style=""font-size: 60px; font-family: BACS"">amJmJud</p>","","","","","","","",""
"html-keyboard-response","230","322652","0.0-11.0-0.61","6161f43ddd46e845e7b3fab8","64b003020eef62ee308107cc","64b03ce94c8e9dc38d901b6a","null","null","<p style=""font-size: 60px; font-family: BACS"">dCtMATRkY</p>","","","","","","","",""
"html-keyboard-response","231","323653","0.0-11.0-0.62","6161f43ddd46e845e7b3fab8","64b003020eef62ee308107cc","64b03ce94c8e9dc38d901b6a","null","null","<p style=""font-size: 60px; font-family: BACS"">krGuark</p>","","","","","","","",""
"html-keyboard-response","232","324659","0.0-11.0-0.63","6161f43ddd46e845e7b3fab8","64b003020eef62ee308107cc","64b03ce94c8e9dc38d901b6a","null","null","<p style=""font-size: 60px; font-family: BACS"">KElBOPE</p>","","","","","","","",""
"html-keyboard-response","233","325660","0.0-11.0-0.64","6161f43ddd46e845e7b3fab8","64b003020eef62ee308107cc","64b03ce94c8e9dc38d901b6a","null","null","<p style=""font-size: 60px; font-family: BACS"">krGuJud</p>","","","","","","","",""
"html-keyboard-response","234","326661","0.0-11.0-0.65","6161f43ddd46e845e7b3fab8","64b003020eef62ee308107cc","64b03ce94c8e9dc38d901b6a","null","null","<p style=""font-size: 60px; font-family: BACS"">DlDdCMdP</p>","","","","","","","",""
"html-keyboard-response","235","327662","0.0-11.0-0.66","6161f43ddd46e845e7b3fab8","64b003020eef62ee308107cc","64b03ce94c8e9dc38d901b6a","null","null","<p style=""font-size: 60px; font-family: BACS"">OYuvbrkra</p>","","","","","","","",""
"html-keyboard-response","236","328662","0.0-11.0-0.67","6161f43ddd46e845e7b3fab8","64b003020eef62ee308107cc","64b03ce94c8e9dc38d901b6a","null","null","<p style=""font-size: 60px; font-family: BACS"">RhPmTRkY</p>","","","","","","","",""
"html-keyboard-response","237","329663","0.0-11.0-0.68","6161f43ddd46e845e7b3fab8","64b003020eef62ee308107cc","64b03ce94c8e9dc38d901b6a","null","null","<p style=""font-size: 60px; font-family: BACS"">bcOROPE</p>","","","","","","","",""
"html-keyboard-response","238","330674","0.0-11.0-0.69","6161f43ddd46e845e7b3fab8","64b003020eef62ee308107cc","64b03ce94c8e9dc38d901b6a","null","null","<p style=""font-size: 60px; font-family: BACS"">ODBDATRkY</p>","","","","","","","",""
"html-keyboard-response","239","331675","0.0-11.0-0.70","6161f43ddd46e845e7b3fab8","64b003020eef62ee308107cc","64b03ce94c8e9dc38d901b6a","null","null","<p style=""font-size: 60px; font-family: BACS"">TDKhOPE</p>","","","","","","","",""
"html-keyboard-response","240","332680","0.0-11.0-0.71","6161f43ddd46e845e7b3fab8","64b003020eef62ee308107cc","64b03ce94c8e9dc38d901b6a","null","null","<p style=""font-size: 60px; font-family: BACS"">LckGNZAUu</p>","","","","","","","",""
"html-keyboard-response","241","333681","0.0-11.0-0.72","6161f43ddd46e845e7b3fab8","64b003020eef62ee308107cc","64b03ce94c8e9dc38d901b6a","null","null","<p style=""font-size: 60px; font-family: BACS"">KElBEKBO</p>","","","","","","","",""
"html-keyboard-response","242","334682","0.0-11.0-0.73","6161f43ddd46e845e7b3fab8","64b003020eef62ee308107cc","64b03ce94c8e9dc38d901b6a","null","null","<p style=""font-size: 60px; font-family: BACS"">LckGNJud</p>","","","","","","","",""
"html-keyboard-response","243","335699","0.0-11.0-0.74","6161f43ddd46e845e7b3fab8","64b003020eef62ee308107cc","64b03ce94c8e9dc38d901b6a","null","null","<p style=""font-size: 60px; font-family: BACS"">bRABtTRkY</p>","","","","","","","",""
"html-keyboard-response","244","336699","0.0-11.0-0.75","6161f43ddd46e845e7b3fab8","64b003020eef62ee308107cc","64b03ce94c8e9dc38d901b6a","null","null","<p style=""font-size: 60px; font-family: BACS"">LdQvZAUu</p>","","","","","","","",""
"html-keyboard-response","245","337701","0.0-11.0-0.76","6161f43ddd46e845e7b3fab8","64b003020eef62ee308107cc","64b03ce94c8e9dc38d901b6a","null","null","<p style=""font-size: 60px; font-family: BACS"">QbkAcrkra</p>","","","","","","","",""
"html-keyboard-response","246","338702","0.0-11.0-0.77","6161f43ddd46e845e7b3fab8","64b003020eef62ee308107cc","64b03ce94c8e9dc38d901b6a","null","null","<p style=""font-size: 60px; font-family: BACS"">ukcYJud</p>","","","","","","","",""
"html-keyboard-response","247","339704","0.0-11.0-0.78","6161f43ddd46e845e7b3fab8","64b003020eef62ee308107cc","64b03ce94c8e9dc38d901b6a","null","null","<p style=""font-size: 60px; font-family: BACS"">TDKhEKBO</p>","","","","","","","",""
"html-keyboard-response","248","340705","0.0-11.0-0.79","6161f43ddd46e845e7b3fab8","64b003020eef62ee308107cc","64b03ce94c8e9dc38d901b6a","null","null","<p style=""font-size: 60px; font-family: BACS"">KElBcPK</p>","","","","","","","",""
"html-keyboard-response","249","391525","0.0-12.0","6161f43ddd46e845e7b3fab8","64b003020eef62ee308107cc","64b03ce94c8e9dc38d901b6a","50819"," ","<p>Ottimo, hai visto il terzo blocco di parole. Ora puoi prenderti una piccola pausa.</p>
      <p>Premi la barra quando sei pronta/o per riprendere.</p>","","","","","","","",""
"html-keyboard-response","250","392527","0.0-13.0-0.0","6161f43ddd46e845e7b3fab8","64b003020eef62ee308107cc","64b03ce94c8e9dc38d901b6a","null","null","<p style=""font-size: 60px; font-family: BACS"">LckGNJQA</p>","","","","","","","",""
"html-keyboard-response","251","393539","0.0-13.0-0.1","6161f43ddd46e845e7b3fab8","64b003020eef62ee308107cc","64b03ce94c8e9dc38d901b6a","null","null","<p style=""font-size: 60px; font-family: BACS"">YQbcrkra</p>","","","","","","","",""
"html-keyboard-response","252","394540","0.0-13.0-0.2","6161f43ddd46e845e7b3fab8","64b003020eef62ee308107cc","64b03ce94c8e9dc38d901b6a","null","null","<p style=""font-size: 60px; font-family: BACS"">TDKhOPE</p>","","","","","","","",""
"html-keyboard-response","253","395541","0.0-13.0-0.3","6161f43ddd46e845e7b3fab8","64b003020eef62ee308107cc","64b03ce94c8e9dc38d901b6a","null","null","<p style=""font-size: 60px; font-family: BACS"">YQbcJud</p>","","","","","","","",""
"html-keyboard-response","254","396541","0.0-13.0-0.4","6161f43ddd46e845e7b3fab8","64b003020eef62ee308107cc","64b03ce94c8e9dc38d901b6a","null","null","<p style=""font-size: 60px; font-family: BACS"">QcladJQA</p>","","","","","","","",""
"html-keyboard-response","255","397542","0.0-13.0-0.5","6161f43ddd46e845e7b3fab8","64b003020eef62ee308107cc","64b03ce94c8e9dc38d901b6a","null","null","<p style=""font-size: 60px; font-family: BACS"">bRABtcPK</p>","","","","","","","",""
"html-keyboard-response","256","398549","0.0-13.0-0.6","6161f43ddd46e845e7b3fab8","64b003020eef62ee308107cc","64b03ce94c8e9dc38d901b6a","null","null","<p style=""font-size: 60px; font-family: BACS"">QbkAcJQA</p>","","","","","","","",""
"html-keyboard-response","257","399550","0.0-13.0-0.7","6161f43ddd46e845e7b3fab8","64b003020eef62ee308107cc","64b03ce94c8e9dc38d901b6a","null","null","<p style=""font-size: 60px; font-family: BACS"">LckGNJud</p>","","","","","","","",""
"html-keyboard-response","258","400551","0.0-13.0-0.8","6161f43ddd46e845e7b3fab8","64b003020eef62ee308107cc","64b03ce94c8e9dc38d901b6a","null","null","<p style=""font-size: 60px; font-family: BACS"">LdQvZAUu</p>","","","","","","","",""
"html-keyboard-response","259","401566","0.0-13.0-0.9","6161f43ddd46e845e7b3fab8","64b003020eef62ee308107cc","64b03ce94c8e9dc38d901b6a","null","null","<p style=""font-size: 60px; font-family: BACS"">LckGNrkra</p>","","","","","","","",""
"html-keyboard-response","260","402567","0.0-13.0-0.10","6161f43ddd46e845e7b3fab8","64b003020eef62ee308107cc","64b03ce94c8e9dc38d901b6a","null","null","<p style=""font-size: 60px; font-family: BACS"">bRABtTRkY</p>","","","","","","","",""
"html-keyboard-response","261","403568","0.0-13.0-0.11","6161f43ddd46e845e7b3fab8","64b003020eef62ee308107cc","64b03ce94c8e9dc38d901b6a","null","null","<p style=""font-size: 60px; font-family: BACS"">krGuJud</p>","","","","","","","",""
"html-keyboard-response","262","404569","0.0-13.0-0.12","6161f43ddd46e845e7b3fab8","64b003020eef62ee308107cc","64b03ce94c8e9dc38d901b6a","null","null","<p style=""font-size: 60px; font-family: BACS"">DMRPTRkY</p>","","","","","","","",""
"html-keyboard-response","263","405570","0.0-13.0-0.13","6161f43ddd46e845e7b3fab8","64b003020eef62ee308107cc","64b03ce94c8e9dc38d901b6a","null","null","<p style=""font-size: 60px; font-family: BACS"">ODBDAcPK</p>","","","","","","","",""
"html-keyboard-response","264","406571","0.0-13.0-0.14","6161f43ddd46e845e7b3fab8","64b003020eef62ee308107cc","64b03ce94c8e9dc38d901b6a","null","null","<p style=""font-size: 60px; font-family: BACS"">krGuJQA</p>","","","","","","","",""
"html-keyboard-response","265","407572","0.0-13.0-0.15","6161f43ddd46e845e7b3fab8","64b003020eef62ee308107cc","64b03ce94c8e9dc38d901b6a","null","null","<p style=""font-size: 60px; font-family: BACS"">LdQvark</p>","","","","","","","",""
"html-keyboard-response","266","408572","0.0-13.0-0.16","6161f43ddd46e845e7b3fab8","64b003020eef62ee308107cc","64b03ce94c8e9dc38d901b6a","null","null","<p style=""font-size: 60px; font-family: BACS"">bcORCMdP</p>","","","","","","","",""
"html-keyboard-response","267","409585","0.0-13.0-0.17","6161f43ddd46e845e7b3fab8","64b003020eef62ee308107cc","64b03ce94c8e9dc38d901b6a","null","null","<p style=""font-size: 60px; font-family: BACS"">TDKhTRkY</p>","","","","","","","",""
"html-keyboard-response","268","410586","0.0-13.0-0.18","6161f43ddd46e845e7b3fab8","64b003020eef62ee308107cc","64b03ce94c8e9dc38d901b6a","null","null","<p style=""font-size: 60px; font-family: BACS"">DlDdEKBO</p>","","","","","","","",""
"html-keyboard-response","269","411587","0.0-13.0-0.19","6161f43ddd46e845e7b3fab8","64b003020eef62ee308107cc","64b03ce94c8e9dc38d901b6a","null","null","<p style=""font-size: 60px; font-family: BACS"">RhPmOPE</p>","","","","","","","",""
"html-keyboard-response","270","412598","0.0-13.0-0.20","6161f43ddd46e845e7b3fab8","64b003020eef62ee308107cc","64b03ce94c8e9dc38d901b6a","null","null","<p style=""font-size: 60px; font-family: BACS"">LdQvrkra</p>","","","","","","","",""
"html-keyboard-response","271","413598","0.0-13.0-0.21","6161f43ddd46e845e7b3fab8","64b003020eef62ee308107cc","64b03ce94c8e9dc38d901b6a","null","null","<p style=""font-size: 60px; font-family: BACS"">DMRPEKBO</p>","","","","","","","",""
"html-keyboard-response","272","414599","0.0-13.0-0.22","6161f43ddd46e845e7b3fab8","64b003020eef62ee308107cc","64b03ce94c8e9dc38d901b6a","null","null","<p style=""font-size: 60px; font-family: BACS"">DlDdCMdP</p>","","","","","","","",""
"html-keyboard-response","273","415600","0.0-13.0-0.23","6161f43ddd46e845e7b3fab8","64b003020eef62ee308107cc","64b03ce94c8e9dc38d901b6a","null","null","<p style=""font-size: 60px; font-family: BACS"">krGuark</p>","","","","","","","",""
"html-keyboard-response","274","416611","0.0-13.0-0.24","6161f43ddd46e845e7b3fab8","64b003020eef62ee308107cc","64b03ce94c8e9dc38d901b6a","null","null","<p style=""font-size: 60px; font-family: BACS"">kPOtEKBO</p>","","","","","","","",""
"html-keyboard-response","275","417613","0.0-13.0-0.25","6161f43ddd46e845e7b3fab8","64b003020eef62ee308107cc","64b03ce94c8e9dc38d901b6a","null","null","<p style=""font-size: 60px; font-family: BACS"">LckGNZAUu</p>","","","","","","","",""
"html-keyboard-response","276","418628","0.0-13.0-0.26","6161f43ddd46e845e7b3fab8","64b003020eef62ee308107cc","64b03ce94c8e9dc38d901b6a","null","null","<p style=""font-size: 60px; font-family: BACS"">JrGvark</p>","","","","","","","",""
"html-keyboard-response","277","419629","0.0-13.0-0.27","6161f43ddd46e845e7b3fab8","64b003020eef62ee308107cc","64b03ce94c8e9dc38d901b6a","null","null","<p style=""font-size: 60px; font-family: BACS"">LdQvJQA</p>","","","","","","","",""
"html-keyboard-response","278","420629","0.0-13.0-0.28","6161f43ddd46e845e7b3fab8","64b003020eef62ee308107cc","64b03ce94c8e9dc38d901b6a","null","null","<p style=""font-size: 60px; font-family: BACS"">KElBcPK</p>","","","","","","","",""
"html-keyboard-response","279","421631","0.0-13.0-0.29","6161f43ddd46e845e7b3fab8","64b003020eef62ee308107cc","64b03ce94c8e9dc38d901b6a","null","null","<p style=""font-size: 60px; font-family: BACS"">amJmJud</p>","","","","","","","",""
"html-keyboard-response","280","422631","0.0-13.0-0.30","6161f43ddd46e845e7b3fab8","64b003020eef62ee308107cc","64b03ce94c8e9dc38d901b6a","null","null","<p style=""font-size: 60px; font-family: BACS"">YQbcark</p>","","","","","","","",""
"html-keyboard-response","281","423644","0.0-13.0-0.31","6161f43ddd46e845e7b3fab8","64b003020eef62ee308107cc","64b03ce94c8e9dc38d901b6a","null","null","<p style=""font-size: 60px; font-family: BACS"">ukcYrkra</p>","","","","","","","",""
"html-keyboard-response","282","424645","0.0-13.0-0.32","6161f43ddd46e845e7b3fab8","64b003020eef62ee308107cc","64b03ce94c8e9dc38d901b6a","null","null","<p style=""font-size: 60px; font-family: BACS"">dCtMACMdP</p>","","","","","","","",""
"html-keyboard-response","283","425646","0.0-13.0-0.33","6161f43ddd46e845e7b3fab8","64b003020eef62ee308107cc","64b03ce94c8e9dc38d901b6a","null","null","<p style=""font-size: 60px; font-family: BACS"">DMRPcPK</p>","","","","","","","",""
"html-keyboard-response","284","426652","0.0-13.0-0.34","6161f43ddd46e845e7b3fab8","64b003020eef62ee308107cc","64b03ce94c8e9dc38d901b6a","null","null","<p style=""font-size: 60px; font-family: BACS"">ODBDATRkY</p>","","","","","","","",""
"html-keyboard-response","285","427653","0.0-13.0-0.35","6161f43ddd46e845e7b3fab8","64b003020eef62ee308107cc","64b03ce94c8e9dc38d901b6a","null","null","<p style=""font-size: 60px; font-family: BACS"">amJmark</p>","","","","","","","",""
"html-keyboard-response","286","428654","0.0-13.0-0.36","6161f43ddd46e845e7b3fab8","64b003020eef62ee308107cc","64b03ce94c8e9dc38d901b6a","null","null","<p style=""font-size: 60px; font-family: BACS"">QbkAcJud</p>","","","","","","","",""
"html-keyboard-response","287","429655","0.0-13.0-0.37","6161f43ddd46e845e7b3fab8","64b003020eef62ee308107cc","64b03ce94c8e9dc38d901b6a","null","null","<p style=""font-size: 60px; font-family: BACS"">OYuvbZAUu</p>","","","","","","","",""
"html-keyboard-response","288","430664","0.0-13.0-0.38","6161f43ddd46e845e7b3fab8","64b003020eef62ee308107cc","64b03ce94c8e9dc38d901b6a","null","null","<p style=""font-size: 60px; font-family: BACS"">Qcladark</p>","","","","","","","",""
"html-keyboard-response","289","431667","0.0-13.0-0.39","6161f43ddd46e845e7b3fab8","64b003020eef62ee308107cc","64b03ce94c8e9dc38d901b6a","null","null","<p style=""font-size: 60px; font-family: BACS"">ukcYJQA</p>","","","","","","","",""
"html-keyboard-response","290","432667","0.0-13.0-0.40","6161f43ddd46e845e7b3fab8","64b003020eef62ee308107cc","64b03ce94c8e9dc38d901b6a","null","null","<p style=""font-size: 60px; font-family: BACS"">JrGvJud</p>","","","","","","","",""
"html-keyboard-response","291","433669","0.0-13.0-0.41","6161f43ddd46e845e7b3fab8","64b003020eef62ee308107cc","64b03ce94c8e9dc38d901b6a","null","null","<p style=""font-size: 60px; font-family: BACS"">kPOtTRkY</p>","","","","","","","",""
"html-keyboard-response","292","434670","0.0-13.0-0.42","6161f43ddd46e845e7b3fab8","64b003020eef62ee308107cc","64b03ce94c8e9dc38d901b6a","null","null","<p style=""font-size: 60px; font-family: BACS"">OYuvbrkra</p>","","","","","","","",""
"html-keyboard-response","293","435675","0.0-13.0-0.43","6161f43ddd46e845e7b3fab8","64b003020eef62ee308107cc","64b03ce94c8e9dc38d901b6a","null","null","<p style=""font-size: 60px; font-family: BACS"">RhPmcPK</p>","","","","","","","",""
"html-keyboard-response","294","436682","0.0-13.0-0.44","6161f43ddd46e845e7b3fab8","64b003020eef62ee308107cc","64b03ce94c8e9dc38d901b6a","null","null","<p style=""font-size: 60px; font-family: BACS"">JrGvrkra</p>","","","","","","","",""
"html-keyboard-response","295","437688","0.0-13.0-0.45","6161f43ddd46e845e7b3fab8","64b003020eef62ee308107cc","64b03ce94c8e9dc38d901b6a","null","null","<p style=""font-size: 60px; font-family: BACS"">QcladJud</p>","","","","","","","",""
"html-keyboard-response","296","438701","0.0-13.0-0.46","6161f43ddd46e845e7b3fab8","64b003020eef62ee308107cc","64b03ce94c8e9dc38d901b6a","null","null","<p style=""font-size: 60px; font-family: BACS"">bRABtCMdP</p>","","","","","","","",""
"html-keyboard-response","297","439703","0.0-13.0-0.47","6161f43ddd46e845e7b3fab8","64b003020eef62ee308107cc","64b03ce94c8e9dc38d901b6a","null","null","<p style=""font-size: 60px; font-family: BACS"">ukcYZAUu</p>","","","","","","","",""
"html-keyboard-response","298","440705","0.0-13.0-0.48","6161f43ddd46e845e7b3fab8","64b003020eef62ee308107cc","64b03ce94c8e9dc38d901b6a","null","null","<p style=""font-size: 60px; font-family: BACS"">RhPmEKBO</p>","","","","","","","",""
"html-keyboard-response","299","441711","0.0-13.0-0.49","6161f43ddd46e845e7b3fab8","64b003020eef62ee308107cc","64b03ce94c8e9dc38d901b6a","null","null","<p style=""font-size: 60px; font-family: BACS"">DMRPCMdP</p>","","","","","","","",""
"html-keyboard-response","300","442722","0.0-13.0-0.50","6161f43ddd46e845e7b3fab8","64b003020eef62ee308107cc","64b03ce94c8e9dc38d901b6a","null","null","<p style=""font-size: 60px; font-family: BACS"">TDKhEKBO</p>","","","","","","","",""
"html-keyboard-response","301","443723","0.0-13.0-0.51","6161f43ddd46e845e7b3fab8","64b003020eef62ee308107cc","64b03ce94c8e9dc38d901b6a","null","null","<p style=""font-size: 60px; font-family: BACS"">RhPmTRkY</p>","","","","","","","",""
"html-keyboard-response","302","444738","0.0-13.0-0.52","6161f43ddd46e845e7b3fab8","64b003020eef62ee308107cc","64b03ce94c8e9dc38d901b6a","null","null","<p style=""font-size: 60px; font-family: BACS"">KElBEKBO</p>","","","","","","","",""
"html-keyboard-response","303","445749","0.0-13.0-0.53","6161f43ddd46e845e7b3fab8","64b003020eef62ee308107cc","64b03ce94c8e9dc38d901b6a","null","null","<p style=""font-size: 60px; font-family: BACS"">bcORcPK</p>","","","","","","","",""
"html-keyboard-response","304","446753","0.0-13.0-0.54","6161f43ddd46e845e7b3fab8","64b003020eef62ee308107cc","64b03ce94c8e9dc38d901b6a","null","null","<p style=""font-size: 60px; font-family: BACS"">amJmZAUu</p>","","","","","","","",""
"html-keyboard-response","305","447754","0.0-13.0-0.55","6161f43ddd46e845e7b3fab8","64b003020eef62ee308107cc","64b03ce94c8e9dc38d901b6a","null","null","<p style=""font-size: 60px; font-family: BACS"">bRABtOPE</p>","","","","","","","",""
"html-keyboard-response","306","448755","0.0-13.0-0.56","6161f43ddd46e845e7b3fab8","64b003020eef62ee308107cc","64b03ce94c8e9dc38d901b6a","null","null","<p style=""font-size: 60px; font-family: BACS"">dCtMATRkY</p>","","","","","","","",""
"html-keyboard-response","307","449756","0.0-13.0-0.57","6161f43ddd46e845e7b3fab8","64b003020eef62ee308107cc","64b03ce94c8e9dc38d901b6a","null","null","<p style=""font-size: 60px; font-family: BACS"">ODBDACMdP</p>","","","","","","","",""
"html-keyboard-response","308","450756","0.0-13.0-0.58","6161f43ddd46e845e7b3fab8","64b003020eef62ee308107cc","64b03ce94c8e9dc38d901b6a","null","null","<p style=""font-size: 60px; font-family: BACS"">amJmrkra</p>","","","","","","","",""
"html-keyboard-response","309","451757","0.0-13.0-0.59","6161f43ddd46e845e7b3fab8","64b003020eef62ee308107cc","64b03ce94c8e9dc38d901b6a","null","null","<p style=""font-size: 60px; font-family: BACS"">dCtMAEKBO</p>","","","","","","","",""
"html-keyboard-response","310","452767","0.0-13.0-0.60","6161f43ddd46e845e7b3fab8","64b003020eef62ee308107cc","64b03ce94c8e9dc38d901b6a","null","null","<p style=""font-size: 60px; font-family: BACS"">JrGvJQA</p>","","","","","","","",""
"html-keyboard-response","311","453782","0.0-13.0-0.61","6161f43ddd46e845e7b3fab8","64b003020eef62ee308107cc","64b03ce94c8e9dc38d901b6a","null","null","<p style=""font-size: 60px; font-family: BACS"">kPOtcPK</p>","","","","","","","",""
"html-keyboard-response","312","454793","0.0-13.0-0.62","6161f43ddd46e845e7b3fab8","64b003020eef62ee308107cc","64b03ce94c8e9dc38d901b6a","null","null","<p style=""font-size: 60px; font-family: BACS"">QbkAcrkra</p>","","","","","","","",""
"html-keyboard-response","313","455803","0.0-13.0-0.63","6161f43ddd46e845e7b3fab8","64b003020eef62ee308107cc","64b03ce94c8e9dc38d901b6a","null","null","<p style=""font-size: 60px; font-family: BACS"">kPOtOPE</p>","","","","","","","",""
"html-keyboard-response","314","456809","0.0-13.0-0.64","6161f43ddd46e845e7b3fab8","64b003020eef62ee308107cc","64b03ce94c8e9dc38d901b6a","null","null","<p style=""font-size: 60px; font-family: BACS"">TDKhCMdP</p>","","","","","","","",""
"html-keyboard-response","315","457818","0.0-13.0-0.65","6161f43ddd46e845e7b3fab8","64b003020eef62ee308107cc","64b03ce94c8e9dc38d901b6a","null","null","<p style=""font-size: 60px; font-family: BACS"">OYuvbark</p>","","","","","","","",""
"html-keyboard-response","316","458832","0.0-13.0-0.66","6161f43ddd46e845e7b3fab8","64b003020eef62ee308107cc","64b03ce94c8e9dc38d901b6a","null","null","<p style=""font-size: 60px; font-family: BACS"">bcOREKBO</p>","","","","","","","",""
"html-keyboard-response","317","459846","0.0-13.0-0.67","6161f43ddd46e845e7b3fab8","64b003020eef62ee308107cc","64b03ce94c8e9dc38d901b6a","null","null","<p style=""font-size: 60px; font-family: BACS"">QbkAcark</p>","","","","","","","",""
"html-keyboard-response","318","460847","0.0-13.0-0.68","6161f43ddd46e845e7b3fab8","64b003020eef62ee308107cc","64b03ce94c8e9dc38d901b6a","null","null","<p style=""font-size: 60px; font-family: BACS"">bcOROPE</p>","","","","","","","",""
"html-keyboard-response","319","461859","0.0-13.0-0.69","6161f43ddd46e845e7b3fab8","64b003020eef62ee308107cc","64b03ce94c8e9dc38d901b6a","null","null","<p style=""font-size: 60px; font-family: BACS"">QcladZAUu</p>","","","","","","","",""
"html-keyboard-response","320","462872","0.0-13.0-0.70","6161f43ddd46e845e7b3fab8","64b003020eef62ee308107cc","64b03ce94c8e9dc38d901b6a","null","null","<p style=""font-size: 60px; font-family: BACS"">ODBDAOPE</p>","","","","","","","",""
"html-keyboard-response","321","463873","0.0-13.0-0.71","6161f43ddd46e845e7b3fab8","64b003020eef62ee308107cc","64b03ce94c8e9dc38d901b6a","null","null","<p style=""font-size: 60px; font-family: BACS"">OYuvbJQA</p>","","","","","","","",""
"html-keyboard-response","322","464873","0.0-13.0-0.72","6161f43ddd46e845e7b3fab8","64b003020eef62ee308107cc","64b03ce94c8e9dc38d901b6a","null","null","<p style=""font-size: 60px; font-family: BACS"">KElBOPE</p>","","","","","","","",""
"html-keyboard-response","323","465874","0.0-13.0-0.73","6161f43ddd46e845e7b3fab8","64b003020eef62ee308107cc","64b03ce94c8e9dc38d901b6a","null","null","<p style=""font-size: 60px; font-family: BACS"">YQbcZAUu</p>","","","","","","","",""
"html-keyboard-response","324","466875","0.0-13.0-0.74","6161f43ddd46e845e7b3fab8","64b003020eef62ee308107cc","64b03ce94c8e9dc38d901b6a","null","null","<p style=""font-size: 60px; font-family: BACS"">DlDdTRkY</p>","","","","","","","",""
"html-keyboard-response","325","467876","0.0-13.0-0.75","6161f43ddd46e845e7b3fab8","64b003020eef62ee308107cc","64b03ce94c8e9dc38d901b6a","null","null","<p style=""font-size: 60px; font-family: BACS"">krGuZAUu</p>","","","","","","","",""
"html-keyboard-response","326","468877","0.0-13.0-0.76","6161f43ddd46e845e7b3fab8","64b003020eef62ee308107cc","64b03ce94c8e9dc38d901b6a","null","null","<p style=""font-size: 60px; font-family: BACS"">dCtMAcPK</p>","","","","","","","",""
"html-keyboard-response","327","469880","0.0-13.0-0.77","6161f43ddd46e845e7b3fab8","64b003020eef62ee308107cc","64b03ce94c8e9dc38d901b6a","null","null","<p style=""font-size: 60px; font-family: BACS"">DlDdOPE</p>","","","","","","","",""
"html-keyboard-response","328","470890","0.0-13.0-0.78","6161f43ddd46e845e7b3fab8","64b003020eef62ee308107cc","64b03ce94c8e9dc38d901b6a","null","null","<p style=""font-size: 60px; font-family: BACS"">ukcYJud</p>","","","","","","","",""
"html-keyboard-response","329","471901","0.0-13.0-0.79","6161f43ddd46e845e7b3fab8","64b003020eef62ee308107cc","64b03ce94c8e9dc38d901b6a","null","null","<p style=""font-size: 60px; font-family: BACS"">KElBCMdP</p>","","","","","","","",""
"html-keyboard-response","330","474077","0.0-14.0","6161f43ddd46e845e7b3fab8","64b003020eef62ee308107cc","64b03ce94c8e9dc38d901b6a","2175"," ","<p>Ottimo, hai visto il quarto blocco di parole. Ora puoi prenderti una piccola pausa.</p>
      <p>Premi la barra quando sei pronta/o per riprendere.</p>","","","","","","","",""
"html-keyboard-response","331","475084","0.0-15.0-0.0","6161f43ddd46e845e7b3fab8","64b003020eef62ee308107cc","64b03ce94c8e9dc38d901b6a","null","null","<p style=""font-size: 60px; font-family: BACS"">bRABtcPK</p>","","","","","","","",""
"html-keyboard-response","332","476092","0.0-15.0-0.1","6161f43ddd46e845e7b3fab8","64b003020eef62ee308107cc","64b03ce94c8e9dc38d901b6a","null","null","<p style=""font-size: 60px; font-family: BACS"">bRABtcPK</p>","","","","","","","",""
"html-keyboard-response","333","477093","0.0-15.0-0.2","6161f43ddd46e845e7b3fab8","64b003020eef62ee308107cc","64b03ce94c8e9dc38d901b6a","null","null","<p style=""font-size: 60px; font-family: BACS"">bRABtcPK</p>","","","","","","","",""
"html-keyboard-response","334","478093","0.0-15.0-0.3","6161f43ddd46e845e7b3fab8","64b003020eef62ee308107cc","64b03ce94c8e9dc38d901b6a","null","null","<p style=""font-size: 60px; font-family: BACS"">bRABtcPK</p>","","","","","","","",""
"html-keyboard-response","335","479093","0.0-15.0-0.4","6161f43ddd46e845e7b3fab8","64b003020eef62ee308107cc","64b03ce94c8e9dc38d901b6a","null","null","<p style=""font-size: 60px; font-family: BACS"">bRABtcPK</p>","","","","","","","",""
"html-keyboard-response","336","480096","0.0-15.0-0.5","6161f43ddd46e845e7b3fab8","64b003020eef62ee308107cc","64b03ce94c8e9dc38d901b6a","null","null","<p style=""font-size: 60px; font-family: BACS"">bRABtcPK</p>","","","","","","","",""
"html-keyboard-response","337","481105","0.0-15.0-0.6","6161f43ddd46e845e7b3fab8","64b003020eef62ee308107cc","64b03ce94c8e9dc38d901b6a","null","null","<p style=""font-size: 60px; font-family: BACS"">bRABtcPK</p>","","","","","","","",""
"html-keyboard-response","338","482106","0.0-15.0-0.7","6161f43ddd46e845e7b3fab8","64b003020eef62ee308107cc","64b03ce94c8e9dc38d901b6a","null","null","<p style=""font-size: 60px; font-family: BACS"">bRABtcPK</p>","","","","","","","",""
"html-keyboard-response","339","483113","0.0-15.0-0.8","6161f43ddd46e845e7b3fab8","64b003020eef62ee308107cc","64b03ce94c8e9dc38d901b6a","null","null","<p style=""font-size: 60px; font-family: BACS"">bRABtcPK</p>","","","","","","","",""
"html-keyboard-response","340","484114","0.0-15.0-0.9","6161f43ddd46e845e7b3fab8","64b003020eef62ee308107cc","64b03ce94c8e9dc38d901b6a","null","null","<p style=""font-size: 60px; font-family: BACS"">bRABtcPK</p>","","","","","","","",""
"html-keyboard-response","341","485130","0.0-15.0-0.10","6161f43ddd46e845e7b3fab8","64b003020eef62ee308107cc","64b03ce94c8e9dc38d901b6a","null","null","<p style=""font-size: 60px; font-family: BACS"">bRABtcPK</p>","","","","","","","",""
"html-keyboard-response","342","486130","0.0-15.0-0.11","6161f43ddd46e845e7b3fab8","64b003020eef62ee308107cc","64b03ce94c8e9dc38d901b6a","null","null","<p style=""font-size: 60px; font-family: BACS"">bRABtcPK</p>","","","","","","","",""
"html-keyboard-response","343","487132","0.0-15.0-0.12","6161f43ddd46e845e7b3fab8","64b003020eef62ee308107cc","64b03ce94c8e9dc38d901b6a","null","null","<p style=""font-size: 60px; font-family: BACS"">bRABtcPK</p>","","","","","","","",""
"html-keyboard-response","344","488133","0.0-15.0-0.13","6161f43ddd46e845e7b3fab8","64b003020eef62ee308107cc","64b03ce94c8e9dc38d901b6a","null","null","<p style=""font-size: 60px; font-family: BACS"">bRABtcPK</p>","","","","","","","",""
"html-keyboard-response","345","489134","0.0-15.0-0.14","6161f43ddd46e845e7b3fab8","64b003020eef62ee308107cc","64b03ce94c8e9dc38d901b6a","null","null","<p style=""font-size: 60px; font-family: BACS"">bRABtcPK</p>","","","","","","","",""
"html-keyboard-response","346","490135","0.0-15.0-0.15","6161f43ddd46e845e7b3fab8","64b003020eef62ee308107cc","64b03ce94c8e9dc38d901b6a","null","null","<p style=""font-size: 60px; font-family: BACS"">bRABtcPK</p>","","","","","","","",""
"html-keyboard-response","347","491136","0.0-15.0-0.16","6161f43ddd46e845e7b3fab8","64b003020eef62ee308107cc","64b03ce94c8e9dc38d901b6a","null","null","<p style=""font-size: 60px; font-family: BACS"">bRABtcPK</p>","","","","","","","",""
"html-keyboard-response","348","492138","0.0-15.0-0.17","6161f43ddd46e845e7b3fab8","64b003020eef62ee308107cc","64b03ce94c8e9dc38d901b6a","null","null","<p style=""font-size: 60px; font-family: BACS"">bRABtcPK</p>","","","","","","","",""
"html-keyboard-response","349","493139","0.0-15.0-0.18","6161f43ddd46e845e7b3fab8","64b003020eef62ee308107cc","64b03ce94c8e9dc38d901b6a","null","null","<p style=""font-size: 60px; font-family: BACS"">bRABtcPK</p>","","","","","","","",""
"html-keyboard-response","350","494146","0.0-15.0-0.19","6161f43ddd46e845e7b3fab8","64b003020eef62ee308107cc","64b03ce94c8e9dc38d901b6a","null","null","<p style=""font-size: 60px; font-family: BACS"">bRABtcPK</p>","","","","","","","",""
"html-keyboard-response","351","495157","0.0-15.0-0.20","6161f43ddd46e845e7b3fab8","64b003020eef62ee308107cc","64b03ce94c8e9dc38d901b6a","null","null","<p style=""font-size: 60px; font-family: BACS"">bRABtcPK</p>","","","","","","","",""
"html-keyboard-response","352","496171","0.0-15.0-0.21","6161f43ddd46e845e7b3fab8","64b003020eef62ee308107cc","64b03ce94c8e9dc38d901b6a","null","null","<p style=""font-size: 60px; font-family: BACS"">bRABtcPK</p>","","","","","","","",""
"html-keyboard-response","353","497179","0.0-15.0-0.22","6161f43ddd46e845e7b3fab8","64b003020eef62ee308107cc","64b03ce94c8e9dc38d901b6a","null","null","<p style=""font-size: 60px; font-family: BACS"">bRABtcPK</p>","","","","","","","",""
"html-keyboard-response","354","498179","0.0-15.0-0.23","6161f43ddd46e845e7b3fab8","64b003020eef62ee308107cc","64b03ce94c8e9dc38d901b6a","null","null","<p style=""font-size: 60px; font-family: BACS"">bRABtcPK</p>","","","","","","","",""
"html-keyboard-response","355","499195","0.0-15.0-0.24","6161f43ddd46e845e7b3fab8","64b003020eef62ee308107cc","64b03ce94c8e9dc38d901b6a","null","null","<p style=""font-size: 60px; font-family: BACS"">bRABtcPK</p>","","","","","","","",""
"html-keyboard-response","356","500196","0.0-15.0-0.25","6161f43ddd46e845e7b3fab8","64b003020eef62ee308107cc","64b03ce94c8e9dc38d901b6a","null","null","<p style=""font-size: 60px; font-family: BACS"">bRABtcPK</p>","","","","","","","",""
"html-keyboard-response","357","501197","0.0-15.0-0.26","6161f43ddd46e845e7b3fab8","64b003020eef62ee308107cc","64b03ce94c8e9dc38d901b6a","null","null","<p style=""font-size: 60px; font-family: BACS"">bRABtcPK</p>","","","","","","","",""
"html-keyboard-response","358","502197","0.0-15.0-0.27","6161f43ddd46e845e7b3fab8","64b003020eef62ee308107cc","64b03ce94c8e9dc38d901b6a","null","null","<p style=""font-size: 60px; font-family: BACS"">bRABtcPK</p>","","","","","","","",""
"html-keyboard-response","359","503198","0.0-15.0-0.28","6161f43ddd46e845e7b3fab8","64b003020eef62ee308107cc","64b03ce94c8e9dc38d901b6a","null","null","<p style=""font-size: 60px; font-family: BACS"">bRABtcPK</p>","","","","","","","",""
"html-keyboard-response","360","504199","0.0-15.0-0.29","6161f43ddd46e845e7b3fab8","64b003020eef62ee308107cc","64b03ce94c8e9dc38d901b6a","null","null","<p style=""font-size: 60px; font-family: BACS"">bRABtcPK</p>","","","","","","","",""
"html-keyboard-response","361","505199","0.0-15.0-0.30","6161f43ddd46e845e7b3fab8","64b003020eef62ee308107cc","64b03ce94c8e9dc38d901b6a","null","null","<p style=""font-size: 60px; font-family: BACS"">bRABtcPK</p>","","","","","","","",""
"html-keyboard-response","362","506201","0.0-15.0-0.31","6161f43ddd46e845e7b3fab8","64b003020eef62ee308107cc","64b03ce94c8e9dc38d901b6a","null","null","<p style=""font-size: 60px; font-family: BACS"">bRABtcPK</p>","","","","","","","",""
"html-keyboard-response","363","507202","0.0-15.0-0.32","6161f43ddd46e845e7b3fab8","64b003020eef62ee308107cc","64b03ce94c8e9dc38d901b6a","null","null","<p style=""font-size: 60px; font-family: BACS"">bRABtcPK</p>","","","","","","","",""
"html-keyboard-response","364","508203","0.0-15.0-0.33","6161f43ddd46e845e7b3fab8","64b003020eef62ee308107cc","64b03ce94c8e9dc38d901b6a","null","null","<p style=""font-size: 60px; font-family: BACS"">bRABtcPK</p>","","","","","","","",""
"html-keyboard-response","365","509204","0.0-15.0-0.34","6161f43ddd46e845e7b3fab8","64b003020eef62ee308107cc","64b03ce94c8e9dc38d901b6a","null","null","<p style=""font-size: 60px; font-family: BACS"">bRABtcPK</p>","","","","","","","",""
"html-keyboard-response","366","510205","0.0-15.0-0.35","6161f43ddd46e845e7b3fab8","64b003020eef62ee308107cc","64b03ce94c8e9dc38d901b6a","null","null","<p style=""font-size: 60px; font-family: BACS"">bRABtcPK</p>","","","","","","","",""
"html-keyboard-response","367","511210","0.0-15.0-0.36","6161f43ddd46e845e7b3fab8","64b003020eef62ee308107cc","64b03ce94c8e9dc38d901b6a","null","null","<p style=""font-size: 60px; font-family: BACS"">bRABtcPK</p>","","","","","","","",""
"html-keyboard-response","368","512211","0.0-15.0-0.37","6161f43ddd46e845e7b3fab8","64b003020eef62ee308107cc","64b03ce94c8e9dc38d901b6a","null","null","<p style=""font-size: 60px; font-family: BACS"">bRABtcPK</p>","","","","","","","",""
"html-keyboard-response","369","513212","0.0-15.0-0.38","6161f43ddd46e845e7b3fab8","64b003020eef62ee308107cc","64b03ce94c8e9dc38d901b6a","null","null","<p style=""font-size: 60px; font-family: BACS"">bRABtcPK</p>","","","","","","","",""
"html-keyboard-response","370","514214","0.0-15.0-0.39","6161f43ddd46e845e7b3fab8","64b003020eef62ee308107cc","64b03ce94c8e9dc38d901b6a","null","null","<p style=""font-size: 60px; font-family: BACS"">bRABtcPK</p>","","","","","","","",""
"html-keyboard-response","371","515215","0.0-15.0-0.40","6161f43ddd46e845e7b3fab8","64b003020eef62ee308107cc","64b03ce94c8e9dc38d901b6a","null","null","<p style=""font-size: 60px; font-family: BACS"">bRABtcPK</p>","","","","","","","",""
"html-keyboard-response","372","516217","0.0-15.0-0.41","6161f43ddd46e845e7b3fab8","64b003020eef62ee308107cc","64b03ce94c8e9dc38d901b6a","null","null","<p style=""font-size: 60px; font-family: BACS"">bRABtcPK</p>","","","","","","","",""
"html-keyboard-response","373","517230","0.0-15.0-0.42","6161f43ddd46e845e7b3fab8","64b003020eef62ee308107cc","64b03ce94c8e9dc38d901b6a","null","null","<p style=""font-size: 60px; font-family: BACS"">bRABtcPK</p>","","","","","","","",""
"html-keyboard-response","374","518231","0.0-15.0-0.43","6161f43ddd46e845e7b3fab8","64b003020eef62ee308107cc","64b03ce94c8e9dc38d901b6a","null","null","<p style=""font-size: 60px; font-family: BACS"">bRABtcPK</p>","","","","","","","",""
"html-keyboard-response","375","519233","0.0-15.0-0.44","6161f43ddd46e845e7b3fab8","64b003020eef62ee308107cc","64b03ce94c8e9dc38d901b6a","null","null","<p style=""font-size: 60px; font-family: BACS"">bRABtcPK</p>","","","","","","","",""
"html-keyboard-response","376","520248","0.0-15.0-0.45","6161f43ddd46e845e7b3fab8","64b003020eef62ee308107cc","64b03ce94c8e9dc38d901b6a","null","null","<p style=""font-size: 60px; font-family: BACS"">bRABtcPK</p>","","","","","","","",""
"html-keyboard-response","377","521249","0.0-15.0-0.46","6161f43ddd46e845e7b3fab8","64b003020eef62ee308107cc","64b03ce94c8e9dc38d901b6a","null","null","<p style=""font-size: 60px; font-family: BACS"">bRABtcPK</p>","","","","","","","",""
"html-keyboard-response","378","522249","0.0-15.0-0.47","6161f43ddd46e845e7b3fab8","64b003020eef62ee308107cc","64b03ce94c8e9dc38d901b6a","null","null","<p style=""font-size: 60px; font-family: BACS"">bRABtcPK</p>","","","","","","","",""
"html-keyboard-response","379","523261","0.0-15.0-0.48","6161f43ddd46e845e7b3fab8","64b003020eef62ee308107cc","64b03ce94c8e9dc38d901b6a","null","null","<p style=""font-size: 60px; font-family: BACS"">bRABtcPK</p>","","","","","","","",""
"html-keyboard-response","380","524262","0.0-15.0-0.49","6161f43ddd46e845e7b3fab8","64b003020eef62ee308107cc","64b03ce94c8e9dc38d901b6a","null","null","<p style=""font-size: 60px; font-family: BACS"">bRABtcPK</p>","","","","","","","",""
"html-keyboard-response","381","525263","0.0-15.0-0.50","6161f43ddd46e845e7b3fab8","64b003020eef62ee308107cc","64b03ce94c8e9dc38d901b6a","null","null","<p style=""font-size: 60px; font-family: BACS"">bRABtcPK</p>","","","","","","","",""
"html-keyboard-response","382","526278","0.0-15.0-0.51","6161f43ddd46e845e7b3fab8","64b003020eef62ee308107cc","64b03ce94c8e9dc38d901b6a","null","null","<p style=""font-size: 60px; font-family: BACS"">bRABtcPK</p>","","","","","","","",""
"html-keyboard-response","383","527279","0.0-15.0-0.52","6161f43ddd46e845e7b3fab8","64b003020eef62ee308107cc","64b03ce94c8e9dc38d901b6a","null","null","<p style=""font-size: 60px; font-family: BACS"">bRABtcPK</p>","","","","","","","",""
"html-keyboard-response","384","528280","0.0-15.0-0.53","6161f43ddd46e845e7b3fab8","64b003020eef62ee308107cc","64b03ce94c8e9dc38d901b6a","null","null","<p style=""font-size: 60px; font-family: BACS"">bRABtcPK</p>","","","","","","","",""
"html-keyboard-response","385","529281","0.0-15.0-0.54","6161f43ddd46e845e7b3fab8","64b003020eef62ee308107cc","64b03ce94c8e9dc38d901b6a","null","null","<p style=""font-size: 60px; font-family: BACS"">bRABtcPK</p>","","","","","","","",""
"html-keyboard-response","386","530282","0.0-15.0-0.55","6161f43ddd46e845e7b3fab8","64b003020eef62ee308107cc","64b03ce94c8e9dc38d901b6a","null","null","<p style=""font-size: 60px; font-family: BACS"">bRABtcPK</p>","","","","","","","",""
"html-keyboard-response","387","531283","0.0-15.0-0.56","6161f43ddd46e845e7b3fab8","64b003020eef62ee308107cc","64b03ce94c8e9dc38d901b6a","null","null","<p style=""font-size: 60px; font-family: BACS"">bRABtcPK</p>","","","","","","","",""
"html-keyboard-response","388","532284","0.0-15.0-0.57","6161f43ddd46e845e7b3fab8","64b003020eef62ee308107cc","64b03ce94c8e9dc38d901b6a","null","null","<p style=""font-size: 60px; font-family: BACS"">bRABtcPK</p>","","","","","","","",""
"html-keyboard-response","389","533285","0.0-15.0-0.58","6161f43ddd46e845e7b3fab8","64b003020eef62ee308107cc","64b03ce94c8e9dc38d901b6a","null","null","<p style=""font-size: 60px; font-family: BACS"">bRABtcPK</p>","","","","","","","",""
"html-keyboard-response","390","534285","0.0-15.0-0.59","6161f43ddd46e845e7b3fab8","64b003020eef62ee308107cc","64b03ce94c8e9dc38d901b6a","null","null","<p style=""font-size: 60px; font-family: BACS"">bRABtcPK</p>","","","","","","","",""
"html-keyboard-response","391","535295","0.0-15.0-0.60","6161f43ddd46e845e7b3fab8","64b003020eef62ee308107cc","64b03ce94c8e9dc38d901b6a","null","null","<p style=""font-size: 60px; font-family: BACS"">bRABtcPK</p>","","","","","","","",""
"html-keyboard-response","392","536296","0.0-15.0-0.61","6161f43ddd46e845e7b3fab8","64b003020eef62ee308107cc","64b03ce94c8e9dc38d901b6a","null","null","<p style=""font-size: 60px; font-family: BACS"">bRABtcPK</p>","","","","","","","",""
"html-keyboard-response","393","537298","0.0-15.0-0.62","6161f43ddd46e845e7b3fab8","64b003020eef62ee308107cc","64b03ce94c8e9dc38d901b6a","null","null","<p style=""font-size: 60px; font-family: BACS"">bRABtcPK</p>","","","","","","","",""
"html-keyboard-response","394","538308","0.0-15.0-0.63","6161f43ddd46e845e7b3fab8","64b003020eef62ee308107cc","64b03ce94c8e9dc38d901b6a","null","null","<p style=""font-size: 60px; font-family: BACS"">bRABtcPK</p>","","","","","","","",""
"html-keyboard-response","395","539322","0.0-15.0-0.64","6161f43ddd46e845e7b3fab8","64b003020eef62ee308107cc","64b03ce94c8e9dc38d901b6a","null","null","<p style=""font-size: 60px; font-family: BACS"">bRABtcPK</p>","","","","","","","",""
"html-keyboard-response","396","540333","0.0-15.0-0.65","6161f43ddd46e845e7b3fab8","64b003020eef62ee308107cc","64b03ce94c8e9dc38d901b6a","null","null","<p style=""font-size: 60px; font-family: BACS"">bRABtcPK</p>","","","","","","","",""
"html-keyboard-response","397","541343","0.0-15.0-0.66","6161f43ddd46e845e7b3fab8","64b003020eef62ee308107cc","64b03ce94c8e9dc38d901b6a","null","null","<p style=""font-size: 60px; font-family: BACS"">bRABtcPK</p>","","","","","","","",""
"html-keyboard-response","398","542344","0.0-15.0-0.67","6161f43ddd46e845e7b3fab8","64b003020eef62ee308107cc","64b03ce94c8e9dc38d901b6a","null","null","<p style=""font-size: 60px; font-family: BACS"">bRABtcPK</p>","","","","","","","",""
"html-keyboard-response","399","543345","0.0-15.0-0.68","6161f43ddd46e845e7b3fab8","64b003020eef62ee308107cc","64b03ce94c8e9dc38d901b6a","null","null","<p style=""font-size: 60px; font-family: BACS"">bRABtcPK</p>","","","","","","","",""
"html-keyboard-response","400","544346","0.0-15.0-0.69","6161f43ddd46e845e7b3fab8","64b003020eef62ee308107cc","64b03ce94c8e9dc38d901b6a","null","null","<p style=""font-size: 60px; font-family: BACS"">bRABtcPK</p>","","","","","","","",""
"html-keyboard-response","401","545348","0.0-15.0-0.70","6161f43ddd46e845e7b3fab8","64b003020eef62ee308107cc","64b03ce94c8e9dc38d901b6a","null","null","<p style=""font-size: 60px; font-family: BACS"">bRABtcPK</p>","","","","","","","",""
"html-keyboard-response","402","546348","0.0-15.0-0.71","6161f43ddd46e845e7b3fab8","64b003020eef62ee308107cc","64b03ce94c8e9dc38d901b6a","null","null","<p style=""font-size: 60px; font-family: BACS"">bRABtcPK</p>","","","","","","","",""
