trial_type,trial_index,time_elapsed,internal_node_id,subject_id,study_id,session_id,rt,response,stimulus,success,item,task,correct_response,testing_condition,correct,target,confound,name,view_history
pavlovia,0,1358,0.0-0.0,5ae5db897edeb000014a85ee,650c16f0f2faf8d7a0d14c09,651c1e193cdcfaa69d32dfc1,,,,,,,,,,,,,
survey-html-form,1,13267,0.0-1.0,5ae5db897edeb000014a85ee,650c16f0f2faf8d7a0d14c09,651c1e193cdcfaa69d32dfc1,11907,"{""ID"":""5ae5db897edeb000014a85ee""}",,,,,,,,,,,
html-keyboard-response,2,92401,0.0-2.0,5ae5db897edeb000014a85ee,650c16f0f2faf8d7a0d14c09,651c1e193cdcfaa69d32dfc1,79131, ,"<p style=""font-size: 15px;"">Before beginning, we ask that you read the consent information and confirm your agreement to participate in the experiment.</p>
      <p style=""font-size: 15px;""> We ask that you remember that this is a research project and that your participation is entirely voluntary. You can stop your participation at any time, without needing to provide any explanation. The study we're asking you to participate in aims at examining how readers process written words. You will be engaged in a session of apprximately 20 minutes, followed by a brief questionnaire. You will have the opportunity to take a few breaks during the experiment. You will be paid £4 for your participation, corresponding to a rate of £8/hour. While this experiment looks at cognitive faculties, this experiment doesn't constitute clinical proof of eventual pathologies.</p>
      <p style=""font-size: 15px;"">All of the information collected thanks to yours and others' participation will be held in a secure password-protected server, and will not be shared with anyone not authorised to view it. Your personal information will be kept with an arbitrary participant ID. Thanks to this data anonymity process, any researcher analysing the data won't be able to track the information back to a specific participant. Therefore, this process will make identifying you impossibile, even when results from the study will be published in scientific reviews, presented at congresses, or at any other public forum. More generally, the collected data will be treated in accordance with the laws on privacy and conformity to the Legislative Degree n. 196 ""Code regarding the protection of personal data"" of the 30th of June 2003 and to the European Regulation 2016/670 (General Data Protection Regulation - GDPR). The Data Protection Officer is Avv. Valentina Carollo, who can be contacted at the following email addresses: <a href=""mailto:dpo@sissa.it"">dpo@sissa.it</a> or <a href=""mailto:rpd@sissa.it"">rpd@sissa.it</a> - PEC: <a href=""mailto:protocollo@pec.sissa.it"">protocollo@pec.sissa.it</a>.</p>
      <p style=""font-size: 15px;""> Before expressing your consent to participate, we would like to remind you again that in case you need explanations on any aspect of the experimental procedure, the researcher is at your disposition (<a href=""mailto:aliebelt@sissa.it"">aliebelt@sissa.it</a>, <a href=""mailto:davide.crepaldi@sissa.it"">davide.crepaldi@sissa.it</a>).</p>
      <p style=""font-size: 15px;"">If you would like to download the informed consent form, you can do so here: <a href=""BASL-Informed_Consent.pdf"" download>informed consent form</a>.</p>
      <p style=""font-size: 15px;"">We ask that you press the spacebar to proceed to the consent section.</p>",,,,,,,,,,
survey-html-form,3,124834,0.0-3.0,5ae5db897edeb000014a85ee,650c16f0f2faf8d7a0d14c09,651c1e193cdcfaa69d32dfc1,32432,"{""consent1"":""YES"",""consent2"":""YES"",""consent3"":""YES"",""consent4"":""YES"",""consent5"":""YES"",""consent6"":""YES""}",,,,,,,,,,,
fullscreen,4,135096,0.0-4.0,5ae5db897edeb000014a85ee,650c16f0f2faf8d7a0d14c09,651c1e193cdcfaa69d32dfc1,,,,TRUE,,,,,,,,,
html-keyboard-response,5,248012,0.0-5.0,5ae5db897edeb000014a85ee,650c16f0f2faf8d7a0d14c09,651c1e193cdcfaa69d32dfc1,112913, ,"<p>Welcome, and thank you very much for your time!</p>
      <p>In this experiment, you'll be a language expert who's been asked to take a look at words that Earth has received in its first communication with aliens. Your task, in this first part of the experiment, is to pay close attention to the words you'll be shown; later, world leaders will ask you questions on what you saw. The words will be shown to you quite quickly; it seems that the aliens were in a hurry :-)</p>
      <p>Press the spacebar to continue.<p>",,,,,,,,,,
html-keyboard-response,6,248082,0.0-6.0,5ae5db897edeb000014a85ee,650c16f0f2faf8d7a0d14c09,651c1e193cdcfaa69d32dfc1,null,null,"<p style=""font-size: 120px; font-family: BACS""> </p>",,,,,,,,,,
html-keyboard-response,7,257974,0.0-7.0,5ae5db897edeb000014a85ee,650c16f0f2faf8d7a0d14c09,651c1e193cdcfaa69d32dfc1,9890, ,"<p>Here is an example of the words you'll see:</p>
      <img src='esempio.png' height='400px'>
      <p>When you're ready to begin, press the spacebar.</p></div>",,,,,,,,,,
html-keyboard-response,8,258976,0.0-8.0-0.0,5ae5db897edeb000014a85ee,650c16f0f2faf8d7a0d14c09,651c1e193cdcfaa69d32dfc1,null,null,"<p style=""font-size: 60px; font-family: BACS"">GJGcZYArG</p>",,,,,,,,,,
html-keyboard-response,9,259983,0.0-8.0-0.1,5ae5db897edeb000014a85ee,650c16f0f2faf8d7a0d14c09,651c1e193cdcfaa69d32dfc1,null,null,"<p style=""font-size: 60px; font-family: BACS"">hTtBbCdt</p>",,,,,,,,,,
html-keyboard-response,10,260989,0.0-8.0-0.2,5ae5db897edeb000014a85ee,650c16f0f2faf8d7a0d14c09,651c1e193cdcfaa69d32dfc1,null,null,"<p style=""font-size: 60px; font-family: BACS"">lGZvJUG</p>",,,,,,,,,,
html-keyboard-response,11,261994,0.0-8.0-0.3,5ae5db897edeb000014a85ee,650c16f0f2faf8d7a0d14c09,651c1e193cdcfaa69d32dfc1,null,null,"<p style=""font-size: 60px; font-family: BACS"">ZNLOvravu</p>",,,,,,,,,,
html-keyboard-response,12,263001,0.0-8.0-0.4,5ae5db897edeb000014a85ee,650c16f0f2faf8d7a0d14c09,651c1e193cdcfaa69d32dfc1,null,null,"<p style=""font-size: 60px; font-family: BACS"">TbKMEYKPB</p>",,,,,,,,,,
html-keyboard-response,13,264005,0.0-8.0-0.5,5ae5db897edeb000014a85ee,650c16f0f2faf8d7a0d14c09,651c1e193cdcfaa69d32dfc1,null,null,"<p style=""font-size: 60px; font-family: BACS"">bYGOZkdrO</p>",,,,,,,,,,
html-keyboard-response,14,265011,0.0-8.0-0.6,5ae5db897edeb000014a85ee,650c16f0f2faf8d7a0d14c09,651c1e193cdcfaa69d32dfc1,null,null,"<p style=""font-size: 60px; font-family: BACS"">CRdBdCdt</p>",,,,,,,,,,
html-keyboard-response,15,266017,0.0-8.0-0.7,5ae5db897edeb000014a85ee,650c16f0f2faf8d7a0d14c09,651c1e193cdcfaa69d32dfc1,null,null,"<p style=""font-size: 60px; font-family: BACS"">DBlhTmc</p>",,,,,,,,,,
html-keyboard-response,16,267022,0.0-8.0-0.8,5ae5db897edeb000014a85ee,650c16f0f2faf8d7a0d14c09,651c1e193cdcfaa69d32dfc1,null,null,"<p style=""font-size: 60px; font-family: BACS"">DOchlOBT</p>",,,,,,,,,,
html-keyboard-response,17,268027,0.0-8.0-0.9,5ae5db897edeb000014a85ee,650c16f0f2faf8d7a0d14c09,651c1e193cdcfaa69d32dfc1,null,null,"<p style=""font-size: 60px; font-family: BACS"">JNkaYArG</p>",,,,,,,,,,
html-keyboard-response,18,269032,0.0-8.0-0.10,5ae5db897edeb000014a85ee,650c16f0f2faf8d7a0d14c09,651c1e193cdcfaa69d32dfc1,null,null,"<p style=""font-size: 60px; font-family: BACS"">lGZvkdrO</p>",,,,,,,,,,
html-keyboard-response,19,270035,0.0-8.0-0.11,5ae5db897edeb000014a85ee,650c16f0f2faf8d7a0d14c09,651c1e193cdcfaa69d32dfc1,null,null,"<p style=""font-size: 60px; font-family: BACS"">OmtlDYKPB</p>",,,,,,,,,,
html-keyboard-response,20,271045,0.0-8.0-0.12,5ae5db897edeb000014a85ee,650c16f0f2faf8d7a0d14c09,651c1e193cdcfaa69d32dfc1,null,null,"<p style=""font-size: 60px; font-family: BACS"">TPCbAPEM</p>",,,,,,,,,,
html-keyboard-response,21,272059,0.0-8.0-0.13,5ae5db897edeb000014a85ee,650c16f0f2faf8d7a0d14c09,651c1e193cdcfaa69d32dfc1,null,null,"<p style=""font-size: 60px; font-family: BACS"">krGuJUG</p>",,,,,,,,,,
html-keyboard-response,22,273070,0.0-8.0-0.14,5ae5db897edeb000014a85ee,650c16f0f2faf8d7a0d14c09,651c1e193cdcfaa69d32dfc1,null,null,"<p style=""font-size: 60px; font-family: BACS"">kbmZOkdrO</p>",,,,,,,,,,
html-keyboard-response,23,274089,0.0-8.0-0.15,5ae5db897edeb000014a85ee,650c16f0f2faf8d7a0d14c09,651c1e193cdcfaa69d32dfc1,null,null,"<p style=""font-size: 60px; font-family: BACS"">dKDthTmc</p>",,,,,,,,,,
html-keyboard-response,24,275096,0.0-8.0-0.16,5ae5db897edeb000014a85ee,650c16f0f2faf8d7a0d14c09,651c1e193cdcfaa69d32dfc1,null,null,"<p style=""font-size: 60px; font-family: BACS"">OQarQYArG</p>",,,,,,,,,,
html-keyboard-response,25,276101,0.0-8.0-0.17,5ae5db897edeb000014a85ee,650c16f0f2faf8d7a0d14c09,651c1e193cdcfaa69d32dfc1,null,null,"<p style=""font-size: 60px; font-family: BACS"">mrOdNUZ</p>",,,,,,,,,,
html-keyboard-response,26,277110,0.0-8.0-0.18,5ae5db897edeb000014a85ee,650c16f0f2faf8d7a0d14c09,651c1e193cdcfaa69d32dfc1,null,null,"<p style=""font-size: 60px; font-family: BACS"">LdrbvJUG</p>",,,,,,,,,,
html-keyboard-response,27,278125,0.0-8.0-0.19,5ae5db897edeb000014a85ee,650c16f0f2faf8d7a0d14c09,651c1e193cdcfaa69d32dfc1,null,null,"<p style=""font-size: 60px; font-family: BACS"">hTtBbAPEM</p>",,,,,,,,,,
html-keyboard-response,28,279132,0.0-8.0-0.20,5ae5db897edeb000014a85ee,650c16f0f2faf8d7a0d14c09,651c1e193cdcfaa69d32dfc1,null,null,"<p style=""font-size: 60px; font-family: BACS"">TPCbTmc</p>",,,,,,,,,,
html-keyboard-response,29,280136,0.0-8.0-0.21,5ae5db897edeb000014a85ee,650c16f0f2faf8d7a0d14c09,651c1e193cdcfaa69d32dfc1,null,null,"<p style=""font-size: 60px; font-family: BACS"">OQarQravu</p>",,,,,,,,,,
html-keyboard-response,30,281142,0.0-8.0-0.22,5ae5db897edeb000014a85ee,650c16f0f2faf8d7a0d14c09,651c1e193cdcfaa69d32dfc1,null,null,"<p style=""font-size: 60px; font-family: BACS"">DBlhAPEM</p>",,,,,,,,,,
html-keyboard-response,31,282148,0.0-8.0-0.23,5ae5db897edeb000014a85ee,650c16f0f2faf8d7a0d14c09,651c1e193cdcfaa69d32dfc1,null,null,"<p style=""font-size: 60px; font-family: BACS"">krGuYArG</p>",,,,,,,,,,
html-keyboard-response,32,283152,0.0-8.0-0.24,5ae5db897edeb000014a85ee,650c16f0f2faf8d7a0d14c09,651c1e193cdcfaa69d32dfc1,null,null,"<p style=""font-size: 60px; font-family: BACS"">dKDthCdt</p>",,,,,,,,,,
html-keyboard-response,33,284179,0.0-8.0-0.25,5ae5db897edeb000014a85ee,650c16f0f2faf8d7a0d14c09,651c1e193cdcfaa69d32dfc1,null,null,"<p style=""font-size: 60px; font-family: BACS"">kbmZONUZ</p>",,,,,,,,,,
html-keyboard-response,34,285185,0.0-8.0-0.26,5ae5db897edeb000014a85ee,650c16f0f2faf8d7a0d14c09,651c1e193cdcfaa69d32dfc1,null,null,"<p style=""font-size: 60px; font-family: BACS"">krGuravu</p>",,,,,,,,,,
html-keyboard-response,35,286191,0.0-8.0-0.27,5ae5db897edeb000014a85ee,650c16f0f2faf8d7a0d14c09,651c1e193cdcfaa69d32dfc1,null,null,"<p style=""font-size: 60px; font-family: BACS"">JNkaJUG</p>",,,,,,,,,,
html-keyboard-response,36,287198,0.0-8.0-0.28,5ae5db897edeb000014a85ee,650c16f0f2faf8d7a0d14c09,651c1e193cdcfaa69d32dfc1,null,null,"<p style=""font-size: 60px; font-family: BACS"">bYGOZYArG</p>",,,,,,,,,,
html-keyboard-response,37,288203,0.0-8.0-0.29,5ae5db897edeb000014a85ee,650c16f0f2faf8d7a0d14c09,651c1e193cdcfaa69d32dfc1,null,null,"<p style=""font-size: 60px; font-family: BACS"">DBPhcYKPB</p>",,,,,,,,,,
html-keyboard-response,38,289208,0.0-8.0-0.30,5ae5db897edeb000014a85ee,650c16f0f2faf8d7a0d14c09,651c1e193cdcfaa69d32dfc1,null,null,"<p style=""font-size: 60px; font-family: BACS"">TbKMECdt</p>",,,,,,,,,,
html-keyboard-response,39,290212,0.0-8.0-0.31,5ae5db897edeb000014a85ee,650c16f0f2faf8d7a0d14c09,651c1e193cdcfaa69d32dfc1,null,null,"<p style=""font-size: 60px; font-family: BACS"">Ldrbvravu</p>",,,,,,,,,,
html-keyboard-response,40,291215,0.0-8.0-0.32,5ae5db897edeb000014a85ee,650c16f0f2faf8d7a0d14c09,651c1e193cdcfaa69d32dfc1,null,null,"<p style=""font-size: 60px; font-family: BACS"">GJGcZJUG</p>",,,,,,,,,,
html-keyboard-response,41,292221,0.0-8.0-0.33,5ae5db897edeb000014a85ee,650c16f0f2faf8d7a0d14c09,651c1e193cdcfaa69d32dfc1,null,null,"<p style=""font-size: 60px; font-family: BACS"">bYGOZNUZ</p>",,,,,,,,,,
html-keyboard-response,42,293229,0.0-8.0-0.34,5ae5db897edeb000014a85ee,650c16f0f2faf8d7a0d14c09,651c1e193cdcfaa69d32dfc1,null,null,"<p style=""font-size: 60px; font-family: BACS"">hCktAPEM</p>",,,,,,,,,,
html-keyboard-response,43,294234,0.0-8.0-0.35,5ae5db897edeb000014a85ee,650c16f0f2faf8d7a0d14c09,651c1e193cdcfaa69d32dfc1,null,null,"<p style=""font-size: 60px; font-family: BACS"">krGuNUZ</p>",,,,,,,,,,
html-keyboard-response,44,295241,0.0-8.0-0.36,5ae5db897edeb000014a85ee,650c16f0f2faf8d7a0d14c09,651c1e193cdcfaa69d32dfc1,null,null,"<p style=""font-size: 60px; font-family: BACS"">hTtBbYKPB</p>",,,,,,,,,,
html-keyboard-response,45,296245,0.0-8.0-0.37,5ae5db897edeb000014a85ee,650c16f0f2faf8d7a0d14c09,651c1e193cdcfaa69d32dfc1,null,null,"<p style=""font-size: 60px; font-family: BACS"">ZNLOvkdrO</p>",,,,,,,,,,
html-keyboard-response,46,297251,0.0-8.0-0.38,5ae5db897edeb000014a85ee,650c16f0f2faf8d7a0d14c09,651c1e193cdcfaa69d32dfc1,null,null,"<p style=""font-size: 60px; font-family: BACS"">OmtlDCdt</p>",,,,,,,,,,
html-keyboard-response,47,298257,0.0-8.0-0.39,5ae5db897edeb000014a85ee,650c16f0f2faf8d7a0d14c09,651c1e193cdcfaa69d32dfc1,null,null,"<p style=""font-size: 60px; font-family: BACS"">GJGcZNUZ</p>",,,,,,,,,,
html-keyboard-response,48,299263,0.0-8.0-0.40,5ae5db897edeb000014a85ee,650c16f0f2faf8d7a0d14c09,651c1e193cdcfaa69d32dfc1,null,null,"<p style=""font-size: 60px; font-family: BACS"">TPCbOBT</p>",,,,,,,,,,
html-keyboard-response,49,300268,0.0-8.0-0.41,5ae5db897edeb000014a85ee,650c16f0f2faf8d7a0d14c09,651c1e193cdcfaa69d32dfc1,null,null,"<p style=""font-size: 60px; font-family: BACS"">bYGOZravu</p>",,,,,,,,,,
html-keyboard-response,50,301272,0.0-8.0-0.42,5ae5db897edeb000014a85ee,650c16f0f2faf8d7a0d14c09,651c1e193cdcfaa69d32dfc1,null,null,"<p style=""font-size: 60px; font-family: BACS"">TbKMEOBT</p>",,,,,,,,,,
html-keyboard-response,51,302291,0.0-8.0-0.43,5ae5db897edeb000014a85ee,650c16f0f2faf8d7a0d14c09,651c1e193cdcfaa69d32dfc1,null,null,"<p style=""font-size: 60px; font-family: BACS"">lGZvYArG</p>",,,,,,,,,,
html-keyboard-response,52,303296,0.0-8.0-0.44,5ae5db897edeb000014a85ee,650c16f0f2faf8d7a0d14c09,651c1e193cdcfaa69d32dfc1,null,null,"<p style=""font-size: 60px; font-family: BACS"">TbKMETmc</p>",,,,,,,,,,
html-keyboard-response,53,304300,0.0-8.0-0.45,5ae5db897edeb000014a85ee,650c16f0f2faf8d7a0d14c09,651c1e193cdcfaa69d32dfc1,null,null,"<p style=""font-size: 60px; font-family: BACS"">mrOdkdrO</p>",,,,,,,,,,
html-keyboard-response,54,305303,0.0-8.0-0.46,5ae5db897edeb000014a85ee,650c16f0f2faf8d7a0d14c09,651c1e193cdcfaa69d32dfc1,null,null,"<p style=""font-size: 60px; font-family: BACS"">DOchlTmc</p>",,,,,,,,,,
html-keyboard-response,55,306309,0.0-8.0-0.47,5ae5db897edeb000014a85ee,650c16f0f2faf8d7a0d14c09,651c1e193cdcfaa69d32dfc1,null,null,"<p style=""font-size: 60px; font-family: BACS"">dKDthAPEM</p>",,,,,,,,,,
html-keyboard-response,56,307313,0.0-8.0-0.48,5ae5db897edeb000014a85ee,650c16f0f2faf8d7a0d14c09,651c1e193cdcfaa69d32dfc1,null,null,"<p style=""font-size: 60px; font-family: BACS"">OmtlDTmc</p>",,,,,,,,,,
html-keyboard-response,57,308316,0.0-8.0-0.49,5ae5db897edeb000014a85ee,650c16f0f2faf8d7a0d14c09,651c1e193cdcfaa69d32dfc1,null,null,"<p style=""font-size: 60px; font-family: BACS"">CRdBdYKPB</p>",,,,,,,,,,
html-keyboard-response,58,309319,0.0-8.0-0.50,5ae5db897edeb000014a85ee,650c16f0f2faf8d7a0d14c09,651c1e193cdcfaa69d32dfc1,null,null,"<p style=""font-size: 60px; font-family: BACS"">OQarQkdrO</p>",,,,,,,,,,
html-keyboard-response,59,310323,0.0-8.0-0.51,5ae5db897edeb000014a85ee,650c16f0f2faf8d7a0d14c09,651c1e193cdcfaa69d32dfc1,null,null,"<p style=""font-size: 60px; font-family: BACS"">JNkaNUZ</p>",,,,,,,,,,
html-keyboard-response,60,311328,0.0-8.0-0.52,5ae5db897edeb000014a85ee,650c16f0f2faf8d7a0d14c09,651c1e193cdcfaa69d32dfc1,null,null,"<p style=""font-size: 60px; font-family: BACS"">DBPhcAPEM</p>",,,,,,,,,,
html-keyboard-response,61,312332,0.0-8.0-0.53,5ae5db897edeb000014a85ee,650c16f0f2faf8d7a0d14c09,651c1e193cdcfaa69d32dfc1,null,null,"<p style=""font-size: 60px; font-family: BACS"">ZNLOvYArG</p>",,,,,,,,,,
html-keyboard-response,62,313339,0.0-8.0-0.54,5ae5db897edeb000014a85ee,650c16f0f2faf8d7a0d14c09,651c1e193cdcfaa69d32dfc1,null,null,"<p style=""font-size: 60px; font-family: BACS"">GJGcZravu</p>",,,,,,,,,,
html-keyboard-response,63,314348,0.0-8.0-0.55,5ae5db897edeb000014a85ee,650c16f0f2faf8d7a0d14c09,651c1e193cdcfaa69d32dfc1,null,null,"<p style=""font-size: 60px; font-family: BACS"">DOchlYKPB</p>",,,,,,,,,,
html-keyboard-response,64,315362,0.0-8.0-0.56,5ae5db897edeb000014a85ee,650c16f0f2faf8d7a0d14c09,651c1e193cdcfaa69d32dfc1,null,null,"<p style=""font-size: 60px; font-family: BACS"">CRdBdAPEM</p>",,,,,,,,,,
html-keyboard-response,65,316366,0.0-8.0-0.57,5ae5db897edeb000014a85ee,650c16f0f2faf8d7a0d14c09,651c1e193cdcfaa69d32dfc1,null,null,"<p style=""font-size: 60px; font-family: BACS"">ZNLOvNUZ</p>",,,,,,,,,,
html-keyboard-response,66,317369,0.0-8.0-0.58,5ae5db897edeb000014a85ee,650c16f0f2faf8d7a0d14c09,651c1e193cdcfaa69d32dfc1,null,null,"<p style=""font-size: 60px; font-family: BACS"">OmtlDOBT</p>",,,,,,,,,,
html-keyboard-response,67,318373,0.0-8.0-0.59,5ae5db897edeb000014a85ee,650c16f0f2faf8d7a0d14c09,651c1e193cdcfaa69d32dfc1,null,null,"<p style=""font-size: 60px; font-family: BACS"">hCktCdt</p>",,,,,,,,,,
html-keyboard-response,68,319389,0.0-8.0-0.60,5ae5db897edeb000014a85ee,650c16f0f2faf8d7a0d14c09,651c1e193cdcfaa69d32dfc1,null,null,"<p style=""font-size: 60px; font-family: BACS"">DOchlAPEM</p>",,,,,,,,,,
html-keyboard-response,69,320397,0.0-8.0-0.61,5ae5db897edeb000014a85ee,650c16f0f2faf8d7a0d14c09,651c1e193cdcfaa69d32dfc1,null,null,"<p style=""font-size: 60px; font-family: BACS"">kbmZOYArG</p>",,,,,,,,,,
html-keyboard-response,70,321401,0.0-8.0-0.62,5ae5db897edeb000014a85ee,650c16f0f2faf8d7a0d14c09,651c1e193cdcfaa69d32dfc1,null,null,"<p style=""font-size: 60px; font-family: BACS"">hCktYKPB</p>",,,,,,,,,,
html-keyboard-response,71,322403,0.0-8.0-0.63,5ae5db897edeb000014a85ee,650c16f0f2faf8d7a0d14c09,651c1e193cdcfaa69d32dfc1,null,null,"<p style=""font-size: 60px; font-family: BACS"">mrOdJUG</p>",,,,,,,,,,
html-keyboard-response,72,323407,0.0-8.0-0.64,5ae5db897edeb000014a85ee,650c16f0f2faf8d7a0d14c09,651c1e193cdcfaa69d32dfc1,null,null,"<p style=""font-size: 60px; font-family: BACS"">LdrbvNUZ</p>",,,,,,,,,,
html-keyboard-response,73,324409,0.0-8.0-0.65,5ae5db897edeb000014a85ee,650c16f0f2faf8d7a0d14c09,651c1e193cdcfaa69d32dfc1,null,null,"<p style=""font-size: 60px; font-family: BACS"">hTtBbTmc</p>",,,,,,,,,,
html-keyboard-response,74,325413,0.0-8.0-0.66,5ae5db897edeb000014a85ee,650c16f0f2faf8d7a0d14c09,651c1e193cdcfaa69d32dfc1,null,null,"<p style=""font-size: 60px; font-family: BACS"">DBlhOBT</p>",,,,,,,,,,
html-keyboard-response,75,326420,0.0-8.0-0.67,5ae5db897edeb000014a85ee,650c16f0f2faf8d7a0d14c09,651c1e193cdcfaa69d32dfc1,null,null,"<p style=""font-size: 60px; font-family: BACS"">OQarQJUG</p>",,,,,,,,,,
html-keyboard-response,76,327423,0.0-8.0-0.68,5ae5db897edeb000014a85ee,650c16f0f2faf8d7a0d14c09,651c1e193cdcfaa69d32dfc1,null,null,"<p style=""font-size: 60px; font-family: BACS"">CRdBdOBT</p>",,,,,,,,,,
html-keyboard-response,77,328429,0.0-8.0-0.69,5ae5db897edeb000014a85ee,650c16f0f2faf8d7a0d14c09,651c1e193cdcfaa69d32dfc1,null,null,"<p style=""font-size: 60px; font-family: BACS"">hCktTmc</p>",,,,,,,,,,
html-keyboard-response,78,329433,0.0-8.0-0.70,5ae5db897edeb000014a85ee,650c16f0f2faf8d7a0d14c09,651c1e193cdcfaa69d32dfc1,null,null,"<p style=""font-size: 60px; font-family: BACS"">DBlhCdt</p>",,,,,,,,,,
html-keyboard-response,79,330437,0.0-8.0-0.71,5ae5db897edeb000014a85ee,650c16f0f2faf8d7a0d14c09,651c1e193cdcfaa69d32dfc1,null,null,"<p style=""font-size: 60px; font-family: BACS"">dKDthOBT</p>",,,,,,,,,,
html-keyboard-response,80,331441,0.0-8.0-0.72,5ae5db897edeb000014a85ee,650c16f0f2faf8d7a0d14c09,651c1e193cdcfaa69d32dfc1,null,null,"<p style=""font-size: 60px; font-family: BACS"">LdrbvkdrO</p>",,,,,,,,,,
html-keyboard-response,81,332445,0.0-8.0-0.73,5ae5db897edeb000014a85ee,650c16f0f2faf8d7a0d14c09,651c1e193cdcfaa69d32dfc1,null,null,"<p style=""font-size: 60px; font-family: BACS"">kbmZOJUG</p>",,,,,,,,,,
html-keyboard-response,82,333452,0.0-8.0-0.74,5ae5db897edeb000014a85ee,650c16f0f2faf8d7a0d14c09,651c1e193cdcfaa69d32dfc1,null,null,"<p style=""font-size: 60px; font-family: BACS"">JNkakdrO</p>",,,,,,,,,,
html-keyboard-response,83,334454,0.0-8.0-0.75,5ae5db897edeb000014a85ee,650c16f0f2faf8d7a0d14c09,651c1e193cdcfaa69d32dfc1,null,null,"<p style=""font-size: 60px; font-family: BACS"">TPCbYKPB</p>",,,,,,,,,,
html-keyboard-response,84,335460,0.0-8.0-0.76,5ae5db897edeb000014a85ee,650c16f0f2faf8d7a0d14c09,651c1e193cdcfaa69d32dfc1,null,null,"<p style=""font-size: 60px; font-family: BACS"">DBPhcOBT</p>",,,,,,,,,,
html-keyboard-response,85,336465,0.0-8.0-0.77,5ae5db897edeb000014a85ee,650c16f0f2faf8d7a0d14c09,651c1e193cdcfaa69d32dfc1,null,null,"<p style=""font-size: 60px; font-family: BACS"">mrOdravu</p>",,,,,,,,,,
html-keyboard-response,86,337472,0.0-8.0-0.78,5ae5db897edeb000014a85ee,650c16f0f2faf8d7a0d14c09,651c1e193cdcfaa69d32dfc1,null,null,"<p style=""font-size: 60px; font-family: BACS"">DBPhcCdt</p>",,,,,,,,,,
html-keyboard-response,87,338477,0.0-8.0-0.79,5ae5db897edeb000014a85ee,650c16f0f2faf8d7a0d14c09,651c1e193cdcfaa69d32dfc1,null,null,"<p style=""font-size: 60px; font-family: BACS"">lGZvravu</p>",,,,,,,,,,
html-keyboard-response,88,348340,0.0-9.0,5ae5db897edeb000014a85ee,650c16f0f2faf8d7a0d14c09,651c1e193cdcfaa69d32dfc1,9863, ,"<p>Great, you've seen the first block of words. You may now take a short break.</p>
      <p>Press the spacebar when you're ready to continue.</p>",,,,,,,,,,
html-keyboard-response,89,349347,0.0-10.0-0.0,5ae5db897edeb000014a85ee,650c16f0f2faf8d7a0d14c09,651c1e193cdcfaa69d32dfc1,null,null,"<p style=""font-size: 60px; font-family: BACS"">DBlhCdt</p>",,,,,,,,,,
html-keyboard-response,90,350350,0.0-10.0-0.1,5ae5db897edeb000014a85ee,650c16f0f2faf8d7a0d14c09,651c1e193cdcfaa69d32dfc1,null,null,"<p style=""font-size: 60px; font-family: BACS"">mrOdJUG</p>",,,,,,,,,,
html-keyboard-response,91,351355,0.0-10.0-0.2,5ae5db897edeb000014a85ee,650c16f0f2faf8d7a0d14c09,651c1e193cdcfaa69d32dfc1,null,null,"<p style=""font-size: 60px; font-family: BACS"">JNkaYArG</p>",,,,,,,,,,
html-keyboard-response,92,352359,0.0-10.0-0.3,5ae5db897edeb000014a85ee,650c16f0f2faf8d7a0d14c09,651c1e193cdcfaa69d32dfc1,null,null,"<p style=""font-size: 60px; font-family: BACS"">lGZvJUG</p>",,,,,,,,,,
html-keyboard-response,93,353362,0.0-10.0-0.4,5ae5db897edeb000014a85ee,650c16f0f2faf8d7a0d14c09,651c1e193cdcfaa69d32dfc1,null,null,"<p style=""font-size: 60px; font-family: BACS"">CRdBdAPEM</p>",,,,,,,,,,
html-keyboard-response,94,354366,0.0-10.0-0.5,5ae5db897edeb000014a85ee,650c16f0f2faf8d7a0d14c09,651c1e193cdcfaa69d32dfc1,null,null,"<p style=""font-size: 60px; font-family: BACS"">kbmZONUZ</p>",,,,,,,,,,
html-keyboard-response,95,355369,0.0-10.0-0.6,5ae5db897edeb000014a85ee,650c16f0f2faf8d7a0d14c09,651c1e193cdcfaa69d32dfc1,null,null,"<p style=""font-size: 60px; font-family: BACS"">DBlhAPEM</p>",,,,,,,,,,
html-keyboard-response,96,356373,0.0-10.0-0.7,5ae5db897edeb000014a85ee,650c16f0f2faf8d7a0d14c09,651c1e193cdcfaa69d32dfc1,null,null,"<p style=""font-size: 60px; font-family: BACS"">TPCbOBT</p>",,,,,,,,,,
html-keyboard-response,97,357378,0.0-10.0-0.8,5ae5db897edeb000014a85ee,650c16f0f2faf8d7a0d14c09,651c1e193cdcfaa69d32dfc1,null,null,"<p style=""font-size: 60px; font-family: BACS"">LdrbvJUG</p>",,,,,,,,,,
html-keyboard-response,98,358383,0.0-10.0-0.9,5ae5db897edeb000014a85ee,650c16f0f2faf8d7a0d14c09,651c1e193cdcfaa69d32dfc1,null,null,"<p style=""font-size: 60px; font-family: BACS"">dKDthCdt</p>",,,,,,,,,,
html-keyboard-response,99,359386,0.0-10.0-0.10,5ae5db897edeb000014a85ee,650c16f0f2faf8d7a0d14c09,651c1e193cdcfaa69d32dfc1,null,null,"<p style=""font-size: 60px; font-family: BACS"">DBlhOBT</p>",,,,,,,,,,
html-keyboard-response,100,360392,0.0-10.0-0.11,5ae5db897edeb000014a85ee,650c16f0f2faf8d7a0d14c09,651c1e193cdcfaa69d32dfc1,null,null,"<p style=""font-size: 60px; font-family: BACS"">mrOdNUZ</p>",,,,,,,,,,
html-keyboard-response,101,361393,0.0-10.0-0.12,5ae5db897edeb000014a85ee,650c16f0f2faf8d7a0d14c09,651c1e193cdcfaa69d32dfc1,null,null,"<p style=""font-size: 60px; font-family: BACS"">krGuJUG</p>",,,,,,,,,,
html-keyboard-response,102,362396,0.0-10.0-0.13,5ae5db897edeb000014a85ee,650c16f0f2faf8d7a0d14c09,651c1e193cdcfaa69d32dfc1,null,null,"<p style=""font-size: 60px; font-family: BACS"">JNkakdrO</p>",,,,,,,,,,
html-keyboard-response,103,363399,0.0-10.0-0.14,5ae5db897edeb000014a85ee,650c16f0f2faf8d7a0d14c09,651c1e193cdcfaa69d32dfc1,null,null,"<p style=""font-size: 60px; font-family: BACS"">TbKMETmc</p>",,,,,,,,,,
html-keyboard-response,104,364404,0.0-10.0-0.15,5ae5db897edeb000014a85ee,650c16f0f2faf8d7a0d14c09,651c1e193cdcfaa69d32dfc1,null,null,"<p style=""font-size: 60px; font-family: BACS"">Ldrbvravu</p>",,,,,,,,,,
html-keyboard-response,105,365409,0.0-10.0-0.16,5ae5db897edeb000014a85ee,650c16f0f2faf8d7a0d14c09,651c1e193cdcfaa69d32dfc1,null,null,"<p style=""font-size: 60px; font-family: BACS"">bYGOZYArG</p>",,,,,,,,,,
html-keyboard-response,106,366414,0.0-10.0-0.17,5ae5db897edeb000014a85ee,650c16f0f2faf8d7a0d14c09,651c1e193cdcfaa69d32dfc1,null,null,"<p style=""font-size: 60px; font-family: BACS"">dKDthOBT</p>",,,,,,,,,,
html-keyboard-response,107,367421,0.0-10.0-0.18,5ae5db897edeb000014a85ee,650c16f0f2faf8d7a0d14c09,651c1e193cdcfaa69d32dfc1,null,null,"<p style=""font-size: 60px; font-family: BACS"">DOchlYKPB</p>",,,,,,,,,,
html-keyboard-response,108,368425,0.0-10.0-0.19,5ae5db897edeb000014a85ee,650c16f0f2faf8d7a0d14c09,651c1e193cdcfaa69d32dfc1,null,null,"<p style=""font-size: 60px; font-family: BACS"">krGuravu</p>",,,,,,,,,,
html-keyboard-response,109,369431,0.0-10.0-0.20,5ae5db897edeb000014a85ee,650c16f0f2faf8d7a0d14c09,651c1e193cdcfaa69d32dfc1,null,null,"<p style=""font-size: 60px; font-family: BACS"">ZNLOvkdrO</p>",,,,,,,,,,
html-keyboard-response,110,370436,0.0-10.0-0.21,5ae5db897edeb000014a85ee,650c16f0f2faf8d7a0d14c09,651c1e193cdcfaa69d32dfc1,null,null,"<p style=""font-size: 60px; font-family: BACS"">LdrbvNUZ</p>",,,,,,,,,,
html-keyboard-response,111,371440,0.0-10.0-0.22,5ae5db897edeb000014a85ee,650c16f0f2faf8d7a0d14c09,651c1e193cdcfaa69d32dfc1,null,null,"<p style=""font-size: 60px; font-family: BACS"">ZNLOvravu</p>",,,,,,,,,,
html-keyboard-response,112,372447,0.0-10.0-0.23,5ae5db897edeb000014a85ee,650c16f0f2faf8d7a0d14c09,651c1e193cdcfaa69d32dfc1,null,null,"<p style=""font-size: 60px; font-family: BACS"">kbmZOYArG</p>",,,,,,,,,,
html-keyboard-response,113,373453,0.0-10.0-0.24,5ae5db897edeb000014a85ee,650c16f0f2faf8d7a0d14c09,651c1e193cdcfaa69d32dfc1,null,null,"<p style=""font-size: 60px; font-family: BACS"">hCktTmc</p>",,,,,,,,,,
html-keyboard-response,114,374459,0.0-10.0-0.25,5ae5db897edeb000014a85ee,650c16f0f2faf8d7a0d14c09,651c1e193cdcfaa69d32dfc1,null,null,"<p style=""font-size: 60px; font-family: BACS"">OQarQYArG</p>",,,,,,,,,,
html-keyboard-response,115,375464,0.0-10.0-0.26,5ae5db897edeb000014a85ee,650c16f0f2faf8d7a0d14c09,651c1e193cdcfaa69d32dfc1,null,null,"<p style=""font-size: 60px; font-family: BACS"">CRdBdOBT</p>",,,,,,,,,,
html-keyboard-response,116,376469,0.0-10.0-0.27,5ae5db897edeb000014a85ee,650c16f0f2faf8d7a0d14c09,651c1e193cdcfaa69d32dfc1,null,null,"<p style=""font-size: 60px; font-family: BACS"">TPCbTmc</p>",,,,,,,,,,
html-keyboard-response,117,377474,0.0-10.0-0.28,5ae5db897edeb000014a85ee,650c16f0f2faf8d7a0d14c09,651c1e193cdcfaa69d32dfc1,null,null,"<p style=""font-size: 60px; font-family: BACS"">krGuNUZ</p>",,,,,,,,,,
html-keyboard-response,118,378478,0.0-10.0-0.29,5ae5db897edeb000014a85ee,650c16f0f2faf8d7a0d14c09,651c1e193cdcfaa69d32dfc1,null,null,"<p style=""font-size: 60px; font-family: BACS"">lGZvYArG</p>",,,,,,,,,,
html-keyboard-response,119,379483,0.0-10.0-0.30,5ae5db897edeb000014a85ee,650c16f0f2faf8d7a0d14c09,651c1e193cdcfaa69d32dfc1,null,null,"<p style=""font-size: 60px; font-family: BACS"">TPCbAPEM</p>",,,,,,,,,,
html-keyboard-response,120,380488,0.0-10.0-0.31,5ae5db897edeb000014a85ee,650c16f0f2faf8d7a0d14c09,651c1e193cdcfaa69d32dfc1,null,null,"<p style=""font-size: 60px; font-family: BACS"">lGZvkdrO</p>",,,,,,,,,,
html-keyboard-response,121,381495,0.0-10.0-0.32,5ae5db897edeb000014a85ee,650c16f0f2faf8d7a0d14c09,651c1e193cdcfaa69d32dfc1,null,null,"<p style=""font-size: 60px; font-family: BACS"">JNkaJUG</p>",,,,,,,,,,
html-keyboard-response,122,382498,0.0-10.0-0.33,5ae5db897edeb000014a85ee,650c16f0f2faf8d7a0d14c09,651c1e193cdcfaa69d32dfc1,null,null,"<p style=""font-size: 60px; font-family: BACS"">CRdBdYKPB</p>",,,,,,,,,,
html-keyboard-response,123,383503,0.0-10.0-0.34,5ae5db897edeb000014a85ee,650c16f0f2faf8d7a0d14c09,651c1e193cdcfaa69d32dfc1,null,null,"<p style=""font-size: 60px; font-family: BACS"">TbKMECdt</p>",,,,,,,,,,
html-keyboard-response,124,384508,0.0-10.0-0.35,5ae5db897edeb000014a85ee,650c16f0f2faf8d7a0d14c09,651c1e193cdcfaa69d32dfc1,null,null,"<p style=""font-size: 60px; font-family: BACS"">krGuYArG</p>",,,,,,,,,,
html-keyboard-response,125,385513,0.0-10.0-0.36,5ae5db897edeb000014a85ee,650c16f0f2faf8d7a0d14c09,651c1e193cdcfaa69d32dfc1,null,null,"<p style=""font-size: 60px; font-family: BACS"">DBPhcCdt</p>",,,,,,,,,,
html-keyboard-response,126,386517,0.0-10.0-0.37,5ae5db897edeb000014a85ee,650c16f0f2faf8d7a0d14c09,651c1e193cdcfaa69d32dfc1,null,null,"<p style=""font-size: 60px; font-family: BACS"">hCktYKPB</p>",,,,,,,,,,
html-keyboard-response,127,387523,0.0-10.0-0.38,5ae5db897edeb000014a85ee,650c16f0f2faf8d7a0d14c09,651c1e193cdcfaa69d32dfc1,null,null,"<p style=""font-size: 60px; font-family: BACS"">kbmZOkdrO</p>",,,,,,,,,,
html-keyboard-response,128,388528,0.0-10.0-0.39,5ae5db897edeb000014a85ee,650c16f0f2faf8d7a0d14c09,651c1e193cdcfaa69d32dfc1,null,null,"<p style=""font-size: 60px; font-family: BACS"">hTtBbTmc</p>",,,,,,,,,,
html-keyboard-response,129,389533,0.0-10.0-0.40,5ae5db897edeb000014a85ee,650c16f0f2faf8d7a0d14c09,651c1e193cdcfaa69d32dfc1,null,null,"<p style=""font-size: 60px; font-family: BACS"">bYGOZkdrO</p>",,,,,,,,,,
html-keyboard-response,130,390539,0.0-10.0-0.41,5ae5db897edeb000014a85ee,650c16f0f2faf8d7a0d14c09,651c1e193cdcfaa69d32dfc1,null,null,"<p style=""font-size: 60px; font-family: BACS"">OmtlDTmc</p>",,,,,,,,,,
html-keyboard-response,131,391545,0.0-10.0-0.42,5ae5db897edeb000014a85ee,650c16f0f2faf8d7a0d14c09,651c1e193cdcfaa69d32dfc1,null,null,"<p style=""font-size: 60px; font-family: BACS"">mrOdkdrO</p>",,,,,,,,,,
html-keyboard-response,132,392549,0.0-10.0-0.43,5ae5db897edeb000014a85ee,650c16f0f2faf8d7a0d14c09,651c1e193cdcfaa69d32dfc1,null,null,"<p style=""font-size: 60px; font-family: BACS"">bYGOZravu</p>",,,,,,,,,,
html-keyboard-response,133,393552,0.0-10.0-0.44,5ae5db897edeb000014a85ee,650c16f0f2faf8d7a0d14c09,651c1e193cdcfaa69d32dfc1,null,null,"<p style=""font-size: 60px; font-family: BACS"">hCktCdt</p>",,,,,,,,,,
html-keyboard-response,134,394557,0.0-10.0-0.45,5ae5db897edeb000014a85ee,650c16f0f2faf8d7a0d14c09,651c1e193cdcfaa69d32dfc1,null,null,"<p style=""font-size: 60px; font-family: BACS"">hTtBbYKPB</p>",,,,,,,,,,
html-keyboard-response,135,395560,0.0-10.0-0.46,5ae5db897edeb000014a85ee,650c16f0f2faf8d7a0d14c09,651c1e193cdcfaa69d32dfc1,null,null,"<p style=""font-size: 60px; font-family: BACS"">mrOdravu</p>",,,,,,,,,,
html-keyboard-response,136,396565,0.0-10.0-0.47,5ae5db897edeb000014a85ee,650c16f0f2faf8d7a0d14c09,651c1e193cdcfaa69d32dfc1,null,null,"<p style=""font-size: 60px; font-family: BACS"">hTtBbCdt</p>",,,,,,,,,,
html-keyboard-response,137,397574,0.0-10.0-0.48,5ae5db897edeb000014a85ee,650c16f0f2faf8d7a0d14c09,651c1e193cdcfaa69d32dfc1,null,null,"<p style=""font-size: 60px; font-family: BACS"">hCktAPEM</p>",,,,,,,,,,
html-keyboard-response,138,398578,0.0-10.0-0.49,5ae5db897edeb000014a85ee,650c16f0f2faf8d7a0d14c09,651c1e193cdcfaa69d32dfc1,null,null,"<p style=""font-size: 60px; font-family: BACS"">ZNLOvNUZ</p>",,,,,,,,,,
html-keyboard-response,139,399594,0.0-10.0-0.50,5ae5db897edeb000014a85ee,650c16f0f2faf8d7a0d14c09,651c1e193cdcfaa69d32dfc1,null,null,"<p style=""font-size: 60px; font-family: BACS"">GJGcZYArG</p>",,,,,,,,,,
html-keyboard-response,140,400595,0.0-10.0-0.51,5ae5db897edeb000014a85ee,650c16f0f2faf8d7a0d14c09,651c1e193cdcfaa69d32dfc1,null,null,"<p style=""font-size: 60px; font-family: BACS"">TbKMEYKPB</p>",,,,,,,,,,
html-keyboard-response,141,401595,0.0-10.0-0.52,5ae5db897edeb000014a85ee,650c16f0f2faf8d7a0d14c09,651c1e193cdcfaa69d32dfc1,null,null,"<p style=""font-size: 60px; font-family: BACS"">CRdBdCdt</p>",,,,,,,,,,
html-keyboard-response,142,402598,0.0-10.0-0.53,5ae5db897edeb000014a85ee,650c16f0f2faf8d7a0d14c09,651c1e193cdcfaa69d32dfc1,null,null,"<p style=""font-size: 60px; font-family: BACS"">bYGOZNUZ</p>",,,,,,,,,,
html-keyboard-response,143,403604,0.0-10.0-0.54,5ae5db897edeb000014a85ee,650c16f0f2faf8d7a0d14c09,651c1e193cdcfaa69d32dfc1,null,null,"<p style=""font-size: 60px; font-family: BACS"">DOchlOBT</p>",,,,,,,,,,
html-keyboard-response,144,404608,0.0-10.0-0.55,5ae5db897edeb000014a85ee,650c16f0f2faf8d7a0d14c09,651c1e193cdcfaa69d32dfc1,null,null,"<p style=""font-size: 60px; font-family: BACS"">GJGcZNUZ</p>",,,,,,,,,,
html-keyboard-response,145,405614,0.0-10.0-0.56,5ae5db897edeb000014a85ee,650c16f0f2faf8d7a0d14c09,651c1e193cdcfaa69d32dfc1,null,null,"<p style=""font-size: 60px; font-family: BACS"">dKDthTmc</p>",,,,,,,,,,
html-keyboard-response,146,406620,0.0-10.0-0.57,5ae5db897edeb000014a85ee,650c16f0f2faf8d7a0d14c09,651c1e193cdcfaa69d32dfc1,null,null,"<p style=""font-size: 60px; font-family: BACS"">DBPhcYKPB</p>",,,,,,,,,,
html-keyboard-response,147,407626,0.0-10.0-0.58,5ae5db897edeb000014a85ee,650c16f0f2faf8d7a0d14c09,651c1e193cdcfaa69d32dfc1,null,null,"<p style=""font-size: 60px; font-family: BACS"">DOchlTmc</p>",,,,,,,,,,
html-keyboard-response,148,408633,0.0-10.0-0.59,5ae5db897edeb000014a85ee,650c16f0f2faf8d7a0d14c09,651c1e193cdcfaa69d32dfc1,null,null,"<p style=""font-size: 60px; font-family: BACS"">OmtlDOBT</p>",,,,,,,,,,
html-keyboard-response,149,409637,0.0-10.0-0.60,5ae5db897edeb000014a85ee,650c16f0f2faf8d7a0d14c09,651c1e193cdcfaa69d32dfc1,null,null,"<p style=""font-size: 60px; font-family: BACS"">OQarQravu</p>",,,,,,,,,,
html-keyboard-response,150,410644,0.0-10.0-0.61,5ae5db897edeb000014a85ee,650c16f0f2faf8d7a0d14c09,651c1e193cdcfaa69d32dfc1,null,null,"<p style=""font-size: 60px; font-family: BACS"">hTtBbAPEM</p>",,,,,,,,,,
html-keyboard-response,151,411650,0.0-10.0-0.62,5ae5db897edeb000014a85ee,650c16f0f2faf8d7a0d14c09,651c1e193cdcfaa69d32dfc1,null,null,"<p style=""font-size: 60px; font-family: BACS"">TbKMEOBT</p>",,,,,,,,,,
html-keyboard-response,152,412655,0.0-10.0-0.63,5ae5db897edeb000014a85ee,650c16f0f2faf8d7a0d14c09,651c1e193cdcfaa69d32dfc1,null,null,"<p style=""font-size: 60px; font-family: BACS"">OQarQkdrO</p>",,,,,,,,,,
html-keyboard-response,153,413676,0.0-10.0-0.64,5ae5db897edeb000014a85ee,650c16f0f2faf8d7a0d14c09,651c1e193cdcfaa69d32dfc1,null,null,"<p style=""font-size: 60px; font-family: BACS"">DOchlAPEM</p>",,,,,,,,,,
html-keyboard-response,154,414679,0.0-10.0-0.65,5ae5db897edeb000014a85ee,650c16f0f2faf8d7a0d14c09,651c1e193cdcfaa69d32dfc1,null,null,"<p style=""font-size: 60px; font-family: BACS"">DBPhcOBT</p>",,,,,,,,,,
html-keyboard-response,155,415686,0.0-10.0-0.66,5ae5db897edeb000014a85ee,650c16f0f2faf8d7a0d14c09,651c1e193cdcfaa69d32dfc1,null,null,"<p style=""font-size: 60px; font-family: BACS"">TPCbYKPB</p>",,,,,,,,,,
html-keyboard-response,156,416691,0.0-10.0-0.67,5ae5db897edeb000014a85ee,650c16f0f2faf8d7a0d14c09,651c1e193cdcfaa69d32dfc1,null,null,"<p style=""font-size: 60px; font-family: BACS"">GJGcZravu</p>",,,,,,,,,,
html-keyboard-response,157,417698,0.0-10.0-0.68,5ae5db897edeb000014a85ee,650c16f0f2faf8d7a0d14c09,651c1e193cdcfaa69d32dfc1,null,null,"<p style=""font-size: 60px; font-family: BACS"">dKDthAPEM</p>",,,,,,,,,,
html-keyboard-response,158,418703,0.0-10.0-0.69,5ae5db897edeb000014a85ee,650c16f0f2faf8d7a0d14c09,651c1e193cdcfaa69d32dfc1,null,null,"<p style=""font-size: 60px; font-family: BACS"">OmtlDCdt</p>",,,,,,,,,,
html-keyboard-response,159,419709,0.0-10.0-0.70,5ae5db897edeb000014a85ee,650c16f0f2faf8d7a0d14c09,651c1e193cdcfaa69d32dfc1,null,null,"<p style=""font-size: 60px; font-family: BACS"">kbmZOJUG</p>",,,,,,,,,,
html-keyboard-response,160,420713,0.0-10.0-0.71,5ae5db897edeb000014a85ee,650c16f0f2faf8d7a0d14c09,651c1e193cdcfaa69d32dfc1,null,null,"<p style=""font-size: 60px; font-family: BACS"">lGZvravu</p>",,,,,,,,,,
html-keyboard-response,161,421718,0.0-10.0-0.72,5ae5db897edeb000014a85ee,650c16f0f2faf8d7a0d14c09,651c1e193cdcfaa69d32dfc1,null,null,"<p style=""font-size: 60px; font-family: BACS"">LdrbvkdrO</p>",,,,,,,,,,
html-keyboard-response,162,422724,0.0-10.0-0.73,5ae5db897edeb000014a85ee,650c16f0f2faf8d7a0d14c09,651c1e193cdcfaa69d32dfc1,null,null,"<p style=""font-size: 60px; font-family: BACS"">DBlhTmc</p>",,,,,,,,,,
html-keyboard-response,163,423729,0.0-10.0-0.74,5ae5db897edeb000014a85ee,650c16f0f2faf8d7a0d14c09,651c1e193cdcfaa69d32dfc1,null,null,"<p style=""font-size: 60px; font-family: BACS"">JNkaNUZ</p>",,,,,,,,,,
html-keyboard-response,164,424732,0.0-10.0-0.75,5ae5db897edeb000014a85ee,650c16f0f2faf8d7a0d14c09,651c1e193cdcfaa69d32dfc1,null,null,"<p style=""font-size: 60px; font-family: BACS"">GJGcZJUG</p>",,,,,,,,,,
html-keyboard-response,165,425738,0.0-10.0-0.76,5ae5db897edeb000014a85ee,650c16f0f2faf8d7a0d14c09,651c1e193cdcfaa69d32dfc1,null,null,"<p style=""font-size: 60px; font-family: BACS"">OmtlDYKPB</p>",,,,,,,,,,
html-keyboard-response,166,426741,0.0-10.0-0.77,5ae5db897edeb000014a85ee,650c16f0f2faf8d7a0d14c09,651c1e193cdcfaa69d32dfc1,null,null,"<p style=""font-size: 60px; font-family: BACS"">DBPhcAPEM</p>",,,,,,,,,,
html-keyboard-response,167,427746,0.0-10.0-0.78,5ae5db897edeb000014a85ee,650c16f0f2faf8d7a0d14c09,651c1e193cdcfaa69d32dfc1,null,null,"<p style=""font-size: 60px; font-family: BACS"">ZNLOvYArG</p>",,,,,,,,,,
html-keyboard-response,168,428753,0.0-10.0-0.79,5ae5db897edeb000014a85ee,650c16f0f2faf8d7a0d14c09,651c1e193cdcfaa69d32dfc1,null,null,"<p style=""font-size: 60px; font-family: BACS"">OQarQJUG</p>",,,,,,,,,,
html-keyboard-response,169,433142,0.0-11.0,5ae5db897edeb000014a85ee,650c16f0f2faf8d7a0d14c09,651c1e193cdcfaa69d32dfc1,4389, ,"<p>Great, you've seen the second block of words. You may now take a short break.</p>
      <p>Press the spacebar when you're ready to continue.</p>",,,,,,,,,,
html-keyboard-response,170,434143,0.0-12.0-0.0,5ae5db897edeb000014a85ee,650c16f0f2faf8d7a0d14c09,651c1e193cdcfaa69d32dfc1,null,null,"<p style=""font-size: 60px; font-family: BACS"">lGZvkdrO</p>",,,,,,,,,,
html-keyboard-response,171,435148,0.0-12.0-0.1,5ae5db897edeb000014a85ee,650c16f0f2faf8d7a0d14c09,651c1e193cdcfaa69d32dfc1,null,null,"<p style=""font-size: 60px; font-family: BACS"">TbKMEYKPB</p>",,,,,,,,,,
html-keyboard-response,172,436153,0.0-12.0-0.2,5ae5db897edeb000014a85ee,650c16f0f2faf8d7a0d14c09,651c1e193cdcfaa69d32dfc1,null,null,"<p style=""font-size: 60px; font-family: BACS"">kbmZOkdrO</p>",,,,,,,,,,
html-keyboard-response,173,437156,0.0-12.0-0.3,5ae5db897edeb000014a85ee,650c16f0f2faf8d7a0d14c09,651c1e193cdcfaa69d32dfc1,null,null,"<p style=""font-size: 60px; font-family: BACS"">CRdBdYKPB</p>",,,,,,,,,,
html-keyboard-response,174,438162,0.0-12.0-0.4,5ae5db897edeb000014a85ee,650c16f0f2faf8d7a0d14c09,651c1e193cdcfaa69d32dfc1,null,null,"<p style=""font-size: 60px; font-family: BACS"">DOchlTmc</p>",,,,,,,,,,
html-keyboard-response,175,439167,0.0-12.0-0.5,5ae5db897edeb000014a85ee,650c16f0f2faf8d7a0d14c09,651c1e193cdcfaa69d32dfc1,null,null,"<p style=""font-size: 60px; font-family: BACS"">mrOdkdrO</p>",,,,,,,,,,
html-keyboard-response,176,440170,0.0-12.0-0.6,5ae5db897edeb000014a85ee,650c16f0f2faf8d7a0d14c09,651c1e193cdcfaa69d32dfc1,null,null,"<p style=""font-size: 60px; font-family: BACS"">ZNLOvYArG</p>",,,,,,,,,,
html-keyboard-response,177,441197,0.0-12.0-0.7,5ae5db897edeb000014a85ee,650c16f0f2faf8d7a0d14c09,651c1e193cdcfaa69d32dfc1,null,null,"<p style=""font-size: 60px; font-family: BACS"">DOchlAPEM</p>",,,,,,,,,,
html-keyboard-response,178,442202,0.0-12.0-0.8,5ae5db897edeb000014a85ee,650c16f0f2faf8d7a0d14c09,651c1e193cdcfaa69d32dfc1,null,null,"<p style=""font-size: 60px; font-family: BACS"">LdrbvNUZ</p>",,,,,,,,,,
html-keyboard-response,179,443207,0.0-12.0-0.9,5ae5db897edeb000014a85ee,650c16f0f2faf8d7a0d14c09,651c1e193cdcfaa69d32dfc1,null,null,"<p style=""font-size: 60px; font-family: BACS"">OmtlDYKPB</p>",,,,,,,,,,
html-keyboard-response,180,444214,0.0-12.0-0.10,5ae5db897edeb000014a85ee,650c16f0f2faf8d7a0d14c09,651c1e193cdcfaa69d32dfc1,null,null,"<p style=""font-size: 60px; font-family: BACS"">kbmZOYArG</p>",,,,,,,,,,
html-keyboard-response,181,445222,0.0-12.0-0.11,5ae5db897edeb000014a85ee,650c16f0f2faf8d7a0d14c09,651c1e193cdcfaa69d32dfc1,null,null,"<p style=""font-size: 60px; font-family: BACS"">hCktAPEM</p>",,,,,,,,,,
html-keyboard-response,182,446226,0.0-12.0-0.12,5ae5db897edeb000014a85ee,650c16f0f2faf8d7a0d14c09,651c1e193cdcfaa69d32dfc1,null,null,"<p style=""font-size: 60px; font-family: BACS"">LdrbvJUG</p>",,,,,,,,,,
html-keyboard-response,183,447232,0.0-12.0-0.13,5ae5db897edeb000014a85ee,650c16f0f2faf8d7a0d14c09,651c1e193cdcfaa69d32dfc1,null,null,"<p style=""font-size: 60px; font-family: BACS"">TbKMECdt</p>",,,,,,,,,,
html-keyboard-response,184,448237,0.0-12.0-0.14,5ae5db897edeb000014a85ee,650c16f0f2faf8d7a0d14c09,651c1e193cdcfaa69d32dfc1,null,null,"<p style=""font-size: 60px; font-family: BACS"">dKDthTmc</p>",,,,,,,,,,
html-keyboard-response,185,449243,0.0-12.0-0.15,5ae5db897edeb000014a85ee,650c16f0f2faf8d7a0d14c09,651c1e193cdcfaa69d32dfc1,null,null,"<p style=""font-size: 60px; font-family: BACS"">GJGcZNUZ</p>",,,,,,,,,,
html-keyboard-response,186,450249,0.0-12.0-0.16,5ae5db897edeb000014a85ee,650c16f0f2faf8d7a0d14c09,651c1e193cdcfaa69d32dfc1,null,null,"<p style=""font-size: 60px; font-family: BACS"">TPCbOBT</p>",,,,,,,,,,
html-keyboard-response,187,451255,0.0-12.0-0.17,5ae5db897edeb000014a85ee,650c16f0f2faf8d7a0d14c09,651c1e193cdcfaa69d32dfc1,null,null,"<p style=""font-size: 60px; font-family: BACS"">DBPhcCdt</p>",,,,,,,,,,
html-keyboard-response,188,452261,0.0-12.0-0.18,5ae5db897edeb000014a85ee,650c16f0f2faf8d7a0d14c09,651c1e193cdcfaa69d32dfc1,null,null,"<p style=""font-size: 60px; font-family: BACS"">DOchlYKPB</p>",,,,,,,,,,
html-keyboard-response,189,453267,0.0-12.0-0.19,5ae5db897edeb000014a85ee,650c16f0f2faf8d7a0d14c09,651c1e193cdcfaa69d32dfc1,null,null,"<p style=""font-size: 60px; font-family: BACS"">kbmZONUZ</p>",,,,,,,,,,
html-keyboard-response,190,454272,0.0-12.0-0.20,5ae5db897edeb000014a85ee,650c16f0f2faf8d7a0d14c09,651c1e193cdcfaa69d32dfc1,null,null,"<p style=""font-size: 60px; font-family: BACS"">DBlhAPEM</p>",,,,,,,,,,
html-keyboard-response,191,455278,0.0-12.0-0.21,5ae5db897edeb000014a85ee,650c16f0f2faf8d7a0d14c09,651c1e193cdcfaa69d32dfc1,null,null,"<p style=""font-size: 60px; font-family: BACS"">bYGOZNUZ</p>",,,,,,,,,,
html-keyboard-response,192,456284,0.0-12.0-0.22,5ae5db897edeb000014a85ee,650c16f0f2faf8d7a0d14c09,651c1e193cdcfaa69d32dfc1,null,null,"<p style=""font-size: 60px; font-family: BACS"">hTtBbAPEM</p>",,,,,,,,,,
html-keyboard-response,193,457289,0.0-12.0-0.23,5ae5db897edeb000014a85ee,650c16f0f2faf8d7a0d14c09,651c1e193cdcfaa69d32dfc1,null,null,"<p style=""font-size: 60px; font-family: BACS"">JNkakdrO</p>",,,,,,,,,,
html-keyboard-response,194,458294,0.0-12.0-0.24,5ae5db897edeb000014a85ee,650c16f0f2faf8d7a0d14c09,651c1e193cdcfaa69d32dfc1,null,null,"<p style=""font-size: 60px; font-family: BACS"">DBPhcYKPB</p>",,,,,,,,,,
html-keyboard-response,195,459300,0.0-12.0-0.25,5ae5db897edeb000014a85ee,650c16f0f2faf8d7a0d14c09,651c1e193cdcfaa69d32dfc1,null,null,"<p style=""font-size: 60px; font-family: BACS"">dKDthOBT</p>",,,,,,,,,,
html-keyboard-response,196,460305,0.0-12.0-0.26,5ae5db897edeb000014a85ee,650c16f0f2faf8d7a0d14c09,651c1e193cdcfaa69d32dfc1,null,null,"<p style=""font-size: 60px; font-family: BACS"">OQarQYArG</p>",,,,,,,,,,
html-keyboard-response,197,461311,0.0-12.0-0.27,5ae5db897edeb000014a85ee,650c16f0f2faf8d7a0d14c09,651c1e193cdcfaa69d32dfc1,null,null,"<p style=""font-size: 60px; font-family: BACS"">Ldrbvravu</p>",,,,,,,,,,
html-keyboard-response,198,462317,0.0-12.0-0.28,5ae5db897edeb000014a85ee,650c16f0f2faf8d7a0d14c09,651c1e193cdcfaa69d32dfc1,null,null,"<p style=""font-size: 60px; font-family: BACS"">hCktCdt</p>",,,,,,,,,,
html-keyboard-response,199,463324,0.0-12.0-0.29,5ae5db897edeb000014a85ee,650c16f0f2faf8d7a0d14c09,651c1e193cdcfaa69d32dfc1,null,null,"<p style=""font-size: 60px; font-family: BACS"">bYGOZravu</p>",,,,,,,,,,
html-keyboard-response,200,464329,0.0-12.0-0.30,5ae5db897edeb000014a85ee,650c16f0f2faf8d7a0d14c09,651c1e193cdcfaa69d32dfc1,null,null,"<p style=""font-size: 60px; font-family: BACS"">krGuYArG</p>",,,,,,,,,,
html-keyboard-response,201,465333,0.0-12.0-0.31,5ae5db897edeb000014a85ee,650c16f0f2faf8d7a0d14c09,651c1e193cdcfaa69d32dfc1,null,null,"<p style=""font-size: 60px; font-family: BACS"">TbKMEOBT</p>",,,,,,,,,,
html-keyboard-response,202,466338,0.0-12.0-0.32,5ae5db897edeb000014a85ee,650c16f0f2faf8d7a0d14c09,651c1e193cdcfaa69d32dfc1,null,null,"<p style=""font-size: 60px; font-family: BACS"">hTtBbCdt</p>",,,,,,,,,,
html-keyboard-response,203,467343,0.0-12.0-0.33,5ae5db897edeb000014a85ee,650c16f0f2faf8d7a0d14c09,651c1e193cdcfaa69d32dfc1,null,null,"<p style=""font-size: 60px; font-family: BACS"">DBlhTmc</p>",,,,,,,,,,
html-keyboard-response,204,468350,0.0-12.0-0.34,5ae5db897edeb000014a85ee,650c16f0f2faf8d7a0d14c09,651c1e193cdcfaa69d32dfc1,null,null,"<p style=""font-size: 60px; font-family: BACS"">krGuravu</p>",,,,,,,,,,
html-keyboard-response,205,469356,0.0-12.0-0.35,5ae5db897edeb000014a85ee,650c16f0f2faf8d7a0d14c09,651c1e193cdcfaa69d32dfc1,null,null,"<p style=""font-size: 60px; font-family: BACS"">DBlhCdt</p>",,,,,,,,,,
html-keyboard-response,206,470358,0.0-12.0-0.36,5ae5db897edeb000014a85ee,650c16f0f2faf8d7a0d14c09,651c1e193cdcfaa69d32dfc1,null,null,"<p style=""font-size: 60px; font-family: BACS"">OQarQJUG</p>",,,,,,,,,,
html-keyboard-response,207,471365,0.0-12.0-0.37,5ae5db897edeb000014a85ee,650c16f0f2faf8d7a0d14c09,651c1e193cdcfaa69d32dfc1,null,null,"<p style=""font-size: 60px; font-family: BACS"">GJGcZravu</p>",,,,,,,,,,
html-keyboard-response,208,472370,0.0-12.0-0.38,5ae5db897edeb000014a85ee,650c16f0f2faf8d7a0d14c09,651c1e193cdcfaa69d32dfc1,null,null,"<p style=""font-size: 60px; font-family: BACS"">JNkaYArG</p>",,,,,,,,,,
html-keyboard-response,209,473374,0.0-12.0-0.39,5ae5db897edeb000014a85ee,650c16f0f2faf8d7a0d14c09,651c1e193cdcfaa69d32dfc1,null,null,"<p style=""font-size: 60px; font-family: BACS"">dKDthAPEM</p>",,,,,,,,,,
html-keyboard-response,210,474380,0.0-12.0-0.40,5ae5db897edeb000014a85ee,650c16f0f2faf8d7a0d14c09,651c1e193cdcfaa69d32dfc1,null,null,"<p style=""font-size: 60px; font-family: BACS"">JNkaNUZ</p>",,,,,,,,,,
html-keyboard-response,211,475384,0.0-12.0-0.41,5ae5db897edeb000014a85ee,650c16f0f2faf8d7a0d14c09,651c1e193cdcfaa69d32dfc1,null,null,"<p style=""font-size: 60px; font-family: BACS"">TPCbYKPB</p>",,,,,,,,,,
html-keyboard-response,212,476390,0.0-12.0-0.42,5ae5db897edeb000014a85ee,650c16f0f2faf8d7a0d14c09,651c1e193cdcfaa69d32dfc1,null,null,"<p style=""font-size: 60px; font-family: BACS"">CRdBdAPEM</p>",,,,,,,,,,
html-keyboard-response,213,477396,0.0-12.0-0.43,5ae5db897edeb000014a85ee,650c16f0f2faf8d7a0d14c09,651c1e193cdcfaa69d32dfc1,null,null,"<p style=""font-size: 60px; font-family: BACS"">OQarQkdrO</p>",,,,,,,,,,
html-keyboard-response,214,478402,0.0-12.0-0.44,5ae5db897edeb000014a85ee,650c16f0f2faf8d7a0d14c09,651c1e193cdcfaa69d32dfc1,null,null,"<p style=""font-size: 60px; font-family: BACS"">hTtBbYKPB</p>",,,,,,,,,,
html-keyboard-response,215,479407,0.0-12.0-0.45,5ae5db897edeb000014a85ee,650c16f0f2faf8d7a0d14c09,651c1e193cdcfaa69d32dfc1,null,null,"<p style=""font-size: 60px; font-family: BACS"">LdrbvkdrO</p>",,,,,,,,,,
html-keyboard-response,216,480415,0.0-12.0-0.46,5ae5db897edeb000014a85ee,650c16f0f2faf8d7a0d14c09,651c1e193cdcfaa69d32dfc1,null,null,"<p style=""font-size: 60px; font-family: BACS"">mrOdNUZ</p>",,,,,,,,,,
html-keyboard-response,217,481416,0.0-12.0-0.47,5ae5db897edeb000014a85ee,650c16f0f2faf8d7a0d14c09,651c1e193cdcfaa69d32dfc1,null,null,"<p style=""font-size: 60px; font-family: BACS"">hCktTmc</p>",,,,,,,,,,
html-keyboard-response,218,482426,0.0-12.0-0.48,5ae5db897edeb000014a85ee,650c16f0f2faf8d7a0d14c09,651c1e193cdcfaa69d32dfc1,null,null,"<p style=""font-size: 60px; font-family: BACS"">ZNLOvkdrO</p>",,,,,,,,,,
html-keyboard-response,219,483443,0.0-12.0-0.49,5ae5db897edeb000014a85ee,650c16f0f2faf8d7a0d14c09,651c1e193cdcfaa69d32dfc1,null,null,"<p style=""font-size: 60px; font-family: BACS"">OmtlDOBT</p>",,,,,,,,,,
html-keyboard-response,220,484449,0.0-12.0-0.50,5ae5db897edeb000014a85ee,650c16f0f2faf8d7a0d14c09,651c1e193cdcfaa69d32dfc1,null,null,"<p style=""font-size: 60px; font-family: BACS"">CRdBdCdt</p>",,,,,,,,,,
html-keyboard-response,221,485455,0.0-12.0-0.51,5ae5db897edeb000014a85ee,650c16f0f2faf8d7a0d14c09,651c1e193cdcfaa69d32dfc1,null,null,"<p style=""font-size: 60px; font-family: BACS"">DBlhOBT</p>",,,,,,,,,,
html-keyboard-response,222,486461,0.0-12.0-0.52,5ae5db897edeb000014a85ee,650c16f0f2faf8d7a0d14c09,651c1e193cdcfaa69d32dfc1,null,null,"<p style=""font-size: 60px; font-family: BACS"">mrOdJUG</p>",,,,,,,,,,
html-keyboard-response,223,487472,0.0-12.0-0.53,5ae5db897edeb000014a85ee,650c16f0f2faf8d7a0d14c09,651c1e193cdcfaa69d32dfc1,null,null,"<p style=""font-size: 60px; font-family: BACS"">GJGcZYArG</p>",,,,,,,,,,
html-keyboard-response,224,488486,0.0-12.0-0.54,5ae5db897edeb000014a85ee,650c16f0f2faf8d7a0d14c09,651c1e193cdcfaa69d32dfc1,null,null,"<p style=""font-size: 60px; font-family: BACS"">ZNLOvNUZ</p>",,,,,,,,,,
html-keyboard-response,225,489491,0.0-12.0-0.55,5ae5db897edeb000014a85ee,650c16f0f2faf8d7a0d14c09,651c1e193cdcfaa69d32dfc1,null,null,"<p style=""font-size: 60px; font-family: BACS"">TbKMETmc</p>",,,,,,,,,,
html-keyboard-response,226,490497,0.0-12.0-0.56,5ae5db897edeb000014a85ee,650c16f0f2faf8d7a0d14c09,651c1e193cdcfaa69d32dfc1,null,null,"<p style=""font-size: 60px; font-family: BACS"">DOchlOBT</p>",,,,,,,,,,
html-keyboard-response,227,491502,0.0-12.0-0.57,5ae5db897edeb000014a85ee,650c16f0f2faf8d7a0d14c09,651c1e193cdcfaa69d32dfc1,null,null,"<p style=""font-size: 60px; font-family: BACS"">ZNLOvravu</p>",,,,,,,,,,
html-keyboard-response,228,492508,0.0-12.0-0.58,5ae5db897edeb000014a85ee,650c16f0f2faf8d7a0d14c09,651c1e193cdcfaa69d32dfc1,null,null,"<p style=""font-size: 60px; font-family: BACS"">GJGcZJUG</p>",,,,,,,,,,
html-keyboard-response,229,493513,0.0-12.0-0.59,5ae5db897edeb000014a85ee,650c16f0f2faf8d7a0d14c09,651c1e193cdcfaa69d32dfc1,null,null,"<p style=""font-size: 60px; font-family: BACS"">OmtlDTmc</p>",,,,,,,,,,
html-keyboard-response,230,494518,0.0-12.0-0.60,5ae5db897edeb000014a85ee,650c16f0f2faf8d7a0d14c09,651c1e193cdcfaa69d32dfc1,null,null,"<p style=""font-size: 60px; font-family: BACS"">TPCbAPEM</p>",,,,,,,,,,
html-keyboard-response,231,495523,0.0-12.0-0.61,5ae5db897edeb000014a85ee,650c16f0f2faf8d7a0d14c09,651c1e193cdcfaa69d32dfc1,null,null,"<p style=""font-size: 60px; font-family: BACS"">krGuNUZ</p>",,,,,,,,,,
html-keyboard-response,232,496526,0.0-12.0-0.62,5ae5db897edeb000014a85ee,650c16f0f2faf8d7a0d14c09,651c1e193cdcfaa69d32dfc1,null,null,"<p style=""font-size: 60px; font-family: BACS"">mrOdravu</p>",,,,,,,,,,
html-keyboard-response,233,497529,0.0-12.0-0.63,5ae5db897edeb000014a85ee,650c16f0f2faf8d7a0d14c09,651c1e193cdcfaa69d32dfc1,null,null,"<p style=""font-size: 60px; font-family: BACS"">krGuJUG</p>",,,,,,,,,,
html-keyboard-response,234,498536,0.0-12.0-0.64,5ae5db897edeb000014a85ee,650c16f0f2faf8d7a0d14c09,651c1e193cdcfaa69d32dfc1,null,null,"<p style=""font-size: 60px; font-family: BACS"">hCktYKPB</p>",,,,,,,,,,
html-keyboard-response,235,499543,0.0-12.0-0.65,5ae5db897edeb000014a85ee,650c16f0f2faf8d7a0d14c09,651c1e193cdcfaa69d32dfc1,null,null,"<p style=""font-size: 60px; font-family: BACS"">bYGOZYArG</p>",,,,,,,,,,
html-keyboard-response,236,500548,0.0-12.0-0.66,5ae5db897edeb000014a85ee,650c16f0f2faf8d7a0d14c09,651c1e193cdcfaa69d32dfc1,null,null,"<p style=""font-size: 60px; font-family: BACS"">hTtBbTmc</p>",,,,,,,,,,
html-keyboard-response,237,501555,0.0-12.0-0.67,5ae5db897edeb000014a85ee,650c16f0f2faf8d7a0d14c09,651c1e193cdcfaa69d32dfc1,null,null,"<p style=""font-size: 60px; font-family: BACS"">OQarQravu</p>",,,,,,,,,,
html-keyboard-response,238,502561,0.0-12.0-0.68,5ae5db897edeb000014a85ee,650c16f0f2faf8d7a0d14c09,651c1e193cdcfaa69d32dfc1,null,null,"<p style=""font-size: 60px; font-family: BACS"">dKDthCdt</p>",,,,,,,,,,
html-keyboard-response,239,503566,0.0-12.0-0.69,5ae5db897edeb000014a85ee,650c16f0f2faf8d7a0d14c09,651c1e193cdcfaa69d32dfc1,null,null,"<p style=""font-size: 60px; font-family: BACS"">lGZvJUG</p>",,,,,,,,,,
html-keyboard-response,240,504572,0.0-12.0-0.70,5ae5db897edeb000014a85ee,650c16f0f2faf8d7a0d14c09,651c1e193cdcfaa69d32dfc1,null,null,"<p style=""font-size: 60px; font-family: BACS"">CRdBdOBT</p>",,,,,,,,,,
html-keyboard-response,241,505576,0.0-12.0-0.71,5ae5db897edeb000014a85ee,650c16f0f2faf8d7a0d14c09,651c1e193cdcfaa69d32dfc1,null,null,"<p style=""font-size: 60px; font-family: BACS"">DBPhcAPEM</p>",,,,,,,,,,
html-keyboard-response,242,506586,0.0-12.0-0.72,5ae5db897edeb000014a85ee,650c16f0f2faf8d7a0d14c09,651c1e193cdcfaa69d32dfc1,null,null,"<p style=""font-size: 60px; font-family: BACS"">TPCbTmc</p>",,,,,,,,,,
html-keyboard-response,243,507588,0.0-12.0-0.73,5ae5db897edeb000014a85ee,650c16f0f2faf8d7a0d14c09,651c1e193cdcfaa69d32dfc1,null,null,"<p style=""font-size: 60px; font-family: BACS"">lGZvYArG</p>",,,,,,,,,,
html-keyboard-response,244,508593,0.0-12.0-0.74,5ae5db897edeb000014a85ee,650c16f0f2faf8d7a0d14c09,651c1e193cdcfaa69d32dfc1,null,null,"<p style=""font-size: 60px; font-family: BACS"">DBPhcOBT</p>",,,,,,,,,,
html-keyboard-response,245,509600,0.0-12.0-0.75,5ae5db897edeb000014a85ee,650c16f0f2faf8d7a0d14c09,651c1e193cdcfaa69d32dfc1,null,null,"<p style=""font-size: 60px; font-family: BACS"">JNkaJUG</p>",,,,,,,,,,
html-keyboard-response,246,510605,0.0-12.0-0.76,5ae5db897edeb000014a85ee,650c16f0f2faf8d7a0d14c09,651c1e193cdcfaa69d32dfc1,null,null,"<p style=""font-size: 60px; font-family: BACS"">OmtlDCdt</p>",,,,,,,,,,
html-keyboard-response,247,511610,0.0-12.0-0.77,5ae5db897edeb000014a85ee,650c16f0f2faf8d7a0d14c09,651c1e193cdcfaa69d32dfc1,null,null,"<p style=""font-size: 60px; font-family: BACS"">bYGOZkdrO</p>",,,,,,,,,,
html-keyboard-response,248,512617,0.0-12.0-0.78,5ae5db897edeb000014a85ee,650c16f0f2faf8d7a0d14c09,651c1e193cdcfaa69d32dfc1,null,null,"<p style=""font-size: 60px; font-family: BACS"">kbmZOJUG</p>",,,,,,,,,,
html-keyboard-response,249,513623,0.0-12.0-0.79,5ae5db897edeb000014a85ee,650c16f0f2faf8d7a0d14c09,651c1e193cdcfaa69d32dfc1,null,null,"<p style=""font-size: 60px; font-family: BACS"">lGZvravu</p>",,,,,,,,,,
html-keyboard-response,250,518751,0.0-13.0,5ae5db897edeb000014a85ee,650c16f0f2faf8d7a0d14c09,651c1e193cdcfaa69d32dfc1,5127, ,"<p>Great, you've seen the third block of words. You may now take a short break.</p>
      <p>Press the spacebar when you're ready to continue.</p>",,,,,,,,,,
html-keyboard-response,251,519756,0.0-14.0-0.0,5ae5db897edeb000014a85ee,650c16f0f2faf8d7a0d14c09,651c1e193cdcfaa69d32dfc1,null,null,"<p style=""font-size: 60px; font-family: BACS"">DBPhcCdt</p>",,,,,,,,,,
html-keyboard-response,252,520761,0.0-14.0-0.1,5ae5db897edeb000014a85ee,650c16f0f2faf8d7a0d14c09,651c1e193cdcfaa69d32dfc1,null,null,"<p style=""font-size: 60px; font-family: BACS"">dKDthOBT</p>",,,,,,,,,,
html-keyboard-response,253,521767,0.0-14.0-0.2,5ae5db897edeb000014a85ee,650c16f0f2faf8d7a0d14c09,651c1e193cdcfaa69d32dfc1,null,null,"<p style=""font-size: 60px; font-family: BACS"">lGZvYArG</p>",,,,,,,,,,
html-keyboard-response,254,522772,0.0-14.0-0.3,5ae5db897edeb000014a85ee,650c16f0f2faf8d7a0d14c09,651c1e193cdcfaa69d32dfc1,null,null,"<p style=""font-size: 60px; font-family: BACS"">krGuravu</p>",,,,,,,,,,
html-keyboard-response,255,523778,0.0-14.0-0.4,5ae5db897edeb000014a85ee,650c16f0f2faf8d7a0d14c09,651c1e193cdcfaa69d32dfc1,null,null,"<p style=""font-size: 60px; font-family: BACS"">DBPhcOBT</p>",,,,,,,,,,
html-keyboard-response,256,524784,0.0-14.0-0.5,5ae5db897edeb000014a85ee,650c16f0f2faf8d7a0d14c09,651c1e193cdcfaa69d32dfc1,null,null,"<p style=""font-size: 60px; font-family: BACS"">OmtlDCdt</p>",,,,,,,,,,
html-keyboard-response,257,525788,0.0-14.0-0.6,5ae5db897edeb000014a85ee,650c16f0f2faf8d7a0d14c09,651c1e193cdcfaa69d32dfc1,null,null,"<p style=""font-size: 60px; font-family: BACS"">TPCbAPEM</p>",,,,,,,,,,
html-keyboard-response,258,526793,0.0-14.0-0.7,5ae5db897edeb000014a85ee,650c16f0f2faf8d7a0d14c09,651c1e193cdcfaa69d32dfc1,null,null,"<p style=""font-size: 60px; font-family: BACS"">OmtlDYKPB</p>",,,,,,,,,,
html-keyboard-response,259,527799,0.0-14.0-0.8,5ae5db897edeb000014a85ee,650c16f0f2faf8d7a0d14c09,651c1e193cdcfaa69d32dfc1,null,null,"<p style=""font-size: 60px; font-family: BACS"">lGZvravu</p>",,,,,,,,,,
html-keyboard-response,260,528804,0.0-14.0-0.9,5ae5db897edeb000014a85ee,650c16f0f2faf8d7a0d14c09,651c1e193cdcfaa69d32dfc1,null,null,"<p style=""font-size: 60px; font-family: BACS"">ZNLOvYArG</p>",,,,,,,,,,
html-keyboard-response,261,529809,0.0-14.0-0.10,5ae5db897edeb000014a85ee,650c16f0f2faf8d7a0d14c09,651c1e193cdcfaa69d32dfc1,null,null,"<p style=""font-size: 60px; font-family: BACS"">hTtBbYKPB</p>",,,,,,,,,,
html-keyboard-response,262,530814,0.0-14.0-0.11,5ae5db897edeb000014a85ee,650c16f0f2faf8d7a0d14c09,651c1e193cdcfaa69d32dfc1,null,null,"<p style=""font-size: 60px; font-family: BACS"">CRdBdOBT</p>",,,,,,,,,,
html-keyboard-response,263,531819,0.0-14.0-0.12,5ae5db897edeb000014a85ee,650c16f0f2faf8d7a0d14c09,651c1e193cdcfaa69d32dfc1,null,null,"<p style=""font-size: 60px; font-family: BACS"">TbKMEYKPB</p>",,,,,,,,,,
html-keyboard-response,264,532823,0.0-14.0-0.13,5ae5db897edeb000014a85ee,650c16f0f2faf8d7a0d14c09,651c1e193cdcfaa69d32dfc1,null,null,"<p style=""font-size: 60px; font-family: BACS"">DBlhTmc</p>",,,,,,,,,,
html-keyboard-response,265,533839,0.0-14.0-0.14,5ae5db897edeb000014a85ee,650c16f0f2faf8d7a0d14c09,651c1e193cdcfaa69d32dfc1,null,null,"<p style=""font-size: 60px; font-family: BACS"">hCktCdt</p>",,,,,,,,,,
html-keyboard-response,266,534852,0.0-14.0-0.15,5ae5db897edeb000014a85ee,650c16f0f2faf8d7a0d14c09,651c1e193cdcfaa69d32dfc1,null,null,"<p style=""font-size: 60px; font-family: BACS"">DBPhcAPEM</p>",,,,,,,,,,
html-keyboard-response,267,535857,0.0-14.0-0.16,5ae5db897edeb000014a85ee,650c16f0f2faf8d7a0d14c09,651c1e193cdcfaa69d32dfc1,null,null,"<p style=""font-size: 60px; font-family: BACS"">OQarQkdrO</p>",,,,,,,,,,
html-keyboard-response,268,536864,0.0-14.0-0.17,5ae5db897edeb000014a85ee,650c16f0f2faf8d7a0d14c09,651c1e193cdcfaa69d32dfc1,null,null,"<p style=""font-size: 60px; font-family: BACS"">DOchlAPEM</p>",,,,,,,,,,
html-keyboard-response,269,537869,0.0-14.0-0.18,5ae5db897edeb000014a85ee,650c16f0f2faf8d7a0d14c09,651c1e193cdcfaa69d32dfc1,null,null,"<p style=""font-size: 60px; font-family: BACS"">krGuNUZ</p>",,,,,,,,,,
html-keyboard-response,270,538875,0.0-14.0-0.19,5ae5db897edeb000014a85ee,650c16f0f2faf8d7a0d14c09,651c1e193cdcfaa69d32dfc1,null,null,"<p style=""font-size: 60px; font-family: BACS"">kbmZOYArG</p>",,,,,,,,,,
html-keyboard-response,271,539882,0.0-14.0-0.20,5ae5db897edeb000014a85ee,650c16f0f2faf8d7a0d14c09,651c1e193cdcfaa69d32dfc1,null,null,"<p style=""font-size: 60px; font-family: BACS"">hCktYKPB</p>",,,,,,,,,,
html-keyboard-response,272,540886,0.0-14.0-0.21,5ae5db897edeb000014a85ee,650c16f0f2faf8d7a0d14c09,651c1e193cdcfaa69d32dfc1,null,null,"<p style=""font-size: 60px; font-family: BACS"">LdrbvkdrO</p>",,,,,,,,,,
html-keyboard-response,273,541892,0.0-14.0-0.22,5ae5db897edeb000014a85ee,650c16f0f2faf8d7a0d14c09,651c1e193cdcfaa69d32dfc1,null,null,"<p style=""font-size: 60px; font-family: BACS"">hCktTmc</p>",,,,,,,,,,
html-keyboard-response,274,542897,0.0-14.0-0.23,5ae5db897edeb000014a85ee,650c16f0f2faf8d7a0d14c09,651c1e193cdcfaa69d32dfc1,null,null,"<p style=""font-size: 60px; font-family: BACS"">mrOdkdrO</p>",,,,,,,,,,
html-keyboard-response,275,543902,0.0-14.0-0.24,5ae5db897edeb000014a85ee,650c16f0f2faf8d7a0d14c09,651c1e193cdcfaa69d32dfc1,null,null,"<p style=""font-size: 60px; font-family: BACS"">kbmZONUZ</p>",,,,,,,,,,
html-keyboard-response,276,544907,0.0-14.0-0.25,5ae5db897edeb000014a85ee,650c16f0f2faf8d7a0d14c09,651c1e193cdcfaa69d32dfc1,null,null,"<p style=""font-size: 60px; font-family: BACS"">DOchlYKPB</p>",,,,,,,,,,
html-keyboard-response,277,545912,0.0-14.0-0.26,5ae5db897edeb000014a85ee,650c16f0f2faf8d7a0d14c09,651c1e193cdcfaa69d32dfc1,null,null,"<p style=""font-size: 60px; font-family: BACS"">dKDthCdt</p>",,,,,,,,,,
html-keyboard-response,278,546917,0.0-14.0-0.27,5ae5db897edeb000014a85ee,650c16f0f2faf8d7a0d14c09,651c1e193cdcfaa69d32dfc1,null,null,"<p style=""font-size: 60px; font-family: BACS"">Ldrbvravu</p>",,,,,,,,,,
html-keyboard-response,279,547923,0.0-14.0-0.28,5ae5db897edeb000014a85ee,650c16f0f2faf8d7a0d14c09,651c1e193cdcfaa69d32dfc1,null,null,"<p style=""font-size: 60px; font-family: BACS"">TbKMECdt</p>",,,,,,,,,,
html-keyboard-response,280,548928,0.0-14.0-0.29,5ae5db897edeb000014a85ee,650c16f0f2faf8d7a0d14c09,651c1e193cdcfaa69d32dfc1,null,null,"<p style=""font-size: 60px; font-family: BACS"">GJGcZJUG</p>",,,,,,,,,,
html-keyboard-response,281,549933,0.0-14.0-0.30,5ae5db897edeb000014a85ee,650c16f0f2faf8d7a0d14c09,651c1e193cdcfaa69d32dfc1,null,null,"<p style=""font-size: 60px; font-family: BACS"">OQarQravu</p>",,,,,,,,,,
html-keyboard-response,282,550940,0.0-14.0-0.31,5ae5db897edeb000014a85ee,650c16f0f2faf8d7a0d14c09,651c1e193cdcfaa69d32dfc1,null,null,"<p style=""font-size: 60px; font-family: BACS"">mrOdNUZ</p>",,,,,,,,,,
html-keyboard-response,283,551950,0.0-14.0-0.32,5ae5db897edeb000014a85ee,650c16f0f2faf8d7a0d14c09,651c1e193cdcfaa69d32dfc1,null,null,"<p style=""font-size: 60px; font-family: BACS"">OQarQYArG</p>",,,,,,,,,,
html-keyboard-response,284,552953,0.0-14.0-0.33,5ae5db897edeb000014a85ee,650c16f0f2faf8d7a0d14c09,651c1e193cdcfaa69d32dfc1,null,null,"<p style=""font-size: 60px; font-family: BACS"">ZNLOvkdrO</p>",,,,,,,,,,
html-keyboard-response,285,553956,0.0-14.0-0.34,5ae5db897edeb000014a85ee,650c16f0f2faf8d7a0d14c09,651c1e193cdcfaa69d32dfc1,null,null,"<p style=""font-size: 60px; font-family: BACS"">mrOdJUG</p>",,,,,,,,,,
html-keyboard-response,286,554961,0.0-14.0-0.35,5ae5db897edeb000014a85ee,650c16f0f2faf8d7a0d14c09,651c1e193cdcfaa69d32dfc1,null,null,"<p style=""font-size: 60px; font-family: BACS"">hTtBbCdt</p>",,,,,,,,,,
html-keyboard-response,287,555966,0.0-14.0-0.36,5ae5db897edeb000014a85ee,650c16f0f2faf8d7a0d14c09,651c1e193cdcfaa69d32dfc1,null,null,"<p style=""font-size: 60px; font-family: BACS"">GJGcZYArG</p>",,,,,,,,,,
html-keyboard-response,288,556971,0.0-14.0-0.37,5ae5db897edeb000014a85ee,650c16f0f2faf8d7a0d14c09,651c1e193cdcfaa69d32dfc1,null,null,"<p style=""font-size: 60px; font-family: BACS"">OmtlDOBT</p>",,,,,,,,,,
html-keyboard-response,289,557975,0.0-14.0-0.38,5ae5db897edeb000014a85ee,650c16f0f2faf8d7a0d14c09,651c1e193cdcfaa69d32dfc1,null,null,"<p style=""font-size: 60px; font-family: BACS"">TPCbTmc</p>",,,,,,,,,,
html-keyboard-response,290,558978,0.0-14.0-0.39,5ae5db897edeb000014a85ee,650c16f0f2faf8d7a0d14c09,651c1e193cdcfaa69d32dfc1,null,null,"<p style=""font-size: 60px; font-family: BACS"">lGZvkdrO</p>",,,,,,,,,,
html-keyboard-response,291,559982,0.0-14.0-0.40,5ae5db897edeb000014a85ee,650c16f0f2faf8d7a0d14c09,651c1e193cdcfaa69d32dfc1,null,null,"<p style=""font-size: 60px; font-family: BACS"">bYGOZravu</p>",,,,,,,,,,
html-keyboard-response,292,560989,0.0-14.0-0.41,5ae5db897edeb000014a85ee,650c16f0f2faf8d7a0d14c09,651c1e193cdcfaa69d32dfc1,null,null,"<p style=""font-size: 60px; font-family: BACS"">CRdBdAPEM</p>",,,,,,,,,,
html-keyboard-response,293,561994,0.0-14.0-0.42,5ae5db897edeb000014a85ee,650c16f0f2faf8d7a0d14c09,651c1e193cdcfaa69d32dfc1,null,null,"<p style=""font-size: 60px; font-family: BACS"">DBlhOBT</p>",,,,,,,,,,
html-keyboard-response,294,562997,0.0-14.0-0.43,5ae5db897edeb000014a85ee,650c16f0f2faf8d7a0d14c09,651c1e193cdcfaa69d32dfc1,null,null,"<p style=""font-size: 60px; font-family: BACS"">DOchlTmc</p>",,,,,,,,,,
html-keyboard-response,295,564003,0.0-14.0-0.44,5ae5db897edeb000014a85ee,650c16f0f2faf8d7a0d14c09,651c1e193cdcfaa69d32dfc1,null,null,"<p style=""font-size: 60px; font-family: BACS"">DBlhAPEM</p>",,,,,,,,,,
html-keyboard-response,296,565009,0.0-14.0-0.45,5ae5db897edeb000014a85ee,650c16f0f2faf8d7a0d14c09,651c1e193cdcfaa69d32dfc1,null,null,"<p style=""font-size: 60px; font-family: BACS"">bYGOZYArG</p>",,,,,,,,,,
html-keyboard-response,297,566014,0.0-14.0-0.46,5ae5db897edeb000014a85ee,650c16f0f2faf8d7a0d14c09,651c1e193cdcfaa69d32dfc1,null,null,"<p style=""font-size: 60px; font-family: BACS"">JNkaJUG</p>",,,,,,,,,,
html-keyboard-response,298,567022,0.0-14.0-0.47,5ae5db897edeb000014a85ee,650c16f0f2faf8d7a0d14c09,651c1e193cdcfaa69d32dfc1,null,null,"<p style=""font-size: 60px; font-family: BACS"">dKDthAPEM</p>",,,,,,,,,,
html-keyboard-response,299,568027,0.0-14.0-0.48,5ae5db897edeb000014a85ee,650c16f0f2faf8d7a0d14c09,651c1e193cdcfaa69d32dfc1,null,null,"<p style=""font-size: 60px; font-family: BACS"">TbKMEOBT</p>",,,,,,,,,,
html-keyboard-response,300,569031,0.0-14.0-0.49,5ae5db897edeb000014a85ee,650c16f0f2faf8d7a0d14c09,651c1e193cdcfaa69d32dfc1,null,null,"<p style=""font-size: 60px; font-family: BACS"">CRdBdYKPB</p>",,,,,,,,,,
html-keyboard-response,301,570037,0.0-14.0-0.50,5ae5db897edeb000014a85ee,650c16f0f2faf8d7a0d14c09,651c1e193cdcfaa69d32dfc1,null,null,"<p style=""font-size: 60px; font-family: BACS"">hTtBbAPEM</p>",,,,,,,,,,
html-keyboard-response,302,571042,0.0-14.0-0.51,5ae5db897edeb000014a85ee,650c16f0f2faf8d7a0d14c09,651c1e193cdcfaa69d32dfc1,null,null,"<p style=""font-size: 60px; font-family: BACS"">DBPhcYKPB</p>",,,,,,,,,,
html-keyboard-response,303,572061,0.0-14.0-0.52,5ae5db897edeb000014a85ee,650c16f0f2faf8d7a0d14c09,651c1e193cdcfaa69d32dfc1,null,null,"<p style=""font-size: 60px; font-family: BACS"">kbmZOkdrO</p>",,,,,,,,,,
html-keyboard-response,304,573084,0.0-14.0-0.53,5ae5db897edeb000014a85ee,650c16f0f2faf8d7a0d14c09,651c1e193cdcfaa69d32dfc1,null,null,"<p style=""font-size: 60px; font-family: BACS"">DBlhCdt</p>",,,,,,,,,,
html-keyboard-response,305,574088,0.0-14.0-0.54,5ae5db897edeb000014a85ee,650c16f0f2faf8d7a0d14c09,651c1e193cdcfaa69d32dfc1,null,null,"<p style=""font-size: 60px; font-family: BACS"">TbKMETmc</p>",,,,,,,,,,
html-keyboard-response,306,575093,0.0-14.0-0.55,5ae5db897edeb000014a85ee,650c16f0f2faf8d7a0d14c09,651c1e193cdcfaa69d32dfc1,null,null,"<p style=""font-size: 60px; font-family: BACS"">OQarQJUG</p>",,,,,,,,,,
html-keyboard-response,307,576120,0.0-14.0-0.56,5ae5db897edeb000014a85ee,650c16f0f2faf8d7a0d14c09,651c1e193cdcfaa69d32dfc1,null,null,"<p style=""font-size: 60px; font-family: BACS"">JNkakdrO</p>",,,,,,,,,,
html-keyboard-response,308,577126,0.0-14.0-0.57,5ae5db897edeb000014a85ee,650c16f0f2faf8d7a0d14c09,651c1e193cdcfaa69d32dfc1,null,null,"<p style=""font-size: 60px; font-family: BACS"">hTtBbTmc</p>",,,,,,,,,,
html-keyboard-response,309,578132,0.0-14.0-0.58,5ae5db897edeb000014a85ee,650c16f0f2faf8d7a0d14c09,651c1e193cdcfaa69d32dfc1,null,null,"<p style=""font-size: 60px; font-family: BACS"">DOchlOBT</p>",,,,,,,,,,
html-keyboard-response,310,579139,0.0-14.0-0.59,5ae5db897edeb000014a85ee,650c16f0f2faf8d7a0d14c09,651c1e193cdcfaa69d32dfc1,null,null,"<p style=""font-size: 60px; font-family: BACS"">CRdBdCdt</p>",,,,,,,,,,
html-keyboard-response,311,580144,0.0-14.0-0.60,5ae5db897edeb000014a85ee,650c16f0f2faf8d7a0d14c09,651c1e193cdcfaa69d32dfc1,null,null,"<p style=""font-size: 60px; font-family: BACS"">lGZvJUG</p>",,,,,,,,,,
html-keyboard-response,312,581149,0.0-14.0-0.61,5ae5db897edeb000014a85ee,650c16f0f2faf8d7a0d14c09,651c1e193cdcfaa69d32dfc1,null,null,"<p style=""font-size: 60px; font-family: BACS"">ZNLOvNUZ</p>",,,,,,,,,,
html-keyboard-response,313,582156,0.0-14.0-0.62,5ae5db897edeb000014a85ee,650c16f0f2faf8d7a0d14c09,651c1e193cdcfaa69d32dfc1,null,null,"<p style=""font-size: 60px; font-family: BACS"">TPCbOBT</p>",,,,,,,,,,
html-keyboard-response,314,583162,0.0-14.0-0.63,5ae5db897edeb000014a85ee,650c16f0f2faf8d7a0d14c09,651c1e193cdcfaa69d32dfc1,null,null,"<p style=""font-size: 60px; font-family: BACS"">LdrbvNUZ</p>",,,,,,,,,,
html-keyboard-response,315,584169,0.0-14.0-0.64,5ae5db897edeb000014a85ee,650c16f0f2faf8d7a0d14c09,651c1e193cdcfaa69d32dfc1,null,null,"<p style=""font-size: 60px; font-family: BACS"">krGuJUG</p>",,,,,,,,,,
html-keyboard-response,316,585176,0.0-14.0-0.65,5ae5db897edeb000014a85ee,650c16f0f2faf8d7a0d14c09,651c1e193cdcfaa69d32dfc1,null,null,"<p style=""font-size: 60px; font-family: BACS"">TPCbYKPB</p>",,,,,,,,,,
html-keyboard-response,317,586181,0.0-14.0-0.66,5ae5db897edeb000014a85ee,650c16f0f2faf8d7a0d14c09,651c1e193cdcfaa69d32dfc1,null,null,"<p style=""font-size: 60px; font-family: BACS"">GJGcZNUZ</p>",,,,,,,,,,
html-keyboard-response,318,587185,0.0-14.0-0.67,5ae5db897edeb000014a85ee,650c16f0f2faf8d7a0d14c09,651c1e193cdcfaa69d32dfc1,null,null,"<p style=""font-size: 60px; font-family: BACS"">LdrbvJUG</p>",,,,,,,,,,
html-keyboard-response,319,588191,0.0-14.0-0.68,5ae5db897edeb000014a85ee,650c16f0f2faf8d7a0d14c09,651c1e193cdcfaa69d32dfc1,null,null,"<p style=""font-size: 60px; font-family: BACS"">bYGOZNUZ</p>",,,,,,,,,,
html-keyboard-response,320,589197,0.0-14.0-0.69,5ae5db897edeb000014a85ee,650c16f0f2faf8d7a0d14c09,651c1e193cdcfaa69d32dfc1,null,null,"<p style=""font-size: 60px; font-family: BACS"">kbmZOJUG</p>",,,,,,,,,,
html-keyboard-response,321,590203,0.0-14.0-0.70,5ae5db897edeb000014a85ee,650c16f0f2faf8d7a0d14c09,651c1e193cdcfaa69d32dfc1,null,null,"<p style=""font-size: 60px; font-family: BACS"">bYGOZkdrO</p>",,,,,,,,,,
html-keyboard-response,322,591208,0.0-14.0-0.71,5ae5db897edeb000014a85ee,650c16f0f2faf8d7a0d14c09,651c1e193cdcfaa69d32dfc1,null,null,"<p style=""font-size: 60px; font-family: BACS"">JNkaYArG</p>",,,,,,,,,,
html-keyboard-response,323,592215,0.0-14.0-0.72,5ae5db897edeb000014a85ee,650c16f0f2faf8d7a0d14c09,651c1e193cdcfaa69d32dfc1,null,null,"<p style=""font-size: 60px; font-family: BACS"">hCktAPEM</p>",,,,,,,,,,
html-keyboard-response,324,593221,0.0-14.0-0.73,5ae5db897edeb000014a85ee,650c16f0f2faf8d7a0d14c09,651c1e193cdcfaa69d32dfc1,null,null,"<p style=""font-size: 60px; font-family: BACS"">mrOdravu</p>",,,,,,,,,,
html-keyboard-response,325,594226,0.0-14.0-0.74,5ae5db897edeb000014a85ee,650c16f0f2faf8d7a0d14c09,651c1e193cdcfaa69d32dfc1,null,null,"<p style=""font-size: 60px; font-family: BACS"">krGuYArG</p>",,,,,,,,,,
html-keyboard-response,326,595233,0.0-14.0-0.75,5ae5db897edeb000014a85ee,650c16f0f2faf8d7a0d14c09,651c1e193cdcfaa69d32dfc1,null,null,"<p style=""font-size: 60px; font-family: BACS"">GJGcZravu</p>",,,,,,,,,,
html-keyboard-response,327,596239,0.0-14.0-0.76,5ae5db897edeb000014a85ee,650c16f0f2faf8d7a0d14c09,651c1e193cdcfaa69d32dfc1,null,null,"<p style=""font-size: 60px; font-family: BACS"">JNkaNUZ</p>",,,,,,,,,,
html-keyboard-response,328,597245,0.0-14.0-0.77,5ae5db897edeb000014a85ee,650c16f0f2faf8d7a0d14c09,651c1e193cdcfaa69d32dfc1,null,null,"<p style=""font-size: 60px; font-family: BACS"">dKDthTmc</p>",,,,,,,,,,
html-keyboard-response,329,598252,0.0-14.0-0.78,5ae5db897edeb000014a85ee,650c16f0f2faf8d7a0d14c09,651c1e193cdcfaa69d32dfc1,null,null,"<p style=""font-size: 60px; font-family: BACS"">ZNLOvravu</p>",,,,,,,,,,
html-keyboard-response,330,599257,0.0-14.0-0.79,5ae5db897edeb000014a85ee,650c16f0f2faf8d7a0d14c09,651c1e193cdcfaa69d32dfc1,null,null,"<p style=""font-size: 60px; font-family: BACS"">OmtlDTmc</p>",,,,,,,,,,
html-keyboard-response,331,610582,0.0-15.0,5ae5db897edeb000014a85ee,650c16f0f2faf8d7a0d14c09,651c1e193cdcfaa69d32dfc1,11324, ,"<p>Great, you've seen the fourth block of words. You may now take a short break.</p>
      <p>Press the spacebar when you're ready to continue.</p>",,,,,,,,,,
html-keyboard-response,332,611591,0.0-16.0-0.0,5ae5db897edeb000014a85ee,650c16f0f2faf8d7a0d14c09,651c1e193cdcfaa69d32dfc1,null,null,"<p style=""font-size: 60px; font-family: BACS"">lGZvravu</p>",,,,,,,,,,
html-keyboard-response,333,612597,0.0-16.0-0.1,5ae5db897edeb000014a85ee,650c16f0f2faf8d7a0d14c09,651c1e193cdcfaa69d32dfc1,null,null,"<p style=""font-size: 60px; font-family: BACS"">lGZvravu</p>",,,,,,,,,,
html-keyboard-response,334,613614,0.0-16.0-0.2,5ae5db897edeb000014a85ee,650c16f0f2faf8d7a0d14c09,651c1e193cdcfaa69d32dfc1,null,null,"<p style=""font-size: 60px; font-family: BACS"">lGZvravu</p>",,,,,,,,,,
html-keyboard-response,335,614624,0.0-16.0-0.3,5ae5db897edeb000014a85ee,650c16f0f2faf8d7a0d14c09,651c1e193cdcfaa69d32dfc1,null,null,"<p style=""font-size: 60px; font-family: BACS"">lGZvravu</p>",,,,,,,,,,
html-keyboard-response,336,615631,0.0-16.0-0.4,5ae5db897edeb000014a85ee,650c16f0f2faf8d7a0d14c09,651c1e193cdcfaa69d32dfc1,null,null,"<p style=""font-size: 60px; font-family: BACS"">lGZvravu</p>",,,,,,,,,,
html-keyboard-response,337,616635,0.0-16.0-0.5,5ae5db897edeb000014a85ee,650c16f0f2faf8d7a0d14c09,651c1e193cdcfaa69d32dfc1,null,null,"<p style=""font-size: 60px; font-family: BACS"">lGZvravu</p>",,,,,,,,,,
html-keyboard-response,338,617639,0.0-16.0-0.6,5ae5db897edeb000014a85ee,650c16f0f2faf8d7a0d14c09,651c1e193cdcfaa69d32dfc1,null,null,"<p style=""font-size: 60px; font-family: BACS"">lGZvravu</p>",,,,,,,,,,
html-keyboard-response,339,618644,0.0-16.0-0.7,5ae5db897edeb000014a85ee,650c16f0f2faf8d7a0d14c09,651c1e193cdcfaa69d32dfc1,null,null,"<p style=""font-size: 60px; font-family: BACS"">lGZvravu</p>",,,,,,,,,,
html-keyboard-response,340,619644,0.0-16.0-0.8,5ae5db897edeb000014a85ee,650c16f0f2faf8d7a0d14c09,651c1e193cdcfaa69d32dfc1,null,null,"<p style=""font-size: 60px; font-family: BACS"">lGZvravu</p>",,,,,,,,,,
html-keyboard-response,341,620648,0.0-16.0-0.9,5ae5db897edeb000014a85ee,650c16f0f2faf8d7a0d14c09,651c1e193cdcfaa69d32dfc1,null,null,"<p style=""font-size: 60px; font-family: BACS"">lGZvravu</p>",,,,,,,,,,
html-keyboard-response,342,621653,0.0-16.0-0.10,5ae5db897edeb000014a85ee,650c16f0f2faf8d7a0d14c09,651c1e193cdcfaa69d32dfc1,null,null,"<p style=""font-size: 60px; font-family: BACS"">lGZvravu</p>",,,,,,,,,,
html-keyboard-response,343,622658,0.0-16.0-0.11,5ae5db897edeb000014a85ee,650c16f0f2faf8d7a0d14c09,651c1e193cdcfaa69d32dfc1,null,null,"<p style=""font-size: 60px; font-family: BACS"">lGZvravu</p>",,,,,,,,,,
html-keyboard-response,344,623663,0.0-16.0-0.12,5ae5db897edeb000014a85ee,650c16f0f2faf8d7a0d14c09,651c1e193cdcfaa69d32dfc1,null,null,"<p style=""font-size: 60px; font-family: BACS"">lGZvravu</p>",,,,,,,,,,
html-keyboard-response,345,624677,0.0-16.0-0.13,5ae5db897edeb000014a85ee,650c16f0f2faf8d7a0d14c09,651c1e193cdcfaa69d32dfc1,null,null,"<p style=""font-size: 60px; font-family: BACS"">lGZvravu</p>",,,,,,,,,,
html-keyboard-response,346,625688,0.0-16.0-0.14,5ae5db897edeb000014a85ee,650c16f0f2faf8d7a0d14c09,651c1e193cdcfaa69d32dfc1,null,null,"<p style=""font-size: 60px; font-family: BACS"">lGZvravu</p>",,,,,,,,,,
html-keyboard-response,347,626693,0.0-16.0-0.15,5ae5db897edeb000014a85ee,650c16f0f2faf8d7a0d14c09,651c1e193cdcfaa69d32dfc1,null,null,"<p style=""font-size: 60px; font-family: BACS"">lGZvravu</p>",,,,,,,,,,
html-keyboard-response,348,627700,0.0-16.0-0.16,5ae5db897edeb000014a85ee,650c16f0f2faf8d7a0d14c09,651c1e193cdcfaa69d32dfc1,null,null,"<p style=""font-size: 60px; font-family: BACS"">lGZvravu</p>",,,,,,,,,,
html-keyboard-response,349,628705,0.0-16.0-0.17,5ae5db897edeb000014a85ee,650c16f0f2faf8d7a0d14c09,651c1e193cdcfaa69d32dfc1,null,null,"<p style=""font-size: 60px; font-family: BACS"">lGZvravu</p>",,,,,,,,,,
html-keyboard-response,350,629710,0.0-16.0-0.18,5ae5db897edeb000014a85ee,650c16f0f2faf8d7a0d14c09,651c1e193cdcfaa69d32dfc1,null,null,"<p style=""font-size: 60px; font-family: BACS"">lGZvravu</p>",,,,,,,,,,
html-keyboard-response,351,630713,0.0-16.0-0.19,5ae5db897edeb000014a85ee,650c16f0f2faf8d7a0d14c09,651c1e193cdcfaa69d32dfc1,null,null,"<p style=""font-size: 60px; font-family: BACS"">lGZvravu</p>",,,,,,,,,,
html-keyboard-response,352,631717,0.0-16.0-0.20,5ae5db897edeb000014a85ee,650c16f0f2faf8d7a0d14c09,651c1e193cdcfaa69d32dfc1,null,null,"<p style=""font-size: 60px; font-family: BACS"">lGZvravu</p>",,,,,,,,,,
html-keyboard-response,353,632724,0.0-16.0-0.21,5ae5db897edeb000014a85ee,650c16f0f2faf8d7a0d14c09,651c1e193cdcfaa69d32dfc1,null,null,"<p style=""font-size: 60px; font-family: BACS"">lGZvravu</p>",,,,,,,,,,
html-keyboard-response,354,633729,0.0-16.0-0.22,5ae5db897edeb000014a85ee,650c16f0f2faf8d7a0d14c09,651c1e193cdcfaa69d32dfc1,null,null,"<p style=""font-size: 60px; font-family: BACS"">lGZvravu</p>",,,,,,,,,,
html-keyboard-response,355,634757,0.0-16.0-0.23,5ae5db897edeb000014a85ee,650c16f0f2faf8d7a0d14c09,651c1e193cdcfaa69d32dfc1,null,null,"<p style=""font-size: 60px; font-family: BACS"">lGZvravu</p>",,,,,,,,,,
html-keyboard-response,356,635762,0.0-16.0-0.24,5ae5db897edeb000014a85ee,650c16f0f2faf8d7a0d14c09,651c1e193cdcfaa69d32dfc1,null,null,"<p style=""font-size: 60px; font-family: BACS"">lGZvravu</p>",,,,,,,,,,
html-keyboard-response,357,636768,0.0-16.0-0.25,5ae5db897edeb000014a85ee,650c16f0f2faf8d7a0d14c09,651c1e193cdcfaa69d32dfc1,null,null,"<p style=""font-size: 60px; font-family: BACS"">lGZvravu</p>",,,,,,,,,,
html-keyboard-response,358,637773,0.0-16.0-0.26,5ae5db897edeb000014a85ee,650c16f0f2faf8d7a0d14c09,651c1e193cdcfaa69d32dfc1,null,null,"<p style=""font-size: 60px; font-family: BACS"">lGZvravu</p>",,,,,,,,,,
html-keyboard-response,359,638782,0.0-16.0-0.27,5ae5db897edeb000014a85ee,650c16f0f2faf8d7a0d14c09,651c1e193cdcfaa69d32dfc1,null,null,"<p style=""font-size: 60px; font-family: BACS"">lGZvravu</p>",,,,,,,,,,
html-keyboard-response,360,639786,0.0-16.0-0.28,5ae5db897edeb000014a85ee,650c16f0f2faf8d7a0d14c09,651c1e193cdcfaa69d32dfc1,null,null,"<p style=""font-size: 60px; font-family: BACS"">lGZvravu</p>",,,,,,,,,,
html-keyboard-response,361,640789,0.0-16.0-0.29,5ae5db897edeb000014a85ee,650c16f0f2faf8d7a0d14c09,651c1e193cdcfaa69d32dfc1,null,null,"<p style=""font-size: 60px; font-family: BACS"">lGZvravu</p>",,,,,,,,,,
html-keyboard-response,362,641795,0.0-16.0-0.30,5ae5db897edeb000014a85ee,650c16f0f2faf8d7a0d14c09,651c1e193cdcfaa69d32dfc1,null,null,"<p style=""font-size: 60px; font-family: BACS"">lGZvravu</p>",,,,,,,,,,
html-keyboard-response,363,642801,0.0-16.0-0.31,5ae5db897edeb000014a85ee,650c16f0f2faf8d7a0d14c09,651c1e193cdcfaa69d32dfc1,null,null,"<p style=""font-size: 60px; font-family: BACS"">lGZvravu</p>",,,,,,,,,,
html-keyboard-response,364,643807,0.0-16.0-0.32,5ae5db897edeb000014a85ee,650c16f0f2faf8d7a0d14c09,651c1e193cdcfaa69d32dfc1,null,null,"<p style=""font-size: 60px; font-family: BACS"">lGZvravu</p>",,,,,,,,,,
html-keyboard-response,365,644813,0.0-16.0-0.33,5ae5db897edeb000014a85ee,650c16f0f2faf8d7a0d14c09,651c1e193cdcfaa69d32dfc1,null,null,"<p style=""font-size: 60px; font-family: BACS"">lGZvravu</p>",,,,,,,,,,
html-keyboard-response,366,645819,0.0-16.0-0.34,5ae5db897edeb000014a85ee,650c16f0f2faf8d7a0d14c09,651c1e193cdcfaa69d32dfc1,null,null,"<p style=""font-size: 60px; font-family: BACS"">lGZvravu</p>",,,,,,,,,,
html-keyboard-response,367,646825,0.0-16.0-0.35,5ae5db897edeb000014a85ee,650c16f0f2faf8d7a0d14c09,651c1e193cdcfaa69d32dfc1,null,null,"<p style=""font-size: 60px; font-family: BACS"">lGZvravu</p>",,,,,,,,,,
html-keyboard-response,368,647829,0.0-16.0-0.36,5ae5db897edeb000014a85ee,650c16f0f2faf8d7a0d14c09,651c1e193cdcfaa69d32dfc1,null,null,"<p style=""font-size: 60px; font-family: BACS"">lGZvravu</p>",,,,,,,,,,
html-keyboard-response,369,648834,0.0-16.0-0.37,5ae5db897edeb000014a85ee,650c16f0f2faf8d7a0d14c09,651c1e193cdcfaa69d32dfc1,null,null,"<p style=""font-size: 60px; font-family: BACS"">lGZvravu</p>",,,,,,,,,,
html-keyboard-response,370,649839,0.0-16.0-0.38,5ae5db897edeb000014a85ee,650c16f0f2faf8d7a0d14c09,651c1e193cdcfaa69d32dfc1,null,null,"<p style=""font-size: 60px; font-family: BACS"">lGZvravu</p>",,,,,,,,,,
html-keyboard-response,371,650845,0.0-16.0-0.39,5ae5db897edeb000014a85ee,650c16f0f2faf8d7a0d14c09,651c1e193cdcfaa69d32dfc1,null,null,"<p style=""font-size: 60px; font-family: BACS"">lGZvravu</p>",,,,,,,,,,
html-keyboard-response,372,651852,0.0-16.0-0.40,5ae5db897edeb000014a85ee,650c16f0f2faf8d7a0d14c09,651c1e193cdcfaa69d32dfc1,null,null,"<p style=""font-size: 60px; font-family: BACS"">lGZvravu</p>",,,,,,,,,,
html-keyboard-response,373,652859,0.0-16.0-0.41,5ae5db897edeb000014a85ee,650c16f0f2faf8d7a0d14c09,651c1e193cdcfaa69d32dfc1,null,null,"<p style=""font-size: 60px; font-family: BACS"">lGZvravu</p>",,,,,,,,,,
html-keyboard-response,374,653863,0.0-16.0-0.42,5ae5db897edeb000014a85ee,650c16f0f2faf8d7a0d14c09,651c1e193cdcfaa69d32dfc1,null,null,"<p style=""font-size: 60px; font-family: BACS"">lGZvravu</p>",,,,,,,,,,
html-keyboard-response,375,654869,0.0-16.0-0.43,5ae5db897edeb000014a85ee,650c16f0f2faf8d7a0d14c09,651c1e193cdcfaa69d32dfc1,null,null,"<p style=""font-size: 60px; font-family: BACS"">lGZvravu</p>",,,,,,,,,,
html-keyboard-response,376,655876,0.0-16.0-0.44,5ae5db897edeb000014a85ee,650c16f0f2faf8d7a0d14c09,651c1e193cdcfaa69d32dfc1,null,null,"<p style=""font-size: 60px; font-family: BACS"">lGZvravu</p>",,,,,,,,,,
html-keyboard-response,377,656882,0.0-16.0-0.45,5ae5db897edeb000014a85ee,650c16f0f2faf8d7a0d14c09,651c1e193cdcfaa69d32dfc1,null,null,"<p style=""font-size: 60px; font-family: BACS"">lGZvravu</p>",,,,,,,,,,
html-keyboard-response,378,657889,0.0-16.0-0.46,5ae5db897edeb000014a85ee,650c16f0f2faf8d7a0d14c09,651c1e193cdcfaa69d32dfc1,null,null,"<p style=""font-size: 60px; font-family: BACS"">lGZvravu</p>",,,,,,,,,,
html-keyboard-response,379,658893,0.0-16.0-0.47,5ae5db897edeb000014a85ee,650c16f0f2faf8d7a0d14c09,651c1e193cdcfaa69d32dfc1,null,null,"<p style=""font-size: 60px; font-family: BACS"">lGZvravu</p>",,,,,,,,,,
html-keyboard-response,380,659898,0.0-16.0-0.48,5ae5db897edeb000014a85ee,650c16f0f2faf8d7a0d14c09,651c1e193cdcfaa69d32dfc1,null,null,"<p style=""font-size: 60px; font-family: BACS"">lGZvravu</p>",,,,,,,,,,
html-keyboard-response,381,660905,0.0-16.0-0.49,5ae5db897edeb000014a85ee,650c16f0f2faf8d7a0d14c09,651c1e193cdcfaa69d32dfc1,null,null,"<p style=""font-size: 60px; font-family: BACS"">lGZvravu</p>",,,,,,,,,,
html-keyboard-response,382,661910,0.0-16.0-0.50,5ae5db897edeb000014a85ee,650c16f0f2faf8d7a0d14c09,651c1e193cdcfaa69d32dfc1,null,null,"<p style=""font-size: 60px; font-family: BACS"">lGZvravu</p>",,,,,,,,,,
html-keyboard-response,383,662925,0.0-16.0-0.51,5ae5db897edeb000014a85ee,650c16f0f2faf8d7a0d14c09,651c1e193cdcfaa69d32dfc1,null,null,"<p style=""font-size: 60px; font-family: BACS"">lGZvravu</p>",,,,,,,,,,
html-keyboard-response,384,663927,0.0-16.0-0.52,5ae5db897edeb000014a85ee,650c16f0f2faf8d7a0d14c09,651c1e193cdcfaa69d32dfc1,null,null,"<p style=""font-size: 60px; font-family: BACS"">lGZvravu</p>",,,,,,,,,,
html-keyboard-response,385,664932,0.0-16.0-0.53,5ae5db897edeb000014a85ee,650c16f0f2faf8d7a0d14c09,651c1e193cdcfaa69d32dfc1,null,null,"<p style=""font-size: 60px; font-family: BACS"">lGZvravu</p>",,,,,,,,,,
html-keyboard-response,386,665938,0.0-16.0-0.54,5ae5db897edeb000014a85ee,650c16f0f2faf8d7a0d14c09,651c1e193cdcfaa69d32dfc1,null,null,"<p style=""font-size: 60px; font-family: BACS"">lGZvravu</p>",,,,,,,,,,
html-keyboard-response,387,666945,0.0-16.0-0.55,5ae5db897edeb000014a85ee,650c16f0f2faf8d7a0d14c09,651c1e193cdcfaa69d32dfc1,null,null,"<p style=""font-size: 60px; font-family: BACS"">lGZvravu</p>",,,,,,,,,,
html-keyboard-response,388,667950,0.0-16.0-0.56,5ae5db897edeb000014a85ee,650c16f0f2faf8d7a0d14c09,651c1e193cdcfaa69d32dfc1,null,null,"<p style=""font-size: 60px; font-family: BACS"">lGZvravu</p>",,,,,,,,,,
html-keyboard-response,389,668970,0.0-16.0-0.57,5ae5db897edeb000014a85ee,650c16f0f2faf8d7a0d14c09,651c1e193cdcfaa69d32dfc1,null,null,"<p style=""font-size: 60px; font-family: BACS"">lGZvravu</p>",,,,,,,,,,
html-keyboard-response,390,669975,0.0-16.0-0.58,5ae5db897edeb000014a85ee,650c16f0f2faf8d7a0d14c09,651c1e193cdcfaa69d32dfc1,null,null,"<p style=""font-size: 60px; font-family: BACS"">lGZvravu</p>",,,,,,,,,,
html-keyboard-response,391,670981,0.0-16.0-0.59,5ae5db897edeb000014a85ee,650c16f0f2faf8d7a0d14c09,651c1e193cdcfaa69d32dfc1,null,null,"<p style=""font-size: 60px; font-family: BACS"">lGZvravu</p>",,,,,,,,,,
html-keyboard-response,392,671984,0.0-16.0-0.60,5ae5db897edeb000014a85ee,650c16f0f2faf8d7a0d14c09,651c1e193cdcfaa69d32dfc1,null,null,"<p style=""font-size: 60px; font-family: BACS"">lGZvravu</p>",,,,,,,,,,
html-keyboard-response,393,672987,0.0-16.0-0.61,5ae5db897edeb000014a85ee,650c16f0f2faf8d7a0d14c09,651c1e193cdcfaa69d32dfc1,null,null,"<p style=""font-size: 60px; font-family: BACS"">lGZvravu</p>",,,,,,,,,,
html-keyboard-response,394,673994,0.0-16.0-0.62,5ae5db897edeb000014a85ee,650c16f0f2faf8d7a0d14c09,651c1e193cdcfaa69d32dfc1,null,null,"<p style=""font-size: 60px; font-family: BACS"">lGZvravu</p>",,,,,,,,,,
html-keyboard-response,395,675001,0.0-16.0-0.63,5ae5db897edeb000014a85ee,650c16f0f2faf8d7a0d14c09,651c1e193cdcfaa69d32dfc1,null,null,"<p style=""font-size: 60px; font-family: BACS"">lGZvravu</p>",,,,,,,,,,
html-keyboard-response,396,676005,0.0-16.0-0.64,5ae5db897edeb000014a85ee,650c16f0f2faf8d7a0d14c09,651c1e193cdcfaa69d32dfc1,null,null,"<p style=""font-size: 60px; font-family: BACS"">lGZvravu</p>",,,,,,,,,,
html-keyboard-response,397,677013,0.0-16.0-0.65,5ae5db897edeb000014a85ee,650c16f0f2faf8d7a0d14c09,651c1e193cdcfaa69d32dfc1,null,null,"<p style=""font-size: 60px; font-family: BACS"">lGZvravu</p>",,,,,,,,,,
html-keyboard-response,398,678019,0.0-16.0-0.66,5ae5db897edeb000014a85ee,650c16f0f2faf8d7a0d14c09,651c1e193cdcfaa69d32dfc1,null,null,"<p style=""font-size: 60px; font-family: BACS"">lGZvravu</p>",,,,,,,,,,
html-keyboard-response,399,679024,0.0-16.0-0.67,5ae5db897edeb000014a85ee,650c16f0f2faf8d7a0d14c09,651c1e193cdcfaa69d32dfc1,null,null,"<p style=""font-size: 60px; font-family: BACS"">lGZvravu</p>",,,,,,,,,,
html-keyboard-response,400,680028,0.0-16.0-0.68,5ae5db897edeb000014a85ee,650c16f0f2faf8d7a0d14c09,651c1e193cdcfaa69d32dfc1,null,null,"<p style=""font-size: 60px; font-family: BACS"">lGZvravu</p>",,,,,,,,,,
html-keyboard-response,401,681034,0.0-16.0-0.69,5ae5db897edeb000014a85ee,650c16f0f2faf8d7a0d14c09,651c1e193cdcfaa69d32dfc1,null,null,"<p style=""font-size: 60px; font-family: BACS"">lGZvravu</p>",,,,,,,,,,
html-keyboard-response,402,682039,0.0-16.0-0.70,5ae5db897edeb000014a85ee,650c16f0f2faf8d7a0d14c09,651c1e193cdcfaa69d32dfc1,null,null,"<p style=""font-size: 60px; font-family: BACS"">lGZvravu</p>",,,,,,,,,,
html-keyboard-response,403,683044,0.0-16.0-0.71,5ae5db897edeb000014a85ee,650c16f0f2faf8d7a0d14c09,651c1e193cdcfaa69d32dfc1,null,null,"<p style=""font-size: 60px; font-family: BACS"">lGZvravu</p>",,,,,,,,,,
html-keyboard-response,404,684055,0.0-16.0-0.72,5ae5db897edeb000014a85ee,650c16f0f2faf8d7a0d14c09,651c1e193cdcfaa69d32dfc1,null,null,"<p style=""font-size: 60px; font-family: BACS"">lGZvravu</p>",,,,,,,,,,
html-keyboard-response,405,685070,0.0-16.0-0.73,5ae5db897edeb000014a85ee,650c16f0f2faf8d7a0d14c09,651c1e193cdcfaa69d32dfc1,null,null,"<p style=""font-size: 60px; font-family: BACS"">lGZvravu</p>",,,,,,,,,,
html-keyboard-response,406,686077,0.0-16.0-0.74,5ae5db897edeb000014a85ee,650c16f0f2faf8d7a0d14c09,651c1e193cdcfaa69d32dfc1,null,null,"<p style=""font-size: 60px; font-family: BACS"">lGZvravu</p>",,,,,,,,,,
html-keyboard-response,407,687082,0.0-16.0-0.75,5ae5db897edeb000014a85ee,650c16f0f2faf8d7a0d14c09,651c1e193cdcfaa69d32dfc1,null,null,"<p style=""font-size: 60px; font-family: BACS"">lGZvravu</p>",,,,,,,,,,
html-keyboard-response,408,688089,0.0-16.0-0.76,5ae5db897edeb000014a85ee,650c16f0f2faf8d7a0d14c09,651c1e193cdcfaa69d32dfc1,null,null,"<p style=""font-size: 60px; font-family: BACS"">lGZvravu</p>",,,,,,,,,,
html-keyboard-response,409,689095,0.0-16.0-0.77,5ae5db897edeb000014a85ee,650c16f0f2faf8d7a0d14c09,651c1e193cdcfaa69d32dfc1,null,null,"<p style=""font-size: 60px; font-family: BACS"">lGZvravu</p>",,,,,,,,,,
html-keyboard-response,410,690101,0.0-16.0-0.78,5ae5db897edeb000014a85ee,650c16f0f2faf8d7a0d14c09,651c1e193cdcfaa69d32dfc1,null,null,"<p style=""font-size: 60px; font-family: BACS"">lGZvravu</p>",,,,,,,,,,
html-keyboard-response,411,691106,0.0-16.0-0.79,5ae5db897edeb000014a85ee,650c16f0f2faf8d7a0d14c09,651c1e193cdcfaa69d32dfc1,null,null,"<p style=""font-size: 60px; font-family: BACS"">lGZvravu</p>",,,,,,,,,,
html-keyboard-response,412,694750,0.0-17.0,5ae5db897edeb000014a85ee,650c16f0f2faf8d7a0d14c09,651c1e193cdcfaa69d32dfc1,3643, ,"<p>Great, you've seen the fifth block of words. You may now take a short break.</p>
      <p>Press the spacebar when you're ready to continue.</p>",,,,,,,,,,
html-keyboard-response,413,695765,0.0-18.0-0.0,5ae5db897edeb000014a85ee,650c16f0f2faf8d7a0d14c09,651c1e193cdcfaa69d32dfc1,null,null,"<p style=""font-size: 60px; font-family: BACS"">DBPhcAPEM</p>",,,,,,,,,,
html-keyboard-response,414,696768,0.0-18.0-0.1,5ae5db897edeb000014a85ee,650c16f0f2faf8d7a0d14c09,651c1e193cdcfaa69d32dfc1,null,null,"<p style=""font-size: 60px; font-family: BACS"">OQarQkdrO</p>",,,,,,,,,,
html-keyboard-response,415,697774,0.0-18.0-0.2,5ae5db897edeb000014a85ee,650c16f0f2faf8d7a0d14c09,651c1e193cdcfaa69d32dfc1,null,null,"<p style=""font-size: 60px; font-family: BACS"">dKDthCdt</p>",,,,,,,,,,
html-keyboard-response,416,698788,0.0-18.0-0.3,5ae5db897edeb000014a85ee,650c16f0f2faf8d7a0d14c09,651c1e193cdcfaa69d32dfc1,null,null,"<p style=""font-size: 60px; font-family: BACS"">TPCbAPEM</p>",,,,,,,,,,
html-keyboard-response,417,699800,0.0-18.0-0.4,5ae5db897edeb000014a85ee,650c16f0f2faf8d7a0d14c09,651c1e193cdcfaa69d32dfc1,null,null,"<p style=""font-size: 60px; font-family: BACS"">lGZvravu</p>",,,,,,,,,,
html-keyboard-response,418,700821,0.0-18.0-0.5,5ae5db897edeb000014a85ee,650c16f0f2faf8d7a0d14c09,651c1e193cdcfaa69d32dfc1,null,null,"<p style=""font-size: 60px; font-family: BACS"">LdrbvkdrO</p>",,,,,,,,,,
html-keyboard-response,419,701826,0.0-18.0-0.6,5ae5db897edeb000014a85ee,650c16f0f2faf8d7a0d14c09,651c1e193cdcfaa69d32dfc1,null,null,"<p style=""font-size: 60px; font-family: BACS"">kbmZONUZ</p>",,,,,,,,,,
html-keyboard-response,420,702832,0.0-18.0-0.7,5ae5db897edeb000014a85ee,650c16f0f2faf8d7a0d14c09,651c1e193cdcfaa69d32dfc1,null,null,"<p style=""font-size: 60px; font-family: BACS"">Ldrbvravu</p>",,,,,,,,,,
html-keyboard-response,421,703838,0.0-18.0-0.8,5ae5db897edeb000014a85ee,650c16f0f2faf8d7a0d14c09,651c1e193cdcfaa69d32dfc1,null,null,"<p style=""font-size: 60px; font-family: BACS"">kbmZOkdrO</p>",,,,,,,,,,
html-keyboard-response,422,704843,0.0-18.0-0.9,5ae5db897edeb000014a85ee,650c16f0f2faf8d7a0d14c09,651c1e193cdcfaa69d32dfc1,null,null,"<p style=""font-size: 60px; font-family: BACS"">ZNLOvNUZ</p>",,,,,,,,,,
html-keyboard-response,423,705846,0.0-18.0-0.10,5ae5db897edeb000014a85ee,650c16f0f2faf8d7a0d14c09,651c1e193cdcfaa69d32dfc1,null,null,"<p style=""font-size: 60px; font-family: BACS"">kbmZOYArG</p>",,,,,,,,,,
html-keyboard-response,424,706851,0.0-18.0-0.11,5ae5db897edeb000014a85ee,650c16f0f2faf8d7a0d14c09,651c1e193cdcfaa69d32dfc1,null,null,"<p style=""font-size: 60px; font-family: BACS"">OmtlDTmc</p>",,,,,,,,,,
html-keyboard-response,425,707856,0.0-18.0-0.12,5ae5db897edeb000014a85ee,650c16f0f2faf8d7a0d14c09,651c1e193cdcfaa69d32dfc1,null,null,"<p style=""font-size: 60px; font-family: BACS"">dKDthAPEM</p>",,,,,,,,,,
html-keyboard-response,426,708861,0.0-18.0-0.13,5ae5db897edeb000014a85ee,650c16f0f2faf8d7a0d14c09,651c1e193cdcfaa69d32dfc1,null,null,"<p style=""font-size: 60px; font-family: BACS"">bYGOZravu</p>",,,,,,,,,,
html-keyboard-response,427,709866,0.0-18.0-0.14,5ae5db897edeb000014a85ee,650c16f0f2faf8d7a0d14c09,651c1e193cdcfaa69d32dfc1,null,null,"<p style=""font-size: 60px; font-family: BACS"">DOchlTmc</p>",,,,,,,,,,
html-keyboard-response,428,710872,0.0-18.0-0.15,5ae5db897edeb000014a85ee,650c16f0f2faf8d7a0d14c09,651c1e193cdcfaa69d32dfc1,null,null,"<p style=""font-size: 60px; font-family: BACS"">lGZvYArG</p>",,,,,,,,,,
html-keyboard-response,429,711899,0.0-18.0-0.16,5ae5db897edeb000014a85ee,650c16f0f2faf8d7a0d14c09,651c1e193cdcfaa69d32dfc1,null,null,"<p style=""font-size: 60px; font-family: BACS"">DOchlOBT</p>",,,,,,,,,,
html-keyboard-response,430,712907,0.0-18.0-0.17,5ae5db897edeb000014a85ee,650c16f0f2faf8d7a0d14c09,651c1e193cdcfaa69d32dfc1,null,null,"<p style=""font-size: 60px; font-family: BACS"">hCktAPEM</p>",,,,,,,,,,
html-keyboard-response,431,713914,0.0-18.0-0.18,5ae5db897edeb000014a85ee,650c16f0f2faf8d7a0d14c09,651c1e193cdcfaa69d32dfc1,null,null,"<p style=""font-size: 60px; font-family: BACS"">dKDthOBT</p>",,,,,,,,,,
html-keyboard-response,432,714920,0.0-18.0-0.19,5ae5db897edeb000014a85ee,650c16f0f2faf8d7a0d14c09,651c1e193cdcfaa69d32dfc1,null,null,"<p style=""font-size: 60px; font-family: BACS"">hTtBbAPEM</p>",,,,,,,,,,
html-keyboard-response,433,715926,0.0-18.0-0.20,5ae5db897edeb000014a85ee,650c16f0f2faf8d7a0d14c09,651c1e193cdcfaa69d32dfc1,null,null,"<p style=""font-size: 60px; font-family: BACS"">DBlhCdt</p>",,,,,,,,,,
html-keyboard-response,434,716930,0.0-18.0-0.21,5ae5db897edeb000014a85ee,650c16f0f2faf8d7a0d14c09,651c1e193cdcfaa69d32dfc1,null,null,"<p style=""font-size: 60px; font-family: BACS"">krGuravu</p>",,,,,,,,,,
html-keyboard-response,435,717935,0.0-18.0-0.22,5ae5db897edeb000014a85ee,650c16f0f2faf8d7a0d14c09,651c1e193cdcfaa69d32dfc1,null,null,"<p style=""font-size: 60px; font-family: BACS"">hCktCdt</p>",,,,,,,,,,
html-keyboard-response,436,718941,0.0-18.0-0.23,5ae5db897edeb000014a85ee,650c16f0f2faf8d7a0d14c09,651c1e193cdcfaa69d32dfc1,null,null,"<p style=""font-size: 60px; font-family: BACS"">mrOdNUZ</p>",,,,,,,,,,
html-keyboard-response,437,719947,0.0-18.0-0.24,5ae5db897edeb000014a85ee,650c16f0f2faf8d7a0d14c09,651c1e193cdcfaa69d32dfc1,null,null,"<p style=""font-size: 60px; font-family: BACS"">kbmZOJUG</p>",,,,,,,,,,
html-keyboard-response,438,720952,0.0-18.0-0.25,5ae5db897edeb000014a85ee,650c16f0f2faf8d7a0d14c09,651c1e193cdcfaa69d32dfc1,null,null,"<p style=""font-size: 60px; font-family: BACS"">bYGOZNUZ</p>",,,,,,,,,,
html-keyboard-response,439,721958,0.0-18.0-0.26,5ae5db897edeb000014a85ee,650c16f0f2faf8d7a0d14c09,651c1e193cdcfaa69d32dfc1,null,null,"<p style=""font-size: 60px; font-family: BACS"">krGuJUG</p>",,,,,,,,,,
html-keyboard-response,440,722964,0.0-18.0-0.27,5ae5db897edeb000014a85ee,650c16f0f2faf8d7a0d14c09,651c1e193cdcfaa69d32dfc1,null,null,"<p style=""font-size: 60px; font-family: BACS"">DBPhcOBT</p>",,,,,,,,,,
html-keyboard-response,441,723970,0.0-18.0-0.28,5ae5db897edeb000014a85ee,650c16f0f2faf8d7a0d14c09,651c1e193cdcfaa69d32dfc1,null,null,"<p style=""font-size: 60px; font-family: BACS"">OQarQJUG</p>",,,,,,,,,,
html-keyboard-response,442,724976,0.0-18.0-0.29,5ae5db897edeb000014a85ee,650c16f0f2faf8d7a0d14c09,651c1e193cdcfaa69d32dfc1,null,null,"<p style=""font-size: 60px; font-family: BACS"">DBlhOBT</p>",,,,,,,,,,
html-keyboard-response,443,725980,0.0-18.0-0.30,5ae5db897edeb000014a85ee,650c16f0f2faf8d7a0d14c09,651c1e193cdcfaa69d32dfc1,null,null,"<p style=""font-size: 60px; font-family: BACS"">ZNLOvkdrO</p>",,,,,,,,,,
html-keyboard-response,444,726986,0.0-18.0-0.31,5ae5db897edeb000014a85ee,650c16f0f2faf8d7a0d14c09,651c1e193cdcfaa69d32dfc1,null,null,"<p style=""font-size: 60px; font-family: BACS"">CRdBdAPEM</p>",,,,,,,,,,
html-keyboard-response,445,727991,0.0-18.0-0.32,5ae5db897edeb000014a85ee,650c16f0f2faf8d7a0d14c09,651c1e193cdcfaa69d32dfc1,null,null,"<p style=""font-size: 60px; font-family: BACS"">OmtlDCdt</p>",,,,,,,,,,
html-keyboard-response,446,728997,0.0-18.0-0.33,5ae5db897edeb000014a85ee,650c16f0f2faf8d7a0d14c09,651c1e193cdcfaa69d32dfc1,null,null,"<p style=""font-size: 60px; font-family: BACS"">mrOdkdrO</p>",,,,,,,,,,
html-keyboard-response,447,730002,0.0-18.0-0.34,5ae5db897edeb000014a85ee,650c16f0f2faf8d7a0d14c09,651c1e193cdcfaa69d32dfc1,null,null,"<p style=""font-size: 60px; font-family: BACS"">TPCbTmc</p>",,,,,,,,,,
html-keyboard-response,448,731008,0.0-18.0-0.35,5ae5db897edeb000014a85ee,650c16f0f2faf8d7a0d14c09,651c1e193cdcfaa69d32dfc1,null,null,"<p style=""font-size: 60px; font-family: BACS"">JNkaNUZ</p>",,,,,,,,,,
html-keyboard-response,449,732012,0.0-18.0-0.36,5ae5db897edeb000014a85ee,650c16f0f2faf8d7a0d14c09,651c1e193cdcfaa69d32dfc1,null,null,"<p style=""font-size: 60px; font-family: BACS"">CRdBdOBT</p>",,,,,,,,,,
html-keyboard-response,450,733017,0.0-18.0-0.37,5ae5db897edeb000014a85ee,650c16f0f2faf8d7a0d14c09,651c1e193cdcfaa69d32dfc1,null,null,"<p style=""font-size: 60px; font-family: BACS"">lGZvJUG</p>",,,,,,,,,,
html-keyboard-response,451,734023,0.0-18.0-0.38,5ae5db897edeb000014a85ee,650c16f0f2faf8d7a0d14c09,651c1e193cdcfaa69d32dfc1,null,null,"<p style=""font-size: 60px; font-family: BACS"">hTtBbTmc</p>",,,,,,,,,,
html-keyboard-response,452,735028,0.0-18.0-0.39,5ae5db897edeb000014a85ee,650c16f0f2faf8d7a0d14c09,651c1e193cdcfaa69d32dfc1,null,null,"<p style=""font-size: 60px; font-family: BACS"">DOchlYKPB</p>",,,,,,,,,,
html-keyboard-response,453,736034,0.0-18.0-0.40,5ae5db897edeb000014a85ee,650c16f0f2faf8d7a0d14c09,651c1e193cdcfaa69d32dfc1,null,null,"<p style=""font-size: 60px; font-family: BACS"">mrOdJUG</p>",,,,,,,,,,
html-keyboard-response,454,737039,0.0-18.0-0.41,5ae5db897edeb000014a85ee,650c16f0f2faf8d7a0d14c09,651c1e193cdcfaa69d32dfc1,null,null,"<p style=""font-size: 60px; font-family: BACS"">dKDthTmc</p>",,,,,,,,,,
html-keyboard-response,455,738045,0.0-18.0-0.42,5ae5db897edeb000014a85ee,650c16f0f2faf8d7a0d14c09,651c1e193cdcfaa69d32dfc1,null,null,"<p style=""font-size: 60px; font-family: BACS"">OmtlDYKPB</p>",,,,,,,,,,
html-keyboard-response,456,739049,0.0-18.0-0.43,5ae5db897edeb000014a85ee,650c16f0f2faf8d7a0d14c09,651c1e193cdcfaa69d32dfc1,null,null,"<p style=""font-size: 60px; font-family: BACS"">GJGcZJUG</p>",,,,,,,,,,
html-keyboard-response,457,740054,0.0-18.0-0.44,5ae5db897edeb000014a85ee,650c16f0f2faf8d7a0d14c09,651c1e193cdcfaa69d32dfc1,null,null,"<p style=""font-size: 60px; font-family: BACS"">DBlhTmc</p>",,,,,,,,,,
html-keyboard-response,458,741059,0.0-18.0-0.45,5ae5db897edeb000014a85ee,650c16f0f2faf8d7a0d14c09,651c1e193cdcfaa69d32dfc1,null,null,"<p style=""font-size: 60px; font-family: BACS"">OQarQravu</p>",,,,,,,,,,
html-keyboard-response,459,742065,0.0-18.0-0.46,5ae5db897edeb000014a85ee,650c16f0f2faf8d7a0d14c09,651c1e193cdcfaa69d32dfc1,null,null,"<p style=""font-size: 60px; font-family: BACS"">DOchlAPEM</p>",,,,,,,,,,
html-keyboard-response,460,743070,0.0-18.0-0.47,5ae5db897edeb000014a85ee,650c16f0f2faf8d7a0d14c09,651c1e193cdcfaa69d32dfc1,null,null,"<p style=""font-size: 60px; font-family: BACS"">krGuNUZ</p>",,,,,,,,,,
html-keyboard-response,461,744076,0.0-18.0-0.48,5ae5db897edeb000014a85ee,650c16f0f2faf8d7a0d14c09,651c1e193cdcfaa69d32dfc1,null,null,"<p style=""font-size: 60px; font-family: BACS"">TbKMETmc</p>",,,,,,,,,,
html-keyboard-response,462,745081,0.0-18.0-0.49,5ae5db897edeb000014a85ee,650c16f0f2faf8d7a0d14c09,651c1e193cdcfaa69d32dfc1,null,null,"<p style=""font-size: 60px; font-family: BACS"">TPCbOBT</p>",,,,,,,,,,
html-keyboard-response,463,746086,0.0-18.0-0.50,5ae5db897edeb000014a85ee,650c16f0f2faf8d7a0d14c09,651c1e193cdcfaa69d32dfc1,null,null,"<p style=""font-size: 60px; font-family: BACS"">GJGcZravu</p>",,,,,,,,,,
html-keyboard-response,464,747092,0.0-18.0-0.51,5ae5db897edeb000014a85ee,650c16f0f2faf8d7a0d14c09,651c1e193cdcfaa69d32dfc1,null,null,"<p style=""font-size: 60px; font-family: BACS"">lGZvkdrO</p>",,,,,,,,,,
html-keyboard-response,465,748097,0.0-18.0-0.52,5ae5db897edeb000014a85ee,650c16f0f2faf8d7a0d14c09,651c1e193cdcfaa69d32dfc1,null,null,"<p style=""font-size: 60px; font-family: BACS"">CRdBdYKPB</p>",,,,,,,,,,
html-keyboard-response,466,749104,0.0-18.0-0.53,5ae5db897edeb000014a85ee,650c16f0f2faf8d7a0d14c09,651c1e193cdcfaa69d32dfc1,null,null,"<p style=""font-size: 60px; font-family: BACS"">JNkaJUG</p>",,,,,,,,,,
html-keyboard-response,467,750108,0.0-18.0-0.54,5ae5db897edeb000014a85ee,650c16f0f2faf8d7a0d14c09,651c1e193cdcfaa69d32dfc1,null,null,"<p style=""font-size: 60px; font-family: BACS"">DBPhcYKPB</p>",,,,,,,,,,
