"trial_type","trial_index","time_elapsed","internal_node_id","subject_id","study_id","session_id","rt","response","stimulus","success","item","task","correct_response","correct","target","confound","name"
"pavlovia","0","3039","0.0-0.0","60b55a6d44e17d6f0b810cdd","64afc2c9a8732ea92db0087d","64afd48e84d0fd077d0ea6fd","","","","","","","","","","",""
"survey-html-form","1","6935","0.0-1.0","60b55a6d44e17d6f0b810cdd","64afc2c9a8732ea92db0087d","64afd48e84d0fd077d0ea6fd","3895","{""ID"":""60b55a6d44e17d6f0b810cdd""}","","","","","","","","",""
"html-keyboard-response","2","18139","0.0-2.0","60b55a6d44e17d6f0b810cdd","64afc2c9a8732ea92db0087d","64afd48e84d0fd077d0ea6fd","11202"," ","<p style=""font-size: 15px;"">Prima di cominciare, le chiediamo di leggere il modulo di consenso informato e confermare la sua volontà di partecipare all'esperimento.</p>
      <p style=""font-size: 15px;""> La preghiamo di ricordare che questo è un progetto di ricerca e che la sua partecipazione è completamente volontaria. Lei si potra' ritirare in qualunque momento, senza necessariamente dover dare alcuna spiegazione. Lo studio al quale Le si chiede di partecipare ha lo scopo di esaminare come i lettori elaborano le parole scritte. La somministrazione delle prove è individuale. Lei sarà impegnato in una sessione di lavoro della durata media di 10 minuti, e un questionario di 10 minuti. L’ordine delle prove ed il loro svolgimento sono stabiliti in modo tale da evitare un eventuale affaticamento. Tutte le prove saranno precedute da un breve addestramento in modo tale che abbia la possibilità di familiarizzare con il compito. Sono previste alcune pause nel corso dello svolgimento dell’esperimento. Una ricompensa di £4 (£8 per ora) Le verrà consegnata al termine della sessione di testing. Nonostante il testing preveda delle prove cognitive, il presente esperimento non costituisce una prova clinica che permetta la diagnosi di eventuali patologie.</p>
      <p style=""font-size: 15px;"">Tutti i dati raccolti grazie alla partecipazione Sua e di altre persone volontarie saranno custoditi in server sicuri e protetti da password, e non sarà consentito ad alcuna persona non autorizzata di accedervi. Le Sue informazioni personali saranno conservate separatamente dai risultati della presente ricerca, cui saranno associati soltanto attraverso un ID arbitrario. Grazie a questo processo di anonimizzazione dei dati, a nessun ricercatore sarà possibile analizzare i risultati sapendo da quale specifico partecipante essi provengono. Inoltre, questa procedura renderà impossibile la Sua identificazione anche nel momento in cui i risultati della ricerca fossero pubblicati su riviste scientifiche, o presentati a congressi o in qualsiasi altro pubblico consesso. Più in generale, i dati raccolti saranno trattati in accordo con le leggi sulla privacy e in conformità al Decreto Legislativo 30 giugno 2003 n. 196 “Codice in materia di protezione dei dati personali” e al Regolamento Europeo 2016/679 (General Data Protection Regulation - GDPR). Il Responsabile della protezione dei dati (RPD) è l’Avv. Valentina Carollo che può essere contattato ai seguenti indirizzi email: <a href=""mailto:dpo@sissa.it"">dpo@sissa.it</a> oppure <a href=""mailto:rpd@sissa.it"">rpd@sissa.it</a> - PEC: <a href=""mailto:protocollo@pec.sissa.it"">protocollo@pec.sissa.it</a>.</p>
      <p style=""font-size: 15px;""> Prima di esprimere il suo consenso alla partecipazione, Le ricordiamo ancora che in caso Lei abbia bisogno di delucidazioni su qualunque aspetto della procedura sperimentale, il ricercatore è a Sua completa disposizione (<a href=""mailto:aliebelt@sissa.it"">aliebelt@sissa.it</a>, <a href=""mailto:davide.crepaldi@sissa.it"">davide.crepaldi@sissa.it</a>).</p>
      <p style=""font-size: 15px;"">Se vuole scaricare il modulo di consenso informato, clicca qui: <a href=""BASL_modulo_consenso.pdf"" download>modulo di consenso</a>.</p>
      <p style=""font-size: 15px;""> Le chiediamo di premere la barra per continuare al consenso.</p>","","","","","","","",""
"survey-html-form","3","55147","0.0-3.0","60b55a6d44e17d6f0b810cdd","64afc2c9a8732ea92db0087d","64afd48e84d0fd077d0ea6fd","37008","{""consent1"":""YES"",""consent2"":""YES"",""consent3"":""YES"",""consent4"":""YES"",""consent5"":""YES"",""consent6"":""YES""}","","","","","","","","",""
"fullscreen","4","66762","0.0-4.0","60b55a6d44e17d6f0b810cdd","64afc2c9a8732ea92db0087d","64afd48e84d0fd077d0ea6fd","","","","true","","","","","","",""
"html-keyboard-response","5","82906","0.0-5.0","60b55a6d44e17d6f0b810cdd","64afc2c9a8732ea92db0087d","64afd48e84d0fd077d0ea6fd","16143"," ","<p>Benvenuta/o, e grazie mille del tuo tempo!</p>
      <p>In questo esperimento sarai un esperto/un'esperta di linguaggio cui è stato chiesto di dare un'occhiata ad alcuni messaggi che la Terra ha ricevuto dallo spazio. Il tuo compito, in questa prima parte dell'esperimento, sarà di fare molta attenzione alle parole che ti verranno mostrate; più tardi, i leader del mondo ti chiederanno qualche informazione su quello che hai visto. Le parole si susseguiranno abbastanza velocemente; sembra che questi alieni abbiano una certa fretta :-) </p>
      <p>Per favore, chiama lo sperimentatore se ha qualche domanda.</p><p>Premi la barra per continuare.</p>","","","","","","","",""
"html-keyboard-response","6","86776","0.0-6.0","60b55a6d44e17d6f0b810cdd","64afc2c9a8732ea92db0087d","64afd48e84d0fd077d0ea6fd","3870"," ","<p>Ecco un esempio delle parole che vedrai:</p>
      <img src='esempio.png' height='400px'>
      <p>Quando sei pronti per iniziare, premi la barra.</p></div>","","","","","","","",""
"html-keyboard-response","7","87780","0.0-7.0-0.0","60b55a6d44e17d6f0b810cdd","64afc2c9a8732ea92db0087d","64afd48e84d0fd077d0ea6fd","null","null","<p style=""font-size: 60px; font-family: BACS"">kZUbkmU</p>","","","","","","","",""
"html-keyboard-response","8","88782","0.0-7.0-0.1","60b55a6d44e17d6f0b810cdd","64afc2c9a8732ea92db0087d","64afd48e84d0fd077d0ea6fd","null","null","<p style=""font-size: 60px; font-family: BACS"">GJGcZuZc</p>","","","","","","","",""
"html-keyboard-response","9","89783","0.0-7.0-0.2","60b55a6d44e17d6f0b810cdd","64afc2c9a8732ea92db0087d","64afd48e84d0fd077d0ea6fd","null","null","<p style=""font-size: 60px; font-family: BACS"">DOBhYOYK</p>","","","","","","","",""
"html-keyboard-response","10","90797","0.0-7.0-0.3","60b55a6d44e17d6f0b810cdd","64afc2c9a8732ea92db0087d","64afd48e84d0fd077d0ea6fd","null","null","<p style=""font-size: 60px; font-family: BACS"">vkYGlNmAG</p>","","","","","","","",""
"html-keyboard-response","11","91799","0.0-7.0-0.4","60b55a6d44e17d6f0b810cdd","64afc2c9a8732ea92db0087d","64afd48e84d0fd077d0ea6fd","null","null","<p style=""font-size: 60px; font-family: BACS"">uQkrdcUN</p>","","","","","","","",""
"html-keyboard-response","12","92801","0.0-7.0-0.5","60b55a6d44e17d6f0b810cdd","64afc2c9a8732ea92db0087d","64afd48e84d0fd077d0ea6fd","null","null","<p style=""font-size: 60px; font-family: BACS"">DBlhPMYm</p>","","","","","","","",""
"html-keyboard-response","13","93807","0.0-7.0-0.6","60b55a6d44e17d6f0b810cdd","64afc2c9a8732ea92db0087d","64afd48e84d0fd077d0ea6fd","null","null","<p style=""font-size: 60px; font-family: BACS"">rGUAYuZc</p>","","","","","","","",""
"html-keyboard-response","14","94809","0.0-7.0-0.7","60b55a6d44e17d6f0b810cdd","64afc2c9a8732ea92db0087d","64afd48e84d0fd077d0ea6fd","null","null","<p style=""font-size: 60px; font-family: BACS"">DOBhYPMYm</p>","","","","","","","",""
"html-keyboard-response","15","95810","0.0-7.0-0.8","60b55a6d44e17d6f0b810cdd","64afc2c9a8732ea92db0087d","64afd48e84d0fd077d0ea6fd","null","null","<p style=""font-size: 60px; font-family: BACS"">PEkhAdRA</p>","","","","","","","",""
"html-keyboard-response","16","96815","0.0-7.0-0.9","60b55a6d44e17d6f0b810cdd","64afc2c9a8732ea92db0087d","64afd48e84d0fd077d0ea6fd","null","null","<p style=""font-size: 60px; font-family: BACS"">Udumdrba</p>","","","","","","","",""
"html-keyboard-response","17","97821","0.0-7.0-0.10","60b55a6d44e17d6f0b810cdd","64afc2c9a8732ea92db0087d","64afd48e84d0fd077d0ea6fd","null","null","<p style=""font-size: 60px; font-family: BACS"">AlUYcUN</p>","","","","","","","",""
"html-keyboard-response","18","98822","0.0-7.0-0.11","60b55a6d44e17d6f0b810cdd","64afc2c9a8732ea92db0087d","64afd48e84d0fd077d0ea6fd","null","null","<p style=""font-size: 60px; font-family: BACS"">PEkhAPMYm</p>","","","","","","","",""
"html-keyboard-response","19","99828","0.0-7.0-0.12","60b55a6d44e17d6f0b810cdd","64afc2c9a8732ea92db0087d","64afd48e84d0fd077d0ea6fd","null","null","<p style=""font-size: 60px; font-family: BACS"">cRElDOYK</p>","","","","","","","",""
"html-keyboard-response","20","100835","0.0-7.0-0.13","60b55a6d44e17d6f0b810cdd","64afc2c9a8732ea92db0087d","64afd48e84d0fd077d0ea6fd","null","null","<p style=""font-size: 60px; font-family: BACS"">YObAdRA</p>","","","","","","","",""
"html-keyboard-response","21","101842","0.0-7.0-0.14","60b55a6d44e17d6f0b810cdd","64afc2c9a8732ea92db0087d","64afd48e84d0fd077d0ea6fd","null","null","<p style=""font-size: 60px; font-family: BACS"">PEkhABYhT</p>","","","","","","","",""
"html-keyboard-response","22","102844","0.0-7.0-0.15","60b55a6d44e17d6f0b810cdd","64afc2c9a8732ea92db0087d","64afd48e84d0fd077d0ea6fd","null","null","<p style=""font-size: 60px; font-family: BACS"">DOBhYdRA</p>","","","","","","","",""
"html-keyboard-response","23","103845","0.0-7.0-0.16","60b55a6d44e17d6f0b810cdd","64afc2c9a8732ea92db0087d","64afd48e84d0fd077d0ea6fd","null","null","<p style=""font-size: 60px; font-family: BACS"">vkYGlcUN</p>","","","","","","","",""
"html-keyboard-response","24","104858","0.0-7.0-0.17","60b55a6d44e17d6f0b810cdd","64afc2c9a8732ea92db0087d","64afd48e84d0fd077d0ea6fd","null","null","<p style=""font-size: 60px; font-family: BACS"">uQkrdNmAG</p>","","","","","","","",""
"html-keyboard-response","25","105859","0.0-7.0-0.18","60b55a6d44e17d6f0b810cdd","64afc2c9a8732ea92db0087d","64afd48e84d0fd077d0ea6fd","null","null","<p style=""font-size: 60px; font-family: BACS"">DhMtPMYm</p>","","","","","","","",""
"html-keyboard-response","26","106869","0.0-7.0-0.19","60b55a6d44e17d6f0b810cdd","64afc2c9a8732ea92db0087d","64afd48e84d0fd077d0ea6fd","null","null","<p style=""font-size: 60px; font-family: BACS"">TbKMEBYhT</p>","","","","","","","",""
"html-keyboard-response","27","107871","0.0-7.0-0.20","60b55a6d44e17d6f0b810cdd","64afc2c9a8732ea92db0087d","64afd48e84d0fd077d0ea6fd","null","null","<p style=""font-size: 60px; font-family: BACS"">rGUAYcUN</p>","","","","","","","",""
"html-keyboard-response","28","108884","0.0-7.0-0.21","60b55a6d44e17d6f0b810cdd","64afc2c9a8732ea92db0087d","64afd48e84d0fd077d0ea6fd","null","null","<p style=""font-size: 60px; font-family: BACS"">DBlhOYK</p>","","","","","","","",""
"html-keyboard-response","29","109885","0.0-7.0-0.22","60b55a6d44e17d6f0b810cdd","64afc2c9a8732ea92db0087d","64afd48e84d0fd077d0ea6fd","null","null","<p style=""font-size: 60px; font-family: BACS"">JAdLmNmAG</p>","","","","","","","",""
"html-keyboard-response","30","110888","0.0-7.0-0.23","60b55a6d44e17d6f0b810cdd","64afc2c9a8732ea92db0087d","64afd48e84d0fd077d0ea6fd","null","null","<p style=""font-size: 60px; font-family: BACS"">AlUYkmU</p>","","","","","","","",""
"html-keyboard-response","31","111889","0.0-7.0-0.24","60b55a6d44e17d6f0b810cdd","64afc2c9a8732ea92db0087d","64afd48e84d0fd077d0ea6fd","null","null","<p style=""font-size: 60px; font-family: BACS"">TbKMEOYK</p>","","","","","","","",""
"html-keyboard-response","32","112895","0.0-7.0-0.25","60b55a6d44e17d6f0b810cdd","64afc2c9a8732ea92db0087d","64afd48e84d0fd077d0ea6fd","null","null","<p style=""font-size: 60px; font-family: BACS"">AlUYrba</p>","","","","","","","",""
"html-keyboard-response","33","113901","0.0-7.0-0.26","60b55a6d44e17d6f0b810cdd","64afc2c9a8732ea92db0087d","64afd48e84d0fd077d0ea6fd","null","null","<p style=""font-size: 60px; font-family: BACS"">KRARmOYK</p>","","","","","","","",""
"html-keyboard-response","34","114903","0.0-7.0-0.27","60b55a6d44e17d6f0b810cdd","64afc2c9a8732ea92db0087d","64afd48e84d0fd077d0ea6fd","null","null","<p style=""font-size: 60px; font-family: BACS"">NQZvkmU</p>","","","","","","","",""
"html-keyboard-response","35","115904","0.0-7.0-0.28","60b55a6d44e17d6f0b810cdd","64afc2c9a8732ea92db0087d","64afd48e84d0fd077d0ea6fd","null","null","<p style=""font-size: 60px; font-family: BACS"">cRElDKOYC</p>","","","","","","","",""
"html-keyboard-response","36","116914","0.0-7.0-0.29","60b55a6d44e17d6f0b810cdd","64afc2c9a8732ea92db0087d","64afd48e84d0fd077d0ea6fd","null","null","<p style=""font-size: 60px; font-family: BACS"">uQkrduZc</p>","","","","","","","",""
"html-keyboard-response","37","117928","0.0-7.0-0.30","60b55a6d44e17d6f0b810cdd","64afc2c9a8732ea92db0087d","64afd48e84d0fd077d0ea6fd","null","null","<p style=""font-size: 60px; font-family: BACS"">DhMtKOYC</p>","","","","","","","",""
"html-keyboard-response","38","118939","0.0-7.0-0.31","60b55a6d44e17d6f0b810cdd","64afc2c9a8732ea92db0087d","64afd48e84d0fd077d0ea6fd","null","null","<p style=""font-size: 60px; font-family: BACS"">KRARmdRA</p>","","","","","","","",""
"html-keyboard-response","39","119946","0.0-7.0-0.32","60b55a6d44e17d6f0b810cdd","64afc2c9a8732ea92db0087d","64afd48e84d0fd077d0ea6fd","null","null","<p style=""font-size: 60px; font-family: BACS"">dRbDbKOYC</p>","","","","","","","",""
"html-keyboard-response","40","120955","0.0-7.0-0.33","60b55a6d44e17d6f0b810cdd","64afc2c9a8732ea92db0087d","64afd48e84d0fd077d0ea6fd","null","null","<p style=""font-size: 60px; font-family: BACS"">DBlhdRA</p>","","","","","","","",""
"html-keyboard-response","41","121958","0.0-7.0-0.34","60b55a6d44e17d6f0b810cdd","64afc2c9a8732ea92db0087d","64afd48e84d0fd077d0ea6fd","null","null","<p style=""font-size: 60px; font-family: BACS"">uQkrdkmU</p>","","","","","","","",""
"html-keyboard-response","42","122965","0.0-7.0-0.35","60b55a6d44e17d6f0b810cdd","64afc2c9a8732ea92db0087d","64afd48e84d0fd077d0ea6fd","null","null","<p style=""font-size: 60px; font-family: BACS"">KRARmBYhT</p>","","","","","","","",""
"html-keyboard-response","43","123966","0.0-7.0-0.36","60b55a6d44e17d6f0b810cdd","64afc2c9a8732ea92db0087d","64afd48e84d0fd077d0ea6fd","null","null","<p style=""font-size: 60px; font-family: BACS"">JAdLmrba</p>","","","","","","","",""
"html-keyboard-response","44","124967","0.0-7.0-0.37","60b55a6d44e17d6f0b810cdd","64afc2c9a8732ea92db0087d","64afd48e84d0fd077d0ea6fd","null","null","<p style=""font-size: 60px; font-family: BACS"">DhMtBYhT</p>","","","","","","","",""
"html-keyboard-response","45","125969","0.0-7.0-0.38","60b55a6d44e17d6f0b810cdd","64afc2c9a8732ea92db0087d","64afd48e84d0fd077d0ea6fd","null","null","<p style=""font-size: 60px; font-family: BACS"">kZUbrba</p>","","","","","","","",""
"html-keyboard-response","46","126970","0.0-7.0-0.39","60b55a6d44e17d6f0b810cdd","64afc2c9a8732ea92db0087d","64afd48e84d0fd077d0ea6fd","null","null","<p style=""font-size: 60px; font-family: BACS"">JAdLmcUN</p>","","","","","","","",""
"html-keyboard-response","47","127979","0.0-7.0-0.40","60b55a6d44e17d6f0b810cdd","64afc2c9a8732ea92db0087d","64afd48e84d0fd077d0ea6fd","null","null","<p style=""font-size: 60px; font-family: BACS"">vkYGlrba</p>","","","","","","","",""
"html-keyboard-response","48","128993","0.0-7.0-0.41","60b55a6d44e17d6f0b810cdd","64afc2c9a8732ea92db0087d","64afd48e84d0fd077d0ea6fd","null","null","<p style=""font-size: 60px; font-family: BACS"">rGUAYkmU</p>","","","","","","","",""
"html-keyboard-response","49","129998","0.0-7.0-0.42","60b55a6d44e17d6f0b810cdd","64afc2c9a8732ea92db0087d","64afd48e84d0fd077d0ea6fd","null","null","<p style=""font-size: 60px; font-family: BACS"">YObAOYK</p>","","","","","","","",""
"html-keyboard-response","50","131001","0.0-7.0-0.43","60b55a6d44e17d6f0b810cdd","64afc2c9a8732ea92db0087d","64afd48e84d0fd077d0ea6fd","null","null","<p style=""font-size: 60px; font-family: BACS"">UdumdNmAG</p>","","","","","","","",""
"html-keyboard-response","51","132009","0.0-7.0-0.44","60b55a6d44e17d6f0b810cdd","64afc2c9a8732ea92db0087d","64afd48e84d0fd077d0ea6fd","null","null","<p style=""font-size: 60px; font-family: BACS"">YJkbuZc</p>","","","","","","","",""
"html-keyboard-response","52","133010","0.0-7.0-0.45","60b55a6d44e17d6f0b810cdd","64afc2c9a8732ea92db0087d","64afd48e84d0fd077d0ea6fd","null","null","<p style=""font-size: 60px; font-family: BACS"">NQZvNmAG</p>","","","","","","","",""
"html-keyboard-response","53","134022","0.0-7.0-0.46","60b55a6d44e17d6f0b810cdd","64afc2c9a8732ea92db0087d","64afd48e84d0fd077d0ea6fd","null","null","<p style=""font-size: 60px; font-family: BACS"">DOchlBYhT</p>","","","","","","","",""
"html-keyboard-response","54","135022","0.0-7.0-0.47","60b55a6d44e17d6f0b810cdd","64afc2c9a8732ea92db0087d","64afd48e84d0fd077d0ea6fd","null","null","<p style=""font-size: 60px; font-family: BACS"">dRbDbOYK</p>","","","","","","","",""
"html-keyboard-response","55","136029","0.0-7.0-0.48","60b55a6d44e17d6f0b810cdd","64afc2c9a8732ea92db0087d","64afd48e84d0fd077d0ea6fd","null","null","<p style=""font-size: 60px; font-family: BACS"">cRElDBYhT</p>","","","","","","","",""
"html-keyboard-response","56","137029","0.0-7.0-0.49","60b55a6d44e17d6f0b810cdd","64afc2c9a8732ea92db0087d","64afd48e84d0fd077d0ea6fd","null","null","<p style=""font-size: 60px; font-family: BACS"">YJkbcUN</p>","","","","","","","",""
"html-keyboard-response","57","138030","0.0-7.0-0.50","60b55a6d44e17d6f0b810cdd","64afc2c9a8732ea92db0087d","64afd48e84d0fd077d0ea6fd","null","null","<p style=""font-size: 60px; font-family: BACS"">PEkhAKOYC</p>","","","","","","","",""
"html-keyboard-response","58","139032","0.0-7.0-0.51","60b55a6d44e17d6f0b810cdd","64afc2c9a8732ea92db0087d","64afd48e84d0fd077d0ea6fd","null","null","<p style=""font-size: 60px; font-family: BACS"">vkYGlkmU</p>","","","","","","","",""
"html-keyboard-response","59","140038","0.0-7.0-0.52","60b55a6d44e17d6f0b810cdd","64afc2c9a8732ea92db0087d","64afd48e84d0fd077d0ea6fd","null","null","<p style=""font-size: 60px; font-family: BACS"">DBlhBYhT</p>","","","","","","","",""
"html-keyboard-response","60","141039","0.0-7.0-0.53","60b55a6d44e17d6f0b810cdd","64afc2c9a8732ea92db0087d","64afd48e84d0fd077d0ea6fd","null","null","<p style=""font-size: 60px; font-family: BACS"">kZUbuZc</p>","","","","","","","",""
"html-keyboard-response","61","142050","0.0-7.0-0.54","60b55a6d44e17d6f0b810cdd","64afc2c9a8732ea92db0087d","64afd48e84d0fd077d0ea6fd","null","null","<p style=""font-size: 60px; font-family: BACS"">cRElDPMYm</p>","","","","","","","",""
"html-keyboard-response","62","143060","0.0-7.0-0.55","60b55a6d44e17d6f0b810cdd","64afc2c9a8732ea92db0087d","64afd48e84d0fd077d0ea6fd","null","null","<p style=""font-size: 60px; font-family: BACS"">YJkbrba</p>","","","","","","","",""
"html-keyboard-response","63","144062","0.0-7.0-0.56","60b55a6d44e17d6f0b810cdd","64afc2c9a8732ea92db0087d","64afd48e84d0fd077d0ea6fd","null","null","<p style=""font-size: 60px; font-family: BACS"">TbKMEdRA</p>","","","","","","","",""
"html-keyboard-response","64","145064","0.0-7.0-0.57","60b55a6d44e17d6f0b810cdd","64afc2c9a8732ea92db0087d","64afd48e84d0fd077d0ea6fd","null","null","<p style=""font-size: 60px; font-family: BACS"">UdumduZc</p>","","","","","","","",""
"html-keyboard-response","65","146079","0.0-7.0-0.58","60b55a6d44e17d6f0b810cdd","64afc2c9a8732ea92db0087d","64afd48e84d0fd077d0ea6fd","null","null","<p style=""font-size: 60px; font-family: BACS"">AlUYNmAG</p>","","","","","","","",""
"html-keyboard-response","66","147089","0.0-7.0-0.59","60b55a6d44e17d6f0b810cdd","64afc2c9a8732ea92db0087d","64afd48e84d0fd077d0ea6fd","null","null","<p style=""font-size: 60px; font-family: BACS"">DOchldRA</p>","","","","","","","",""
"html-keyboard-response","67","148090","0.0-7.0-0.60","60b55a6d44e17d6f0b810cdd","64afc2c9a8732ea92db0087d","64afd48e84d0fd077d0ea6fd","null","null","<p style=""font-size: 60px; font-family: BACS"">kZUbcUN</p>","","","","","","","",""
"html-keyboard-response","68","149092","0.0-7.0-0.61","60b55a6d44e17d6f0b810cdd","64afc2c9a8732ea92db0087d","64afd48e84d0fd077d0ea6fd","null","null","<p style=""font-size: 60px; font-family: BACS"">YObAKOYC</p>","","","","","","","",""
"html-keyboard-response","69","150105","0.0-7.0-0.62","60b55a6d44e17d6f0b810cdd","64afc2c9a8732ea92db0087d","64afd48e84d0fd077d0ea6fd","null","null","<p style=""font-size: 60px; font-family: BACS"">dRbDbBYhT</p>","","","","","","","",""
"html-keyboard-response","70","151106","0.0-7.0-0.63","60b55a6d44e17d6f0b810cdd","64afc2c9a8732ea92db0087d","64afd48e84d0fd077d0ea6fd","null","null","<p style=""font-size: 60px; font-family: BACS"">DOBhYKOYC</p>","","","","","","","",""
"html-keyboard-response","71","152114","0.0-7.0-0.64","60b55a6d44e17d6f0b810cdd","64afc2c9a8732ea92db0087d","64afd48e84d0fd077d0ea6fd","null","null","<p style=""font-size: 60px; font-family: BACS"">NQZvrba</p>","","","","","","","",""
"html-keyboard-response","72","153114","0.0-7.0-0.65","60b55a6d44e17d6f0b810cdd","64afc2c9a8732ea92db0087d","64afd48e84d0fd077d0ea6fd","null","null","<p style=""font-size: 60px; font-family: BACS"">DOchlKOYC</p>","","","","","","","",""
"html-keyboard-response","73","154115","0.0-7.0-0.66","60b55a6d44e17d6f0b810cdd","64afc2c9a8732ea92db0087d","64afd48e84d0fd077d0ea6fd","null","null","<p style=""font-size: 60px; font-family: BACS"">GJGcZkmU</p>","","","","","","","",""
"html-keyboard-response","74","155116","0.0-7.0-0.67","60b55a6d44e17d6f0b810cdd","64afc2c9a8732ea92db0087d","64afd48e84d0fd077d0ea6fd","null","null","<p style=""font-size: 60px; font-family: BACS"">NQZvuZc</p>","","","","","","","",""
"html-keyboard-response","75","156127","0.0-7.0-0.68","60b55a6d44e17d6f0b810cdd","64afc2c9a8732ea92db0087d","64afd48e84d0fd077d0ea6fd","null","null","<p style=""font-size: 60px; font-family: BACS"">TbKMEKOYC</p>","","","","","","","",""
"html-keyboard-response","76","157132","0.0-7.0-0.69","60b55a6d44e17d6f0b810cdd","64afc2c9a8732ea92db0087d","64afd48e84d0fd077d0ea6fd","null","null","<p style=""font-size: 60px; font-family: BACS"">rGUAYNmAG</p>","","","","","","","",""
"html-keyboard-response","77","158134","0.0-7.0-0.70","60b55a6d44e17d6f0b810cdd","64afc2c9a8732ea92db0087d","64afd48e84d0fd077d0ea6fd","null","null","<p style=""font-size: 60px; font-family: BACS"">GJGcZrba</p>","","","","","","","",""
"html-keyboard-response","78","159145","0.0-7.0-0.71","60b55a6d44e17d6f0b810cdd","64afc2c9a8732ea92db0087d","64afd48e84d0fd077d0ea6fd","null","null","<p style=""font-size: 60px; font-family: BACS"">DhMtOYK</p>","","","","","","","",""
"html-keyboard-response","79","160149","0.0-7.0-0.72","60b55a6d44e17d6f0b810cdd","64afc2c9a8732ea92db0087d","64afd48e84d0fd077d0ea6fd","null","null","<p style=""font-size: 60px; font-family: BACS"">GJGcZcUN</p>","","","","","","","",""
"html-keyboard-response","80","161155","0.0-7.0-0.73","60b55a6d44e17d6f0b810cdd","64afc2c9a8732ea92db0087d","64afd48e84d0fd077d0ea6fd","null","null","<p style=""font-size: 60px; font-family: BACS"">UdumdkmU</p>","","","","","","","",""
"html-keyboard-response","81","162157","0.0-7.0-0.74","60b55a6d44e17d6f0b810cdd","64afc2c9a8732ea92db0087d","64afd48e84d0fd077d0ea6fd","null","null","<p style=""font-size: 60px; font-family: BACS"">dRbDbdRA</p>","","","","","","","",""
"html-keyboard-response","82","163159","0.0-7.0-0.75","60b55a6d44e17d6f0b810cdd","64afc2c9a8732ea92db0087d","64afd48e84d0fd077d0ea6fd","null","null","<p style=""font-size: 60px; font-family: BACS"">YObAPMYm</p>","","","","","","","",""
"html-keyboard-response","83","164173","0.0-7.0-0.76","60b55a6d44e17d6f0b810cdd","64afc2c9a8732ea92db0087d","64afd48e84d0fd077d0ea6fd","null","null","<p style=""font-size: 60px; font-family: BACS"">JAdLmuZc</p>","","","","","","","",""
"html-keyboard-response","84","165175","0.0-7.0-0.77","60b55a6d44e17d6f0b810cdd","64afc2c9a8732ea92db0087d","64afd48e84d0fd077d0ea6fd","null","null","<p style=""font-size: 60px; font-family: BACS"">KRARmPMYm</p>","","","","","","","",""
"html-keyboard-response","85","166178","0.0-7.0-0.78","60b55a6d44e17d6f0b810cdd","64afc2c9a8732ea92db0087d","64afd48e84d0fd077d0ea6fd","null","null","<p style=""font-size: 60px; font-family: BACS"">YJkbNmAG</p>","","","","","","","",""
"html-keyboard-response","86","167195","0.0-7.0-0.79","60b55a6d44e17d6f0b810cdd","64afc2c9a8732ea92db0087d","64afd48e84d0fd077d0ea6fd","null","null","<p style=""font-size: 60px; font-family: BACS"">DOchlPMYm</p>","","","","","","","",""
"html-keyboard-response","87","176207","0.0-8.0","60b55a6d44e17d6f0b810cdd","64afc2c9a8732ea92db0087d","64afd48e84d0fd077d0ea6fd","9011"," ","<p>Ottimo, hai visto il primo blocco di parole. Ora puoi prenderti una piccola pausa.</p>
      <p>Premi la barra quando sei pronta/o per riprendere.</p>","","","","","","","",""
"html-keyboard-response","88","177207","0.0-9.0-0.0","60b55a6d44e17d6f0b810cdd","64afc2c9a8732ea92db0087d","64afd48e84d0fd077d0ea6fd","null","null","<p style=""font-size: 60px; font-family: BACS"">uQkrduZc</p>","","","","","","","",""
"html-keyboard-response","89","178223","0.0-9.0-0.1","60b55a6d44e17d6f0b810cdd","64afc2c9a8732ea92db0087d","64afd48e84d0fd077d0ea6fd","null","null","<p style=""font-size: 60px; font-family: BACS"">DBlhOYK</p>","","","","","","","",""
"html-keyboard-response","90","179228","0.0-9.0-0.2","60b55a6d44e17d6f0b810cdd","64afc2c9a8732ea92db0087d","64afd48e84d0fd077d0ea6fd","null","null","<p style=""font-size: 60px; font-family: BACS"">PEkhABYhT</p>","","","","","","","",""
"html-keyboard-response","91","180230","0.0-9.0-0.3","60b55a6d44e17d6f0b810cdd","64afc2c9a8732ea92db0087d","64afd48e84d0fd077d0ea6fd","null","null","<p style=""font-size: 60px; font-family: BACS"">DhMtOYK</p>","","","","","","","",""
"html-keyboard-response","92","181232","0.0-9.0-0.4","60b55a6d44e17d6f0b810cdd","64afc2c9a8732ea92db0087d","64afd48e84d0fd077d0ea6fd","null","null","<p style=""font-size: 60px; font-family: BACS"">dRbDbdRA</p>","","","","","","","",""
"html-keyboard-response","93","182233","0.0-9.0-0.5","60b55a6d44e17d6f0b810cdd","64afc2c9a8732ea92db0087d","64afd48e84d0fd077d0ea6fd","null","null","<p style=""font-size: 60px; font-family: BACS"">JAdLmuZc</p>","","","","","","","",""
"html-keyboard-response","94","183238","0.0-9.0-0.6","60b55a6d44e17d6f0b810cdd","64afc2c9a8732ea92db0087d","64afd48e84d0fd077d0ea6fd","null","null","<p style=""font-size: 60px; font-family: BACS"">vkYGlkmU</p>","","","","","","","",""
"html-keyboard-response","95","184247","0.0-9.0-0.7","60b55a6d44e17d6f0b810cdd","64afc2c9a8732ea92db0087d","64afd48e84d0fd077d0ea6fd","null","null","<p style=""font-size: 60px; font-family: BACS"">GJGcZrba</p>","","","","","","","",""
"html-keyboard-response","96","185249","0.0-9.0-0.8","60b55a6d44e17d6f0b810cdd","64afc2c9a8732ea92db0087d","64afd48e84d0fd077d0ea6fd","null","null","<p style=""font-size: 60px; font-family: BACS"">kZUbcUN</p>","","","","","","","",""
"html-keyboard-response","97","186253","0.0-9.0-0.9","60b55a6d44e17d6f0b810cdd","64afc2c9a8732ea92db0087d","64afd48e84d0fd077d0ea6fd","null","null","<p style=""font-size: 60px; font-family: BACS"">Udumdrba</p>","","","","","","","",""
"html-keyboard-response","98","187257","0.0-9.0-0.10","60b55a6d44e17d6f0b810cdd","64afc2c9a8732ea92db0087d","64afd48e84d0fd077d0ea6fd","null","null","<p style=""font-size: 60px; font-family: BACS"">DOBhYKOYC</p>","","","","","","","",""
"html-keyboard-response","99","188266","0.0-9.0-0.11","60b55a6d44e17d6f0b810cdd","64afc2c9a8732ea92db0087d","64afd48e84d0fd077d0ea6fd","null","null","<p style=""font-size: 60px; font-family: BACS"">DhMtBYhT</p>","","","","","","","",""
"html-keyboard-response","100","189273","0.0-9.0-0.12","60b55a6d44e17d6f0b810cdd","64afc2c9a8732ea92db0087d","64afd48e84d0fd077d0ea6fd","null","null","<p style=""font-size: 60px; font-family: BACS"">YJkbuZc</p>","","","","","","","",""
"html-keyboard-response","101","190278","0.0-9.0-0.13","60b55a6d44e17d6f0b810cdd","64afc2c9a8732ea92db0087d","64afd48e84d0fd077d0ea6fd","null","null","<p style=""font-size: 60px; font-family: BACS"">DOBhYdRA</p>","","","","","","","",""
"html-keyboard-response","102","191279","0.0-9.0-0.14","60b55a6d44e17d6f0b810cdd","64afc2c9a8732ea92db0087d","64afd48e84d0fd077d0ea6fd","null","null","<p style=""font-size: 60px; font-family: BACS"">NQZvkmU</p>","","","","","","","",""
"html-keyboard-response","103","192280","0.0-9.0-0.15","60b55a6d44e17d6f0b810cdd","64afc2c9a8732ea92db0087d","64afd48e84d0fd077d0ea6fd","null","null","<p style=""font-size: 60px; font-family: BACS"">dRbDbOYK</p>","","","","","","","",""
"html-keyboard-response","104","193285","0.0-9.0-0.16","60b55a6d44e17d6f0b810cdd","64afc2c9a8732ea92db0087d","64afd48e84d0fd077d0ea6fd","null","null","<p style=""font-size: 60px; font-family: BACS"">UdumduZc</p>","","","","","","","",""
"html-keyboard-response","105","194288","0.0-9.0-0.17","60b55a6d44e17d6f0b810cdd","64afc2c9a8732ea92db0087d","64afd48e84d0fd077d0ea6fd","null","null","<p style=""font-size: 60px; font-family: BACS"">AlUYcUN</p>","","","","","","","",""
"html-keyboard-response","106","195294","0.0-9.0-0.18","60b55a6d44e17d6f0b810cdd","64afc2c9a8732ea92db0087d","64afd48e84d0fd077d0ea6fd","null","null","<p style=""font-size: 60px; font-family: BACS"">DBlhBYhT</p>","","","","","","","",""
"html-keyboard-response","107","196295","0.0-9.0-0.19","60b55a6d44e17d6f0b810cdd","64afc2c9a8732ea92db0087d","64afd48e84d0fd077d0ea6fd","null","null","<p style=""font-size: 60px; font-family: BACS"">UdumdkmU</p>","","","","","","","",""
"html-keyboard-response","108","197297","0.0-9.0-0.20","60b55a6d44e17d6f0b810cdd","64afc2c9a8732ea92db0087d","64afd48e84d0fd077d0ea6fd","null","null","<p style=""font-size: 60px; font-family: BACS"">TbKMEdRA</p>","","","","","","","",""
"html-keyboard-response","109","198298","0.0-9.0-0.21","60b55a6d44e17d6f0b810cdd","64afc2c9a8732ea92db0087d","64afd48e84d0fd077d0ea6fd","null","null","<p style=""font-size: 60px; font-family: BACS"">rGUAYcUN</p>","","","","","","","",""
"html-keyboard-response","110","199303","0.0-9.0-0.22","60b55a6d44e17d6f0b810cdd","64afc2c9a8732ea92db0087d","64afd48e84d0fd077d0ea6fd","null","null","<p style=""font-size: 60px; font-family: BACS"">DOchlPMYm</p>","","","","","","","",""
"html-keyboard-response","111","200304","0.0-9.0-0.23","60b55a6d44e17d6f0b810cdd","64afc2c9a8732ea92db0087d","64afd48e84d0fd077d0ea6fd","null","null","<p style=""font-size: 60px; font-family: BACS"">DhMtKOYC</p>","","","","","","","",""
"html-keyboard-response","112","201312","0.0-9.0-0.24","60b55a6d44e17d6f0b810cdd","64afc2c9a8732ea92db0087d","64afd48e84d0fd077d0ea6fd","null","null","<p style=""font-size: 60px; font-family: BACS"">DBlhdRA</p>","","","","","","","",""
"html-keyboard-response","113","202313","0.0-9.0-0.25","60b55a6d44e17d6f0b810cdd","64afc2c9a8732ea92db0087d","64afd48e84d0fd077d0ea6fd","null","null","<p style=""font-size: 60px; font-family: BACS"">YObAKOYC</p>","","","","","","","",""
"html-keyboard-response","114","203317","0.0-9.0-0.26","60b55a6d44e17d6f0b810cdd","64afc2c9a8732ea92db0087d","64afd48e84d0fd077d0ea6fd","null","null","<p style=""font-size: 60px; font-family: BACS"">GJGcZcUN</p>","","","","","","","",""
"html-keyboard-response","115","204324","0.0-9.0-0.27","60b55a6d44e17d6f0b810cdd","64afc2c9a8732ea92db0087d","64afd48e84d0fd077d0ea6fd","null","null","<p style=""font-size: 60px; font-family: BACS"">KRARmBYhT</p>","","","","","","","",""
"html-keyboard-response","116","205325","0.0-9.0-0.28","60b55a6d44e17d6f0b810cdd","64afc2c9a8732ea92db0087d","64afd48e84d0fd077d0ea6fd","null","null","<p style=""font-size: 60px; font-family: BACS"">cRElDPMYm</p>","","","","","","","",""
"html-keyboard-response","117","206327","0.0-9.0-0.29","60b55a6d44e17d6f0b810cdd","64afc2c9a8732ea92db0087d","64afd48e84d0fd077d0ea6fd","null","null","<p style=""font-size: 60px; font-family: BACS"">DOBhYOYK</p>","","","","","","","",""
"html-keyboard-response","118","207328","0.0-9.0-0.30","60b55a6d44e17d6f0b810cdd","64afc2c9a8732ea92db0087d","64afd48e84d0fd077d0ea6fd","null","null","<p style=""font-size: 60px; font-family: BACS"">dRbDbKOYC</p>","","","","","","","",""
"html-keyboard-response","119","208329","0.0-9.0-0.31","60b55a6d44e17d6f0b810cdd","64afc2c9a8732ea92db0087d","64afd48e84d0fd077d0ea6fd","null","null","<p style=""font-size: 60px; font-family: BACS"">DBlhPMYm</p>","","","","","","","",""
"html-keyboard-response","120","209331","0.0-9.0-0.32","60b55a6d44e17d6f0b810cdd","64afc2c9a8732ea92db0087d","64afd48e84d0fd077d0ea6fd","null","null","<p style=""font-size: 60px; font-family: BACS"">YJkbNmAG</p>","","","","","","","",""
"html-keyboard-response","121","210332","0.0-9.0-0.33","60b55a6d44e17d6f0b810cdd","64afc2c9a8732ea92db0087d","64afd48e84d0fd077d0ea6fd","null","null","<p style=""font-size: 60px; font-family: BACS"">TbKMEOYK</p>","","","","","","","",""
"html-keyboard-response","122","211334","0.0-9.0-0.34","60b55a6d44e17d6f0b810cdd","64afc2c9a8732ea92db0087d","64afd48e84d0fd077d0ea6fd","null","null","<p style=""font-size: 60px; font-family: BACS"">NQZvNmAG</p>","","","","","","","",""
"html-keyboard-response","123","212336","0.0-9.0-0.35","60b55a6d44e17d6f0b810cdd","64afc2c9a8732ea92db0087d","64afd48e84d0fd077d0ea6fd","null","null","<p style=""font-size: 60px; font-family: BACS"">KRARmOYK</p>","","","","","","","",""
"html-keyboard-response","124","213337","0.0-9.0-0.36","60b55a6d44e17d6f0b810cdd","64afc2c9a8732ea92db0087d","64afd48e84d0fd077d0ea6fd","null","null","<p style=""font-size: 60px; font-family: BACS"">DOBhYPMYm</p>","","","","","","","",""
"html-keyboard-response","125","214337","0.0-9.0-0.37","60b55a6d44e17d6f0b810cdd","64afc2c9a8732ea92db0087d","64afd48e84d0fd077d0ea6fd","null","null","<p style=""font-size: 60px; font-family: BACS"">NQZvrba</p>","","","","","","","",""
"html-keyboard-response","126","215339","0.0-9.0-0.38","60b55a6d44e17d6f0b810cdd","64afc2c9a8732ea92db0087d","64afd48e84d0fd077d0ea6fd","null","null","<p style=""font-size: 60px; font-family: BACS"">KRARmdRA</p>","","","","","","","",""
"html-keyboard-response","127","216346","0.0-9.0-0.39","60b55a6d44e17d6f0b810cdd","64afc2c9a8732ea92db0087d","64afd48e84d0fd077d0ea6fd","null","null","<p style=""font-size: 60px; font-family: BACS"">kZUbuZc</p>","","","","","","","",""
"html-keyboard-response","128","217347","0.0-9.0-0.40","60b55a6d44e17d6f0b810cdd","64afc2c9a8732ea92db0087d","64afd48e84d0fd077d0ea6fd","null","null","<p style=""font-size: 60px; font-family: BACS"">GJGcZkmU</p>","","","","","","","",""
"html-keyboard-response","129","218353","0.0-9.0-0.41","60b55a6d44e17d6f0b810cdd","64afc2c9a8732ea92db0087d","64afd48e84d0fd077d0ea6fd","null","null","<p style=""font-size: 60px; font-family: BACS"">cRElDKOYC</p>","","","","","","","",""
"html-keyboard-response","130","219359","0.0-9.0-0.42","60b55a6d44e17d6f0b810cdd","64afc2c9a8732ea92db0087d","64afd48e84d0fd077d0ea6fd","null","null","<p style=""font-size: 60px; font-family: BACS"">vkYGlcUN</p>","","","","","","","",""
"html-keyboard-response","131","220370","0.0-9.0-0.43","60b55a6d44e17d6f0b810cdd","64afc2c9a8732ea92db0087d","64afd48e84d0fd077d0ea6fd","null","null","<p style=""font-size: 60px; font-family: BACS"">uQkrdNmAG</p>","","","","","","","",""
"html-keyboard-response","132","221370","0.0-9.0-0.44","60b55a6d44e17d6f0b810cdd","64afc2c9a8732ea92db0087d","64afd48e84d0fd077d0ea6fd","null","null","<p style=""font-size: 60px; font-family: BACS"">kZUbrba</p>","","","","","","","",""
"html-keyboard-response","133","222385","0.0-9.0-0.45","60b55a6d44e17d6f0b810cdd","64afc2c9a8732ea92db0087d","64afd48e84d0fd077d0ea6fd","null","null","<p style=""font-size: 60px; font-family: BACS"">YObAPMYm</p>","","","","","","","",""
"html-keyboard-response","134","223386","0.0-9.0-0.46","60b55a6d44e17d6f0b810cdd","64afc2c9a8732ea92db0087d","64afd48e84d0fd077d0ea6fd","null","null","<p style=""font-size: 60px; font-family: BACS"">uQkrdkmU</p>","","","","","","","",""
"html-keyboard-response","135","224388","0.0-9.0-0.47","60b55a6d44e17d6f0b810cdd","64afc2c9a8732ea92db0087d","64afd48e84d0fd077d0ea6fd","null","null","<p style=""font-size: 60px; font-family: BACS"">vkYGlNmAG</p>","","","","","","","",""
"html-keyboard-response","136","225396","0.0-9.0-0.48","60b55a6d44e17d6f0b810cdd","64afc2c9a8732ea92db0087d","64afd48e84d0fd077d0ea6fd","null","null","<p style=""font-size: 60px; font-family: BACS"">YJkbcUN</p>","","","","","","","",""
"html-keyboard-response","137","226397","0.0-9.0-0.49","60b55a6d44e17d6f0b810cdd","64afc2c9a8732ea92db0087d","64afd48e84d0fd077d0ea6fd","null","null","<p style=""font-size: 60px; font-family: BACS"">rGUAYkmU</p>","","","","","","","",""
"html-keyboard-response","138","227408","0.0-9.0-0.50","60b55a6d44e17d6f0b810cdd","64afc2c9a8732ea92db0087d","64afd48e84d0fd077d0ea6fd","null","null","<p style=""font-size: 60px; font-family: BACS"">YJkbrba</p>","","","","","","","",""
"html-keyboard-response","139","228409","0.0-9.0-0.51","60b55a6d44e17d6f0b810cdd","64afc2c9a8732ea92db0087d","64afd48e84d0fd077d0ea6fd","null","null","<p style=""font-size: 60px; font-family: BACS"">rGUAYNmAG</p>","","","","","","","",""
"html-keyboard-response","140","229418","0.0-9.0-0.52","60b55a6d44e17d6f0b810cdd","64afc2c9a8732ea92db0087d","64afd48e84d0fd077d0ea6fd","null","null","<p style=""font-size: 60px; font-family: BACS"">NQZvuZc</p>","","","","","","","",""
"html-keyboard-response","141","230424","0.0-9.0-0.53","60b55a6d44e17d6f0b810cdd","64afc2c9a8732ea92db0087d","64afd48e84d0fd077d0ea6fd","null","null","<p style=""font-size: 60px; font-family: BACS"">DOchlBYhT</p>","","","","","","","",""
"html-keyboard-response","142","231427","0.0-9.0-0.54","60b55a6d44e17d6f0b810cdd","64afc2c9a8732ea92db0087d","64afd48e84d0fd077d0ea6fd","null","null","<p style=""font-size: 60px; font-family: BACS"">AlUYrba</p>","","","","","","","",""
"html-keyboard-response","143","232428","0.0-9.0-0.55","60b55a6d44e17d6f0b810cdd","64afc2c9a8732ea92db0087d","64afd48e84d0fd077d0ea6fd","null","null","<p style=""font-size: 60px; font-family: BACS"">JAdLmNmAG</p>","","","","","","","",""
"html-keyboard-response","144","233433","0.0-9.0-0.56","60b55a6d44e17d6f0b810cdd","64afc2c9a8732ea92db0087d","64afd48e84d0fd077d0ea6fd","null","null","<p style=""font-size: 60px; font-family: BACS"">TbKMEBYhT</p>","","","","","","","",""
"html-keyboard-response","145","234434","0.0-9.0-0.57","60b55a6d44e17d6f0b810cdd","64afc2c9a8732ea92db0087d","64afd48e84d0fd077d0ea6fd","null","null","<p style=""font-size: 60px; font-family: BACS"">KRARmPMYm</p>","","","","","","","",""
"html-keyboard-response","146","235438","0.0-9.0-0.58","60b55a6d44e17d6f0b810cdd","64afc2c9a8732ea92db0087d","64afd48e84d0fd077d0ea6fd","null","null","<p style=""font-size: 60px; font-family: BACS"">TbKMEKOYC</p>","","","","","","","",""
"html-keyboard-response","147","236439","0.0-9.0-0.59","60b55a6d44e17d6f0b810cdd","64afc2c9a8732ea92db0087d","64afd48e84d0fd077d0ea6fd","null","null","<p style=""font-size: 60px; font-family: BACS"">JAdLmrba</p>","","","","","","","",""
"html-keyboard-response","148","237446","0.0-9.0-0.60","60b55a6d44e17d6f0b810cdd","64afc2c9a8732ea92db0087d","64afd48e84d0fd077d0ea6fd","null","null","<p style=""font-size: 60px; font-family: BACS"">cRElDOYK</p>","","","","","","","",""
"html-keyboard-response","149","238452","0.0-9.0-0.61","60b55a6d44e17d6f0b810cdd","64afc2c9a8732ea92db0087d","64afd48e84d0fd077d0ea6fd","null","null","<p style=""font-size: 60px; font-family: BACS"">PEkhAKOYC</p>","","","","","","","",""
"html-keyboard-response","150","239453","0.0-9.0-0.62","60b55a6d44e17d6f0b810cdd","64afc2c9a8732ea92db0087d","64afd48e84d0fd077d0ea6fd","null","null","<p style=""font-size: 60px; font-family: BACS"">rGUAYuZc</p>","","","","","","","",""
"html-keyboard-response","151","240454","0.0-9.0-0.63","60b55a6d44e17d6f0b810cdd","64afc2c9a8732ea92db0087d","64afd48e84d0fd077d0ea6fd","null","null","<p style=""font-size: 60px; font-family: BACS"">YObAdRA</p>","","","","","","","",""
"html-keyboard-response","152","241455","0.0-9.0-0.64","60b55a6d44e17d6f0b810cdd","64afc2c9a8732ea92db0087d","64afd48e84d0fd077d0ea6fd","null","null","<p style=""font-size: 60px; font-family: BACS"">dRbDbBYhT</p>","","","","","","","",""
"html-keyboard-response","153","242462","0.0-9.0-0.65","60b55a6d44e17d6f0b810cdd","64afc2c9a8732ea92db0087d","64afd48e84d0fd077d0ea6fd","null","null","<p style=""font-size: 60px; font-family: BACS"">AlUYNmAG</p>","","","","","","","",""
"html-keyboard-response","154","243473","0.0-9.0-0.66","60b55a6d44e17d6f0b810cdd","64afc2c9a8732ea92db0087d","64afd48e84d0fd077d0ea6fd","null","null","<p style=""font-size: 60px; font-family: BACS"">DOchldRA</p>","","","","","","","",""
"html-keyboard-response","155","244474","0.0-9.0-0.67","60b55a6d44e17d6f0b810cdd","64afc2c9a8732ea92db0087d","64afd48e84d0fd077d0ea6fd","null","null","<p style=""font-size: 60px; font-family: BACS"">cRElDBYhT</p>","","","","","","","",""
"html-keyboard-response","156","245475","0.0-9.0-0.68","60b55a6d44e17d6f0b810cdd","64afc2c9a8732ea92db0087d","64afd48e84d0fd077d0ea6fd","null","null","<p style=""font-size: 60px; font-family: BACS"">UdumdNmAG</p>","","","","","","","",""
"html-keyboard-response","157","246488","0.0-9.0-0.69","60b55a6d44e17d6f0b810cdd","64afc2c9a8732ea92db0087d","64afd48e84d0fd077d0ea6fd","null","null","<p style=""font-size: 60px; font-family: BACS"">DOchlKOYC</p>","","","","","","","",""
"html-keyboard-response","158","247489","0.0-9.0-0.70","60b55a6d44e17d6f0b810cdd","64afc2c9a8732ea92db0087d","64afd48e84d0fd077d0ea6fd","null","null","<p style=""font-size: 60px; font-family: BACS"">vkYGlrba</p>","","","","","","","",""
"html-keyboard-response","159","248490","0.0-9.0-0.71","60b55a6d44e17d6f0b810cdd","64afc2c9a8732ea92db0087d","64afd48e84d0fd077d0ea6fd","null","null","<p style=""font-size: 60px; font-family: BACS"">kZUbkmU</p>","","","","","","","",""
"html-keyboard-response","160","249506","0.0-9.0-0.72","60b55a6d44e17d6f0b810cdd","64afc2c9a8732ea92db0087d","64afd48e84d0fd077d0ea6fd","null","null","<p style=""font-size: 60px; font-family: BACS"">PEkhAdRA</p>","","","","","","","",""
"html-keyboard-response","161","250507","0.0-9.0-0.73","60b55a6d44e17d6f0b810cdd","64afc2c9a8732ea92db0087d","64afd48e84d0fd077d0ea6fd","null","null","<p style=""font-size: 60px; font-family: BACS"">uQkrdcUN</p>","","","","","","","",""
"html-keyboard-response","162","251509","0.0-9.0-0.74","60b55a6d44e17d6f0b810cdd","64afc2c9a8732ea92db0087d","64afd48e84d0fd077d0ea6fd","null","null","<p style=""font-size: 60px; font-family: BACS"">YObAOYK</p>","","","","","","","",""
"html-keyboard-response","163","252510","0.0-9.0-0.75","60b55a6d44e17d6f0b810cdd","64afc2c9a8732ea92db0087d","64afd48e84d0fd077d0ea6fd","null","null","<p style=""font-size: 60px; font-family: BACS"">GJGcZuZc</p>","","","","","","","",""
"html-keyboard-response","164","253510","0.0-9.0-0.76","60b55a6d44e17d6f0b810cdd","64afc2c9a8732ea92db0087d","64afd48e84d0fd077d0ea6fd","null","null","<p style=""font-size: 60px; font-family: BACS"">PEkhAPMYm</p>","","","","","","","",""
"html-keyboard-response","165","254511","0.0-9.0-0.77","60b55a6d44e17d6f0b810cdd","64afc2c9a8732ea92db0087d","64afd48e84d0fd077d0ea6fd","null","null","<p style=""font-size: 60px; font-family: BACS"">AlUYkmU</p>","","","","","","","",""
"html-keyboard-response","166","255524","0.0-9.0-0.78","60b55a6d44e17d6f0b810cdd","64afc2c9a8732ea92db0087d","64afd48e84d0fd077d0ea6fd","null","null","<p style=""font-size: 60px; font-family: BACS"">DhMtPMYm</p>","","","","","","","",""
"html-keyboard-response","167","256526","0.0-9.0-0.79","60b55a6d44e17d6f0b810cdd","64afc2c9a8732ea92db0087d","64afd48e84d0fd077d0ea6fd","null","null","<p style=""font-size: 60px; font-family: BACS"">JAdLmcUN</p>","","","","","","","",""
"html-keyboard-response","168","283050","0.0-10.0","60b55a6d44e17d6f0b810cdd","64afc2c9a8732ea92db0087d","64afd48e84d0fd077d0ea6fd","26524"," ","<p>Ottimo, hai visto il secondo blocco di parole. Ora puoi prenderti una piccola pausa.</p>
      <p>Premi la barra quando sei pronta/o per riprendere.</p>","","","","","","","",""
"html-keyboard-response","169","284059","0.0-11.0-0.0","60b55a6d44e17d6f0b810cdd","64afc2c9a8732ea92db0087d","64afd48e84d0fd077d0ea6fd","null","null","<p style=""font-size: 60px; font-family: BACS"">DhMtPMYm</p>","","","","","","","",""
"html-keyboard-response","170","285060","0.0-11.0-0.1","60b55a6d44e17d6f0b810cdd","64afc2c9a8732ea92db0087d","64afd48e84d0fd077d0ea6fd","null","null","<p style=""font-size: 60px; font-family: BACS"">DOchlKOYC</p>","","","","","","","",""
"html-keyboard-response","171","286062","0.0-11.0-0.2","60b55a6d44e17d6f0b810cdd","64afc2c9a8732ea92db0087d","64afd48e84d0fd077d0ea6fd","null","null","<p style=""font-size: 60px; font-family: BACS"">YJkbcUN</p>","","","","","","","",""
"html-keyboard-response","172","287065","0.0-11.0-0.3","60b55a6d44e17d6f0b810cdd","64afc2c9a8732ea92db0087d","64afd48e84d0fd077d0ea6fd","null","null","<p style=""font-size: 60px; font-family: BACS"">YObAKOYC</p>","","","","","","","",""
"html-keyboard-response","173","288065","0.0-11.0-0.4","60b55a6d44e17d6f0b810cdd","64afc2c9a8732ea92db0087d","64afd48e84d0fd077d0ea6fd","null","null","<p style=""font-size: 60px; font-family: BACS"">GJGcZrba</p>","","","","","","","",""
"html-keyboard-response","174","289071","0.0-11.0-0.5","60b55a6d44e17d6f0b810cdd","64afc2c9a8732ea92db0087d","64afd48e84d0fd077d0ea6fd","null","null","<p style=""font-size: 60px; font-family: BACS"">dRbDbKOYC</p>","","","","","","","",""
"html-keyboard-response","175","290081","0.0-11.0-0.6","60b55a6d44e17d6f0b810cdd","64afc2c9a8732ea92db0087d","64afd48e84d0fd077d0ea6fd","null","null","<p style=""font-size: 60px; font-family: BACS"">rGUAYcUN</p>","","","","","","","",""
"html-keyboard-response","176","291087","0.0-11.0-0.7","60b55a6d44e17d6f0b810cdd","64afc2c9a8732ea92db0087d","64afd48e84d0fd077d0ea6fd","null","null","<p style=""font-size: 60px; font-family: BACS"">KRARmOYK</p>","","","","","","","",""
"html-keyboard-response","177","292093","0.0-11.0-0.8","60b55a6d44e17d6f0b810cdd","64afc2c9a8732ea92db0087d","64afd48e84d0fd077d0ea6fd","null","null","<p style=""font-size: 60px; font-family: BACS"">uQkrdcUN</p>","","","","","","","",""
"html-keyboard-response","178","293096","0.0-11.0-0.9","60b55a6d44e17d6f0b810cdd","64afc2c9a8732ea92db0087d","64afd48e84d0fd077d0ea6fd","null","null","<p style=""font-size: 60px; font-family: BACS"">JAdLmNmAG</p>","","","","","","","",""
"html-keyboard-response","179","294099","0.0-11.0-0.10","60b55a6d44e17d6f0b810cdd","64afc2c9a8732ea92db0087d","64afd48e84d0fd077d0ea6fd","null","null","<p style=""font-size: 60px; font-family: BACS"">DOBhYdRA</p>","","","","","","","",""
"html-keyboard-response","180","295100","0.0-11.0-0.11","60b55a6d44e17d6f0b810cdd","64afc2c9a8732ea92db0087d","64afd48e84d0fd077d0ea6fd","null","null","<p style=""font-size: 60px; font-family: BACS"">GJGcZuZc</p>","","","","","","","",""
"html-keyboard-response","181","296101","0.0-11.0-0.12","60b55a6d44e17d6f0b810cdd","64afc2c9a8732ea92db0087d","64afd48e84d0fd077d0ea6fd","null","null","<p style=""font-size: 60px; font-family: BACS"">YJkbNmAG</p>","","","","","","","",""
"html-keyboard-response","182","297104","0.0-11.0-0.13","60b55a6d44e17d6f0b810cdd","64afc2c9a8732ea92db0087d","64afd48e84d0fd077d0ea6fd","null","null","<p style=""font-size: 60px; font-family: BACS"">YObAOYK</p>","","","","","","","",""
"html-keyboard-response","183","298106","0.0-11.0-0.14","60b55a6d44e17d6f0b810cdd","64afc2c9a8732ea92db0087d","64afd48e84d0fd077d0ea6fd","null","null","<p style=""font-size: 60px; font-family: BACS"">rGUAYuZc</p>","","","","","","","",""
"html-keyboard-response","184","299120","0.0-11.0-0.15","60b55a6d44e17d6f0b810cdd","64afc2c9a8732ea92db0087d","64afd48e84d0fd077d0ea6fd","null","null","<p style=""font-size: 60px; font-family: BACS"">PEkhAPMYm</p>","","","","","","","",""
"html-keyboard-response","185","300121","0.0-11.0-0.16","60b55a6d44e17d6f0b810cdd","64afc2c9a8732ea92db0087d","64afd48e84d0fd077d0ea6fd","null","null","<p style=""font-size: 60px; font-family: BACS"">UdumdNmAG</p>","","","","","","","",""
"html-keyboard-response","186","301123","0.0-11.0-0.17","60b55a6d44e17d6f0b810cdd","64afc2c9a8732ea92db0087d","64afd48e84d0fd077d0ea6fd","null","null","<p style=""font-size: 60px; font-family: BACS"">vkYGlcUN</p>","","","","","","","",""
"html-keyboard-response","187","302139","0.0-11.0-0.18","60b55a6d44e17d6f0b810cdd","64afc2c9a8732ea92db0087d","64afd48e84d0fd077d0ea6fd","null","null","<p style=""font-size: 60px; font-family: BACS"">DOBhYPMYm</p>","","","","","","","",""
"html-keyboard-response","188","303144","0.0-11.0-0.19","60b55a6d44e17d6f0b810cdd","64afc2c9a8732ea92db0087d","64afd48e84d0fd077d0ea6fd","null","null","<p style=""font-size: 60px; font-family: BACS"">DhMtBYhT</p>","","","","","","","",""
"html-keyboard-response","189","304146","0.0-11.0-0.20","60b55a6d44e17d6f0b810cdd","64afc2c9a8732ea92db0087d","64afd48e84d0fd077d0ea6fd","null","null","<p style=""font-size: 60px; font-family: BACS"">cRElDOYK</p>","","","","","","","",""
"html-keyboard-response","190","305147","0.0-11.0-0.21","60b55a6d44e17d6f0b810cdd","64afc2c9a8732ea92db0087d","64afd48e84d0fd077d0ea6fd","null","null","<p style=""font-size: 60px; font-family: BACS"">UdumduZc</p>","","","","","","","",""
"html-keyboard-response","191","306158","0.0-11.0-0.22","60b55a6d44e17d6f0b810cdd","64afc2c9a8732ea92db0087d","64afd48e84d0fd077d0ea6fd","null","null","<p style=""font-size: 60px; font-family: BACS"">PEkhAdRA</p>","","","","","","","",""
"html-keyboard-response","192","307172","0.0-11.0-0.23","60b55a6d44e17d6f0b810cdd","64afc2c9a8732ea92db0087d","64afd48e84d0fd077d0ea6fd","null","null","<p style=""font-size: 60px; font-family: BACS"">TbKMEBYhT</p>","","","","","","","",""
"html-keyboard-response","193","308174","0.0-11.0-0.24","60b55a6d44e17d6f0b810cdd","64afc2c9a8732ea92db0087d","64afd48e84d0fd077d0ea6fd","null","null","<p style=""font-size: 60px; font-family: BACS"">NQZvkmU</p>","","","","","","","",""
"html-keyboard-response","194","309181","0.0-11.0-0.25","60b55a6d44e17d6f0b810cdd","64afc2c9a8732ea92db0087d","64afd48e84d0fd077d0ea6fd","null","null","<p style=""font-size: 60px; font-family: BACS"">kZUbrba</p>","","","","","","","",""
"html-keyboard-response","195","310184","0.0-11.0-0.26","60b55a6d44e17d6f0b810cdd","64afc2c9a8732ea92db0087d","64afd48e84d0fd077d0ea6fd","null","null","<p style=""font-size: 60px; font-family: BACS"">NQZvuZc</p>","","","","","","","",""
"html-keyboard-response","196","311194","0.0-11.0-0.27","60b55a6d44e17d6f0b810cdd","64afc2c9a8732ea92db0087d","64afd48e84d0fd077d0ea6fd","null","null","<p style=""font-size: 60px; font-family: BACS"">YObAdRA</p>","","","","","","","",""
"html-keyboard-response","197","312196","0.0-11.0-0.28","60b55a6d44e17d6f0b810cdd","64afc2c9a8732ea92db0087d","64afd48e84d0fd077d0ea6fd","null","null","<p style=""font-size: 60px; font-family: BACS"">KRARmPMYm</p>","","","","","","","",""
"html-keyboard-response","198","313198","0.0-11.0-0.29","60b55a6d44e17d6f0b810cdd","64afc2c9a8732ea92db0087d","64afd48e84d0fd077d0ea6fd","null","null","<p style=""font-size: 60px; font-family: BACS"">DBlhdRA</p>","","","","","","","",""
"html-keyboard-response","199","314206","0.0-11.0-0.30","60b55a6d44e17d6f0b810cdd","64afc2c9a8732ea92db0087d","64afd48e84d0fd077d0ea6fd","null","null","<p style=""font-size: 60px; font-family: BACS"">YJkbuZc</p>","","","","","","","",""
"html-keyboard-response","200","315209","0.0-11.0-0.31","60b55a6d44e17d6f0b810cdd","64afc2c9a8732ea92db0087d","64afd48e84d0fd077d0ea6fd","null","null","<p style=""font-size: 60px; font-family: BACS"">JAdLmrba</p>","","","","","","","",""
"html-keyboard-response","201","316210","0.0-11.0-0.32","60b55a6d44e17d6f0b810cdd","64afc2c9a8732ea92db0087d","64afd48e84d0fd077d0ea6fd","null","null","<p style=""font-size: 60px; font-family: BACS"">DOchldRA</p>","","","","","","","",""
"html-keyboard-response","202","317211","0.0-11.0-0.33","60b55a6d44e17d6f0b810cdd","64afc2c9a8732ea92db0087d","64afd48e84d0fd077d0ea6fd","null","null","<p style=""font-size: 60px; font-family: BACS"">kZUbcUN</p>","","","","","","","",""
"html-keyboard-response","203","318213","0.0-11.0-0.34","60b55a6d44e17d6f0b810cdd","64afc2c9a8732ea92db0087d","64afd48e84d0fd077d0ea6fd","null","null","<p style=""font-size: 60px; font-family: BACS"">PEkhABYhT</p>","","","","","","","",""
"html-keyboard-response","204","319214","0.0-11.0-0.35","60b55a6d44e17d6f0b810cdd","64afc2c9a8732ea92db0087d","64afd48e84d0fd077d0ea6fd","null","null","<p style=""font-size: 60px; font-family: BACS"">TbKMEdRA</p>","","","","","","","",""
"html-keyboard-response","205","320219","0.0-11.0-0.36","60b55a6d44e17d6f0b810cdd","64afc2c9a8732ea92db0087d","64afd48e84d0fd077d0ea6fd","null","null","<p style=""font-size: 60px; font-family: BACS"">uQkrdkmU</p>","","","","","","","",""
"html-keyboard-response","206","321224","0.0-11.0-0.37","60b55a6d44e17d6f0b810cdd","64afc2c9a8732ea92db0087d","64afd48e84d0fd077d0ea6fd","null","null","<p style=""font-size: 60px; font-family: BACS"">DBlhOYK</p>","","","","","","","",""
"html-keyboard-response","207","322227","0.0-11.0-0.38","60b55a6d44e17d6f0b810cdd","64afc2c9a8732ea92db0087d","64afd48e84d0fd077d0ea6fd","null","null","<p style=""font-size: 60px; font-family: BACS"">UdumdkmU</p>","","","","","","","",""
"html-keyboard-response","208","323229","0.0-11.0-0.39","60b55a6d44e17d6f0b810cdd","64afc2c9a8732ea92db0087d","64afd48e84d0fd077d0ea6fd","null","null","<p style=""font-size: 60px; font-family: BACS"">DOBhYKOYC</p>","","","","","","","",""
"html-keyboard-response","209","324233","0.0-11.0-0.40","60b55a6d44e17d6f0b810cdd","64afc2c9a8732ea92db0087d","64afd48e84d0fd077d0ea6fd","null","null","<p style=""font-size: 60px; font-family: BACS"">kZUbkmU</p>","","","","","","","",""
"html-keyboard-response","210","325234","0.0-11.0-0.41","60b55a6d44e17d6f0b810cdd","64afc2c9a8732ea92db0087d","64afd48e84d0fd077d0ea6fd","null","null","<p style=""font-size: 60px; font-family: BACS"">cRElDKOYC</p>","","","","","","","",""
"html-keyboard-response","211","326242","0.0-11.0-0.42","60b55a6d44e17d6f0b810cdd","64afc2c9a8732ea92db0087d","64afd48e84d0fd077d0ea6fd","null","null","<p style=""font-size: 60px; font-family: BACS"">Udumdrba</p>","","","","","","","",""
"html-keyboard-response","212","327243","0.0-11.0-0.43","60b55a6d44e17d6f0b810cdd","64afc2c9a8732ea92db0087d","64afd48e84d0fd077d0ea6fd","null","null","<p style=""font-size: 60px; font-family: BACS"">KRARmBYhT</p>","","","","","","","",""
"html-keyboard-response","213","328244","0.0-11.0-0.44","60b55a6d44e17d6f0b810cdd","64afc2c9a8732ea92db0087d","64afd48e84d0fd077d0ea6fd","null","null","<p style=""font-size: 60px; font-family: BACS"">uQkrdNmAG</p>","","","","","","","",""
"html-keyboard-response","214","329246","0.0-11.0-0.45","60b55a6d44e17d6f0b810cdd","64afc2c9a8732ea92db0087d","64afd48e84d0fd077d0ea6fd","null","null","<p style=""font-size: 60px; font-family: BACS"">DhMtKOYC</p>","","","","","","","",""
"html-keyboard-response","215","330247","0.0-11.0-0.46","60b55a6d44e17d6f0b810cdd","64afc2c9a8732ea92db0087d","64afd48e84d0fd077d0ea6fd","null","null","<p style=""font-size: 60px; font-family: BACS"">rGUAYkmU</p>","","","","","","","",""
"html-keyboard-response","216","331248","0.0-11.0-0.47","60b55a6d44e17d6f0b810cdd","64afc2c9a8732ea92db0087d","64afd48e84d0fd077d0ea6fd","null","null","<p style=""font-size: 60px; font-family: BACS"">dRbDbBYhT</p>","","","","","","","",""
"html-keyboard-response","217","332254","0.0-11.0-0.48","60b55a6d44e17d6f0b810cdd","64afc2c9a8732ea92db0087d","64afd48e84d0fd077d0ea6fd","null","null","<p style=""font-size: 60px; font-family: BACS"">KRARmdRA</p>","","","","","","","",""
"html-keyboard-response","218","333256","0.0-11.0-0.49","60b55a6d44e17d6f0b810cdd","64afc2c9a8732ea92db0087d","64afd48e84d0fd077d0ea6fd","null","null","<p style=""font-size: 60px; font-family: BACS"">AlUYcUN</p>","","","","","","","",""
"html-keyboard-response","219","334258","0.0-11.0-0.50","60b55a6d44e17d6f0b810cdd","64afc2c9a8732ea92db0087d","64afd48e84d0fd077d0ea6fd","null","null","<p style=""font-size: 60px; font-family: BACS"">TbKMEKOYC</p>","","","","","","","",""
"html-keyboard-response","220","335259","0.0-11.0-0.51","60b55a6d44e17d6f0b810cdd","64afc2c9a8732ea92db0087d","64afd48e84d0fd077d0ea6fd","null","null","<p style=""font-size: 60px; font-family: BACS"">JAdLmuZc</p>","","","","","","","",""
"html-keyboard-response","221","336260","0.0-11.0-0.52","60b55a6d44e17d6f0b810cdd","64afc2c9a8732ea92db0087d","64afd48e84d0fd077d0ea6fd","null","null","<p style=""font-size: 60px; font-family: BACS"">YJkbrba</p>","","","","","","","",""
"html-keyboard-response","222","337262","0.0-11.0-0.53","60b55a6d44e17d6f0b810cdd","64afc2c9a8732ea92db0087d","64afd48e84d0fd077d0ea6fd","null","null","<p style=""font-size: 60px; font-family: BACS"">AlUYkmU</p>","","","","","","","",""
"html-keyboard-response","223","338273","0.0-11.0-0.54","60b55a6d44e17d6f0b810cdd","64afc2c9a8732ea92db0087d","64afd48e84d0fd077d0ea6fd","null","null","<p style=""font-size: 60px; font-family: BACS"">cRElDBYhT</p>","","","","","","","",""
"html-keyboard-response","224","339274","0.0-11.0-0.55","60b55a6d44e17d6f0b810cdd","64afc2c9a8732ea92db0087d","64afd48e84d0fd077d0ea6fd","null","null","<p style=""font-size: 60px; font-family: BACS"">vkYGlrba</p>","","","","","","","",""
"html-keyboard-response","225","340276","0.0-11.0-0.56","60b55a6d44e17d6f0b810cdd","64afc2c9a8732ea92db0087d","64afd48e84d0fd077d0ea6fd","null","null","<p style=""font-size: 60px; font-family: BACS"">dRbDbdRA</p>","","","","","","","",""
"html-keyboard-response","226","341281","0.0-11.0-0.57","60b55a6d44e17d6f0b810cdd","64afc2c9a8732ea92db0087d","64afd48e84d0fd077d0ea6fd","null","null","<p style=""font-size: 60px; font-family: BACS"">AlUYrba</p>","","","","","","","",""
"html-keyboard-response","227","342288","0.0-11.0-0.58","60b55a6d44e17d6f0b810cdd","64afc2c9a8732ea92db0087d","64afd48e84d0fd077d0ea6fd","null","null","<p style=""font-size: 60px; font-family: BACS"">TbKMEOYK</p>","","","","","","","",""
"html-keyboard-response","228","343293","0.0-11.0-0.59","60b55a6d44e17d6f0b810cdd","64afc2c9a8732ea92db0087d","64afd48e84d0fd077d0ea6fd","null","null","<p style=""font-size: 60px; font-family: BACS"">GJGcZkmU</p>","","","","","","","",""
"html-keyboard-response","229","344294","0.0-11.0-0.60","60b55a6d44e17d6f0b810cdd","64afc2c9a8732ea92db0087d","64afd48e84d0fd077d0ea6fd","null","null","<p style=""font-size: 60px; font-family: BACS"">JAdLmcUN</p>","","","","","","","",""
"html-keyboard-response","230","345295","0.0-11.0-0.61","60b55a6d44e17d6f0b810cdd","64afc2c9a8732ea92db0087d","64afd48e84d0fd077d0ea6fd","null","null","<p style=""font-size: 60px; font-family: BACS"">AlUYNmAG</p>","","","","","","","",""
"html-keyboard-response","231","346296","0.0-11.0-0.62","60b55a6d44e17d6f0b810cdd","64afc2c9a8732ea92db0087d","64afd48e84d0fd077d0ea6fd","null","null","<p style=""font-size: 60px; font-family: BACS"">DBlhPMYm</p>","","","","","","","",""
"html-keyboard-response","232","347299","0.0-11.0-0.63","60b55a6d44e17d6f0b810cdd","64afc2c9a8732ea92db0087d","64afd48e84d0fd077d0ea6fd","null","null","<p style=""font-size: 60px; font-family: BACS"">dRbDbOYK</p>","","","","","","","",""
"html-keyboard-response","233","348301","0.0-11.0-0.64","60b55a6d44e17d6f0b810cdd","64afc2c9a8732ea92db0087d","64afd48e84d0fd077d0ea6fd","null","null","<p style=""font-size: 60px; font-family: BACS"">NQZvNmAG</p>","","","","","","","",""
"html-keyboard-response","234","349302","0.0-11.0-0.65","60b55a6d44e17d6f0b810cdd","64afc2c9a8732ea92db0087d","64afd48e84d0fd077d0ea6fd","null","null","<p style=""font-size: 60px; font-family: BACS"">DhMtOYK</p>","","","","","","","",""
"html-keyboard-response","235","350315","0.0-11.0-0.66","60b55a6d44e17d6f0b810cdd","64afc2c9a8732ea92db0087d","64afd48e84d0fd077d0ea6fd","null","null","<p style=""font-size: 60px; font-family: BACS"">YObAPMYm</p>","","","","","","","",""
"html-keyboard-response","236","351316","0.0-11.0-0.67","60b55a6d44e17d6f0b810cdd","64afc2c9a8732ea92db0087d","64afd48e84d0fd077d0ea6fd","null","null","<p style=""font-size: 60px; font-family: BACS"">uQkrduZc</p>","","","","","","","",""
"html-keyboard-response","237","352317","0.0-11.0-0.68","60b55a6d44e17d6f0b810cdd","64afc2c9a8732ea92db0087d","64afd48e84d0fd077d0ea6fd","null","null","<p style=""font-size: 60px; font-family: BACS"">DOchlPMYm</p>","","","","","","","",""
"html-keyboard-response","238","353323","0.0-11.0-0.69","60b55a6d44e17d6f0b810cdd","64afc2c9a8732ea92db0087d","64afd48e84d0fd077d0ea6fd","null","null","<p style=""font-size: 60px; font-family: BACS"">vkYGlkmU</p>","","","","","","","",""
"html-keyboard-response","239","354331","0.0-11.0-0.70","60b55a6d44e17d6f0b810cdd","64afc2c9a8732ea92db0087d","64afd48e84d0fd077d0ea6fd","null","null","<p style=""font-size: 60px; font-family: BACS"">PEkhAKOYC</p>","","","","","","","",""
"html-keyboard-response","240","355334","0.0-11.0-0.71","60b55a6d44e17d6f0b810cdd","64afc2c9a8732ea92db0087d","64afd48e84d0fd077d0ea6fd","null","null","<p style=""font-size: 60px; font-family: BACS"">DOchlBYhT</p>","","","","","","","",""
"html-keyboard-response","241","356335","0.0-11.0-0.72","60b55a6d44e17d6f0b810cdd","64afc2c9a8732ea92db0087d","64afd48e84d0fd077d0ea6fd","null","null","<p style=""font-size: 60px; font-family: BACS"">GJGcZcUN</p>","","","","","","","",""
"html-keyboard-response","242","357337","0.0-11.0-0.73","60b55a6d44e17d6f0b810cdd","64afc2c9a8732ea92db0087d","64afd48e84d0fd077d0ea6fd","null","null","<p style=""font-size: 60px; font-family: BACS"">DOBhYOYK</p>","","","","","","","",""
"html-keyboard-response","243","358348","0.0-11.0-0.74","60b55a6d44e17d6f0b810cdd","64afc2c9a8732ea92db0087d","64afd48e84d0fd077d0ea6fd","null","null","<p style=""font-size: 60px; font-family: BACS"">NQZvrba</p>","","","","","","","",""
"html-keyboard-response","244","359350","0.0-11.0-0.75","60b55a6d44e17d6f0b810cdd","64afc2c9a8732ea92db0087d","64afd48e84d0fd077d0ea6fd","null","null","<p style=""font-size: 60px; font-family: BACS"">kZUbuZc</p>","","","","","","","",""
"html-keyboard-response","245","360351","0.0-11.0-0.76","60b55a6d44e17d6f0b810cdd","64afc2c9a8732ea92db0087d","64afd48e84d0fd077d0ea6fd","null","null","<p style=""font-size: 60px; font-family: BACS"">cRElDPMYm</p>","","","","","","","",""
"html-keyboard-response","246","361353","0.0-11.0-0.77","60b55a6d44e17d6f0b810cdd","64afc2c9a8732ea92db0087d","64afd48e84d0fd077d0ea6fd","null","null","<p style=""font-size: 60px; font-family: BACS"">rGUAYNmAG</p>","","","","","","","",""
"html-keyboard-response","247","362354","0.0-11.0-0.78","60b55a6d44e17d6f0b810cdd","64afc2c9a8732ea92db0087d","64afd48e84d0fd077d0ea6fd","null","null","<p style=""font-size: 60px; font-family: BACS"">DBlhBYhT</p>","","","","","","","",""
"html-keyboard-response","248","363362","0.0-11.0-0.79","60b55a6d44e17d6f0b810cdd","64afc2c9a8732ea92db0087d","64afd48e84d0fd077d0ea6fd","null","null","<p style=""font-size: 60px; font-family: BACS"">vkYGlNmAG</p>","","","","","","","",""
"html-keyboard-response","249","402773","0.0-12.0","60b55a6d44e17d6f0b810cdd","64afc2c9a8732ea92db0087d","64afd48e84d0fd077d0ea6fd","39410"," ","<p>Ottimo, hai visto il terzo blocco di parole. Ora puoi prenderti una piccola pausa.</p>
      <p>Premi la barra quando sei pronta/o per riprendere.</p>","","","","","","","",""
"html-keyboard-response","250","403775","0.0-13.0-0.0","60b55a6d44e17d6f0b810cdd","64afc2c9a8732ea92db0087d","64afd48e84d0fd077d0ea6fd","null","null","<p style=""font-size: 60px; font-family: BACS"">YObAdRA</p>","","","","","","","",""
"html-keyboard-response","251","404777","0.0-13.0-0.1","60b55a6d44e17d6f0b810cdd","64afc2c9a8732ea92db0087d","64afd48e84d0fd077d0ea6fd","null","null","<p style=""font-size: 60px; font-family: BACS"">AlUYNmAG</p>","","","","","","","",""
"html-keyboard-response","252","405781","0.0-13.0-0.2","60b55a6d44e17d6f0b810cdd","64afc2c9a8732ea92db0087d","64afd48e84d0fd077d0ea6fd","null","null","<p style=""font-size: 60px; font-family: BACS"">cRElDKOYC</p>","","","","","","","",""
"html-keyboard-response","253","406786","0.0-13.0-0.3","60b55a6d44e17d6f0b810cdd","64afc2c9a8732ea92db0087d","64afd48e84d0fd077d0ea6fd","null","null","<p style=""font-size: 60px; font-family: BACS"">DOBhYPMYm</p>","","","","","","","",""
"html-keyboard-response","254","407794","0.0-13.0-0.4","60b55a6d44e17d6f0b810cdd","64afc2c9a8732ea92db0087d","64afd48e84d0fd077d0ea6fd","null","null","<p style=""font-size: 60px; font-family: BACS"">TbKMEKOYC</p>","","","","","","","",""
"html-keyboard-response","255","408795","0.0-13.0-0.5","60b55a6d44e17d6f0b810cdd","64afc2c9a8732ea92db0087d","64afd48e84d0fd077d0ea6fd","null","null","<p style=""font-size: 60px; font-family: BACS"">NQZvuZc</p>","","","","","","","",""
"html-keyboard-response","256","409801","0.0-13.0-0.6","60b55a6d44e17d6f0b810cdd","64afc2c9a8732ea92db0087d","64afd48e84d0fd077d0ea6fd","null","null","<p style=""font-size: 60px; font-family: BACS"">vkYGlrba</p>","","","","","","","",""
"html-keyboard-response","257","410808","0.0-13.0-0.7","60b55a6d44e17d6f0b810cdd","64afc2c9a8732ea92db0087d","64afd48e84d0fd077d0ea6fd","null","null","<p style=""font-size: 60px; font-family: BACS"">YJkbuZc</p>","","","","","","","",""
"html-keyboard-response","258","411815","0.0-13.0-0.8","60b55a6d44e17d6f0b810cdd","64afc2c9a8732ea92db0087d","64afd48e84d0fd077d0ea6fd","null","null","<p style=""font-size: 60px; font-family: BACS"">KRARmOYK</p>","","","","","","","",""
"html-keyboard-response","259","412816","0.0-13.0-0.9","60b55a6d44e17d6f0b810cdd","64afc2c9a8732ea92db0087d","64afd48e84d0fd077d0ea6fd","null","null","<p style=""font-size: 60px; font-family: BACS"">Udumdrba</p>","","","","","","","",""
"html-keyboard-response","260","413817","0.0-13.0-0.10","60b55a6d44e17d6f0b810cdd","64afc2c9a8732ea92db0087d","64afd48e84d0fd077d0ea6fd","null","null","<p style=""font-size: 60px; font-family: BACS"">DBlhBYhT</p>","","","","","","","",""
"html-keyboard-response","261","414818","0.0-13.0-0.11","60b55a6d44e17d6f0b810cdd","64afc2c9a8732ea92db0087d","64afd48e84d0fd077d0ea6fd","null","null","<p style=""font-size: 60px; font-family: BACS"">GJGcZcUN</p>","","","","","","","",""
"html-keyboard-response","262","415826","0.0-13.0-0.12","60b55a6d44e17d6f0b810cdd","64afc2c9a8732ea92db0087d","64afd48e84d0fd077d0ea6fd","null","null","<p style=""font-size: 60px; font-family: BACS"">DOBhYdRA</p>","","","","","","","",""
"html-keyboard-response","263","416832","0.0-13.0-0.13","60b55a6d44e17d6f0b810cdd","64afc2c9a8732ea92db0087d","64afd48e84d0fd077d0ea6fd","null","null","<p style=""font-size: 60px; font-family: BACS"">TbKMEOYK</p>","","","","","","","",""
"html-keyboard-response","264","417837","0.0-13.0-0.14","60b55a6d44e17d6f0b810cdd","64afc2c9a8732ea92db0087d","64afd48e84d0fd077d0ea6fd","null","null","<p style=""font-size: 60px; font-family: BACS"">NQZvrba</p>","","","","","","","",""
"html-keyboard-response","265","418840","0.0-13.0-0.15","60b55a6d44e17d6f0b810cdd","64afc2c9a8732ea92db0087d","64afd48e84d0fd077d0ea6fd","null","null","<p style=""font-size: 60px; font-family: BACS"">dRbDbdRA</p>","","","","","","","",""
"html-keyboard-response","266","419851","0.0-13.0-0.16","60b55a6d44e17d6f0b810cdd","64afc2c9a8732ea92db0087d","64afd48e84d0fd077d0ea6fd","null","null","<p style=""font-size: 60px; font-family: BACS"">YObAPMYm</p>","","","","","","","",""
"html-keyboard-response","267","420852","0.0-13.0-0.17","60b55a6d44e17d6f0b810cdd","64afc2c9a8732ea92db0087d","64afd48e84d0fd077d0ea6fd","null","null","<p style=""font-size: 60px; font-family: BACS"">AlUYrba</p>","","","","","","","",""
"html-keyboard-response","268","421860","0.0-13.0-0.18","60b55a6d44e17d6f0b810cdd","64afc2c9a8732ea92db0087d","64afd48e84d0fd077d0ea6fd","null","null","<p style=""font-size: 60px; font-family: BACS"">vkYGlkmU</p>","","","","","","","",""
"html-keyboard-response","269","422861","0.0-13.0-0.19","60b55a6d44e17d6f0b810cdd","64afc2c9a8732ea92db0087d","64afd48e84d0fd077d0ea6fd","null","null","<p style=""font-size: 60px; font-family: BACS"">YJkbcUN</p>","","","","","","","",""
"html-keyboard-response","270","423861","0.0-13.0-0.20","60b55a6d44e17d6f0b810cdd","64afc2c9a8732ea92db0087d","64afd48e84d0fd077d0ea6fd","null","null","<p style=""font-size: 60px; font-family: BACS"">kZUbkmU</p>","","","","","","","",""
"html-keyboard-response","271","424874","0.0-13.0-0.21","60b55a6d44e17d6f0b810cdd","64afc2c9a8732ea92db0087d","64afd48e84d0fd077d0ea6fd","null","null","<p style=""font-size: 60px; font-family: BACS"">DOchlPMYm</p>","","","","","","","",""
"html-keyboard-response","272","425879","0.0-13.0-0.22","60b55a6d44e17d6f0b810cdd","64afc2c9a8732ea92db0087d","64afd48e84d0fd077d0ea6fd","null","null","<p style=""font-size: 60px; font-family: BACS"">JAdLmuZc</p>","","","","","","","",""
"html-keyboard-response","273","426880","0.0-13.0-0.23","60b55a6d44e17d6f0b810cdd","64afc2c9a8732ea92db0087d","64afd48e84d0fd077d0ea6fd","null","null","<p style=""font-size: 60px; font-family: BACS"">DhMtKOYC</p>","","","","","","","",""
"html-keyboard-response","274","427882","0.0-13.0-0.24","60b55a6d44e17d6f0b810cdd","64afc2c9a8732ea92db0087d","64afd48e84d0fd077d0ea6fd","null","null","<p style=""font-size: 60px; font-family: BACS"">TbKMEBYhT</p>","","","","","","","",""
"html-keyboard-response","275","428885","0.0-13.0-0.25","60b55a6d44e17d6f0b810cdd","64afc2c9a8732ea92db0087d","64afd48e84d0fd077d0ea6fd","null","null","<p style=""font-size: 60px; font-family: BACS"">kZUbuZc</p>","","","","","","","",""
"html-keyboard-response","276","429886","0.0-13.0-0.26","60b55a6d44e17d6f0b810cdd","64afc2c9a8732ea92db0087d","64afd48e84d0fd077d0ea6fd","null","null","<p style=""font-size: 60px; font-family: BACS"">DOchlBYhT</p>","","","","","","","",""
"html-keyboard-response","277","430887","0.0-13.0-0.27","60b55a6d44e17d6f0b810cdd","64afc2c9a8732ea92db0087d","64afd48e84d0fd077d0ea6fd","null","null","<p style=""font-size: 60px; font-family: BACS"">GJGcZrba</p>","","","","","","","",""
"html-keyboard-response","278","431892","0.0-13.0-0.28","60b55a6d44e17d6f0b810cdd","64afc2c9a8732ea92db0087d","64afd48e84d0fd077d0ea6fd","null","null","<p style=""font-size: 60px; font-family: BACS"">vkYGlcUN</p>","","","","","","","",""
"html-keyboard-response","279","432893","0.0-13.0-0.29","60b55a6d44e17d6f0b810cdd","64afc2c9a8732ea92db0087d","64afd48e84d0fd077d0ea6fd","null","null","<p style=""font-size: 60px; font-family: BACS"">uQkrduZc</p>","","","","","","","",""
"html-keyboard-response","280","433895","0.0-13.0-0.30","60b55a6d44e17d6f0b810cdd","64afc2c9a8732ea92db0087d","64afd48e84d0fd077d0ea6fd","null","null","<p style=""font-size: 60px; font-family: BACS"">NQZvkmU</p>","","","","","","","",""
"html-keyboard-response","281","434896","0.0-13.0-0.31","60b55a6d44e17d6f0b810cdd","64afc2c9a8732ea92db0087d","64afd48e84d0fd077d0ea6fd","null","null","<p style=""font-size: 60px; font-family: BACS"">vkYGlNmAG</p>","","","","","","","",""
"html-keyboard-response","282","435908","0.0-13.0-0.32","60b55a6d44e17d6f0b810cdd","64afc2c9a8732ea92db0087d","64afd48e84d0fd077d0ea6fd","null","null","<p style=""font-size: 60px; font-family: BACS"">YJkbrba</p>","","","","","","","",""
"html-keyboard-response","283","436916","0.0-13.0-0.33","60b55a6d44e17d6f0b810cdd","64afc2c9a8732ea92db0087d","64afd48e84d0fd077d0ea6fd","null","null","<p style=""font-size: 60px; font-family: BACS"">AlUYcUN</p>","","","","","","","",""
"html-keyboard-response","284","437917","0.0-13.0-0.34","60b55a6d44e17d6f0b810cdd","64afc2c9a8732ea92db0087d","64afd48e84d0fd077d0ea6fd","null","null","<p style=""font-size: 60px; font-family: BACS"">KRARmdRA</p>","","","","","","","",""
"html-keyboard-response","285","438927","0.0-13.0-0.35","60b55a6d44e17d6f0b810cdd","64afc2c9a8732ea92db0087d","64afd48e84d0fd077d0ea6fd","null","null","<p style=""font-size: 60px; font-family: BACS"">cRElDPMYm</p>","","","","","","","",""
"html-keyboard-response","286","439935","0.0-13.0-0.36","60b55a6d44e17d6f0b810cdd","64afc2c9a8732ea92db0087d","64afd48e84d0fd077d0ea6fd","null","null","<p style=""font-size: 60px; font-family: BACS"">PEkhABYhT</p>","","","","","","","",""
"html-keyboard-response","287","440938","0.0-13.0-0.37","60b55a6d44e17d6f0b810cdd","64afc2c9a8732ea92db0087d","64afd48e84d0fd077d0ea6fd","null","null","<p style=""font-size: 60px; font-family: BACS"">rGUAYNmAG</p>","","","","","","","",""
"html-keyboard-response","288","441940","0.0-13.0-0.38","60b55a6d44e17d6f0b810cdd","64afc2c9a8732ea92db0087d","64afd48e84d0fd077d0ea6fd","null","null","<p style=""font-size: 60px; font-family: BACS"">DOchlKOYC</p>","","","","","","","",""
"html-keyboard-response","289","442945","0.0-13.0-0.39","60b55a6d44e17d6f0b810cdd","64afc2c9a8732ea92db0087d","64afd48e84d0fd077d0ea6fd","null","null","<p style=""font-size: 60px; font-family: BACS"">dRbDbBYhT</p>","","","","","","","",""
"html-keyboard-response","290","443950","0.0-13.0-0.40","60b55a6d44e17d6f0b810cdd","64afc2c9a8732ea92db0087d","64afd48e84d0fd077d0ea6fd","null","null","<p style=""font-size: 60px; font-family: BACS"">PEkhAdRA</p>","","","","","","","",""
"html-keyboard-response","291","444956","0.0-13.0-0.41","60b55a6d44e17d6f0b810cdd","64afc2c9a8732ea92db0087d","64afd48e84d0fd077d0ea6fd","null","null","<p style=""font-size: 60px; font-family: BACS"">YObAOYK</p>","","","","","","","",""
"html-keyboard-response","292","445963","0.0-13.0-0.42","60b55a6d44e17d6f0b810cdd","64afc2c9a8732ea92db0087d","64afd48e84d0fd077d0ea6fd","null","null","<p style=""font-size: 60px; font-family: BACS"">YJkbNmAG</p>","","","","","","","",""
"html-keyboard-response","293","446969","0.0-13.0-0.43","60b55a6d44e17d6f0b810cdd","64afc2c9a8732ea92db0087d","64afd48e84d0fd077d0ea6fd","null","null","<p style=""font-size: 60px; font-family: BACS"">kZUbrba</p>","","","","","","","",""
"html-keyboard-response","294","447974","0.0-13.0-0.44","60b55a6d44e17d6f0b810cdd","64afc2c9a8732ea92db0087d","64afd48e84d0fd077d0ea6fd","null","null","<p style=""font-size: 60px; font-family: BACS"">uQkrdcUN</p>","","","","","","","",""
"html-keyboard-response","295","448983","0.0-13.0-0.45","60b55a6d44e17d6f0b810cdd","64afc2c9a8732ea92db0087d","64afd48e84d0fd077d0ea6fd","null","null","<p style=""font-size: 60px; font-family: BACS"">DBlhOYK</p>","","","","","","","",""
"html-keyboard-response","296","449990","0.0-13.0-0.46","60b55a6d44e17d6f0b810cdd","64afc2c9a8732ea92db0087d","64afd48e84d0fd077d0ea6fd","null","null","<p style=""font-size: 60px; font-family: BACS"">JAdLmNmAG</p>","","","","","","","",""
"html-keyboard-response","297","450993","0.0-13.0-0.47","60b55a6d44e17d6f0b810cdd","64afc2c9a8732ea92db0087d","64afd48e84d0fd077d0ea6fd","null","null","<p style=""font-size: 60px; font-family: BACS"">dRbDbOYK</p>","","","","","","","",""
"html-keyboard-response","298","451998","0.0-13.0-0.48","60b55a6d44e17d6f0b810cdd","64afc2c9a8732ea92db0087d","64afd48e84d0fd077d0ea6fd","null","null","<p style=""font-size: 60px; font-family: BACS"">DBlhdRA</p>","","","","","","","",""
"html-keyboard-response","299","452999","0.0-13.0-0.49","60b55a6d44e17d6f0b810cdd","64afc2c9a8732ea92db0087d","64afd48e84d0fd077d0ea6fd","null","null","<p style=""font-size: 60px; font-family: BACS"">DOBhYKOYC</p>","","","","","","","",""
"html-keyboard-response","300","454000","0.0-13.0-0.50","60b55a6d44e17d6f0b810cdd","64afc2c9a8732ea92db0087d","64afd48e84d0fd077d0ea6fd","null","null","<p style=""font-size: 60px; font-family: BACS"">cRElDOYK</p>","","","","","","","",""
"html-keyboard-response","301","455011","0.0-13.0-0.51","60b55a6d44e17d6f0b810cdd","64afc2c9a8732ea92db0087d","64afd48e84d0fd077d0ea6fd","null","null","<p style=""font-size: 60px; font-family: BACS"">rGUAYcUN</p>","","","","","","","",""
"html-keyboard-response","302","456013","0.0-13.0-0.52","60b55a6d44e17d6f0b810cdd","64afc2c9a8732ea92db0087d","64afd48e84d0fd077d0ea6fd","null","null","<p style=""font-size: 60px; font-family: BACS"">DhMtBYhT</p>","","","","","","","",""
"html-keyboard-response","303","457015","0.0-13.0-0.53","60b55a6d44e17d6f0b810cdd","64afc2c9a8732ea92db0087d","64afd48e84d0fd077d0ea6fd","null","null","<p style=""font-size: 60px; font-family: BACS"">DOchldRA</p>","","","","","","","",""
"html-keyboard-response","304","458026","0.0-13.0-0.54","60b55a6d44e17d6f0b810cdd","64afc2c9a8732ea92db0087d","64afd48e84d0fd077d0ea6fd","null","null","<p style=""font-size: 60px; font-family: BACS"">AlUYkmU</p>","","","","","","","",""
"html-keyboard-response","305","459028","0.0-13.0-0.55","60b55a6d44e17d6f0b810cdd","64afc2c9a8732ea92db0087d","64afd48e84d0fd077d0ea6fd","null","null","<p style=""font-size: 60px; font-family: BACS"">DhMtOYK</p>","","","","","","","",""
"html-keyboard-response","306","460030","0.0-13.0-0.56","60b55a6d44e17d6f0b810cdd","64afc2c9a8732ea92db0087d","64afd48e84d0fd077d0ea6fd","null","null","<p style=""font-size: 60px; font-family: BACS"">uQkrdNmAG</p>","","","","","","","",""
"html-keyboard-response","307","461032","0.0-13.0-0.57","60b55a6d44e17d6f0b810cdd","64afc2c9a8732ea92db0087d","64afd48e84d0fd077d0ea6fd","null","null","<p style=""font-size: 60px; font-family: BACS"">DhMtPMYm</p>","","","","","","","",""
"html-keyboard-response","308","462034","0.0-13.0-0.58","60b55a6d44e17d6f0b810cdd","64afc2c9a8732ea92db0087d","64afd48e84d0fd077d0ea6fd","null","null","<p style=""font-size: 60px; font-family: BACS"">kZUbcUN</p>","","","","","","","",""
"html-keyboard-response","309","463036","0.0-13.0-0.59","60b55a6d44e17d6f0b810cdd","64afc2c9a8732ea92db0087d","64afd48e84d0fd077d0ea6fd","null","null","<p style=""font-size: 60px; font-family: BACS"">PEkhAPMYm</p>","","","","","","","",""
"html-keyboard-response","310","464038","0.0-13.0-0.60","60b55a6d44e17d6f0b810cdd","64afc2c9a8732ea92db0087d","64afd48e84d0fd077d0ea6fd","null","null","<p style=""font-size: 60px; font-family: BACS"">rGUAYkmU</p>","","","","","","","",""
"html-keyboard-response","311","465045","0.0-13.0-0.61","60b55a6d44e17d6f0b810cdd","64afc2c9a8732ea92db0087d","64afd48e84d0fd077d0ea6fd","null","null","<p style=""font-size: 60px; font-family: BACS"">PEkhAKOYC</p>","","","","","","","",""
"html-keyboard-response","312","466047","0.0-13.0-0.62","60b55a6d44e17d6f0b810cdd","64afc2c9a8732ea92db0087d","64afd48e84d0fd077d0ea6fd","null","null","<p style=""font-size: 60px; font-family: BACS"">GJGcZkmU</p>","","","","","","","",""
"html-keyboard-response","313","467053","0.0-13.0-0.63","60b55a6d44e17d6f0b810cdd","64afc2c9a8732ea92db0087d","64afd48e84d0fd077d0ea6fd","null","null","<p style=""font-size: 60px; font-family: BACS"">UdumduZc</p>","","","","","","","",""
"html-keyboard-response","314","468060","0.0-13.0-0.64","60b55a6d44e17d6f0b810cdd","64afc2c9a8732ea92db0087d","64afd48e84d0fd077d0ea6fd","null","null","<p style=""font-size: 60px; font-family: BACS"">YObAKOYC</p>","","","","","","","",""
"html-keyboard-response","315","469062","0.0-13.0-0.65","60b55a6d44e17d6f0b810cdd","64afc2c9a8732ea92db0087d","64afd48e84d0fd077d0ea6fd","null","null","<p style=""font-size: 60px; font-family: BACS"">JAdLmcUN</p>","","","","","","","",""
"html-keyboard-response","316","470071","0.0-13.0-0.66","60b55a6d44e17d6f0b810cdd","64afc2c9a8732ea92db0087d","64afd48e84d0fd077d0ea6fd","null","null","<p style=""font-size: 60px; font-family: BACS"">DOBhYOYK</p>","","","","","","","",""
"html-keyboard-response","317","471074","0.0-13.0-0.67","60b55a6d44e17d6f0b810cdd","64afc2c9a8732ea92db0087d","64afd48e84d0fd077d0ea6fd","null","null","<p style=""font-size: 60px; font-family: BACS"">KRARmBYhT</p>","","","","","","","",""
"html-keyboard-response","318","472078","0.0-13.0-0.68","60b55a6d44e17d6f0b810cdd","64afc2c9a8732ea92db0087d","64afd48e84d0fd077d0ea6fd","null","null","<p style=""font-size: 60px; font-family: BACS"">UdumdkmU</p>","","","","","","","",""
"html-keyboard-response","319","473081","0.0-13.0-0.69","60b55a6d44e17d6f0b810cdd","64afc2c9a8732ea92db0087d","64afd48e84d0fd077d0ea6fd","null","null","<p style=""font-size: 60px; font-family: BACS"">NQZvNmAG</p>","","","","","","","",""
"html-keyboard-response","320","474083","0.0-13.0-0.70","60b55a6d44e17d6f0b810cdd","64afc2c9a8732ea92db0087d","64afd48e84d0fd077d0ea6fd","null","null","<p style=""font-size: 60px; font-family: BACS"">TbKMEdRA</p>","","","","","","","",""
"html-keyboard-response","321","475096","0.0-13.0-0.71","60b55a6d44e17d6f0b810cdd","64afc2c9a8732ea92db0087d","64afd48e84d0fd077d0ea6fd","null","null","<p style=""font-size: 60px; font-family: BACS"">KRARmPMYm</p>","","","","","","","",""
"html-keyboard-response","322","476097","0.0-13.0-0.72","60b55a6d44e17d6f0b810cdd","64afc2c9a8732ea92db0087d","64afd48e84d0fd077d0ea6fd","null","null","<p style=""font-size: 60px; font-family: BACS"">GJGcZuZc</p>","","","","","","","",""
"html-keyboard-response","323","477099","0.0-13.0-0.73","60b55a6d44e17d6f0b810cdd","64afc2c9a8732ea92db0087d","64afd48e84d0fd077d0ea6fd","null","null","<p style=""font-size: 60px; font-family: BACS"">uQkrdkmU</p>","","","","","","","",""
"html-keyboard-response","324","478100","0.0-13.0-0.74","60b55a6d44e17d6f0b810cdd","64afc2c9a8732ea92db0087d","64afd48e84d0fd077d0ea6fd","null","null","<p style=""font-size: 60px; font-family: BACS"">DBlhPMYm</p>","","","","","","","",""
"html-keyboard-response","325","479108","0.0-13.0-0.75","60b55a6d44e17d6f0b810cdd","64afc2c9a8732ea92db0087d","64afd48e84d0fd077d0ea6fd","null","null","<p style=""font-size: 60px; font-family: BACS"">cRElDBYhT</p>","","","","","","","",""
"html-keyboard-response","326","480118","0.0-13.0-0.76","60b55a6d44e17d6f0b810cdd","64afc2c9a8732ea92db0087d","64afd48e84d0fd077d0ea6fd","null","null","<p style=""font-size: 60px; font-family: BACS"">UdumdNmAG</p>","","","","","","","",""
"html-keyboard-response","327","481120","0.0-13.0-0.77","60b55a6d44e17d6f0b810cdd","64afc2c9a8732ea92db0087d","64afd48e84d0fd077d0ea6fd","null","null","<p style=""font-size: 60px; font-family: BACS"">JAdLmrba</p>","","","","","","","",""
"html-keyboard-response","328","482128","0.0-13.0-0.78","60b55a6d44e17d6f0b810cdd","64afc2c9a8732ea92db0087d","64afd48e84d0fd077d0ea6fd","null","null","<p style=""font-size: 60px; font-family: BACS"">rGUAYuZc</p>","","","","","","","",""
"html-keyboard-response","329","483130","0.0-13.0-0.79","60b55a6d44e17d6f0b810cdd","64afc2c9a8732ea92db0087d","64afd48e84d0fd077d0ea6fd","null","null","<p style=""font-size: 60px; font-family: BACS"">dRbDbKOYC</p>","","","","","","","",""
"html-keyboard-response","330","496319","0.0-14.0","60b55a6d44e17d6f0b810cdd","64afc2c9a8732ea92db0087d","64afd48e84d0fd077d0ea6fd","13189"," ","<p>Ottimo! Hai visto tutte le parole che abbiamo ricevuto dallo spazio.</p>
      <p>Premi la barra quando sei pronta/o per continuare.</p>","","","","","","","",""
"html-keyboard-response","331","530533","0.0-15.0","60b55a6d44e17d6f0b810cdd","64afc2c9a8732ea92db0087d","64afd48e84d0fd077d0ea6fd","34214"," ","<p>In questa seconda parte, vedrai delle nuove parole che abbiamo ricevuto dallo stesso gruppo di alieni, e altre che invece provengono da un'altra comunicazione, con un altro gruppo di alieni. Purtroppo le due comunicazioni non arrivano a noi separatamente, per cui le parole sono mescolate tra loro. Il tuo compito sarà quello di individuare le parole che provengono dal gruppo che hai studiato nella prima parte dell'esperimento.</p>
      <p>Questo compito non è per nulla facile; le due comunicazioni infatti usano gli stessi caratteri. Il tuo meeting con i leader mondiali inizia tra poco, per cui non avrai molto tempo per prendere la tua decisione; dovrai essere veloce. Cerca di fare del tuo meglio usando la tua intuizione; non hai tempo di stare a pensare a lungo su ogni singola parola.</p>
      <p>Premi <strong>k</strong> quando pensi che la parola che stai vedendo sia degli stessi alieni che hai studiato prima, e <strong>d</strong> quando invece pensi che la parola che stai vedendo venga dall'altra comunicazione, con il nuovo gruppo di alieni.</p><p>Premi la barra quando sei pronta/o per iniziare.</p>","","","","","","","",""
"html-keyboard-response","332","533420","0.0-16.0-0.0","60b55a6d44e17d6f0b810cdd","64afc2c9a8732ea92db0087d","64afd48e84d0fd077d0ea6fd","2885","d","<p style=""font-size: 30px;"">La parola viene del gruppo di alieni che hai studiato prima?</p><br><p style=""font-size: 60px; font-family: BACS"">vkYGluZc<p style=""font-size: 15px"">Premi <strong>k</strong> per sì, <strong>d</strong> per no.</p>","","vkYGluZc","testing","k","false","","",""
"html-keyboard-response","333","535706","0.0-16.0-1.0-0.0","60b55a6d44e17d6f0b810cdd","64afc2c9a8732ea92db0087d","64afd48e84d0fd077d0ea6fd","2285"," ","<p style=""font-size: 30px; color: red"">Attenzione! Sei stato troppo lento con questa parola.</p>
      <p style=""font-size: 30px; color: red"">Cerca di essere più veloce.</p><p></p><p>Premi la barra per continuare.</p>","","","","","","","",""
"html-keyboard-response","334","536459","0.0-16.0-0.1","60b55a6d44e17d6f0b810cdd","64afc2c9a8732ea92db0087d","64afd48e84d0fd077d0ea6fd","751","k","<p style=""font-size: 30px;"">La parola viene del gruppo di alieni che hai studiato prima?</p><br><p style=""font-size: 60px; font-family: BACS"">dRbDbPMYm<p style=""font-size: 15px"">Premi <strong>k</strong> per sì, <strong>d</strong> per no.</p>","","dRbDbPMYm","testing","k","true","","",""
"html-keyboard-response","335","537494","0.0-16.0-0.2","60b55a6d44e17d6f0b810cdd","64afc2c9a8732ea92db0087d","64afd48e84d0fd077d0ea6fd","1034","k","<p style=""font-size: 30px;"">La parola viene del gruppo di alieni che hai studiato prima?</p><br><p style=""font-size: 60px; font-family: BACS"">rGUAYKOYC<p style=""font-size: 15px"">Premi <strong>k</strong> per sì, <strong>d</strong> per no.</p>","","rGUAYKOYC","testing","d","false","","",""
"html-keyboard-response","336","538631","0.0-16.0-0.3","60b55a6d44e17d6f0b810cdd","64afc2c9a8732ea92db0087d","64afd48e84d0fd077d0ea6fd","1137","d","<p style=""font-size: 30px"">&emsp;</p><br><p style=""font-size: 60px; font-family: BACS"">DOchlOYK<p style=""font-size: 15px"">Premi <strong>k</strong> per sì, <strong>d</strong> per no.</p>","","DOchlOYK","testing","k","false","","",""
"html-keyboard-response","337","539325","0.0-16.0-0.4","60b55a6d44e17d6f0b810cdd","64afc2c9a8732ea92db0087d","64afd48e84d0fd077d0ea6fd","693","k","<p style=""font-size: 30px"">&emsp;</p><br><p style=""font-size: 60px; font-family: BACS"">rGUAYrba<p style=""font-size: 15px"">Premi <strong>k</strong> per sì, <strong>d</strong> per no.</p>","","rGUAYrba","testing","k","true","","",""
"html-keyboard-response","338","540444","0.0-16.0-0.5","60b55a6d44e17d6f0b810cdd","64afc2c9a8732ea92db0087d","64afd48e84d0fd077d0ea6fd","1118","d","<p style=""font-size: 30px"">&emsp;</p><br><p style=""font-size: 60px; font-family: BACS"">cRElDdRA<p style=""font-size: 15px"">Premi <strong>k</strong> per sì, <strong>d</strong> per no.</p>","","cRElDdRA","testing","k","false","","",""
"html-keyboard-response","339","541331","0.0-16.0-0.6","60b55a6d44e17d6f0b810cdd","64afc2c9a8732ea92db0087d","64afd48e84d0fd077d0ea6fd","886","d","<p style=""font-size: 30px"">&emsp;</p><br><p style=""font-size: 60px; font-family: BACS"">TbKMEPMYm<p style=""font-size: 15px"">Premi <strong>k</strong> per sì, <strong>d</strong> per no.</p>","","TbKMEPMYm","testing","k","false","","",""
"html-keyboard-response","340","542164","0.0-16.0-0.7","60b55a6d44e17d6f0b810cdd","64afc2c9a8732ea92db0087d","64afd48e84d0fd077d0ea6fd","833","k","<p style=""font-size: 30px"">&emsp;</p><br><p style=""font-size: 60px; font-family: BACS"">DhMtdRA<p style=""font-size: 15px"">Premi <strong>k</strong> per sì, <strong>d</strong> per no.</p>","","DhMtdRA","testing","k","true","","",""
"html-keyboard-response","341","543232","0.0-16.0-0.8","60b55a6d44e17d6f0b810cdd","64afc2c9a8732ea92db0087d","64afd48e84d0fd077d0ea6fd","1066","k","<p style=""font-size: 30px"">&emsp;</p><br><p style=""font-size: 60px; font-family: BACS"">JAdLmkmU<p style=""font-size: 15px"">Premi <strong>k</strong> per sì, <strong>d</strong> per no.</p>","","JAdLmkmU","testing","k","true","","",""
"html-keyboard-response","342","543834","0.0-16.0-0.9","60b55a6d44e17d6f0b810cdd","64afc2c9a8732ea92db0087d","64afd48e84d0fd077d0ea6fd","601","d","<p style=""font-size: 30px"">&emsp;</p><br><p style=""font-size: 60px; font-family: BACS"">PEkhAOYK<p style=""font-size: 15px"">Premi <strong>k</strong> per sì, <strong>d</strong> per no.</p>","","PEkhAOYK","testing","k","false","","",""
"html-keyboard-response","343","544545","0.0-16.0-0.10","60b55a6d44e17d6f0b810cdd","64afc2c9a8732ea92db0087d","64afd48e84d0fd077d0ea6fd","710","k","<p style=""font-size: 30px"">&emsp;</p><br><p style=""font-size: 60px; font-family: BACS"">UdumdcUN<p style=""font-size: 15px"">Premi <strong>k</strong> per sì, <strong>d</strong> per no.</p>","","UdumdcUN","testing","k","true","","",""
"html-keyboard-response","344","545299","0.0-16.0-0.11","60b55a6d44e17d6f0b810cdd","64afc2c9a8732ea92db0087d","64afd48e84d0fd077d0ea6fd","754","k","<p style=""font-size: 30px"">&emsp;</p><br><p style=""font-size: 60px; font-family: BACS"">DOBhYBYhT<p style=""font-size: 15px"">Premi <strong>k</strong> per sì, <strong>d</strong> per no.</p>","","DOBhYBYhT","testing","k","true","","",""
"html-keyboard-response","345","546154","0.0-16.0-0.12","60b55a6d44e17d6f0b810cdd","64afc2c9a8732ea92db0087d","64afd48e84d0fd077d0ea6fd","854","d","<p style=""font-size: 30px"">&emsp;</p><br><p style=""font-size: 60px; font-family: BACS"">uQkrdrba<p style=""font-size: 15px"">Premi <strong>k</strong> per sì, <strong>d</strong> per no.</p>","","uQkrdrba","testing","k","false","","",""
"html-keyboard-response","346","546772","0.0-16.0-0.13","60b55a6d44e17d6f0b810cdd","64afc2c9a8732ea92db0087d","64afd48e84d0fd077d0ea6fd","617","k","<p style=""font-size: 30px"">&emsp;</p><br><p style=""font-size: 60px; font-family: BACS"">TbKMEcUN<p style=""font-size: 15px"">Premi <strong>k</strong> per sì, <strong>d</strong> per no.</p>","","TbKMEcUN","testing","d","false","","",""
"html-keyboard-response","347","547494","0.0-16.0-0.14","60b55a6d44e17d6f0b810cdd","64afc2c9a8732ea92db0087d","64afd48e84d0fd077d0ea6fd","722","d","<p style=""font-size: 30px"">&emsp;</p><br><p style=""font-size: 60px; font-family: BACS"">NQZvPMYm<p style=""font-size: 15px"">Premi <strong>k</strong> per sì, <strong>d</strong> per no.</p>","","NQZvPMYm","testing","d","true","","",""
"html-keyboard-response","348","548311","0.0-16.0-0.15","60b55a6d44e17d6f0b810cdd","64afc2c9a8732ea92db0087d","64afd48e84d0fd077d0ea6fd","816","k","<p style=""font-size: 30px"">&emsp;</p><br><p style=""font-size: 60px; font-family: BACS"">GJGcZNmAG<p style=""font-size: 15px"">Premi <strong>k</strong> per sì, <strong>d</strong> per no.</p>","","GJGcZNmAG","testing","k","true","","",""
"html-keyboard-response","349","548902","0.0-16.0-0.16","60b55a6d44e17d6f0b810cdd","64afc2c9a8732ea92db0087d","64afd48e84d0fd077d0ea6fd","589","d","<p style=""font-size: 30px"">&emsp;</p><br><p style=""font-size: 60px; font-family: BACS"">NQZvcUN<p style=""font-size: 15px"">Premi <strong>k</strong> per sì, <strong>d</strong> per no.</p>","","NQZvcUN","testing","k","false","","",""
"html-keyboard-response","350","549609","0.0-16.0-0.17","60b55a6d44e17d6f0b810cdd","64afc2c9a8732ea92db0087d","64afd48e84d0fd077d0ea6fd","706","d","<p style=""font-size: 30px"">&emsp;</p><br><p style=""font-size: 60px; font-family: BACS"">PEkhAkmU<p style=""font-size: 15px"">Premi <strong>k</strong> per sì, <strong>d</strong> per no.</p>","","PEkhAkmU","testing","d","true","","",""
"html-keyboard-response","351","550161","0.0-16.0-0.18","60b55a6d44e17d6f0b810cdd","64afc2c9a8732ea92db0087d","64afd48e84d0fd077d0ea6fd","551","k","<p style=""font-size: 30px"">&emsp;</p><br><p style=""font-size: 60px; font-family: BACS"">DhMtuZc<p style=""font-size: 15px"">Premi <strong>k</strong> per sì, <strong>d</strong> per no.</p>","","DhMtuZc","testing","d","false","","",""
"html-keyboard-response","352","550722","0.0-16.0-0.19","60b55a6d44e17d6f0b810cdd","64afc2c9a8732ea92db0087d","64afd48e84d0fd077d0ea6fd","560","d","<p style=""font-size: 30px"">&emsp;</p><br><p style=""font-size: 60px; font-family: BACS"">AlUYdRA<p style=""font-size: 15px"">Premi <strong>k</strong> per sì, <strong>d</strong> per no.</p>","","AlUYdRA","testing","d","true","","",""
"html-keyboard-response","353","551275","0.0-16.0-0.20","60b55a6d44e17d6f0b810cdd","64afc2c9a8732ea92db0087d","64afd48e84d0fd077d0ea6fd","552","k","<p style=""font-size: 30px"">&emsp;</p><br><p style=""font-size: 60px; font-family: BACS"">DBlhrba<p style=""font-size: 15px"">Premi <strong>k</strong> per sì, <strong>d</strong> per no.</p>","","DBlhrba","testing","d","false","","",""
"html-keyboard-response","354","551778","0.0-16.0-0.21","60b55a6d44e17d6f0b810cdd","64afc2c9a8732ea92db0087d","64afd48e84d0fd077d0ea6fd","502","d","<p style=""font-size: 30px"">&emsp;</p><br><p style=""font-size: 60px; font-family: BACS"">YObANmAG<p style=""font-size: 15px"">Premi <strong>k</strong> per sì, <strong>d</strong> per no.</p>","","YObANmAG","testing","d","true","","",""
"html-keyboard-response","355","552233","0.0-16.0-0.22","60b55a6d44e17d6f0b810cdd","64afc2c9a8732ea92db0087d","64afd48e84d0fd077d0ea6fd","455","k","<p style=""font-size: 30px"">&emsp;</p><br><p style=""font-size: 60px; font-family: BACS"">DOchlkmU<p style=""font-size: 15px"">Premi <strong>k</strong> per sì, <strong>d</strong> per no.</p>","","DOchlkmU","testing","d","false","","",""
"html-keyboard-response","356","552793","0.0-16.0-0.23","60b55a6d44e17d6f0b810cdd","64afc2c9a8732ea92db0087d","64afd48e84d0fd077d0ea6fd","560","d","<p style=""font-size: 30px"">&emsp;</p><br><p style=""font-size: 60px; font-family: BACS"">YObABYhT<p style=""font-size: 15px"">Premi <strong>k</strong> per sì, <strong>d</strong> per no.</p>","","YObABYhT","testing","k","false","","",""
"html-keyboard-response","357","553353","0.0-16.0-0.24","60b55a6d44e17d6f0b810cdd","64afc2c9a8732ea92db0087d","64afd48e84d0fd077d0ea6fd","559","d","<p style=""font-size: 30px"">&emsp;</p><br><p style=""font-size: 60px; font-family: BACS"">vkYGldRA<p style=""font-size: 15px"">Premi <strong>k</strong> per sì, <strong>d</strong> per no.</p>","","vkYGldRA","testing","d","true","","",""
"html-keyboard-response","358","553845","0.0-16.0-0.25","60b55a6d44e17d6f0b810cdd","64afc2c9a8732ea92db0087d","64afd48e84d0fd077d0ea6fd","492","k","<p style=""font-size: 30px"">&emsp;</p><br><p style=""font-size: 60px; font-family: BACS"">YJkbOYK<p style=""font-size: 15px"">Premi <strong>k</strong> per sì, <strong>d</strong> per no.</p>","","YJkbOYK","testing","d","false","","",""
"html-keyboard-response","359","554335","0.0-16.0-0.26","60b55a6d44e17d6f0b810cdd","64afc2c9a8732ea92db0087d","64afd48e84d0fd077d0ea6fd","489","k","<p style=""font-size: 30px"">&emsp;</p><br><p style=""font-size: 60px; font-family: BACS"">DOBhYNmAG<p style=""font-size: 15px"">Premi <strong>k</strong> per sì, <strong>d</strong> per no.</p>","","DOBhYNmAG","testing","d","false","","",""
"html-keyboard-response","360","554815","0.0-16.0-0.27","60b55a6d44e17d6f0b810cdd","64afc2c9a8732ea92db0087d","64afd48e84d0fd077d0ea6fd","479","k","<p style=""font-size: 30px"">&emsp;</p><br><p style=""font-size: 60px; font-family: BACS"">GJGcZBYhT<p style=""font-size: 15px"">Premi <strong>k</strong> per sì, <strong>d</strong> per no.</p>","","GJGcZBYhT","testing","d","false","","",""
"html-keyboard-response","361","555299","0.0-16.0-0.28","60b55a6d44e17d6f0b810cdd","64afc2c9a8732ea92db0087d","64afd48e84d0fd077d0ea6fd","483","d","<p style=""font-size: 30px"">&emsp;</p><br><p style=""font-size: 60px; font-family: BACS"">KRARmKOYC<p style=""font-size: 15px"">Premi <strong>k</strong> per sì, <strong>d</strong> per no.</p>","","KRARmKOYC","testing","k","false","","",""
"html-keyboard-response","362","556007","0.0-16.0-0.29","60b55a6d44e17d6f0b810cdd","64afc2c9a8732ea92db0087d","64afd48e84d0fd077d0ea6fd","708","d","<p style=""font-size: 30px"">&emsp;</p><br><p style=""font-size: 60px; font-family: BACS"">UdumdPMYm<p style=""font-size: 15px"">Premi <strong>k</strong> per sì, <strong>d</strong> per no.</p>","","UdumdPMYm","testing","d","true","","",""
"html-keyboard-response","363","556648","0.0-16.0-0.30","60b55a6d44e17d6f0b810cdd","64afc2c9a8732ea92db0087d","64afd48e84d0fd077d0ea6fd","640","d","<p style=""font-size: 30px"">&emsp;</p><br><p style=""font-size: 60px; font-family: BACS"">cRElDuZc<p style=""font-size: 15px"">Premi <strong>k</strong> per sì, <strong>d</strong> per no.</p>","","cRElDuZc","testing","d","true","","",""
"html-keyboard-response","364","557367","0.0-16.0-0.31","60b55a6d44e17d6f0b810cdd","64afc2c9a8732ea92db0087d","64afd48e84d0fd077d0ea6fd","719","k","<p style=""font-size: 30px"">&emsp;</p><br><p style=""font-size: 60px; font-family: BACS"">YJkbkmU<p style=""font-size: 15px"">Premi <strong>k</strong> per sì, <strong>d</strong> per no.</p>","","YJkbkmU","testing","k","true","","",""
"html-keyboard-response","365","557975","0.0-16.0-0.32","60b55a6d44e17d6f0b810cdd","64afc2c9a8732ea92db0087d","64afd48e84d0fd077d0ea6fd","607","k","<p style=""font-size: 30px"">&emsp;</p><br><p style=""font-size: 60px; font-family: BACS"">JAdLmOYK<p style=""font-size: 15px"">Premi <strong>k</strong> per sì, <strong>d</strong> per no.</p>","","JAdLmOYK","testing","d","false","","",""
"html-keyboard-response","366","558455","0.0-16.0-0.33","60b55a6d44e17d6f0b810cdd","64afc2c9a8732ea92db0087d","64afd48e84d0fd077d0ea6fd","479","d","<p style=""font-size: 30px"">&emsp;</p><br><p style=""font-size: 60px; font-family: BACS"">DBlhKOYC<p style=""font-size: 15px"">Premi <strong>k</strong> per sì, <strong>d</strong> per no.</p>","","DBlhKOYC","testing","k","false","","",""
"html-keyboard-response","367","559016","0.0-16.0-0.34","60b55a6d44e17d6f0b810cdd","64afc2c9a8732ea92db0087d","64afd48e84d0fd077d0ea6fd","560","k","<p style=""font-size: 30px"">&emsp;</p><br><p style=""font-size: 60px; font-family: BACS"">AlUYuZc<p style=""font-size: 15px"">Premi <strong>k</strong> per sì, <strong>d</strong> per no.</p>","","AlUYuZc","testing","k","true","","",""
"html-keyboard-response","368","559522","0.0-16.0-0.35","60b55a6d44e17d6f0b810cdd","64afc2c9a8732ea92db0087d","64afd48e84d0fd077d0ea6fd","505","k","<p style=""font-size: 30px"">&emsp;</p><br><p style=""font-size: 60px; font-family: BACS"">kZUbNmAG<p style=""font-size: 15px"">Premi <strong>k</strong> per sì, <strong>d</strong> per no.</p>","","kZUbNmAG","testing","k","true","","",""
"html-keyboard-response","369","560062","0.0-16.0-0.36","60b55a6d44e17d6f0b810cdd","64afc2c9a8732ea92db0087d","64afd48e84d0fd077d0ea6fd","540","d","<p style=""font-size: 30px"">&emsp;</p><br><p style=""font-size: 60px; font-family: BACS"">KRARmrba<p style=""font-size: 15px"">Premi <strong>k</strong> per sì, <strong>d</strong> per no.</p>","","KRARmrba","testing","d","true","","",""
"html-keyboard-response","370","560560","0.0-16.0-0.37","60b55a6d44e17d6f0b810cdd","64afc2c9a8732ea92db0087d","64afd48e84d0fd077d0ea6fd","498","k","<p style=""font-size: 30px"">&emsp;</p><br><p style=""font-size: 60px; font-family: BACS"">kZUbBYhT<p style=""font-size: 15px"">Premi <strong>k</strong> per sì, <strong>d</strong> per no.</p>","","kZUbBYhT","testing","d","false","","",""
"html-keyboard-response","371","561093","0.0-16.0-0.38","60b55a6d44e17d6f0b810cdd","64afc2c9a8732ea92db0087d","64afd48e84d0fd077d0ea6fd","532","k","<p style=""font-size: 30px"">&emsp;</p><br><p style=""font-size: 60px; font-family: BACS"">uQkrdKOYC<p style=""font-size: 15px"">Premi <strong>k</strong> per sì, <strong>d</strong> per no.</p>","","uQkrdKOYC","testing","d","false","","",""
