"trial_type","trial_index","time_elapsed","internal_node_id","subject_id","study_id","session_id","rt","response","stimulus","success","item","task","correct_response","testing_condition","correct","target","confound","name"
"pavlovia","0","973","0.0-0.0","5f0471a92ec97b6d1aec7739","650c16f0f2faf8d7a0d14c09","651c1c97f2f046c6abe73a47","","","","","","","","","","","",""
"survey-html-form","1","2679","0.0-1.0","5f0471a92ec97b6d1aec7739","650c16f0f2faf8d7a0d14c09","651c1c97f2f046c6abe73a47","1705","{""ID"":""5f0471a92ec97b6d1aec7739""}","","","","","","","","","",""
"html-keyboard-response","2","25871","0.0-2.0","5f0471a92ec97b6d1aec7739","650c16f0f2faf8d7a0d14c09","651c1c97f2f046c6abe73a47","23186"," ","<p style=""font-size: 15px;"">Before beginning, we ask that you read the consent information and confirm your agreement to participate in the experiment.</p>
      <p style=""font-size: 15px;""> We ask that you remember that this is a research project and that your participation is entirely voluntary. You can stop your participation at any time, without needing to provide any explanation. The study we're asking you to participate in aims at examining how readers process written words. You will be engaged in a session of apprximately 20 minutes, followed by a brief questionnaire. You will have the opportunity to take a few breaks during the experiment. You will be paid £4 for your participation, corresponding to a rate of £8/hour. While this experiment looks at cognitive faculties, this experiment doesn't constitute clinical proof of eventual pathologies.</p>
      <p style=""font-size: 15px;"">All of the information collected thanks to yours and others' participation will be held in a secure password-protected server, and will not be shared with anyone not authorised to view it. Your personal information will be kept with an arbitrary participant ID. Thanks to this data anonymity process, any researcher analysing the data won't be able to track the information back to a specific participant. Therefore, this process will make identifying you impossibile, even when results from the study will be published in scientific reviews, presented at congresses, or at any other public forum. More generally, the collected data will be treated in accordance with the laws on privacy and conformity to the Legislative Degree n. 196 ""Code regarding the protection of personal data"" of the 30th of June 2003 and to the European Regulation 2016/670 (General Data Protection Regulation - GDPR). The Data Protection Officer is Avv. Valentina Carollo, who can be contacted at the following email addresses: <a href=""mailto:dpo@sissa.it"">dpo@sissa.it</a> or <a href=""mailto:rpd@sissa.it"">rpd@sissa.it</a> - PEC: <a href=""mailto:protocollo@pec.sissa.it"">protocollo@pec.sissa.it</a>.</p>
      <p style=""font-size: 15px;""> Before expressing your consent to participate, we would like to remind you again that in case you need explanations on any aspect of the experimental procedure, the researcher is at your disposition (<a href=""mailto:aliebelt@sissa.it"">aliebelt@sissa.it</a>, <a href=""mailto:davide.crepaldi@sissa.it"">davide.crepaldi@sissa.it</a>).</p>
      <p style=""font-size: 15px;"">If you would like to download the informed consent form, you can do so here: <a href=""BASL-Informed_Consent.pdf"" download>informed consent form</a>.</p>
      <p style=""font-size: 15px;"">We ask that you press the spacebar to proceed to the consent section.</p>","","","","","","","","",""
"survey-html-form","3","37802","0.0-3.0","5f0471a92ec97b6d1aec7739","650c16f0f2faf8d7a0d14c09","651c1c97f2f046c6abe73a47","11931","{""consent1"":""YES"",""consent2"":""YES"",""consent3"":""YES"",""consent4"":""YES"",""consent5"":""YES"",""consent6"":""YES""}","","","","","","","","","",""
"fullscreen","4","42440","0.0-4.0","5f0471a92ec97b6d1aec7739","650c16f0f2faf8d7a0d14c09","651c1c97f2f046c6abe73a47","","","","true","","","","","","","",""
"html-keyboard-response","5","59607","0.0-5.0","5f0471a92ec97b6d1aec7739","650c16f0f2faf8d7a0d14c09","651c1c97f2f046c6abe73a47","17166"," ","<p>Welcome, and thank you very much for your time!</p>
      <p>In this experiment, you'll be a language expert who's been asked to take a look at words that Earth has received in its first communication with aliens. Your task, in this first part of the experiment, is to pay close attention to the words you'll be shown; later, world leaders will ask you questions on what you saw. The words will be shown to you quite quickly; it seems that the aliens were in a hurry :-)</p>
      <p>Press the spacebar to continue.<p>","","","","","","","","",""
"html-keyboard-response","6","59658","0.0-6.0","5f0471a92ec97b6d1aec7739","650c16f0f2faf8d7a0d14c09","651c1c97f2f046c6abe73a47","null","null","<p style=""font-size: 120px; font-family: BACS""> </p>","","","","","","","","",""
"html-keyboard-response","7","63372","0.0-7.0","5f0471a92ec97b6d1aec7739","650c16f0f2faf8d7a0d14c09","651c1c97f2f046c6abe73a47","3714"," ","<p>Here is an example of the words you'll see:</p>
      <img src='esempio.png' height='400px'>
      <p>When you're ready to begin, press the spacebar.</p></div>","","","","","","","","",""
"html-keyboard-response","8","64381","0.0-8.0-0.0","5f0471a92ec97b6d1aec7739","650c16f0f2faf8d7a0d14c09","651c1c97f2f046c6abe73a47","null","null","<p style=""font-size: 60px; font-family: BACS"">BKDRYtcB</p>","","","","","","","","",""
"html-keyboard-response","9","65397","0.0-8.0-0.1","5f0471a92ec97b6d1aec7739","650c16f0f2faf8d7a0d14c09","651c1c97f2f046c6abe73a47","null","null","<p style=""font-size: 60px; font-family: BACS"">tKDmhdCKc</p>","","","","","","","","",""
"html-keyboard-response","10","66411","0.0-8.0-0.2","5f0471a92ec97b6d1aec7739","650c16f0f2faf8d7a0d14c09","651c1c97f2f046c6abe73a47","null","null","<p style=""font-size: 60px; font-family: BACS"">cAZurZYd</p>","","","","","","","","",""
"html-keyboard-response","11","67414","0.0-8.0-0.3","5f0471a92ec97b6d1aec7739","650c16f0f2faf8d7a0d14c09","651c1c97f2f046c6abe73a47","null","null","<p style=""font-size: 60px; font-family: BACS"">McMDbTE</p>","","","","","","","","",""
"html-keyboard-response","12","68416","0.0-8.0-0.4","5f0471a92ec97b6d1aec7739","650c16f0f2faf8d7a0d14c09","651c1c97f2f046c6abe73a47","null","null","<p style=""font-size: 60px; font-family: BACS"">ALOrlrba</p>","","","","","","","","",""
"html-keyboard-response","13","69417","0.0-8.0-0.5","5f0471a92ec97b6d1aec7739","650c16f0f2faf8d7a0d14c09","651c1c97f2f046c6abe73a47","null","null","<p style=""font-size: 60px; font-family: BACS"">TAdhMtcB</p>","","","","","","","","",""
"html-keyboard-response","14","70433","0.0-8.0-0.6","5f0471a92ec97b6d1aec7739","650c16f0f2faf8d7a0d14c09","651c1c97f2f046c6abe73a47","null","null","<p style=""font-size: 60px; font-family: BACS"">QcQAJrba</p>","","","","","","","","",""
"html-keyboard-response","15","71435","0.0-8.0-0.7","5f0471a92ec97b6d1aec7739","650c16f0f2faf8d7a0d14c09","651c1c97f2f046c6abe73a47","null","null","<p style=""font-size: 60px; font-family: BACS"">OCmkdCKc</p>","","","","","","","","",""
"html-keyboard-response","16","72437","0.0-8.0-0.8","5f0471a92ec97b6d1aec7739","650c16f0f2faf8d7a0d14c09","651c1c97f2f046c6abe73a47","null","null","<p style=""font-size: 60px; font-family: BACS"">QcQAJYaOk</p>","","","","","","","","",""
"html-keyboard-response","17","73438","0.0-8.0-0.9","5f0471a92ec97b6d1aec7739","650c16f0f2faf8d7a0d14c09","651c1c97f2f046c6abe73a47","null","null","<p style=""font-size: 60px; font-family: BACS"">OmtlDcthB</p>","","","","","","","","",""
"html-keyboard-response","18","74440","0.0-8.0-0.10","5f0471a92ec97b6d1aec7739","650c16f0f2faf8d7a0d14c09","651c1c97f2f046c6abe73a47","null","null","<p style=""font-size: 60px; font-family: BACS"">KAERMRYlD</p>","","","","","","","","",""
"html-keyboard-response","19","75443","0.0-8.0-0.11","5f0471a92ec97b6d1aec7739","650c16f0f2faf8d7a0d14c09","651c1c97f2f046c6abe73a47","null","null","<p style=""font-size: 60px; font-family: BACS"">NaJbrba</p>","","","","","","","","",""
"html-keyboard-response","20","76445","0.0-8.0-0.12","5f0471a92ec97b6d1aec7739","650c16f0f2faf8d7a0d14c09","651c1c97f2f046c6abe73a47","null","null","<p style=""font-size: 60px; font-family: BACS"">PCPDhbTE</p>","","","","","","","","",""
"html-keyboard-response","21","77448","0.0-8.0-0.13","5f0471a92ec97b6d1aec7739","650c16f0f2faf8d7a0d14c09","651c1c97f2f046c6abe73a47","null","null","<p style=""font-size: 60px; font-family: BACS"">KAERMdCKc</p>","","","","","","","","",""
"html-keyboard-response","22","78450","0.0-8.0-0.14","5f0471a92ec97b6d1aec7739","650c16f0f2faf8d7a0d14c09","651c1c97f2f046c6abe73a47","null","null","<p style=""font-size: 60px; font-family: BACS"">LNUrJZAUu</p>","","","","","","","","",""
"html-keyboard-response","23","79466","0.0-8.0-0.15","5f0471a92ec97b6d1aec7739","650c16f0f2faf8d7a0d14c09","651c1c97f2f046c6abe73a47","null","null","<p style=""font-size: 60px; font-family: BACS"">JmvmOrba</p>","","","","","","","","",""
"html-keyboard-response","24","80468","0.0-8.0-0.16","5f0471a92ec97b6d1aec7739","650c16f0f2faf8d7a0d14c09","651c1c97f2f046c6abe73a47","null","null","<p style=""font-size: 60px; font-family: BACS"">dTmEDRYlD</p>","","","","","","","","",""
"html-keyboard-response","25","81470","0.0-8.0-0.17","5f0471a92ec97b6d1aec7739","650c16f0f2faf8d7a0d14c09","651c1c97f2f046c6abe73a47","null","null","<p style=""font-size: 60px; font-family: BACS"">ZdNmUrZYd</p>","","","","","","","","",""
"html-keyboard-response","26","82473","0.0-8.0-0.18","5f0471a92ec97b6d1aec7739","650c16f0f2faf8d7a0d14c09","651c1c97f2f046c6abe73a47","null","null","<p style=""font-size: 60px; font-family: BACS"">TKDkdCKc</p>","","","","","","","","",""
"html-keyboard-response","27","83475","0.0-8.0-0.19","5f0471a92ec97b6d1aec7739","650c16f0f2faf8d7a0d14c09","651c1c97f2f046c6abe73a47","null","null","<p style=""font-size: 60px; font-family: BACS"">rckOrba</p>","","","","","","","","",""
"html-keyboard-response","28","84476","0.0-8.0-0.20","5f0471a92ec97b6d1aec7739","650c16f0f2faf8d7a0d14c09","651c1c97f2f046c6abe73a47","null","null","<p style=""font-size: 60px; font-family: BACS"">McMDdCKc</p>","","","","","","","","",""
"html-keyboard-response","29","85482","0.0-8.0-0.21","5f0471a92ec97b6d1aec7739","650c16f0f2faf8d7a0d14c09","651c1c97f2f046c6abe73a47","null","null","<p style=""font-size: 60px; font-family: BACS"">KAERMcthB</p>","","","","","","","","",""
"html-keyboard-response","30","86484","0.0-8.0-0.22","5f0471a92ec97b6d1aec7739","650c16f0f2faf8d7a0d14c09","651c1c97f2f046c6abe73a47","null","null","<p style=""font-size: 60px; font-family: BACS"">TAdhMdCKc</p>","","","","","","","","",""
"html-keyboard-response","31","87486","0.0-8.0-0.23","5f0471a92ec97b6d1aec7739","650c16f0f2faf8d7a0d14c09","651c1c97f2f046c6abe73a47","null","null","<p style=""font-size: 60px; font-family: BACS"">QcQAJrZYd</p>","","","","","","","","",""
"html-keyboard-response","32","88489","0.0-8.0-0.24","5f0471a92ec97b6d1aec7739","650c16f0f2faf8d7a0d14c09","651c1c97f2f046c6abe73a47","null","null","<p style=""font-size: 60px; font-family: BACS"">LNUrJYaOk</p>","","","","","","","","",""
"html-keyboard-response","33","89490","0.0-8.0-0.25","5f0471a92ec97b6d1aec7739","650c16f0f2faf8d7a0d14c09","651c1c97f2f046c6abe73a47","null","null","<p style=""font-size: 60px; font-family: BACS"">NaJbZAUu</p>","","","","","","","","",""
"html-keyboard-response","34","90493","0.0-8.0-0.26","5f0471a92ec97b6d1aec7739","650c16f0f2faf8d7a0d14c09","651c1c97f2f046c6abe73a47","null","null","<p style=""font-size: 60px; font-family: BACS"">kdaAJYaOk</p>","","","","","","","","",""
"html-keyboard-response","35","91498","0.0-8.0-0.27","5f0471a92ec97b6d1aec7739","650c16f0f2faf8d7a0d14c09","651c1c97f2f046c6abe73a47","null","null","<p style=""font-size: 60px; font-family: BACS"">cAZuZAUu</p>","","","","","","","","",""
"html-keyboard-response","36","92499","0.0-8.0-0.28","5f0471a92ec97b6d1aec7739","650c16f0f2faf8d7a0d14c09","651c1c97f2f046c6abe73a47","null","null","<p style=""font-size: 60px; font-family: BACS"">NaJbYaOk</p>","","","","","","","","",""
"html-keyboard-response","37","93502","0.0-8.0-0.29","5f0471a92ec97b6d1aec7739","650c16f0f2faf8d7a0d14c09","651c1c97f2f046c6abe73a47","null","null","<p style=""font-size: 60px; font-family: BACS"">ALOrlGrbk</p>","","","","","","","","",""
"html-keyboard-response","38","94504","0.0-8.0-0.30","5f0471a92ec97b6d1aec7739","650c16f0f2faf8d7a0d14c09","651c1c97f2f046c6abe73a47","null","null","<p style=""font-size: 60px; font-family: BACS"">TKDkcthB</p>","","","","","","","","",""
"html-keyboard-response","39","95506","0.0-8.0-0.31","5f0471a92ec97b6d1aec7739","650c16f0f2faf8d7a0d14c09","651c1c97f2f046c6abe73a47","null","null","<p style=""font-size: 60px; font-family: BACS"">JmvmOGrbk</p>","","","","","","","","",""
"html-keyboard-response","40","96510","0.0-8.0-0.32","5f0471a92ec97b6d1aec7739","650c16f0f2faf8d7a0d14c09","651c1c97f2f046c6abe73a47","null","null","<p style=""font-size: 60px; font-family: BACS"">kdaAJZAUu</p>","","","","","","","","",""
"html-keyboard-response","41","97512","0.0-8.0-0.33","5f0471a92ec97b6d1aec7739","650c16f0f2faf8d7a0d14c09","651c1c97f2f046c6abe73a47","null","null","<p style=""font-size: 60px; font-family: BACS"">TKDktcB</p>","","","","","","","","",""
"html-keyboard-response","42","98514","0.0-8.0-0.34","5f0471a92ec97b6d1aec7739","650c16f0f2faf8d7a0d14c09","651c1c97f2f046c6abe73a47","null","null","<p style=""font-size: 60px; font-family: BACS"">TAdhMbTE</p>","","","","","","","","",""
"html-keyboard-response","43","99518","0.0-8.0-0.35","5f0471a92ec97b6d1aec7739","650c16f0f2faf8d7a0d14c09","651c1c97f2f046c6abe73a47","null","null","<p style=""font-size: 60px; font-family: BACS"">cAZuGrbk</p>","","","","","","","","",""
"html-keyboard-response","44","100533","0.0-8.0-0.36","5f0471a92ec97b6d1aec7739","650c16f0f2faf8d7a0d14c09","651c1c97f2f046c6abe73a47","null","null","<p style=""font-size: 60px; font-family: BACS"">rckOrZYd</p>","","","","","","","","",""
"html-keyboard-response","45","101534","0.0-8.0-0.37","5f0471a92ec97b6d1aec7739","650c16f0f2faf8d7a0d14c09","651c1c97f2f046c6abe73a47","null","null","<p style=""font-size: 60px; font-family: BACS"">ZdNmUZAUu</p>","","","","","","","","",""
"html-keyboard-response","46","102537","0.0-8.0-0.38","5f0471a92ec97b6d1aec7739","650c16f0f2faf8d7a0d14c09","651c1c97f2f046c6abe73a47","null","null","<p style=""font-size: 60px; font-family: BACS"">LNUrJrba</p>","","","","","","","","",""
"html-keyboard-response","47","103540","0.0-8.0-0.39","5f0471a92ec97b6d1aec7739","650c16f0f2faf8d7a0d14c09","651c1c97f2f046c6abe73a47","null","null","<p style=""font-size: 60px; font-family: BACS"">ALOrlYaOk</p>","","","","","","","","",""
"html-keyboard-response","48","104543","0.0-8.0-0.40","5f0471a92ec97b6d1aec7739","650c16f0f2faf8d7a0d14c09","651c1c97f2f046c6abe73a47","null","null","<p style=""font-size: 60px; font-family: BACS"">dTmEDtcB</p>","","","","","","","","",""
"html-keyboard-response","49","105544","0.0-8.0-0.41","5f0471a92ec97b6d1aec7739","650c16f0f2faf8d7a0d14c09","651c1c97f2f046c6abe73a47","null","null","<p style=""font-size: 60px; font-family: BACS"">rckOGrbk</p>","","","","","","","","",""
"html-keyboard-response","50","106547","0.0-8.0-0.42","5f0471a92ec97b6d1aec7739","650c16f0f2faf8d7a0d14c09","651c1c97f2f046c6abe73a47","null","null","<p style=""font-size: 60px; font-family: BACS"">ubALmrba</p>","","","","","","","","",""
"html-keyboard-response","51","107551","0.0-8.0-0.43","5f0471a92ec97b6d1aec7739","650c16f0f2faf8d7a0d14c09","651c1c97f2f046c6abe73a47","null","null","<p style=""font-size: 60px; font-family: BACS"">BKDRYbTE</p>","","","","","","","","",""
"html-keyboard-response","52","108552","0.0-8.0-0.44","5f0471a92ec97b6d1aec7739","650c16f0f2faf8d7a0d14c09","651c1c97f2f046c6abe73a47","null","null","<p style=""font-size: 60px; font-family: BACS"">dTmEDcthB</p>","","","","","","","","",""
"html-keyboard-response","53","109553","0.0-8.0-0.45","5f0471a92ec97b6d1aec7739","650c16f0f2faf8d7a0d14c09","651c1c97f2f046c6abe73a47","null","null","<p style=""font-size: 60px; font-family: BACS"">JmvmOrZYd</p>","","","","","","","","",""
"html-keyboard-response","54","110554","0.0-8.0-0.46","5f0471a92ec97b6d1aec7739","650c16f0f2faf8d7a0d14c09","651c1c97f2f046c6abe73a47","null","null","<p style=""font-size: 60px; font-family: BACS"">ubALmYaOk</p>","","","","","","","","",""
"html-keyboard-response","55","111563","0.0-8.0-0.47","5f0471a92ec97b6d1aec7739","650c16f0f2faf8d7a0d14c09","651c1c97f2f046c6abe73a47","null","null","<p style=""font-size: 60px; font-family: BACS"">PCPDhRYlD</p>","","","","","","","","",""
"html-keyboard-response","56","112567","0.0-8.0-0.48","5f0471a92ec97b6d1aec7739","650c16f0f2faf8d7a0d14c09","651c1c97f2f046c6abe73a47","null","null","<p style=""font-size: 60px; font-family: BACS"">OmtlDtcB</p>","","","","","","","","",""
"html-keyboard-response","57","113569","0.0-8.0-0.49","5f0471a92ec97b6d1aec7739","650c16f0f2faf8d7a0d14c09","651c1c97f2f046c6abe73a47","null","null","<p style=""font-size: 60px; font-family: BACS"">BKDRYRYlD</p>","","","","","","","","",""
"html-keyboard-response","58","114572","0.0-8.0-0.50","5f0471a92ec97b6d1aec7739","650c16f0f2faf8d7a0d14c09","651c1c97f2f046c6abe73a47","null","null","<p style=""font-size: 60px; font-family: BACS"">McMDcthB</p>","","","","","","","","",""
"html-keyboard-response","59","115576","0.0-8.0-0.51","5f0471a92ec97b6d1aec7739","650c16f0f2faf8d7a0d14c09","651c1c97f2f046c6abe73a47","null","null","<p style=""font-size: 60px; font-family: BACS"">NaJbrZYd</p>","","","","","","","","",""
"html-keyboard-response","60","116578","0.0-8.0-0.52","5f0471a92ec97b6d1aec7739","650c16f0f2faf8d7a0d14c09","651c1c97f2f046c6abe73a47","null","null","<p style=""font-size: 60px; font-family: BACS"">ZdNmUrba</p>","","","","","","","","",""
"html-keyboard-response","61","117582","0.0-8.0-0.53","5f0471a92ec97b6d1aec7739","650c16f0f2faf8d7a0d14c09","651c1c97f2f046c6abe73a47","null","null","<p style=""font-size: 60px; font-family: BACS"">ubALmGrbk</p>","","","","","","","","",""
"html-keyboard-response","62","118597","0.0-8.0-0.54","5f0471a92ec97b6d1aec7739","650c16f0f2faf8d7a0d14c09","651c1c97f2f046c6abe73a47","null","null","<p style=""font-size: 60px; font-family: BACS"">OmtlDRYlD</p>","","","","","","","","",""
"html-keyboard-response","63","119613","0.0-8.0-0.55","5f0471a92ec97b6d1aec7739","650c16f0f2faf8d7a0d14c09","651c1c97f2f046c6abe73a47","null","null","<p style=""font-size: 60px; font-family: BACS"">OCmkcthB</p>","","","","","","","","",""
"html-keyboard-response","64","120628","0.0-8.0-0.56","5f0471a92ec97b6d1aec7739","650c16f0f2faf8d7a0d14c09","651c1c97f2f046c6abe73a47","null","null","<p style=""font-size: 60px; font-family: BACS"">TKDkRYlD</p>","","","","","","","","",""
"html-keyboard-response","65","121631","0.0-8.0-0.57","5f0471a92ec97b6d1aec7739","650c16f0f2faf8d7a0d14c09","651c1c97f2f046c6abe73a47","null","null","<p style=""font-size: 60px; font-family: BACS"">OmtlDbTE</p>","","","","","","","","",""
"html-keyboard-response","66","122634","0.0-8.0-0.58","5f0471a92ec97b6d1aec7739","650c16f0f2faf8d7a0d14c09","651c1c97f2f046c6abe73a47","null","null","<p style=""font-size: 60px; font-family: BACS"">TAdhMRYlD</p>","","","","","","","","",""
"html-keyboard-response","67","123635","0.0-8.0-0.59","5f0471a92ec97b6d1aec7739","650c16f0f2faf8d7a0d14c09","651c1c97f2f046c6abe73a47","null","null","<p style=""font-size: 60px; font-family: BACS"">kdaAJGrbk</p>","","","","","","","","",""
"html-keyboard-response","68","124649","0.0-8.0-0.60","5f0471a92ec97b6d1aec7739","650c16f0f2faf8d7a0d14c09","651c1c97f2f046c6abe73a47","null","null","<p style=""font-size: 60px; font-family: BACS"">OCmkbTE</p>","","","","","","","","",""
"html-keyboard-response","69","125652","0.0-8.0-0.61","5f0471a92ec97b6d1aec7739","650c16f0f2faf8d7a0d14c09","651c1c97f2f046c6abe73a47","null","null","<p style=""font-size: 60px; font-family: BACS"">ZdNmUGrbk</p>","","","","","","","","",""
"html-keyboard-response","70","126653","0.0-8.0-0.62","5f0471a92ec97b6d1aec7739","650c16f0f2faf8d7a0d14c09","651c1c97f2f046c6abe73a47","null","null","<p style=""font-size: 60px; font-family: BACS"">OCmktcB</p>","","","","","","","","",""
"html-keyboard-response","71","127655","0.0-8.0-0.63","5f0471a92ec97b6d1aec7739","650c16f0f2faf8d7a0d14c09","651c1c97f2f046c6abe73a47","null","null","<p style=""font-size: 60px; font-family: BACS"">LNUrJGrbk</p>","","","","","","","","",""
"html-keyboard-response","72","128670","0.0-8.0-0.64","5f0471a92ec97b6d1aec7739","650c16f0f2faf8d7a0d14c09","651c1c97f2f046c6abe73a47","null","null","<p style=""font-size: 60px; font-family: BACS"">tKDmhbTE</p>","","","","","","","","",""
"html-keyboard-response","73","129676","0.0-8.0-0.65","5f0471a92ec97b6d1aec7739","650c16f0f2faf8d7a0d14c09","651c1c97f2f046c6abe73a47","null","null","<p style=""font-size: 60px; font-family: BACS"">ALOrlrZYd</p>","","","","","","","","",""
"html-keyboard-response","74","130678","0.0-8.0-0.66","5f0471a92ec97b6d1aec7739","650c16f0f2faf8d7a0d14c09","651c1c97f2f046c6abe73a47","null","null","<p style=""font-size: 60px; font-family: BACS"">tKDmhRYlD</p>","","","","","","","","",""
"html-keyboard-response","75","131682","0.0-8.0-0.67","5f0471a92ec97b6d1aec7739","650c16f0f2faf8d7a0d14c09","651c1c97f2f046c6abe73a47","null","null","<p style=""font-size: 60px; font-family: BACS"">KAERMtcB</p>","","","","","","","","",""
"html-keyboard-response","76","132683","0.0-8.0-0.68","5f0471a92ec97b6d1aec7739","650c16f0f2faf8d7a0d14c09","651c1c97f2f046c6abe73a47","null","null","<p style=""font-size: 60px; font-family: BACS"">JmvmOZAUu</p>","","","","","","","","",""
"html-keyboard-response","77","133686","0.0-8.0-0.69","5f0471a92ec97b6d1aec7739","650c16f0f2faf8d7a0d14c09","651c1c97f2f046c6abe73a47","null","null","<p style=""font-size: 60px; font-family: BACS"">BKDRYdCKc</p>","","","","","","","","",""
"html-keyboard-response","78","134688","0.0-8.0-0.70","5f0471a92ec97b6d1aec7739","650c16f0f2faf8d7a0d14c09","651c1c97f2f046c6abe73a47","null","null","<p style=""font-size: 60px; font-family: BACS"">QcQAJZAUu</p>","","","","","","","","",""
"html-keyboard-response","79","135690","0.0-8.0-0.71","5f0471a92ec97b6d1aec7739","650c16f0f2faf8d7a0d14c09","651c1c97f2f046c6abe73a47","null","null","<p style=""font-size: 60px; font-family: BACS"">cAZuYaOk</p>","","","","","","","","",""
"html-keyboard-response","80","136691","0.0-8.0-0.72","5f0471a92ec97b6d1aec7739","650c16f0f2faf8d7a0d14c09","651c1c97f2f046c6abe73a47","null","null","<p style=""font-size: 60px; font-family: BACS"">PCPDhdCKc</p>","","","","","","","","",""
"html-keyboard-response","81","137696","0.0-8.0-0.73","5f0471a92ec97b6d1aec7739","650c16f0f2faf8d7a0d14c09","651c1c97f2f046c6abe73a47","null","null","<p style=""font-size: 60px; font-family: BACS"">tKDmhcthB</p>","","","","","","","","",""
"html-keyboard-response","82","138698","0.0-8.0-0.74","5f0471a92ec97b6d1aec7739","650c16f0f2faf8d7a0d14c09","651c1c97f2f046c6abe73a47","null","null","<p style=""font-size: 60px; font-family: BACS"">rckOYaOk</p>","","","","","","","","",""
"html-keyboard-response","83","139699","0.0-8.0-0.75","5f0471a92ec97b6d1aec7739","650c16f0f2faf8d7a0d14c09","651c1c97f2f046c6abe73a47","null","null","<p style=""font-size: 60px; font-family: BACS"">McMDtcB</p>","","","","","","","","",""
"html-keyboard-response","84","140704","0.0-8.0-0.76","5f0471a92ec97b6d1aec7739","650c16f0f2faf8d7a0d14c09","651c1c97f2f046c6abe73a47","null","null","<p style=""font-size: 60px; font-family: BACS"">dTmEDbTE</p>","","","","","","","","",""
"html-keyboard-response","85","141705","0.0-8.0-0.77","5f0471a92ec97b6d1aec7739","650c16f0f2faf8d7a0d14c09","651c1c97f2f046c6abe73a47","null","null","<p style=""font-size: 60px; font-family: BACS"">ubALmZAUu</p>","","","","","","","","",""
"html-keyboard-response","86","142707","0.0-8.0-0.78","5f0471a92ec97b6d1aec7739","650c16f0f2faf8d7a0d14c09","651c1c97f2f046c6abe73a47","null","null","<p style=""font-size: 60px; font-family: BACS"">kdaAJrZYd</p>","","","","","","","","",""
"html-keyboard-response","87","143710","0.0-8.0-0.79","5f0471a92ec97b6d1aec7739","650c16f0f2faf8d7a0d14c09","651c1c97f2f046c6abe73a47","null","null","<p style=""font-size: 60px; font-family: BACS"">PCPDhcthB</p>","","","","","","","","",""
"html-keyboard-response","88","148402","0.0-9.0","5f0471a92ec97b6d1aec7739","650c16f0f2faf8d7a0d14c09","651c1c97f2f046c6abe73a47","4692"," ","<p>Great, you've seen the first block of words. You may now take a short break.</p>
      <p>Press the spacebar when you're ready to continue.</p>","","","","","","","","",""
"html-keyboard-response","89","149413","0.0-10.0-0.0","5f0471a92ec97b6d1aec7739","650c16f0f2faf8d7a0d14c09","651c1c97f2f046c6abe73a47","null","null","<p style=""font-size: 60px; font-family: BACS"">ubALmYaOk</p>","","","","","","","","",""
"html-keyboard-response","90","150415","0.0-10.0-0.1","5f0471a92ec97b6d1aec7739","650c16f0f2faf8d7a0d14c09","651c1c97f2f046c6abe73a47","null","null","<p style=""font-size: 60px; font-family: BACS"">TKDkRYlD</p>","","","","","","","","",""
"html-keyboard-response","91","151418","0.0-10.0-0.2","5f0471a92ec97b6d1aec7739","650c16f0f2faf8d7a0d14c09","651c1c97f2f046c6abe73a47","null","null","<p style=""font-size: 60px; font-family: BACS"">ALOrlrba</p>","","","","","","","","",""
"html-keyboard-response","92","152420","0.0-10.0-0.3","5f0471a92ec97b6d1aec7739","650c16f0f2faf8d7a0d14c09","651c1c97f2f046c6abe73a47","null","null","<p style=""font-size: 60px; font-family: BACS"">NaJbrZYd</p>","","","","","","","","",""
"html-keyboard-response","93","153422","0.0-10.0-0.4","5f0471a92ec97b6d1aec7739","650c16f0f2faf8d7a0d14c09","651c1c97f2f046c6abe73a47","null","null","<p style=""font-size: 60px; font-family: BACS"">ALOrlGrbk</p>","","","","","","","","",""
"html-keyboard-response","94","154424","0.0-10.0-0.5","5f0471a92ec97b6d1aec7739","650c16f0f2faf8d7a0d14c09","651c1c97f2f046c6abe73a47","null","null","<p style=""font-size: 60px; font-family: BACS"">LNUrJZAUu</p>","","","","","","","","",""
"html-keyboard-response","95","155426","0.0-10.0-0.6","5f0471a92ec97b6d1aec7739","650c16f0f2faf8d7a0d14c09","651c1c97f2f046c6abe73a47","null","null","<p style=""font-size: 60px; font-family: BACS"">TAdhMbTE</p>","","","","","","","","",""
"html-keyboard-response","96","156428","0.0-10.0-0.7","5f0471a92ec97b6d1aec7739","650c16f0f2faf8d7a0d14c09","651c1c97f2f046c6abe73a47","null","null","<p style=""font-size: 60px; font-family: BACS"">TKDkcthB</p>","","","","","","","","",""
"html-keyboard-response","97","157432","0.0-10.0-0.8","5f0471a92ec97b6d1aec7739","650c16f0f2faf8d7a0d14c09","651c1c97f2f046c6abe73a47","null","null","<p style=""font-size: 60px; font-family: BACS"">LNUrJGrbk</p>","","","","","","","","",""
"html-keyboard-response","98","158435","0.0-10.0-0.9","5f0471a92ec97b6d1aec7739","650c16f0f2faf8d7a0d14c09","651c1c97f2f046c6abe73a47","null","null","<p style=""font-size: 60px; font-family: BACS"">OmtlDbTE</p>","","","","","","","","",""
"html-keyboard-response","99","159437","0.0-10.0-0.10","5f0471a92ec97b6d1aec7739","650c16f0f2faf8d7a0d14c09","651c1c97f2f046c6abe73a47","null","null","<p style=""font-size: 60px; font-family: BACS"">TKDkdCKc</p>","","","","","","","","",""
"html-keyboard-response","100","160439","0.0-10.0-0.11","5f0471a92ec97b6d1aec7739","650c16f0f2faf8d7a0d14c09","651c1c97f2f046c6abe73a47","null","null","<p style=""font-size: 60px; font-family: BACS"">kdaAJYaOk</p>","","","","","","","","",""
"html-keyboard-response","101","161442","0.0-10.0-0.12","5f0471a92ec97b6d1aec7739","650c16f0f2faf8d7a0d14c09","651c1c97f2f046c6abe73a47","null","null","<p style=""font-size: 60px; font-family: BACS"">KAERMtcB</p>","","","","","","","","",""
"html-keyboard-response","102","162444","0.0-10.0-0.13","5f0471a92ec97b6d1aec7739","650c16f0f2faf8d7a0d14c09","651c1c97f2f046c6abe73a47","null","null","<p style=""font-size: 60px; font-family: BACS"">OCmkcthB</p>","","","","","","","","",""
"html-keyboard-response","103","163446","0.0-10.0-0.14","5f0471a92ec97b6d1aec7739","650c16f0f2faf8d7a0d14c09","651c1c97f2f046c6abe73a47","null","null","<p style=""font-size: 60px; font-family: BACS"">TAdhMdCKc</p>","","","","","","","","",""
"html-keyboard-response","104","164463","0.0-10.0-0.15","5f0471a92ec97b6d1aec7739","650c16f0f2faf8d7a0d14c09","651c1c97f2f046c6abe73a47","null","null","<p style=""font-size: 60px; font-family: BACS"">ZdNmUGrbk</p>","","","","","","","","",""
"html-keyboard-response","105","165478","0.0-10.0-0.16","5f0471a92ec97b6d1aec7739","650c16f0f2faf8d7a0d14c09","651c1c97f2f046c6abe73a47","null","null","<p style=""font-size: 60px; font-family: BACS"">cAZurZYd</p>","","","","","","","","",""
"html-keyboard-response","106","166494","0.0-10.0-0.17","5f0471a92ec97b6d1aec7739","650c16f0f2faf8d7a0d14c09","651c1c97f2f046c6abe73a47","null","null","<p style=""font-size: 60px; font-family: BACS"">OmtlDcthB</p>","","","","","","","","",""
"html-keyboard-response","107","167496","0.0-10.0-0.18","5f0471a92ec97b6d1aec7739","650c16f0f2faf8d7a0d14c09","651c1c97f2f046c6abe73a47","null","null","<p style=""font-size: 60px; font-family: BACS"">dTmEDbTE</p>","","","","","","","","",""
"html-keyboard-response","108","168499","0.0-10.0-0.19","5f0471a92ec97b6d1aec7739","650c16f0f2faf8d7a0d14c09","651c1c97f2f046c6abe73a47","null","null","<p style=""font-size: 60px; font-family: BACS"">ZdNmUrZYd</p>","","","","","","","","",""
"html-keyboard-response","109","169503","0.0-10.0-0.20","5f0471a92ec97b6d1aec7739","650c16f0f2faf8d7a0d14c09","651c1c97f2f046c6abe73a47","null","null","<p style=""font-size: 60px; font-family: BACS"">cAZuYaOk</p>","","","","","","","","",""
"html-keyboard-response","110","170504","0.0-10.0-0.21","5f0471a92ec97b6d1aec7739","650c16f0f2faf8d7a0d14c09","651c1c97f2f046c6abe73a47","null","null","<p style=""font-size: 60px; font-family: BACS"">McMDbTE</p>","","","","","","","","",""
"html-keyboard-response","111","171520","0.0-10.0-0.22","5f0471a92ec97b6d1aec7739","650c16f0f2faf8d7a0d14c09","651c1c97f2f046c6abe73a47","null","null","<p style=""font-size: 60px; font-family: BACS"">ALOrlYaOk</p>","","","","","","","","",""
"html-keyboard-response","112","172521","0.0-10.0-0.23","5f0471a92ec97b6d1aec7739","650c16f0f2faf8d7a0d14c09","651c1c97f2f046c6abe73a47","null","null","<p style=""font-size: 60px; font-family: BACS"">dTmEDtcB</p>","","","","","","","","",""
"html-keyboard-response","113","173533","0.0-10.0-0.24","5f0471a92ec97b6d1aec7739","650c16f0f2faf8d7a0d14c09","651c1c97f2f046c6abe73a47","null","null","<p style=""font-size: 60px; font-family: BACS"">QcQAJrba</p>","","","","","","","","",""
"html-keyboard-response","114","174547","0.0-10.0-0.25","5f0471a92ec97b6d1aec7739","650c16f0f2faf8d7a0d14c09","651c1c97f2f046c6abe73a47","null","null","<p style=""font-size: 60px; font-family: BACS"">ubALmGrbk</p>","","","","","","","","",""
"html-keyboard-response","115","175560","0.0-10.0-0.26","5f0471a92ec97b6d1aec7739","650c16f0f2faf8d7a0d14c09","651c1c97f2f046c6abe73a47","null","null","<p style=""font-size: 60px; font-family: BACS"">kdaAJrZYd</p>","","","","","","","","",""
"html-keyboard-response","116","176574","0.0-10.0-0.27","5f0471a92ec97b6d1aec7739","650c16f0f2faf8d7a0d14c09","651c1c97f2f046c6abe73a47","null","null","<p style=""font-size: 60px; font-family: BACS"">LNUrJYaOk</p>","","","","","","","","",""
"html-keyboard-response","117","177588","0.0-10.0-0.28","5f0471a92ec97b6d1aec7739","650c16f0f2faf8d7a0d14c09","651c1c97f2f046c6abe73a47","null","null","<p style=""font-size: 60px; font-family: BACS"">cAZuGrbk</p>","","","","","","","","",""
"html-keyboard-response","118","178604","0.0-10.0-0.29","5f0471a92ec97b6d1aec7739","650c16f0f2faf8d7a0d14c09","651c1c97f2f046c6abe73a47","null","null","<p style=""font-size: 60px; font-family: BACS"">rckOrZYd</p>","","","","","","","","",""
"html-keyboard-response","119","179618","0.0-10.0-0.30","5f0471a92ec97b6d1aec7739","650c16f0f2faf8d7a0d14c09","651c1c97f2f046c6abe73a47","null","null","<p style=""font-size: 60px; font-family: BACS"">tKDmhRYlD</p>","","","","","","","","",""
"html-keyboard-response","120","180631","0.0-10.0-0.31","5f0471a92ec97b6d1aec7739","650c16f0f2faf8d7a0d14c09","651c1c97f2f046c6abe73a47","null","null","<p style=""font-size: 60px; font-family: BACS"">rckOrba</p>","","","","","","","","",""
"html-keyboard-response","121","181647","0.0-10.0-0.32","5f0471a92ec97b6d1aec7739","650c16f0f2faf8d7a0d14c09","651c1c97f2f046c6abe73a47","null","null","<p style=""font-size: 60px; font-family: BACS"">ZdNmUZAUu</p>","","","","","","","","",""
"html-keyboard-response","122","182661","0.0-10.0-0.33","5f0471a92ec97b6d1aec7739","650c16f0f2faf8d7a0d14c09","651c1c97f2f046c6abe73a47","null","null","<p style=""font-size: 60px; font-family: BACS"">tKDmhcthB</p>","","","","","","","","",""
"html-keyboard-response","123","183674","0.0-10.0-0.34","5f0471a92ec97b6d1aec7739","650c16f0f2faf8d7a0d14c09","651c1c97f2f046c6abe73a47","null","null","<p style=""font-size: 60px; font-family: BACS"">TAdhMtcB</p>","","","","","","","","",""
"html-keyboard-response","124","184687","0.0-10.0-0.35","5f0471a92ec97b6d1aec7739","650c16f0f2faf8d7a0d14c09","651c1c97f2f046c6abe73a47","null","null","<p style=""font-size: 60px; font-family: BACS"">NaJbZAUu</p>","","","","","","","","",""
"html-keyboard-response","125","185702","0.0-10.0-0.36","5f0471a92ec97b6d1aec7739","650c16f0f2faf8d7a0d14c09","651c1c97f2f046c6abe73a47","null","null","<p style=""font-size: 60px; font-family: BACS"">BKDRYtcB</p>","","","","","","","","",""
"html-keyboard-response","126","186715","0.0-10.0-0.37","5f0471a92ec97b6d1aec7739","650c16f0f2faf8d7a0d14c09","651c1c97f2f046c6abe73a47","null","null","<p style=""font-size: 60px; font-family: BACS"">rckOYaOk</p>","","","","","","","","",""
"html-keyboard-response","127","187731","0.0-10.0-0.38","5f0471a92ec97b6d1aec7739","650c16f0f2faf8d7a0d14c09","651c1c97f2f046c6abe73a47","null","null","<p style=""font-size: 60px; font-family: BACS"">QcQAJrZYd</p>","","","","","","","","",""
"html-keyboard-response","128","188732","0.0-10.0-0.39","5f0471a92ec97b6d1aec7739","650c16f0f2faf8d7a0d14c09","651c1c97f2f046c6abe73a47","null","null","<p style=""font-size: 60px; font-family: BACS"">tKDmhbTE</p>","","","","","","","","",""
"html-keyboard-response","129","189747","0.0-10.0-0.40","5f0471a92ec97b6d1aec7739","650c16f0f2faf8d7a0d14c09","651c1c97f2f046c6abe73a47","null","null","<p style=""font-size: 60px; font-family: BACS"">QcQAJZAUu</p>","","","","","","","","",""
"html-keyboard-response","130","190762","0.0-10.0-0.41","5f0471a92ec97b6d1aec7739","650c16f0f2faf8d7a0d14c09","651c1c97f2f046c6abe73a47","null","null","<p style=""font-size: 60px; font-family: BACS"">JmvmOrZYd</p>","","","","","","","","",""
"html-keyboard-response","131","191775","0.0-10.0-0.42","5f0471a92ec97b6d1aec7739","650c16f0f2faf8d7a0d14c09","651c1c97f2f046c6abe73a47","null","null","<p style=""font-size: 60px; font-family: BACS"">KAERMRYlD</p>","","","","","","","","",""
"html-keyboard-response","132","192787","0.0-10.0-0.43","5f0471a92ec97b6d1aec7739","650c16f0f2faf8d7a0d14c09","651c1c97f2f046c6abe73a47","null","null","<p style=""font-size: 60px; font-family: BACS"">OCmkbTE</p>","","","","","","","","",""
"html-keyboard-response","133","193800","0.0-10.0-0.44","5f0471a92ec97b6d1aec7739","650c16f0f2faf8d7a0d14c09","651c1c97f2f046c6abe73a47","null","null","<p style=""font-size: 60px; font-family: BACS"">kdaAJGrbk</p>","","","","","","","","",""
"html-keyboard-response","134","194815","0.0-10.0-0.45","5f0471a92ec97b6d1aec7739","650c16f0f2faf8d7a0d14c09","651c1c97f2f046c6abe73a47","null","null","<p style=""font-size: 60px; font-family: BACS"">McMDcthB</p>","","","","","","","","",""
"html-keyboard-response","135","195829","0.0-10.0-0.46","5f0471a92ec97b6d1aec7739","650c16f0f2faf8d7a0d14c09","651c1c97f2f046c6abe73a47","null","null","<p style=""font-size: 60px; font-family: BACS"">tKDmhdCKc</p>","","","","","","","","",""
"html-keyboard-response","136","196842","0.0-10.0-0.47","5f0471a92ec97b6d1aec7739","650c16f0f2faf8d7a0d14c09","651c1c97f2f046c6abe73a47","null","null","<p style=""font-size: 60px; font-family: BACS"">ubALmrba</p>","","","","","","","","",""
"html-keyboard-response","137","197856","0.0-10.0-0.48","5f0471a92ec97b6d1aec7739","650c16f0f2faf8d7a0d14c09","651c1c97f2f046c6abe73a47","null","null","<p style=""font-size: 60px; font-family: BACS"">BKDRYdCKc</p>","","","","","","","","",""
"html-keyboard-response","138","198870","0.0-10.0-0.49","5f0471a92ec97b6d1aec7739","650c16f0f2faf8d7a0d14c09","651c1c97f2f046c6abe73a47","null","null","<p style=""font-size: 60px; font-family: BACS"">kdaAJZAUu</p>","","","","","","","","",""
"html-keyboard-response","139","199882","0.0-10.0-0.50","5f0471a92ec97b6d1aec7739","650c16f0f2faf8d7a0d14c09","651c1c97f2f046c6abe73a47","null","null","<p style=""font-size: 60px; font-family: BACS"">KAERMcthB</p>","","","","","","","","",""
"html-keyboard-response","140","200896","0.0-10.0-0.51","5f0471a92ec97b6d1aec7739","650c16f0f2faf8d7a0d14c09","651c1c97f2f046c6abe73a47","null","null","<p style=""font-size: 60px; font-family: BACS"">QcQAJYaOk</p>","","","","","","","","",""
"html-keyboard-response","141","201909","0.0-10.0-0.52","5f0471a92ec97b6d1aec7739","650c16f0f2faf8d7a0d14c09","651c1c97f2f046c6abe73a47","null","null","<p style=""font-size: 60px; font-family: BACS"">PCPDhcthB</p>","","","","","","","","",""
"html-keyboard-response","142","202923","0.0-10.0-0.53","5f0471a92ec97b6d1aec7739","650c16f0f2faf8d7a0d14c09","651c1c97f2f046c6abe73a47","null","null","<p style=""font-size: 60px; font-family: BACS"">rckOGrbk</p>","","","","","","","","",""
"html-keyboard-response","143","203924","0.0-10.0-0.54","5f0471a92ec97b6d1aec7739","650c16f0f2faf8d7a0d14c09","651c1c97f2f046c6abe73a47","null","null","<p style=""font-size: 60px; font-family: BACS"">BKDRYbTE</p>","","","","","","","","",""
"html-keyboard-response","144","204938","0.0-10.0-0.55","5f0471a92ec97b6d1aec7739","650c16f0f2faf8d7a0d14c09","651c1c97f2f046c6abe73a47","null","null","<p style=""font-size: 60px; font-family: BACS"">PCPDhdCKc</p>","","","","","","","","",""
"html-keyboard-response","145","205950","0.0-10.0-0.56","5f0471a92ec97b6d1aec7739","650c16f0f2faf8d7a0d14c09","651c1c97f2f046c6abe73a47","null","null","<p style=""font-size: 60px; font-family: BACS"">NaJbrba</p>","","","","","","","","",""
"html-keyboard-response","146","206965","0.0-10.0-0.57","5f0471a92ec97b6d1aec7739","650c16f0f2faf8d7a0d14c09","651c1c97f2f046c6abe73a47","null","null","<p style=""font-size: 60px; font-family: BACS"">JmvmOGrbk</p>","","","","","","","","",""
"html-keyboard-response","147","207979","0.0-10.0-0.58","5f0471a92ec97b6d1aec7739","650c16f0f2faf8d7a0d14c09","651c1c97f2f046c6abe73a47","null","null","<p style=""font-size: 60px; font-family: BACS"">OmtlDRYlD</p>","","","","","","","","",""
"html-keyboard-response","148","208993","0.0-10.0-0.59","5f0471a92ec97b6d1aec7739","650c16f0f2faf8d7a0d14c09","651c1c97f2f046c6abe73a47","null","null","<p style=""font-size: 60px; font-family: BACS"">JmvmOZAUu</p>","","","","","","","","",""
"html-keyboard-response","149","210007","0.0-10.0-0.60","5f0471a92ec97b6d1aec7739","650c16f0f2faf8d7a0d14c09","651c1c97f2f046c6abe73a47","null","null","<p style=""font-size: 60px; font-family: BACS"">BKDRYRYlD</p>","","","","","","","","",""
"html-keyboard-response","150","211022","0.0-10.0-0.61","5f0471a92ec97b6d1aec7739","650c16f0f2faf8d7a0d14c09","651c1c97f2f046c6abe73a47","null","null","<p style=""font-size: 60px; font-family: BACS"">ZdNmUrba</p>","","","","","","","","",""
"html-keyboard-response","151","212039","0.0-10.0-0.62","5f0471a92ec97b6d1aec7739","650c16f0f2faf8d7a0d14c09","651c1c97f2f046c6abe73a47","null","null","<p style=""font-size: 60px; font-family: BACS"">cAZuZAUu</p>","","","","","","","","",""
"html-keyboard-response","152","213053","0.0-10.0-0.63","5f0471a92ec97b6d1aec7739","650c16f0f2faf8d7a0d14c09","651c1c97f2f046c6abe73a47","null","null","<p style=""font-size: 60px; font-family: BACS"">PCPDhRYlD</p>","","","","","","","","",""
"html-keyboard-response","153","214064","0.0-10.0-0.64","5f0471a92ec97b6d1aec7739","650c16f0f2faf8d7a0d14c09","651c1c97f2f046c6abe73a47","null","null","<p style=""font-size: 60px; font-family: BACS"">OCmkdCKc</p>","","","","","","","","",""
"html-keyboard-response","154","215078","0.0-10.0-0.65","5f0471a92ec97b6d1aec7739","650c16f0f2faf8d7a0d14c09","651c1c97f2f046c6abe73a47","null","null","<p style=""font-size: 60px; font-family: BACS"">McMDtcB</p>","","","","","","","","",""
"html-keyboard-response","155","216092","0.0-10.0-0.66","5f0471a92ec97b6d1aec7739","650c16f0f2faf8d7a0d14c09","651c1c97f2f046c6abe73a47","null","null","<p style=""font-size: 60px; font-family: BACS"">LNUrJrba</p>","","","","","","","","",""
"html-keyboard-response","156","217108","0.0-10.0-0.67","5f0471a92ec97b6d1aec7739","650c16f0f2faf8d7a0d14c09","651c1c97f2f046c6abe73a47","null","null","<p style=""font-size: 60px; font-family: BACS"">ubALmZAUu</p>","","","","","","","","",""
"html-keyboard-response","157","218110","0.0-10.0-0.68","5f0471a92ec97b6d1aec7739","650c16f0f2faf8d7a0d14c09","651c1c97f2f046c6abe73a47","null","null","<p style=""font-size: 60px; font-family: BACS"">TKDktcB</p>","","","","","","","","",""
"html-keyboard-response","158","219125","0.0-10.0-0.69","5f0471a92ec97b6d1aec7739","650c16f0f2faf8d7a0d14c09","651c1c97f2f046c6abe73a47","null","null","<p style=""font-size: 60px; font-family: BACS"">TAdhMRYlD</p>","","","","","","","","",""
"html-keyboard-response","159","220140","0.0-10.0-0.70","5f0471a92ec97b6d1aec7739","650c16f0f2faf8d7a0d14c09","651c1c97f2f046c6abe73a47","null","null","<p style=""font-size: 60px; font-family: BACS"">JmvmOrba</p>","","","","","","","","",""
"html-keyboard-response","160","221153","0.0-10.0-0.71","5f0471a92ec97b6d1aec7739","650c16f0f2faf8d7a0d14c09","651c1c97f2f046c6abe73a47","null","null","<p style=""font-size: 60px; font-family: BACS"">dTmEDRYlD</p>","","","","","","","","",""
"html-keyboard-response","161","222168","0.0-10.0-0.72","5f0471a92ec97b6d1aec7739","650c16f0f2faf8d7a0d14c09","651c1c97f2f046c6abe73a47","null","null","<p style=""font-size: 60px; font-family: BACS"">PCPDhbTE</p>","","","","","","","","",""
"html-keyboard-response","162","223181","0.0-10.0-0.73","5f0471a92ec97b6d1aec7739","650c16f0f2faf8d7a0d14c09","651c1c97f2f046c6abe73a47","null","null","<p style=""font-size: 60px; font-family: BACS"">ALOrlrZYd</p>","","","","","","","","",""
"html-keyboard-response","163","224194","0.0-10.0-0.74","5f0471a92ec97b6d1aec7739","650c16f0f2faf8d7a0d14c09","651c1c97f2f046c6abe73a47","null","null","<p style=""font-size: 60px; font-family: BACS"">KAERMdCKc</p>","","","","","","","","",""
"html-keyboard-response","164","225209","0.0-10.0-0.75","5f0471a92ec97b6d1aec7739","650c16f0f2faf8d7a0d14c09","651c1c97f2f046c6abe73a47","null","null","<p style=""font-size: 60px; font-family: BACS"">NaJbYaOk</p>","","","","","","","","",""
"html-keyboard-response","165","226222","0.0-10.0-0.76","5f0471a92ec97b6d1aec7739","650c16f0f2faf8d7a0d14c09","651c1c97f2f046c6abe73a47","null","null","<p style=""font-size: 60px; font-family: BACS"">OCmktcB</p>","","","","","","","","",""
"html-keyboard-response","166","227236","0.0-10.0-0.77","5f0471a92ec97b6d1aec7739","650c16f0f2faf8d7a0d14c09","651c1c97f2f046c6abe73a47","null","null","<p style=""font-size: 60px; font-family: BACS"">McMDdCKc</p>","","","","","","","","",""
"html-keyboard-response","167","228250","0.0-10.0-0.78","5f0471a92ec97b6d1aec7739","650c16f0f2faf8d7a0d14c09","651c1c97f2f046c6abe73a47","null","null","<p style=""font-size: 60px; font-family: BACS"">dTmEDcthB</p>","","","","","","","","",""
"html-keyboard-response","168","229266","0.0-10.0-0.79","5f0471a92ec97b6d1aec7739","650c16f0f2faf8d7a0d14c09","651c1c97f2f046c6abe73a47","null","null","<p style=""font-size: 60px; font-family: BACS"">OmtlDtcB</p>","","","","","","","","",""
"html-keyboard-response","169","231646","0.0-11.0","5f0471a92ec97b6d1aec7739","650c16f0f2faf8d7a0d14c09","651c1c97f2f046c6abe73a47","2380"," ","<p>Great, you've seen the second block of words. You may now take a short break.</p>
      <p>Press the spacebar when you're ready to continue.</p>","","","","","","","","",""
"html-keyboard-response","170","232661","0.0-12.0-0.0","5f0471a92ec97b6d1aec7739","650c16f0f2faf8d7a0d14c09","651c1c97f2f046c6abe73a47","null","null","<p style=""font-size: 60px; font-family: BACS"">KAERMdCKc</p>","","","","","","","","",""
"html-keyboard-response","171","233676","0.0-12.0-0.1","5f0471a92ec97b6d1aec7739","650c16f0f2faf8d7a0d14c09","651c1c97f2f046c6abe73a47","null","null","<p style=""font-size: 60px; font-family: BACS"">PCPDhcthB</p>","","","","","","","","",""
"html-keyboard-response","172","234689","0.0-12.0-0.2","5f0471a92ec97b6d1aec7739","650c16f0f2faf8d7a0d14c09","651c1c97f2f046c6abe73a47","null","null","<p style=""font-size: 60px; font-family: BACS"">LNUrJZAUu</p>","","","","","","","","",""
"html-keyboard-response","173","235702","0.0-12.0-0.3","5f0471a92ec97b6d1aec7739","650c16f0f2faf8d7a0d14c09","651c1c97f2f046c6abe73a47","null","null","<p style=""font-size: 60px; font-family: BACS"">rckOYaOk</p>","","","","","","","","",""
"html-keyboard-response","174","236712","0.0-12.0-0.4","5f0471a92ec97b6d1aec7739","650c16f0f2faf8d7a0d14c09","651c1c97f2f046c6abe73a47","null","null","<p style=""font-size: 60px; font-family: BACS"">OmtlDbTE</p>","","","","","","","","",""
"html-keyboard-response","175","237725","0.0-12.0-0.5","5f0471a92ec97b6d1aec7739","650c16f0f2faf8d7a0d14c09","651c1c97f2f046c6abe73a47","null","null","<p style=""font-size: 60px; font-family: BACS"">McMDtcB</p>","","","","","","","","",""
"html-keyboard-response","176","238736","0.0-12.0-0.6","5f0471a92ec97b6d1aec7739","650c16f0f2faf8d7a0d14c09","651c1c97f2f046c6abe73a47","null","null","<p style=""font-size: 60px; font-family: BACS"">kdaAJYaOk</p>","","","","","","","","",""
"html-keyboard-response","177","239748","0.0-12.0-0.7","5f0471a92ec97b6d1aec7739","650c16f0f2faf8d7a0d14c09","651c1c97f2f046c6abe73a47","null","null","<p style=""font-size: 60px; font-family: BACS"">OmtlDcthB</p>","","","","","","","","",""
"html-keyboard-response","178","240762","0.0-12.0-0.8","5f0471a92ec97b6d1aec7739","650c16f0f2faf8d7a0d14c09","651c1c97f2f046c6abe73a47","null","null","<p style=""font-size: 60px; font-family: BACS"">ALOrlGrbk</p>","","","","","","","","",""
"html-keyboard-response","179","241774","0.0-12.0-0.9","5f0471a92ec97b6d1aec7739","650c16f0f2faf8d7a0d14c09","651c1c97f2f046c6abe73a47","null","null","<p style=""font-size: 60px; font-family: BACS"">McMDcthB</p>","","","","","","","","",""
"html-keyboard-response","180","242787","0.0-12.0-0.10","5f0471a92ec97b6d1aec7739","650c16f0f2faf8d7a0d14c09","651c1c97f2f046c6abe73a47","null","null","<p style=""font-size: 60px; font-family: BACS"">kdaAJZAUu</p>","","","","","","","","",""
"html-keyboard-response","181","243800","0.0-12.0-0.11","5f0471a92ec97b6d1aec7739","650c16f0f2faf8d7a0d14c09","651c1c97f2f046c6abe73a47","null","null","<p style=""font-size: 60px; font-family: BACS"">QcQAJrba</p>","","","","","","","","",""
"html-keyboard-response","182","244812","0.0-12.0-0.12","5f0471a92ec97b6d1aec7739","650c16f0f2faf8d7a0d14c09","651c1c97f2f046c6abe73a47","null","null","<p style=""font-size: 60px; font-family: BACS"">KAERMtcB</p>","","","","","","","","",""
"html-keyboard-response","183","245824","0.0-12.0-0.13","5f0471a92ec97b6d1aec7739","650c16f0f2faf8d7a0d14c09","651c1c97f2f046c6abe73a47","null","null","<p style=""font-size: 60px; font-family: BACS"">McMDdCKc</p>","","","","","","","","",""
"html-keyboard-response","184","246836","0.0-12.0-0.14","5f0471a92ec97b6d1aec7739","650c16f0f2faf8d7a0d14c09","651c1c97f2f046c6abe73a47","null","null","<p style=""font-size: 60px; font-family: BACS"">QcQAJrZYd</p>","","","","","","","","",""
"html-keyboard-response","185","247849","0.0-12.0-0.15","5f0471a92ec97b6d1aec7739","650c16f0f2faf8d7a0d14c09","651c1c97f2f046c6abe73a47","null","null","<p style=""font-size: 60px; font-family: BACS"">OCmkdCKc</p>","","","","","","","","",""
"html-keyboard-response","186","248850","0.0-12.0-0.16","5f0471a92ec97b6d1aec7739","650c16f0f2faf8d7a0d14c09","651c1c97f2f046c6abe73a47","null","null","<p style=""font-size: 60px; font-family: BACS"">NaJbrba</p>","","","","","","","","",""
"html-keyboard-response","187","249851","0.0-12.0-0.17","5f0471a92ec97b6d1aec7739","650c16f0f2faf8d7a0d14c09","651c1c97f2f046c6abe73a47","null","null","<p style=""font-size: 60px; font-family: BACS"">ZdNmUGrbk</p>","","","","","","","","",""
"html-keyboard-response","188","250856","0.0-12.0-0.18","5f0471a92ec97b6d1aec7739","650c16f0f2faf8d7a0d14c09","651c1c97f2f046c6abe73a47","null","null","<p style=""font-size: 60px; font-family: BACS"">cAZurZYd</p>","","","","","","","","",""
"html-keyboard-response","189","251870","0.0-12.0-0.19","5f0471a92ec97b6d1aec7739","650c16f0f2faf8d7a0d14c09","651c1c97f2f046c6abe73a47","null","null","<p style=""font-size: 60px; font-family: BACS"">ZdNmUZAUu</p>","","","","","","","","",""
"html-keyboard-response","190","252884","0.0-12.0-0.20","5f0471a92ec97b6d1aec7739","650c16f0f2faf8d7a0d14c09","651c1c97f2f046c6abe73a47","null","null","<p style=""font-size: 60px; font-family: BACS"">ALOrlrZYd</p>","","","","","","","","",""
"html-keyboard-response","191","253898","0.0-12.0-0.21","5f0471a92ec97b6d1aec7739","650c16f0f2faf8d7a0d14c09","651c1c97f2f046c6abe73a47","null","null","<p style=""font-size: 60px; font-family: BACS"">BKDRYdCKc</p>","","","","","","","","",""
"html-keyboard-response","192","254913","0.0-12.0-0.22","5f0471a92ec97b6d1aec7739","650c16f0f2faf8d7a0d14c09","651c1c97f2f046c6abe73a47","null","null","<p style=""font-size: 60px; font-family: BACS"">ZdNmUrZYd</p>","","","","","","","","",""
"html-keyboard-response","193","255926","0.0-12.0-0.23","5f0471a92ec97b6d1aec7739","650c16f0f2faf8d7a0d14c09","651c1c97f2f046c6abe73a47","null","null","<p style=""font-size: 60px; font-family: BACS"">cAZuYaOk</p>","","","","","","","","",""
"html-keyboard-response","194","256940","0.0-12.0-0.24","5f0471a92ec97b6d1aec7739","650c16f0f2faf8d7a0d14c09","651c1c97f2f046c6abe73a47","null","null","<p style=""font-size: 60px; font-family: BACS"">QcQAJZAUu</p>","","","","","","","","",""
"html-keyboard-response","195","257954","0.0-12.0-0.25","5f0471a92ec97b6d1aec7739","650c16f0f2faf8d7a0d14c09","651c1c97f2f046c6abe73a47","null","null","<p style=""font-size: 60px; font-family: BACS"">dTmEDcthB</p>","","","","","","","","",""
"html-keyboard-response","196","258967","0.0-12.0-0.26","5f0471a92ec97b6d1aec7739","650c16f0f2faf8d7a0d14c09","651c1c97f2f046c6abe73a47","null","null","<p style=""font-size: 60px; font-family: BACS"">QcQAJYaOk</p>","","","","","","","","",""
"html-keyboard-response","197","259981","0.0-12.0-0.27","5f0471a92ec97b6d1aec7739","650c16f0f2faf8d7a0d14c09","651c1c97f2f046c6abe73a47","null","null","<p style=""font-size: 60px; font-family: BACS"">cAZuGrbk</p>","","","","","","","","",""
"html-keyboard-response","198","260994","0.0-12.0-0.28","5f0471a92ec97b6d1aec7739","650c16f0f2faf8d7a0d14c09","651c1c97f2f046c6abe73a47","null","null","<p style=""font-size: 60px; font-family: BACS"">PCPDhbTE</p>","","","","","","","","",""
"html-keyboard-response","199","262008","0.0-12.0-0.29","5f0471a92ec97b6d1aec7739","650c16f0f2faf8d7a0d14c09","651c1c97f2f046c6abe73a47","null","null","<p style=""font-size: 60px; font-family: BACS"">TAdhMRYlD</p>","","","","","","","","",""
"html-keyboard-response","200","263023","0.0-12.0-0.30","5f0471a92ec97b6d1aec7739","650c16f0f2faf8d7a0d14c09","651c1c97f2f046c6abe73a47","null","null","<p style=""font-size: 60px; font-family: BACS"">BKDRYbTE</p>","","","","","","","","",""
"html-keyboard-response","201","264038","0.0-12.0-0.31","5f0471a92ec97b6d1aec7739","650c16f0f2faf8d7a0d14c09","651c1c97f2f046c6abe73a47","null","null","<p style=""font-size: 60px; font-family: BACS"">JmvmOrba</p>","","","","","","","","",""
"html-keyboard-response","202","265052","0.0-12.0-0.32","5f0471a92ec97b6d1aec7739","650c16f0f2faf8d7a0d14c09","651c1c97f2f046c6abe73a47","null","null","<p style=""font-size: 60px; font-family: BACS"">LNUrJGrbk</p>","","","","","","","","",""
"html-keyboard-response","203","266063","0.0-12.0-0.33","5f0471a92ec97b6d1aec7739","650c16f0f2faf8d7a0d14c09","651c1c97f2f046c6abe73a47","null","null","<p style=""font-size: 60px; font-family: BACS"">ubALmZAUu</p>","","","","","","","","",""
"html-keyboard-response","204","267077","0.0-12.0-0.34","5f0471a92ec97b6d1aec7739","650c16f0f2faf8d7a0d14c09","651c1c97f2f046c6abe73a47","null","null","<p style=""font-size: 60px; font-family: BACS"">TAdhMdCKc</p>","","","","","","","","",""
"html-keyboard-response","205","268091","0.0-12.0-0.35","5f0471a92ec97b6d1aec7739","650c16f0f2faf8d7a0d14c09","651c1c97f2f046c6abe73a47","null","null","<p style=""font-size: 60px; font-family: BACS"">dTmEDbTE</p>","","","","","","","","",""
"html-keyboard-response","206","269102","0.0-12.0-0.36","5f0471a92ec97b6d1aec7739","650c16f0f2faf8d7a0d14c09","651c1c97f2f046c6abe73a47","null","null","<p style=""font-size: 60px; font-family: BACS"">NaJbZAUu</p>","","","","","","","","",""
"html-keyboard-response","207","270114","0.0-12.0-0.37","5f0471a92ec97b6d1aec7739","650c16f0f2faf8d7a0d14c09","651c1c97f2f046c6abe73a47","null","null","<p style=""font-size: 60px; font-family: BACS"">ubALmYaOk</p>","","","","","","","","",""
"html-keyboard-response","208","271125","0.0-12.0-0.38","5f0471a92ec97b6d1aec7739","650c16f0f2faf8d7a0d14c09","651c1c97f2f046c6abe73a47","null","null","<p style=""font-size: 60px; font-family: BACS"">TKDktcB</p>","","","","","","","","",""
"html-keyboard-response","209","272139","0.0-12.0-0.39","5f0471a92ec97b6d1aec7739","650c16f0f2faf8d7a0d14c09","651c1c97f2f046c6abe73a47","null","null","<p style=""font-size: 60px; font-family: BACS"">tKDmhbTE</p>","","","","","","","","",""
"html-keyboard-response","210","273153","0.0-12.0-0.40","5f0471a92ec97b6d1aec7739","650c16f0f2faf8d7a0d14c09","651c1c97f2f046c6abe73a47","null","null","<p style=""font-size: 60px; font-family: BACS"">OCmkcthB</p>","","","","","","","","",""
"html-keyboard-response","211","274167","0.0-12.0-0.41","5f0471a92ec97b6d1aec7739","650c16f0f2faf8d7a0d14c09","651c1c97f2f046c6abe73a47","null","null","<p style=""font-size: 60px; font-family: BACS"">NaJbYaOk</p>","","","","","","","","",""
"html-keyboard-response","212","275179","0.0-12.0-0.42","5f0471a92ec97b6d1aec7739","650c16f0f2faf8d7a0d14c09","651c1c97f2f046c6abe73a47","null","null","<p style=""font-size: 60px; font-family: BACS"">tKDmhdCKc</p>","","","","","","","","",""
"html-keyboard-response","213","276192","0.0-12.0-0.43","5f0471a92ec97b6d1aec7739","650c16f0f2faf8d7a0d14c09","651c1c97f2f046c6abe73a47","null","null","<p style=""font-size: 60px; font-family: BACS"">OmtlDRYlD</p>","","","","","","","","",""
"html-keyboard-response","214","277206","0.0-12.0-0.44","5f0471a92ec97b6d1aec7739","650c16f0f2faf8d7a0d14c09","651c1c97f2f046c6abe73a47","null","null","<p style=""font-size: 60px; font-family: BACS"">OCmktcB</p>","","","","","","","","",""
"html-keyboard-response","215","278219","0.0-12.0-0.45","5f0471a92ec97b6d1aec7739","650c16f0f2faf8d7a0d14c09","651c1c97f2f046c6abe73a47","null","null","<p style=""font-size: 60px; font-family: BACS"">TKDkdCKc</p>","","","","","","","","",""
"html-keyboard-response","216","279232","0.0-12.0-0.46","5f0471a92ec97b6d1aec7739","650c16f0f2faf8d7a0d14c09","651c1c97f2f046c6abe73a47","null","null","<p style=""font-size: 60px; font-family: BACS"">PCPDhRYlD</p>","","","","","","","","",""
"html-keyboard-response","217","280244","0.0-12.0-0.47","5f0471a92ec97b6d1aec7739","650c16f0f2faf8d7a0d14c09","651c1c97f2f046c6abe73a47","null","null","<p style=""font-size: 60px; font-family: BACS"">tKDmhcthB</p>","","","","","","","","",""
"html-keyboard-response","218","281257","0.0-12.0-0.48","5f0471a92ec97b6d1aec7739","650c16f0f2faf8d7a0d14c09","651c1c97f2f046c6abe73a47","null","null","<p style=""font-size: 60px; font-family: BACS"">dTmEDRYlD</p>","","","","","","","","",""
"html-keyboard-response","219","282270","0.0-12.0-0.49","5f0471a92ec97b6d1aec7739","650c16f0f2faf8d7a0d14c09","651c1c97f2f046c6abe73a47","null","null","<p style=""font-size: 60px; font-family: BACS"">TAdhMbTE</p>","","","","","","","","",""
"html-keyboard-response","220","283285","0.0-12.0-0.50","5f0471a92ec97b6d1aec7739","650c16f0f2faf8d7a0d14c09","651c1c97f2f046c6abe73a47","null","null","<p style=""font-size: 60px; font-family: BACS"">BKDRYtcB</p>","","","","","","","","",""
"html-keyboard-response","221","284300","0.0-12.0-0.51","5f0471a92ec97b6d1aec7739","650c16f0f2faf8d7a0d14c09","651c1c97f2f046c6abe73a47","null","null","<p style=""font-size: 60px; font-family: BACS"">TKDkRYlD</p>","","","","","","","","",""
"html-keyboard-response","222","285313","0.0-12.0-0.52","5f0471a92ec97b6d1aec7739","650c16f0f2faf8d7a0d14c09","651c1c97f2f046c6abe73a47","null","null","<p style=""font-size: 60px; font-family: BACS"">JmvmOrZYd</p>","","","","","","","","",""
"html-keyboard-response","223","286327","0.0-12.0-0.53","5f0471a92ec97b6d1aec7739","650c16f0f2faf8d7a0d14c09","651c1c97f2f046c6abe73a47","null","null","<p style=""font-size: 60px; font-family: BACS"">TAdhMtcB</p>","","","","","","","","",""
"html-keyboard-response","224","287328","0.0-12.0-0.54","5f0471a92ec97b6d1aec7739","650c16f0f2faf8d7a0d14c09","651c1c97f2f046c6abe73a47","null","null","<p style=""font-size: 60px; font-family: BACS"">JmvmOGrbk</p>","","","","","","","","",""
"html-keyboard-response","225","288330","0.0-12.0-0.55","5f0471a92ec97b6d1aec7739","650c16f0f2faf8d7a0d14c09","651c1c97f2f046c6abe73a47","null","null","<p style=""font-size: 60px; font-family: BACS"">KAERMcthB</p>","","","","","","","","",""
"html-keyboard-response","226","289333","0.0-12.0-0.56","5f0471a92ec97b6d1aec7739","650c16f0f2faf8d7a0d14c09","651c1c97f2f046c6abe73a47","null","null","<p style=""font-size: 60px; font-family: BACS"">LNUrJYaOk</p>","","","","","","","","",""
"html-keyboard-response","227","290334","0.0-12.0-0.57","5f0471a92ec97b6d1aec7739","650c16f0f2faf8d7a0d14c09","651c1c97f2f046c6abe73a47","null","null","<p style=""font-size: 60px; font-family: BACS"">kdaAJGrbk</p>","","","","","","","","",""
"html-keyboard-response","228","291335","0.0-12.0-0.58","5f0471a92ec97b6d1aec7739","650c16f0f2faf8d7a0d14c09","651c1c97f2f046c6abe73a47","null","null","<p style=""font-size: 60px; font-family: BACS"">ALOrlrba</p>","","","","","","","","",""
"html-keyboard-response","229","292337","0.0-12.0-0.59","5f0471a92ec97b6d1aec7739","650c16f0f2faf8d7a0d14c09","651c1c97f2f046c6abe73a47","null","null","<p style=""font-size: 60px; font-family: BACS"">TKDkcthB</p>","","","","","","","","",""
"html-keyboard-response","230","293341","0.0-12.0-0.60","5f0471a92ec97b6d1aec7739","650c16f0f2faf8d7a0d14c09","651c1c97f2f046c6abe73a47","null","null","<p style=""font-size: 60px; font-family: BACS"">ubALmrba</p>","","","","","","","","",""
"html-keyboard-response","231","294343","0.0-12.0-0.61","5f0471a92ec97b6d1aec7739","650c16f0f2faf8d7a0d14c09","651c1c97f2f046c6abe73a47","null","null","<p style=""font-size: 60px; font-family: BACS"">dTmEDtcB</p>","","","","","","","","",""
"html-keyboard-response","232","295344","0.0-12.0-0.62","5f0471a92ec97b6d1aec7739","650c16f0f2faf8d7a0d14c09","651c1c97f2f046c6abe73a47","null","null","<p style=""font-size: 60px; font-family: BACS"">BKDRYRYlD</p>","","","","","","","","",""
"html-keyboard-response","233","296359","0.0-12.0-0.63","5f0471a92ec97b6d1aec7739","650c16f0f2faf8d7a0d14c09","651c1c97f2f046c6abe73a47","null","null","<p style=""font-size: 60px; font-family: BACS"">rckOGrbk</p>","","","","","","","","",""
"html-keyboard-response","234","297374","0.0-12.0-0.64","5f0471a92ec97b6d1aec7739","650c16f0f2faf8d7a0d14c09","651c1c97f2f046c6abe73a47","null","null","<p style=""font-size: 60px; font-family: BACS"">OCmkbTE</p>","","","","","","","","",""
"html-keyboard-response","235","298376","0.0-12.0-0.65","5f0471a92ec97b6d1aec7739","650c16f0f2faf8d7a0d14c09","651c1c97f2f046c6abe73a47","null","null","<p style=""font-size: 60px; font-family: BACS"">ZdNmUrba</p>","","","","","","","","",""
"html-keyboard-response","236","299377","0.0-12.0-0.66","5f0471a92ec97b6d1aec7739","650c16f0f2faf8d7a0d14c09","651c1c97f2f046c6abe73a47","null","null","<p style=""font-size: 60px; font-family: BACS"">kdaAJrZYd</p>","","","","","","","","",""
"html-keyboard-response","237","300381","0.0-12.0-0.67","5f0471a92ec97b6d1aec7739","650c16f0f2faf8d7a0d14c09","651c1c97f2f046c6abe73a47","null","null","<p style=""font-size: 60px; font-family: BACS"">tKDmhRYlD</p>","","","","","","","","",""
"html-keyboard-response","238","301397","0.0-12.0-0.68","5f0471a92ec97b6d1aec7739","650c16f0f2faf8d7a0d14c09","651c1c97f2f046c6abe73a47","null","null","<p style=""font-size: 60px; font-family: BACS"">OmtlDtcB</p>","","","","","","","","",""
"html-keyboard-response","239","302398","0.0-12.0-0.69","5f0471a92ec97b6d1aec7739","650c16f0f2faf8d7a0d14c09","651c1c97f2f046c6abe73a47","null","null","<p style=""font-size: 60px; font-family: BACS"">NaJbrZYd</p>","","","","","","","","",""
"html-keyboard-response","240","303401","0.0-12.0-0.70","5f0471a92ec97b6d1aec7739","650c16f0f2faf8d7a0d14c09","651c1c97f2f046c6abe73a47","null","null","<p style=""font-size: 60px; font-family: BACS"">McMDbTE</p>","","","","","","","","",""
"html-keyboard-response","241","304402","0.0-12.0-0.71","5f0471a92ec97b6d1aec7739","650c16f0f2faf8d7a0d14c09","651c1c97f2f046c6abe73a47","null","null","<p style=""font-size: 60px; font-family: BACS"">PCPDhdCKc</p>","","","","","","","","",""
"html-keyboard-response","242","305417","0.0-12.0-0.72","5f0471a92ec97b6d1aec7739","650c16f0f2faf8d7a0d14c09","651c1c97f2f046c6abe73a47","null","null","<p style=""font-size: 60px; font-family: BACS"">cAZuZAUu</p>","","","","","","","","",""
"html-keyboard-response","243","306419","0.0-12.0-0.73","5f0471a92ec97b6d1aec7739","650c16f0f2faf8d7a0d14c09","651c1c97f2f046c6abe73a47","null","null","<p style=""font-size: 60px; font-family: BACS"">ubALmGrbk</p>","","","","","","","","",""
"html-keyboard-response","244","307420","0.0-12.0-0.74","5f0471a92ec97b6d1aec7739","650c16f0f2faf8d7a0d14c09","651c1c97f2f046c6abe73a47","null","null","<p style=""font-size: 60px; font-family: BACS"">rckOrba</p>","","","","","","","","",""
"html-keyboard-response","245","308421","0.0-12.0-0.75","5f0471a92ec97b6d1aec7739","650c16f0f2faf8d7a0d14c09","651c1c97f2f046c6abe73a47","null","null","<p style=""font-size: 60px; font-family: BACS"">JmvmOZAUu</p>","","","","","","","","",""
"html-keyboard-response","246","309436","0.0-12.0-0.76","5f0471a92ec97b6d1aec7739","650c16f0f2faf8d7a0d14c09","651c1c97f2f046c6abe73a47","null","null","<p style=""font-size: 60px; font-family: BACS"">KAERMRYlD</p>","","","","","","","","",""
"html-keyboard-response","247","310441","0.0-12.0-0.77","5f0471a92ec97b6d1aec7739","650c16f0f2faf8d7a0d14c09","651c1c97f2f046c6abe73a47","null","null","<p style=""font-size: 60px; font-family: BACS"">ALOrlYaOk</p>","","","","","","","","",""
"html-keyboard-response","248","311457","0.0-12.0-0.78","5f0471a92ec97b6d1aec7739","650c16f0f2faf8d7a0d14c09","651c1c97f2f046c6abe73a47","null","null","<p style=""font-size: 60px; font-family: BACS"">rckOrZYd</p>","","","","","","","","",""
"html-keyboard-response","249","312462","0.0-12.0-0.79","5f0471a92ec97b6d1aec7739","650c16f0f2faf8d7a0d14c09","651c1c97f2f046c6abe73a47","null","null","<p style=""font-size: 60px; font-family: BACS"">LNUrJrba</p>","","","","","","","","",""
"html-keyboard-response","250","314293","0.0-13.0","5f0471a92ec97b6d1aec7739","650c16f0f2faf8d7a0d14c09","651c1c97f2f046c6abe73a47","1831"," ","<p>Great, you've seen the third block of words. You may now take a short break.</p>
      <p>Press the spacebar when you're ready to continue.</p>","","","","","","","","",""
"html-keyboard-response","251","315303","0.0-14.0-0.0","5f0471a92ec97b6d1aec7739","650c16f0f2faf8d7a0d14c09","651c1c97f2f046c6abe73a47","null","null","<p style=""font-size: 60px; font-family: BACS"">OCmkdCKc</p>","","","","","","","","",""
"html-keyboard-response","252","316305","0.0-14.0-0.1","5f0471a92ec97b6d1aec7739","650c16f0f2faf8d7a0d14c09","651c1c97f2f046c6abe73a47","null","null","<p style=""font-size: 60px; font-family: BACS"">TAdhMRYlD</p>","","","","","","","","",""
"html-keyboard-response","253","317307","0.0-14.0-0.2","5f0471a92ec97b6d1aec7739","650c16f0f2faf8d7a0d14c09","651c1c97f2f046c6abe73a47","null","null","<p style=""font-size: 60px; font-family: BACS"">NaJbrba</p>","","","","","","","","",""
"html-keyboard-response","254","318310","0.0-14.0-0.3","5f0471a92ec97b6d1aec7739","650c16f0f2faf8d7a0d14c09","651c1c97f2f046c6abe73a47","null","null","<p style=""font-size: 60px; font-family: BACS"">TKDkdCKc</p>","","","","","","","","",""
"html-keyboard-response","255","319324","0.0-14.0-0.4","5f0471a92ec97b6d1aec7739","650c16f0f2faf8d7a0d14c09","651c1c97f2f046c6abe73a47","null","null","<p style=""font-size: 60px; font-family: BACS"">McMDbTE</p>","","","","","","","","",""
"html-keyboard-response","256","320326","0.0-14.0-0.5","5f0471a92ec97b6d1aec7739","650c16f0f2faf8d7a0d14c09","651c1c97f2f046c6abe73a47","null","null","<p style=""font-size: 60px; font-family: BACS"">rckOrZYd</p>","","","","","","","","",""
"html-keyboard-response","257","321328","0.0-14.0-0.6","5f0471a92ec97b6d1aec7739","650c16f0f2faf8d7a0d14c09","651c1c97f2f046c6abe73a47","null","null","<p style=""font-size: 60px; font-family: BACS"">tKDmhcthB</p>","","","","","","","","",""
"html-keyboard-response","258","322330","0.0-14.0-0.7","5f0471a92ec97b6d1aec7739","650c16f0f2faf8d7a0d14c09","651c1c97f2f046c6abe73a47","null","null","<p style=""font-size: 60px; font-family: BACS"">KAERMRYlD</p>","","","","","","","","",""
"html-keyboard-response","259","323332","0.0-14.0-0.8","5f0471a92ec97b6d1aec7739","650c16f0f2faf8d7a0d14c09","651c1c97f2f046c6abe73a47","null","null","<p style=""font-size: 60px; font-family: BACS"">LNUrJGrbk</p>","","","","","","","","",""
"html-keyboard-response","260","324334","0.0-14.0-0.9","5f0471a92ec97b6d1aec7739","650c16f0f2faf8d7a0d14c09","651c1c97f2f046c6abe73a47","null","null","<p style=""font-size: 60px; font-family: BACS"">dTmEDbTE</p>","","","","","","","","",""
"html-keyboard-response","261","325335","0.0-14.0-0.10","5f0471a92ec97b6d1aec7739","650c16f0f2faf8d7a0d14c09","651c1c97f2f046c6abe73a47","null","null","<p style=""font-size: 60px; font-family: BACS"">BKDRYtcB</p>","","","","","","","","",""
"html-keyboard-response","262","326336","0.0-14.0-0.11","5f0471a92ec97b6d1aec7739","650c16f0f2faf8d7a0d14c09","651c1c97f2f046c6abe73a47","null","null","<p style=""font-size: 60px; font-family: BACS"">cAZuYaOk</p>","","","","","","","","",""
"html-keyboard-response","263","327339","0.0-14.0-0.12","5f0471a92ec97b6d1aec7739","650c16f0f2faf8d7a0d14c09","651c1c97f2f046c6abe73a47","null","null","<p style=""font-size: 60px; font-family: BACS"">TAdhMdCKc</p>","","","","","","","","",""
"html-keyboard-response","264","328341","0.0-14.0-0.13","5f0471a92ec97b6d1aec7739","650c16f0f2faf8d7a0d14c09","651c1c97f2f046c6abe73a47","null","null","<p style=""font-size: 60px; font-family: BACS"">tKDmhRYlD</p>","","","","","","","","",""
"html-keyboard-response","265","329343","0.0-14.0-0.14","5f0471a92ec97b6d1aec7739","650c16f0f2faf8d7a0d14c09","651c1c97f2f046c6abe73a47","null","null","<p style=""font-size: 60px; font-family: BACS"">ZdNmUrZYd</p>","","","","","","","","",""
"html-keyboard-response","266","330346","0.0-14.0-0.15","5f0471a92ec97b6d1aec7739","650c16f0f2faf8d7a0d14c09","651c1c97f2f046c6abe73a47","null","null","<p style=""font-size: 60px; font-family: BACS"">TKDkcthB</p>","","","","","","","","",""
"html-keyboard-response","267","331349","0.0-14.0-0.16","5f0471a92ec97b6d1aec7739","650c16f0f2faf8d7a0d14c09","651c1c97f2f046c6abe73a47","null","null","<p style=""font-size: 60px; font-family: BACS"">JmvmOrZYd</p>","","","","","","","","",""
"html-keyboard-response","268","332351","0.0-14.0-0.17","5f0471a92ec97b6d1aec7739","650c16f0f2faf8d7a0d14c09","651c1c97f2f046c6abe73a47","null","null","<p style=""font-size: 60px; font-family: BACS"">PCPDhcthB</p>","","","","","","","","",""
"html-keyboard-response","269","333353","0.0-14.0-0.18","5f0471a92ec97b6d1aec7739","650c16f0f2faf8d7a0d14c09","651c1c97f2f046c6abe73a47","null","null","<p style=""font-size: 60px; font-family: BACS"">NaJbYaOk</p>","","","","","","","","",""
"html-keyboard-response","270","334357","0.0-14.0-0.19","5f0471a92ec97b6d1aec7739","650c16f0f2faf8d7a0d14c09","651c1c97f2f046c6abe73a47","null","null","<p style=""font-size: 60px; font-family: BACS"">PCPDhdCKc</p>","","","","","","","","",""
"html-keyboard-response","271","335359","0.0-14.0-0.20","5f0471a92ec97b6d1aec7739","650c16f0f2faf8d7a0d14c09","651c1c97f2f046c6abe73a47","null","null","<p style=""font-size: 60px; font-family: BACS"">OmtlDRYlD</p>","","","","","","","","",""
"html-keyboard-response","272","336361","0.0-14.0-0.21","5f0471a92ec97b6d1aec7739","650c16f0f2faf8d7a0d14c09","651c1c97f2f046c6abe73a47","null","null","<p style=""font-size: 60px; font-family: BACS"">cAZuZAUu</p>","","","","","","","","",""
"html-keyboard-response","273","337364","0.0-14.0-0.22","5f0471a92ec97b6d1aec7739","650c16f0f2faf8d7a0d14c09","651c1c97f2f046c6abe73a47","null","null","<p style=""font-size: 60px; font-family: BACS"">rckOrba</p>","","","","","","","","",""
"html-keyboard-response","274","338365","0.0-14.0-0.23","5f0471a92ec97b6d1aec7739","650c16f0f2faf8d7a0d14c09","651c1c97f2f046c6abe73a47","null","null","<p style=""font-size: 60px; font-family: BACS"">ZdNmUZAUu</p>","","","","","","","","",""
"html-keyboard-response","275","339366","0.0-14.0-0.24","5f0471a92ec97b6d1aec7739","650c16f0f2faf8d7a0d14c09","651c1c97f2f046c6abe73a47","null","null","<p style=""font-size: 60px; font-family: BACS"">kdaAJGrbk</p>","","","","","","","","",""
"html-keyboard-response","276","340381","0.0-14.0-0.25","5f0471a92ec97b6d1aec7739","650c16f0f2faf8d7a0d14c09","651c1c97f2f046c6abe73a47","null","null","<p style=""font-size: 60px; font-family: BACS"">BKDRYRYlD</p>","","","","","","","","",""
"html-keyboard-response","277","341397","0.0-14.0-0.26","5f0471a92ec97b6d1aec7739","650c16f0f2faf8d7a0d14c09","651c1c97f2f046c6abe73a47","null","null","<p style=""font-size: 60px; font-family: BACS"">KAERMdCKc</p>","","","","","","","","",""
"html-keyboard-response","278","342398","0.0-14.0-0.27","5f0471a92ec97b6d1aec7739","650c16f0f2faf8d7a0d14c09","651c1c97f2f046c6abe73a47","null","null","<p style=""font-size: 60px; font-family: BACS"">JmvmOZAUu</p>","","","","","","","","",""
"html-keyboard-response","279","343402","0.0-14.0-0.28","5f0471a92ec97b6d1aec7739","650c16f0f2faf8d7a0d14c09","651c1c97f2f046c6abe73a47","null","null","<p style=""font-size: 60px; font-family: BACS"">ZdNmUGrbk</p>","","","","","","","","",""
"html-keyboard-response","280","344403","0.0-14.0-0.29","5f0471a92ec97b6d1aec7739","650c16f0f2faf8d7a0d14c09","651c1c97f2f046c6abe73a47","null","null","<p style=""font-size: 60px; font-family: BACS"">McMDdCKc</p>","","","","","","","","",""
"html-keyboard-response","281","345403","0.0-14.0-0.30","5f0471a92ec97b6d1aec7739","650c16f0f2faf8d7a0d14c09","651c1c97f2f046c6abe73a47","null","null","<p style=""font-size: 60px; font-family: BACS"">BKDRYbTE</p>","","","","","","","","",""
"html-keyboard-response","282","346405","0.0-14.0-0.31","5f0471a92ec97b6d1aec7739","650c16f0f2faf8d7a0d14c09","651c1c97f2f046c6abe73a47","null","null","<p style=""font-size: 60px; font-family: BACS"">LNUrJrba</p>","","","","","","","","",""
"html-keyboard-response","283","347407","0.0-14.0-0.32","5f0471a92ec97b6d1aec7739","650c16f0f2faf8d7a0d14c09","651c1c97f2f046c6abe73a47","null","null","<p style=""font-size: 60px; font-family: BACS"">cAZuGrbk</p>","","","","","","","","",""
"html-keyboard-response","284","348410","0.0-14.0-0.33","5f0471a92ec97b6d1aec7739","650c16f0f2faf8d7a0d14c09","651c1c97f2f046c6abe73a47","null","null","<p style=""font-size: 60px; font-family: BACS"">OmtlDcthB</p>","","","","","","","","",""
"html-keyboard-response","285","349426","0.0-14.0-0.34","5f0471a92ec97b6d1aec7739","650c16f0f2faf8d7a0d14c09","651c1c97f2f046c6abe73a47","null","null","<p style=""font-size: 60px; font-family: BACS"">PCPDhRYlD</p>","","","","","","","","",""
"html-keyboard-response","286","350427","0.0-14.0-0.35","5f0471a92ec97b6d1aec7739","650c16f0f2faf8d7a0d14c09","651c1c97f2f046c6abe73a47","null","null","<p style=""font-size: 60px; font-family: BACS"">QcQAJZAUu</p>","","","","","","","","",""
"html-keyboard-response","287","351430","0.0-14.0-0.36","5f0471a92ec97b6d1aec7739","650c16f0f2faf8d7a0d14c09","651c1c97f2f046c6abe73a47","null","null","<p style=""font-size: 60px; font-family: BACS"">ubALmrba</p>","","","","","","","","",""
"html-keyboard-response","288","352434","0.0-14.0-0.37","5f0471a92ec97b6d1aec7739","650c16f0f2faf8d7a0d14c09","651c1c97f2f046c6abe73a47","null","null","<p style=""font-size: 60px; font-family: BACS"">TKDktcB</p>","","","","","","","","",""
"html-keyboard-response","289","353449","0.0-14.0-0.38","5f0471a92ec97b6d1aec7739","650c16f0f2faf8d7a0d14c09","651c1c97f2f046c6abe73a47","null","null","<p style=""font-size: 60px; font-family: BACS"">QcQAJrZYd</p>","","","","","","","","",""
"html-keyboard-response","290","354451","0.0-14.0-0.39","5f0471a92ec97b6d1aec7739","650c16f0f2faf8d7a0d14c09","651c1c97f2f046c6abe73a47","null","null","<p style=""font-size: 60px; font-family: BACS"">KAERMtcB</p>","","","","","","","","",""
"html-keyboard-response","291","355467","0.0-14.0-0.40","5f0471a92ec97b6d1aec7739","650c16f0f2faf8d7a0d14c09","651c1c97f2f046c6abe73a47","null","null","<p style=""font-size: 60px; font-family: BACS"">LNUrJYaOk</p>","","","","","","","","",""
"html-keyboard-response","292","356480","0.0-14.0-0.41","5f0471a92ec97b6d1aec7739","650c16f0f2faf8d7a0d14c09","651c1c97f2f046c6abe73a47","null","null","<p style=""font-size: 60px; font-family: BACS"">OCmkcthB</p>","","","","","","","","",""
"html-keyboard-response","293","357482","0.0-14.0-0.42","5f0471a92ec97b6d1aec7739","650c16f0f2faf8d7a0d14c09","651c1c97f2f046c6abe73a47","null","null","<p style=""font-size: 60px; font-family: BACS"">ZdNmUrba</p>","","","","","","","","",""
"html-keyboard-response","294","358484","0.0-14.0-0.43","5f0471a92ec97b6d1aec7739","650c16f0f2faf8d7a0d14c09","651c1c97f2f046c6abe73a47","null","null","<p style=""font-size: 60px; font-family: BACS"">TAdhMtcB</p>","","","","","","","","",""
"html-keyboard-response","295","359488","0.0-14.0-0.44","5f0471a92ec97b6d1aec7739","650c16f0f2faf8d7a0d14c09","651c1c97f2f046c6abe73a47","null","null","<p style=""font-size: 60px; font-family: BACS"">PCPDhbTE</p>","","","","","","","","",""
"html-keyboard-response","296","360492","0.0-14.0-0.45","5f0471a92ec97b6d1aec7739","650c16f0f2faf8d7a0d14c09","651c1c97f2f046c6abe73a47","null","null","<p style=""font-size: 60px; font-family: BACS"">JmvmOGrbk</p>","","","","","","","","",""
"html-keyboard-response","297","361495","0.0-14.0-0.46","5f0471a92ec97b6d1aec7739","650c16f0f2faf8d7a0d14c09","651c1c97f2f046c6abe73a47","null","null","<p style=""font-size: 60px; font-family: BACS"">OmtlDbTE</p>","","","","","","","","",""
"html-keyboard-response","298","362500","0.0-14.0-0.47","5f0471a92ec97b6d1aec7739","650c16f0f2faf8d7a0d14c09","651c1c97f2f046c6abe73a47","null","null","<p style=""font-size: 60px; font-family: BACS"">tKDmhdCKc</p>","","","","","","","","",""
"html-keyboard-response","299","363504","0.0-14.0-0.48","5f0471a92ec97b6d1aec7739","650c16f0f2faf8d7a0d14c09","651c1c97f2f046c6abe73a47","null","null","<p style=""font-size: 60px; font-family: BACS"">TAdhMbTE</p>","","","","","","","","",""
"html-keyboard-response","300","364505","0.0-14.0-0.49","5f0471a92ec97b6d1aec7739","650c16f0f2faf8d7a0d14c09","651c1c97f2f046c6abe73a47","null","null","<p style=""font-size: 60px; font-family: BACS"">OCmktcB</p>","","","","","","","","",""
"html-keyboard-response","301","365506","0.0-14.0-0.50","5f0471a92ec97b6d1aec7739","650c16f0f2faf8d7a0d14c09","651c1c97f2f046c6abe73a47","null","null","<p style=""font-size: 60px; font-family: BACS"">ALOrlrZYd</p>","","","","","","","","",""
"html-keyboard-response","302","366522","0.0-14.0-0.51","5f0471a92ec97b6d1aec7739","650c16f0f2faf8d7a0d14c09","651c1c97f2f046c6abe73a47","null","null","<p style=""font-size: 60px; font-family: BACS"">ubALmGrbk</p>","","","","","","","","",""
"html-keyboard-response","303","367524","0.0-14.0-0.52","5f0471a92ec97b6d1aec7739","650c16f0f2faf8d7a0d14c09","651c1c97f2f046c6abe73a47","null","null","<p style=""font-size: 60px; font-family: BACS"">dTmEDcthB</p>","","","","","","","","",""
"html-keyboard-response","304","368525","0.0-14.0-0.53","5f0471a92ec97b6d1aec7739","650c16f0f2faf8d7a0d14c09","651c1c97f2f046c6abe73a47","null","null","<p style=""font-size: 60px; font-family: BACS"">BKDRYdCKc</p>","","","","","","","","",""
"html-keyboard-response","305","369528","0.0-14.0-0.54","5f0471a92ec97b6d1aec7739","650c16f0f2faf8d7a0d14c09","651c1c97f2f046c6abe73a47","null","null","<p style=""font-size: 60px; font-family: BACS"">tKDmhbTE</p>","","","","","","","","",""
"html-keyboard-response","306","370544","0.0-14.0-0.55","5f0471a92ec97b6d1aec7739","650c16f0f2faf8d7a0d14c09","651c1c97f2f046c6abe73a47","null","null","<p style=""font-size: 60px; font-family: BACS"">TKDkRYlD</p>","","","","","","","","",""
"html-keyboard-response","307","371547","0.0-14.0-0.56","5f0471a92ec97b6d1aec7739","650c16f0f2faf8d7a0d14c09","651c1c97f2f046c6abe73a47","null","null","<p style=""font-size: 60px; font-family: BACS"">kdaAJYaOk</p>","","","","","","","","",""
"html-keyboard-response","308","372549","0.0-14.0-0.57","5f0471a92ec97b6d1aec7739","650c16f0f2faf8d7a0d14c09","651c1c97f2f046c6abe73a47","null","null","<p style=""font-size: 60px; font-family: BACS"">KAERMcthB</p>","","","","","","","","",""
"html-keyboard-response","309","373551","0.0-14.0-0.58","5f0471a92ec97b6d1aec7739","650c16f0f2faf8d7a0d14c09","651c1c97f2f046c6abe73a47","null","null","<p style=""font-size: 60px; font-family: BACS"">NaJbrZYd</p>","","","","","","","","",""
"html-keyboard-response","310","374567","0.0-14.0-0.59","5f0471a92ec97b6d1aec7739","650c16f0f2faf8d7a0d14c09","651c1c97f2f046c6abe73a47","null","null","<p style=""font-size: 60px; font-family: BACS"">McMDcthB</p>","","","","","","","","",""
"html-keyboard-response","311","375568","0.0-14.0-0.60","5f0471a92ec97b6d1aec7739","650c16f0f2faf8d7a0d14c09","651c1c97f2f046c6abe73a47","null","null","<p style=""font-size: 60px; font-family: BACS"">rckOGrbk</p>","","","","","","","","",""
"html-keyboard-response","312","376570","0.0-14.0-0.61","5f0471a92ec97b6d1aec7739","650c16f0f2faf8d7a0d14c09","651c1c97f2f046c6abe73a47","null","null","<p style=""font-size: 60px; font-family: BACS"">kdaAJZAUu</p>","","","","","","","","",""
"html-keyboard-response","313","377573","0.0-14.0-0.62","5f0471a92ec97b6d1aec7739","650c16f0f2faf8d7a0d14c09","651c1c97f2f046c6abe73a47","null","null","<p style=""font-size: 60px; font-family: BACS"">JmvmOrba</p>","","","","","","","","",""
"html-keyboard-response","314","378575","0.0-14.0-0.63","5f0471a92ec97b6d1aec7739","650c16f0f2faf8d7a0d14c09","651c1c97f2f046c6abe73a47","null","null","<p style=""font-size: 60px; font-family: BACS"">ubALmYaOk</p>","","","","","","","","",""
"html-keyboard-response","315","379578","0.0-14.0-0.64","5f0471a92ec97b6d1aec7739","650c16f0f2faf8d7a0d14c09","651c1c97f2f046c6abe73a47","null","null","<p style=""font-size: 60px; font-family: BACS"">LNUrJZAUu</p>","","","","","","","","",""
"html-keyboard-response","316","380580","0.0-14.0-0.65","5f0471a92ec97b6d1aec7739","650c16f0f2faf8d7a0d14c09","651c1c97f2f046c6abe73a47","null","null","<p style=""font-size: 60px; font-family: BACS"">McMDtcB</p>","","","","","","","","",""
"html-keyboard-response","317","381582","0.0-14.0-0.66","5f0471a92ec97b6d1aec7739","650c16f0f2faf8d7a0d14c09","651c1c97f2f046c6abe73a47","null","null","<p style=""font-size: 60px; font-family: BACS"">ALOrlrba</p>","","","","","","","","",""
"html-keyboard-response","318","382585","0.0-14.0-0.67","5f0471a92ec97b6d1aec7739","650c16f0f2faf8d7a0d14c09","651c1c97f2f046c6abe73a47","null","null","<p style=""font-size: 60px; font-family: BACS"">dTmEDtcB</p>","","","","","","","","",""
"html-keyboard-response","319","383591","0.0-14.0-0.68","5f0471a92ec97b6d1aec7739","650c16f0f2faf8d7a0d14c09","651c1c97f2f046c6abe73a47","null","null","<p style=""font-size: 60px; font-family: BACS"">cAZurZYd</p>","","","","","","","","",""
"html-keyboard-response","320","384606","0.0-14.0-0.69","5f0471a92ec97b6d1aec7739","650c16f0f2faf8d7a0d14c09","651c1c97f2f046c6abe73a47","null","null","<p style=""font-size: 60px; font-family: BACS"">ALOrlGrbk</p>","","","","","","","","",""
"html-keyboard-response","321","385607","0.0-14.0-0.70","5f0471a92ec97b6d1aec7739","650c16f0f2faf8d7a0d14c09","651c1c97f2f046c6abe73a47","null","null","<p style=""font-size: 60px; font-family: BACS"">QcQAJrba</p>","","","","","","","","",""
"html-keyboard-response","322","386608","0.0-14.0-0.71","5f0471a92ec97b6d1aec7739","650c16f0f2faf8d7a0d14c09","651c1c97f2f046c6abe73a47","null","null","<p style=""font-size: 60px; font-family: BACS"">NaJbZAUu</p>","","","","","","","","",""
"html-keyboard-response","323","387612","0.0-14.0-0.72","5f0471a92ec97b6d1aec7739","650c16f0f2faf8d7a0d14c09","651c1c97f2f046c6abe73a47","null","null","<p style=""font-size: 60px; font-family: BACS"">QcQAJYaOk</p>","","","","","","","","",""
"html-keyboard-response","324","388627","0.0-14.0-0.73","5f0471a92ec97b6d1aec7739","650c16f0f2faf8d7a0d14c09","651c1c97f2f046c6abe73a47","null","null","<p style=""font-size: 60px; font-family: BACS"">OCmkbTE</p>","","","","","","","","",""
"html-keyboard-response","325","389628","0.0-14.0-0.74","5f0471a92ec97b6d1aec7739","650c16f0f2faf8d7a0d14c09","651c1c97f2f046c6abe73a47","null","null","<p style=""font-size: 60px; font-family: BACS"">ubALmZAUu</p>","","","","","","","","",""
"html-keyboard-response","326","390643","0.0-14.0-0.75","5f0471a92ec97b6d1aec7739","650c16f0f2faf8d7a0d14c09","651c1c97f2f046c6abe73a47","null","null","<p style=""font-size: 60px; font-family: BACS"">dTmEDRYlD</p>","","","","","","","","",""
"html-keyboard-response","327","391644","0.0-14.0-0.76","5f0471a92ec97b6d1aec7739","650c16f0f2faf8d7a0d14c09","651c1c97f2f046c6abe73a47","null","null","<p style=""font-size: 60px; font-family: BACS"">rckOYaOk</p>","","","","","","","","",""
"html-keyboard-response","328","392646","0.0-14.0-0.77","5f0471a92ec97b6d1aec7739","650c16f0f2faf8d7a0d14c09","651c1c97f2f046c6abe73a47","null","null","<p style=""font-size: 60px; font-family: BACS"">kdaAJrZYd</p>","","","","","","","","",""
"html-keyboard-response","329","393649","0.0-14.0-0.78","5f0471a92ec97b6d1aec7739","650c16f0f2faf8d7a0d14c09","651c1c97f2f046c6abe73a47","null","null","<p style=""font-size: 60px; font-family: BACS"">ALOrlYaOk</p>","","","","","","","","",""
"html-keyboard-response","330","394651","0.0-14.0-0.79","5f0471a92ec97b6d1aec7739","650c16f0f2faf8d7a0d14c09","651c1c97f2f046c6abe73a47","null","null","<p style=""font-size: 60px; font-family: BACS"">OmtlDtcB</p>","","","","","","","","",""
"html-keyboard-response","331","397121","0.0-15.0","5f0471a92ec97b6d1aec7739","650c16f0f2faf8d7a0d14c09","651c1c97f2f046c6abe73a47","2470"," ","<p>Great, you've seen the fourth block of words. You may now take a short break.</p>
      <p>Press the spacebar when you're ready to continue.</p>","","","","","","","","",""
"html-keyboard-response","332","398127","0.0-16.0-0.0","5f0471a92ec97b6d1aec7739","650c16f0f2faf8d7a0d14c09","651c1c97f2f046c6abe73a47","null","null","<p style=""font-size: 60px; font-family: BACS"">PCPDhcthB</p>","","","","","","","","",""
"html-keyboard-response","333","399143","0.0-16.0-0.1","5f0471a92ec97b6d1aec7739","650c16f0f2faf8d7a0d14c09","651c1c97f2f046c6abe73a47","null","null","<p style=""font-size: 60px; font-family: BACS"">PCPDhcthB</p>","","","","","","","","",""
"html-keyboard-response","334","400157","0.0-16.0-0.2","5f0471a92ec97b6d1aec7739","650c16f0f2faf8d7a0d14c09","651c1c97f2f046c6abe73a47","null","null","<p style=""font-size: 60px; font-family: BACS"">PCPDhcthB</p>","","","","","","","","",""
"html-keyboard-response","335","401173","0.0-16.0-0.3","5f0471a92ec97b6d1aec7739","650c16f0f2faf8d7a0d14c09","651c1c97f2f046c6abe73a47","null","null","<p style=""font-size: 60px; font-family: BACS"">PCPDhcthB</p>","","","","","","","","",""
"html-keyboard-response","336","402185","0.0-16.0-0.4","5f0471a92ec97b6d1aec7739","650c16f0f2faf8d7a0d14c09","651c1c97f2f046c6abe73a47","null","null","<p style=""font-size: 60px; font-family: BACS"">PCPDhcthB</p>","","","","","","","","",""
"html-keyboard-response","337","403199","0.0-16.0-0.5","5f0471a92ec97b6d1aec7739","650c16f0f2faf8d7a0d14c09","651c1c97f2f046c6abe73a47","null","null","<p style=""font-size: 60px; font-family: BACS"">PCPDhcthB</p>","","","","","","","","",""
"html-keyboard-response","338","404200","0.0-16.0-0.6","5f0471a92ec97b6d1aec7739","650c16f0f2faf8d7a0d14c09","651c1c97f2f046c6abe73a47","null","null","<p style=""font-size: 60px; font-family: BACS"">PCPDhcthB</p>","","","","","","","","",""
"html-keyboard-response","339","405215","0.0-16.0-0.7","5f0471a92ec97b6d1aec7739","650c16f0f2faf8d7a0d14c09","651c1c97f2f046c6abe73a47","null","null","<p style=""font-size: 60px; font-family: BACS"">PCPDhcthB</p>","","","","","","","","",""
"html-keyboard-response","340","406230","0.0-16.0-0.8","5f0471a92ec97b6d1aec7739","650c16f0f2faf8d7a0d14c09","651c1c97f2f046c6abe73a47","null","null","<p style=""font-size: 60px; font-family: BACS"">PCPDhcthB</p>","","","","","","","","",""
"html-keyboard-response","341","407243","0.0-16.0-0.9","5f0471a92ec97b6d1aec7739","650c16f0f2faf8d7a0d14c09","651c1c97f2f046c6abe73a47","null","null","<p style=""font-size: 60px; font-family: BACS"">PCPDhcthB</p>","","","","","","","","",""
"html-keyboard-response","342","408258","0.0-16.0-0.10","5f0471a92ec97b6d1aec7739","650c16f0f2faf8d7a0d14c09","651c1c97f2f046c6abe73a47","null","null","<p style=""font-size: 60px; font-family: BACS"">PCPDhcthB</p>","","","","","","","","",""
"html-keyboard-response","343","409273","0.0-16.0-0.11","5f0471a92ec97b6d1aec7739","650c16f0f2faf8d7a0d14c09","651c1c97f2f046c6abe73a47","null","null","<p style=""font-size: 60px; font-family: BACS"">PCPDhcthB</p>","","","","","","","","",""
"html-keyboard-response","344","410285","0.0-16.0-0.12","5f0471a92ec97b6d1aec7739","650c16f0f2faf8d7a0d14c09","651c1c97f2f046c6abe73a47","null","null","<p style=""font-size: 60px; font-family: BACS"">PCPDhcthB</p>","","","","","","","","",""
"html-keyboard-response","345","411300","0.0-16.0-0.13","5f0471a92ec97b6d1aec7739","650c16f0f2faf8d7a0d14c09","651c1c97f2f046c6abe73a47","null","null","<p style=""font-size: 60px; font-family: BACS"">PCPDhcthB</p>","","","","","","","","",""
"html-keyboard-response","346","412316","0.0-16.0-0.14","5f0471a92ec97b6d1aec7739","650c16f0f2faf8d7a0d14c09","651c1c97f2f046c6abe73a47","null","null","<p style=""font-size: 60px; font-family: BACS"">PCPDhcthB</p>","","","","","","","","",""
"html-keyboard-response","347","413329","0.0-16.0-0.15","5f0471a92ec97b6d1aec7739","650c16f0f2faf8d7a0d14c09","651c1c97f2f046c6abe73a47","null","null","<p style=""font-size: 60px; font-family: BACS"">PCPDhcthB</p>","","","","","","","","",""
"html-keyboard-response","348","414344","0.0-16.0-0.16","5f0471a92ec97b6d1aec7739","650c16f0f2faf8d7a0d14c09","651c1c97f2f046c6abe73a47","null","null","<p style=""font-size: 60px; font-family: BACS"">PCPDhcthB</p>","","","","","","","","",""
"html-keyboard-response","349","415358","0.0-16.0-0.17","5f0471a92ec97b6d1aec7739","650c16f0f2faf8d7a0d14c09","651c1c97f2f046c6abe73a47","null","null","<p style=""font-size: 60px; font-family: BACS"">PCPDhcthB</p>","","","","","","","","",""
"html-keyboard-response","350","416371","0.0-16.0-0.18","5f0471a92ec97b6d1aec7739","650c16f0f2faf8d7a0d14c09","651c1c97f2f046c6abe73a47","null","null","<p style=""font-size: 60px; font-family: BACS"">PCPDhcthB</p>","","","","","","","","",""
"html-keyboard-response","351","417372","0.0-16.0-0.19","5f0471a92ec97b6d1aec7739","650c16f0f2faf8d7a0d14c09","651c1c97f2f046c6abe73a47","null","null","<p style=""font-size: 60px; font-family: BACS"">PCPDhcthB</p>","","","","","","","","",""
"html-keyboard-response","352","418383","0.0-16.0-0.20","5f0471a92ec97b6d1aec7739","650c16f0f2faf8d7a0d14c09","651c1c97f2f046c6abe73a47","null","null","<p style=""font-size: 60px; font-family: BACS"">PCPDhcthB</p>","","","","","","","","",""
"html-keyboard-response","353","419395","0.0-16.0-0.21","5f0471a92ec97b6d1aec7739","650c16f0f2faf8d7a0d14c09","651c1c97f2f046c6abe73a47","null","null","<p style=""font-size: 60px; font-family: BACS"">PCPDhcthB</p>","","","","","","","","",""
"html-keyboard-response","354","420409","0.0-16.0-0.22","5f0471a92ec97b6d1aec7739","650c16f0f2faf8d7a0d14c09","651c1c97f2f046c6abe73a47","null","null","<p style=""font-size: 60px; font-family: BACS"">PCPDhcthB</p>","","","","","","","","",""
"html-keyboard-response","355","421423","0.0-16.0-0.23","5f0471a92ec97b6d1aec7739","650c16f0f2faf8d7a0d14c09","651c1c97f2f046c6abe73a47","null","null","<p style=""font-size: 60px; font-family: BACS"">PCPDhcthB</p>","","","","","","","","",""
"html-keyboard-response","356","422438","0.0-16.0-0.24","5f0471a92ec97b6d1aec7739","650c16f0f2faf8d7a0d14c09","651c1c97f2f046c6abe73a47","null","null","<p style=""font-size: 60px; font-family: BACS"">PCPDhcthB</p>","","","","","","","","",""
"html-keyboard-response","357","423454","0.0-16.0-0.25","5f0471a92ec97b6d1aec7739","650c16f0f2faf8d7a0d14c09","651c1c97f2f046c6abe73a47","null","null","<p style=""font-size: 60px; font-family: BACS"">PCPDhcthB</p>","","","","","","","","",""
"html-keyboard-response","358","424467","0.0-16.0-0.26","5f0471a92ec97b6d1aec7739","650c16f0f2faf8d7a0d14c09","651c1c97f2f046c6abe73a47","null","null","<p style=""font-size: 60px; font-family: BACS"">PCPDhcthB</p>","","","","","","","","",""
"html-keyboard-response","359","425482","0.0-16.0-0.27","5f0471a92ec97b6d1aec7739","650c16f0f2faf8d7a0d14c09","651c1c97f2f046c6abe73a47","null","null","<p style=""font-size: 60px; font-family: BACS"">PCPDhcthB</p>","","","","","","","","",""
"html-keyboard-response","360","426494","0.0-16.0-0.28","5f0471a92ec97b6d1aec7739","650c16f0f2faf8d7a0d14c09","651c1c97f2f046c6abe73a47","null","null","<p style=""font-size: 60px; font-family: BACS"">PCPDhcthB</p>","","","","","","","","",""
"html-keyboard-response","361","427508","0.0-16.0-0.29","5f0471a92ec97b6d1aec7739","650c16f0f2faf8d7a0d14c09","651c1c97f2f046c6abe73a47","null","null","<p style=""font-size: 60px; font-family: BACS"">PCPDhcthB</p>","","","","","","","","",""
"html-keyboard-response","362","428508","0.0-16.0-0.30","5f0471a92ec97b6d1aec7739","650c16f0f2faf8d7a0d14c09","651c1c97f2f046c6abe73a47","null","null","<p style=""font-size: 60px; font-family: BACS"">PCPDhcthB</p>","","","","","","","","",""
"html-keyboard-response","363","429518","0.0-16.0-0.31","5f0471a92ec97b6d1aec7739","650c16f0f2faf8d7a0d14c09","651c1c97f2f046c6abe73a47","null","null","<p style=""font-size: 60px; font-family: BACS"">PCPDhcthB</p>","","","","","","","","",""
"html-keyboard-response","364","430519","0.0-16.0-0.32","5f0471a92ec97b6d1aec7739","650c16f0f2faf8d7a0d14c09","651c1c97f2f046c6abe73a47","null","null","<p style=""font-size: 60px; font-family: BACS"">PCPDhcthB</p>","","","","","","","","",""
"html-keyboard-response","365","431533","0.0-16.0-0.33","5f0471a92ec97b6d1aec7739","650c16f0f2faf8d7a0d14c09","651c1c97f2f046c6abe73a47","null","null","<p style=""font-size: 60px; font-family: BACS"">PCPDhcthB</p>","","","","","","","","",""
"html-keyboard-response","366","432547","0.0-16.0-0.34","5f0471a92ec97b6d1aec7739","650c16f0f2faf8d7a0d14c09","651c1c97f2f046c6abe73a47","null","null","<p style=""font-size: 60px; font-family: BACS"">PCPDhcthB</p>","","","","","","","","",""
"html-keyboard-response","367","433547","0.0-16.0-0.35","5f0471a92ec97b6d1aec7739","650c16f0f2faf8d7a0d14c09","651c1c97f2f046c6abe73a47","null","null","<p style=""font-size: 60px; font-family: BACS"">PCPDhcthB</p>","","","","","","","","",""
"html-keyboard-response","368","434563","0.0-16.0-0.36","5f0471a92ec97b6d1aec7739","650c16f0f2faf8d7a0d14c09","651c1c97f2f046c6abe73a47","null","null","<p style=""font-size: 60px; font-family: BACS"">PCPDhcthB</p>","","","","","","","","",""
"html-keyboard-response","369","435576","0.0-16.0-0.37","5f0471a92ec97b6d1aec7739","650c16f0f2faf8d7a0d14c09","651c1c97f2f046c6abe73a47","null","null","<p style=""font-size: 60px; font-family: BACS"">PCPDhcthB</p>","","","","","","","","",""
"html-keyboard-response","370","436590","0.0-16.0-0.38","5f0471a92ec97b6d1aec7739","650c16f0f2faf8d7a0d14c09","651c1c97f2f046c6abe73a47","null","null","<p style=""font-size: 60px; font-family: BACS"">PCPDhcthB</p>","","","","","","","","",""
"html-keyboard-response","371","437605","0.0-16.0-0.39","5f0471a92ec97b6d1aec7739","650c16f0f2faf8d7a0d14c09","651c1c97f2f046c6abe73a47","null","null","<p style=""font-size: 60px; font-family: BACS"">PCPDhcthB</p>","","","","","","","","",""
"html-keyboard-response","372","438619","0.0-16.0-0.40","5f0471a92ec97b6d1aec7739","650c16f0f2faf8d7a0d14c09","651c1c97f2f046c6abe73a47","null","null","<p style=""font-size: 60px; font-family: BACS"">PCPDhcthB</p>","","","","","","","","",""
"html-keyboard-response","373","439633","0.0-16.0-0.41","5f0471a92ec97b6d1aec7739","650c16f0f2faf8d7a0d14c09","651c1c97f2f046c6abe73a47","null","null","<p style=""font-size: 60px; font-family: BACS"">PCPDhcthB</p>","","","","","","","","",""
"html-keyboard-response","374","440634","0.0-16.0-0.42","5f0471a92ec97b6d1aec7739","650c16f0f2faf8d7a0d14c09","651c1c97f2f046c6abe73a47","null","null","<p style=""font-size: 60px; font-family: BACS"">PCPDhcthB</p>","","","","","","","","",""
"html-keyboard-response","375","441645","0.0-16.0-0.43","5f0471a92ec97b6d1aec7739","650c16f0f2faf8d7a0d14c09","651c1c97f2f046c6abe73a47","null","null","<p style=""font-size: 60px; font-family: BACS"">PCPDhcthB</p>","","","","","","","","",""
"html-keyboard-response","376","442659","0.0-16.0-0.44","5f0471a92ec97b6d1aec7739","650c16f0f2faf8d7a0d14c09","651c1c97f2f046c6abe73a47","null","null","<p style=""font-size: 60px; font-family: BACS"">PCPDhcthB</p>","","","","","","","","",""
"html-keyboard-response","377","443674","0.0-16.0-0.45","5f0471a92ec97b6d1aec7739","650c16f0f2faf8d7a0d14c09","651c1c97f2f046c6abe73a47","null","null","<p style=""font-size: 60px; font-family: BACS"">PCPDhcthB</p>","","","","","","","","",""
"html-keyboard-response","378","444688","0.0-16.0-0.46","5f0471a92ec97b6d1aec7739","650c16f0f2faf8d7a0d14c09","651c1c97f2f046c6abe73a47","null","null","<p style=""font-size: 60px; font-family: BACS"">PCPDhcthB</p>","","","","","","","","",""
"html-keyboard-response","379","445699","0.0-16.0-0.47","5f0471a92ec97b6d1aec7739","650c16f0f2faf8d7a0d14c09","651c1c97f2f046c6abe73a47","null","null","<p style=""font-size: 60px; font-family: BACS"">PCPDhcthB</p>","","","","","","","","",""
"html-keyboard-response","380","446712","0.0-16.0-0.48","5f0471a92ec97b6d1aec7739","650c16f0f2faf8d7a0d14c09","651c1c97f2f046c6abe73a47","null","null","<p style=""font-size: 60px; font-family: BACS"">PCPDhcthB</p>","","","","","","","","",""
"html-keyboard-response","381","447727","0.0-16.0-0.49","5f0471a92ec97b6d1aec7739","650c16f0f2faf8d7a0d14c09","651c1c97f2f046c6abe73a47","null","null","<p style=""font-size: 60px; font-family: BACS"">PCPDhcthB</p>","","","","","","","","",""
"html-keyboard-response","382","448740","0.0-16.0-0.50","5f0471a92ec97b6d1aec7739","650c16f0f2faf8d7a0d14c09","651c1c97f2f046c6abe73a47","null","null","<p style=""font-size: 60px; font-family: BACS"">PCPDhcthB</p>","","","","","","","","",""
"html-keyboard-response","383","449754","0.0-16.0-0.51","5f0471a92ec97b6d1aec7739","650c16f0f2faf8d7a0d14c09","651c1c97f2f046c6abe73a47","null","null","<p style=""font-size: 60px; font-family: BACS"">PCPDhcthB</p>","","","","","","","","",""
"html-keyboard-response","384","450768","0.0-16.0-0.52","5f0471a92ec97b6d1aec7739","650c16f0f2faf8d7a0d14c09","651c1c97f2f046c6abe73a47","null","null","<p style=""font-size: 60px; font-family: BACS"">PCPDhcthB</p>","","","","","","","","",""
"html-keyboard-response","385","451781","0.0-16.0-0.53","5f0471a92ec97b6d1aec7739","650c16f0f2faf8d7a0d14c09","651c1c97f2f046c6abe73a47","null","null","<p style=""font-size: 60px; font-family: BACS"">PCPDhcthB</p>","","","","","","","","",""
"html-keyboard-response","386","452796","0.0-16.0-0.54","5f0471a92ec97b6d1aec7739","650c16f0f2faf8d7a0d14c09","651c1c97f2f046c6abe73a47","null","null","<p style=""font-size: 60px; font-family: BACS"">PCPDhcthB</p>","","","","","","","","",""
"html-keyboard-response","387","453811","0.0-16.0-0.55","5f0471a92ec97b6d1aec7739","650c16f0f2faf8d7a0d14c09","651c1c97f2f046c6abe73a47","null","null","<p style=""font-size: 60px; font-family: BACS"">PCPDhcthB</p>","","","","","","","","",""
"html-keyboard-response","388","454823","0.0-16.0-0.56","5f0471a92ec97b6d1aec7739","650c16f0f2faf8d7a0d14c09","651c1c97f2f046c6abe73a47","null","null","<p style=""font-size: 60px; font-family: BACS"">PCPDhcthB</p>","","","","","","","","",""
"html-keyboard-response","389","455837","0.0-16.0-0.57","5f0471a92ec97b6d1aec7739","650c16f0f2faf8d7a0d14c09","651c1c97f2f046c6abe73a47","null","null","<p style=""font-size: 60px; font-family: BACS"">PCPDhcthB</p>","","","","","","","","",""
"html-keyboard-response","390","456850","0.0-16.0-0.58","5f0471a92ec97b6d1aec7739","650c16f0f2faf8d7a0d14c09","651c1c97f2f046c6abe73a47","null","null","<p style=""font-size: 60px; font-family: BACS"">PCPDhcthB</p>","","","","","","","","",""
"html-keyboard-response","391","457863","0.0-16.0-0.59","5f0471a92ec97b6d1aec7739","650c16f0f2faf8d7a0d14c09","651c1c97f2f046c6abe73a47","null","null","<p style=""font-size: 60px; font-family: BACS"">PCPDhcthB</p>","","","","","","","","",""
"html-keyboard-response","392","458879","0.0-16.0-0.60","5f0471a92ec97b6d1aec7739","650c16f0f2faf8d7a0d14c09","651c1c97f2f046c6abe73a47","null","null","<p style=""font-size: 60px; font-family: BACS"">PCPDhcthB</p>","","","","","","","","",""
"html-keyboard-response","393","459893","0.0-16.0-0.61","5f0471a92ec97b6d1aec7739","650c16f0f2faf8d7a0d14c09","651c1c97f2f046c6abe73a47","null","null","<p style=""font-size: 60px; font-family: BACS"">PCPDhcthB</p>","","","","","","","","",""
"html-keyboard-response","394","460908","0.0-16.0-0.62","5f0471a92ec97b6d1aec7739","650c16f0f2faf8d7a0d14c09","651c1c97f2f046c6abe73a47","null","null","<p style=""font-size: 60px; font-family: BACS"">PCPDhcthB</p>","","","","","","","","",""
"html-keyboard-response","395","461920","0.0-16.0-0.63","5f0471a92ec97b6d1aec7739","650c16f0f2faf8d7a0d14c09","651c1c97f2f046c6abe73a47","null","null","<p style=""font-size: 60px; font-family: BACS"">PCPDhcthB</p>","","","","","","","","",""
"html-keyboard-response","396","462933","0.0-16.0-0.64","5f0471a92ec97b6d1aec7739","650c16f0f2faf8d7a0d14c09","651c1c97f2f046c6abe73a47","null","null","<p style=""font-size: 60px; font-family: BACS"">PCPDhcthB</p>","","","","","","","","",""
"html-keyboard-response","397","463946","0.0-16.0-0.65","5f0471a92ec97b6d1aec7739","650c16f0f2faf8d7a0d14c09","651c1c97f2f046c6abe73a47","null","null","<p style=""font-size: 60px; font-family: BACS"">PCPDhcthB</p>","","","","","","","","",""
"html-keyboard-response","398","464960","0.0-16.0-0.66","5f0471a92ec97b6d1aec7739","650c16f0f2faf8d7a0d14c09","651c1c97f2f046c6abe73a47","null","null","<p style=""font-size: 60px; font-family: BACS"">PCPDhcthB</p>","","","","","","","","",""
"html-keyboard-response","399","465973","0.0-16.0-0.67","5f0471a92ec97b6d1aec7739","650c16f0f2faf8d7a0d14c09","651c1c97f2f046c6abe73a47","null","null","<p style=""font-size: 60px; font-family: BACS"">PCPDhcthB</p>","","","","","","","","",""
