"trial_type","trial_index","time_elapsed","internal_node_id","subject_id","study_id","session_id","rt","response","stimulus","success","item","task","correct_response","testing_condition","correct","target","confound","name"
"pavlovia","0","849","0.0-0.0","608858869a591bd129fbbc6c","650c16f0f2faf8d7a0d14c09","651c1cef634883898e7a8409","","","","","","","","","","","",""
"survey-html-form","1","8760","0.0-1.0","608858869a591bd129fbbc6c","650c16f0f2faf8d7a0d14c09","651c1cef634883898e7a8409","7909","{""ID"":""608858869a591bd129fbbc6c""}","","","","","","","","","",""
"html-keyboard-response","2","23491","0.0-2.0","608858869a591bd129fbbc6c","650c16f0f2faf8d7a0d14c09","651c1cef634883898e7a8409","14727"," ","<p style=""font-size: 15px;"">Before beginning, we ask that you read the consent information and confirm your agreement to participate in the experiment.</p>
      <p style=""font-size: 15px;""> We ask that you remember that this is a research project and that your participation is entirely voluntary. You can stop your participation at any time, without needing to provide any explanation. The study we're asking you to participate in aims at examining how readers process written words. You will be engaged in a session of apprximately 20 minutes, followed by a brief questionnaire. You will have the opportunity to take a few breaks during the experiment. You will be paid £4 for your participation, corresponding to a rate of £8/hour. While this experiment looks at cognitive faculties, this experiment doesn't constitute clinical proof of eventual pathologies.</p>
      <p style=""font-size: 15px;"">All of the information collected thanks to yours and others' participation will be held in a secure password-protected server, and will not be shared with anyone not authorised to view it. Your personal information will be kept with an arbitrary participant ID. Thanks to this data anonymity process, any researcher analysing the data won't be able to track the information back to a specific participant. Therefore, this process will make identifying you impossibile, even when results from the study will be published in scientific reviews, presented at congresses, or at any other public forum. More generally, the collected data will be treated in accordance with the laws on privacy and conformity to the Legislative Degree n. 196 ""Code regarding the protection of personal data"" of the 30th of June 2003 and to the European Regulation 2016/670 (General Data Protection Regulation - GDPR). The Data Protection Officer is Avv. Valentina Carollo, who can be contacted at the following email addresses: <a href=""mailto:dpo@sissa.it"">dpo@sissa.it</a> or <a href=""mailto:rpd@sissa.it"">rpd@sissa.it</a> - PEC: <a href=""mailto:protocollo@pec.sissa.it"">protocollo@pec.sissa.it</a>.</p>
      <p style=""font-size: 15px;""> Before expressing your consent to participate, we would like to remind you again that in case you need explanations on any aspect of the experimental procedure, the researcher is at your disposition (<a href=""mailto:aliebelt@sissa.it"">aliebelt@sissa.it</a>, <a href=""mailto:davide.crepaldi@sissa.it"">davide.crepaldi@sissa.it</a>).</p>
      <p style=""font-size: 15px;"">If you would like to download the informed consent form, you can do so here: <a href=""BASL-Informed_Consent.pdf"" download>informed consent form</a>.</p>
      <p style=""font-size: 15px;"">We ask that you press the spacebar to proceed to the consent section.</p>","","","","","","","","",""
"survey-html-form","3","63292","0.0-3.0","608858869a591bd129fbbc6c","650c16f0f2faf8d7a0d14c09","651c1cef634883898e7a8409","39798","{""consent1"":""YES"",""consent2"":""YES"",""consent3"":""YES"",""consent4"":""YES"",""consent5"":""YES"",""consent6"":""YES""}","","","","","","","","","",""
"fullscreen","4","67521","0.0-4.0","608858869a591bd129fbbc6c","650c16f0f2faf8d7a0d14c09","651c1cef634883898e7a8409","","","","true","","","","","","","",""
"html-keyboard-response","5","106216","0.0-5.0","608858869a591bd129fbbc6c","650c16f0f2faf8d7a0d14c09","651c1cef634883898e7a8409","38693"," ","<p>Welcome, and thank you very much for your time!</p>
      <p>In this experiment, you'll be a language expert who's been asked to take a look at words that Earth has received in its first communication with aliens. Your task, in this first part of the experiment, is to pay close attention to the words you'll be shown; later, world leaders will ask you questions on what you saw. The words will be shown to you quite quickly; it seems that the aliens were in a hurry :-)</p>
      <p>Press the spacebar to continue.<p>","","","","","","","","",""
"html-keyboard-response","6","106269","0.0-6.0","608858869a591bd129fbbc6c","650c16f0f2faf8d7a0d14c09","651c1cef634883898e7a8409","null","null","<p style=""font-size: 120px; font-family: BACS""> </p>","","","","","","","","",""
"html-keyboard-response","7","111865","0.0-7.0","608858869a591bd129fbbc6c","650c16f0f2faf8d7a0d14c09","651c1cef634883898e7a8409","5594"," ","<p>Here is an example of the words you'll see:</p>
      <img src='esempio.png' height='400px'>
      <p>When you're ready to begin, press the spacebar.</p></div>","","","","","","","","",""
"html-keyboard-response","8","112872","0.0-8.0-0.0","608858869a591bd129fbbc6c","650c16f0f2faf8d7a0d14c09","651c1cef634883898e7a8409","null","null","<p style=""font-size: 60px; font-family: BACS"">KMOcBCAd</p>","","","","","","","","",""
"html-keyboard-response","9","113877","0.0-8.0-0.1","608858869a591bd129fbbc6c","650c16f0f2faf8d7a0d14c09","651c1cef634883898e7a8409","null","null","<p style=""font-size: 60px; font-family: BACS"">YUNkZrAJu</p>","","","","","","","","",""
"html-keyboard-response","10","114882","0.0-8.0-0.2","608858869a591bd129fbbc6c","650c16f0f2faf8d7a0d14c09","651c1cef634883898e7a8409","null","null","<p style=""font-size: 60px; font-family: BACS"">AlUYmkc</p>","","","","","","","","",""
"html-keyboard-response","11","115886","0.0-8.0-0.3","608858869a591bd129fbbc6c","650c16f0f2faf8d7a0d14c09","651c1cef634883898e7a8409","null","null","<p style=""font-size: 60px; font-family: BACS"">krUQcYUv</p>","","","","","","","","",""
"html-keyboard-response","12","116890","0.0-8.0-0.4","608858869a591bd129fbbc6c","650c16f0f2faf8d7a0d14c09","651c1cef634883898e7a8409","null","null","<p style=""font-size: 60px; font-family: BACS"">hBmMChBK</p>","","","","","","","","",""
"html-keyboard-response","13","117895","0.0-8.0-0.5","608858869a591bd129fbbc6c","650c16f0f2faf8d7a0d14c09","651c1cef634883898e7a8409","null","null","<p style=""font-size: 60px; font-family: BACS"">vAuNlmkc</p>","","","","","","","","",""
"html-keyboard-response","14","118900","0.0-8.0-0.6","608858869a591bd129fbbc6c","650c16f0f2faf8d7a0d14c09","651c1cef634883898e7a8409","null","null","<p style=""font-size: 60px; font-family: BACS"">kPOthBK</p>","","","","","","","","",""
"html-keyboard-response","15","119905","0.0-8.0-0.7","608858869a591bd129fbbc6c","650c16f0f2faf8d7a0d14c09","651c1cef634883898e7a8409","null","null","<p style=""font-size: 60px; font-family: BACS"">krUQmkc</p>","","","","","","","","",""
"html-keyboard-response","16","120910","0.0-8.0-0.8","608858869a591bd129fbbc6c","650c16f0f2faf8d7a0d14c09","651c1cef634883898e7a8409","null","null","<p style=""font-size: 60px; font-family: BACS"">AlUYrAJu</p>","","","","","","","","",""
"html-keyboard-response","17","121916","0.0-8.0-0.9","608858869a591bd129fbbc6c","650c16f0f2faf8d7a0d14c09","651c1cef634883898e7a8409","null","null","<p style=""font-size: 60px; font-family: BACS"">KMOcbdtK</p>","","","","","","","","",""
"html-keyboard-response","18","122921","0.0-8.0-0.10","608858869a591bd129fbbc6c","650c16f0f2faf8d7a0d14c09","651c1cef634883898e7a8409","null","null","<p style=""font-size: 60px; font-family: BACS"">vQdOrAJu</p>","","","","","","","","",""
"html-keyboard-response","19","123925","0.0-8.0-0.11","608858869a591bd129fbbc6c","650c16f0f2faf8d7a0d14c09","651c1cef634883898e7a8409","null","null","<p style=""font-size: 60px; font-family: BACS"">lYruacYUv</p>","","","","","","","","",""
"html-keyboard-response","20","124931","0.0-8.0-0.12","608858869a591bd129fbbc6c","650c16f0f2faf8d7a0d14c09","651c1cef634883898e7a8409","null","null","<p style=""font-size: 60px; font-family: BACS"">OMlTdmRb</p>","","","","","","","","",""
"html-keyboard-response","21","125936","0.0-8.0-0.13","608858869a591bd129fbbc6c","650c16f0f2faf8d7a0d14c09","651c1cef634883898e7a8409","null","null","<p style=""font-size: 60px; font-family: BACS"">lYruamkc</p>","","","","","","","","",""
"html-keyboard-response","22","126937","0.0-8.0-0.14","608858869a591bd129fbbc6c","650c16f0f2faf8d7a0d14c09","651c1cef634883898e7a8409","null","null","<p style=""font-size: 60px; font-family: BACS"">BEPOhBK</p>","","","","","","","","",""
"html-keyboard-response","23","127941","0.0-8.0-0.15","608858869a591bd129fbbc6c","650c16f0f2faf8d7a0d14c09","651c1cef634883898e7a8409","null","null","<p style=""font-size: 60px; font-family: BACS"">rkJuJud</p>","","","","","","","","",""
"html-keyboard-response","24","128947","0.0-8.0-0.16","608858869a591bd129fbbc6c","650c16f0f2faf8d7a0d14c09","651c1cef634883898e7a8409","null","null","<p style=""font-size: 60px; font-family: BACS"">mdlaJcUk</p>","","","","","","","","",""
"html-keyboard-response","25","129953","0.0-8.0-0.17","608858869a591bd129fbbc6c","650c16f0f2faf8d7a0d14c09","651c1cef634883898e7a8409","null","null","<p style=""font-size: 60px; font-family: BACS"">OMlTAPT</p>","","","","","","","","",""
"html-keyboard-response","26","130955","0.0-8.0-0.18","608858869a591bd129fbbc6c","650c16f0f2faf8d7a0d14c09","651c1cef634883898e7a8409","null","null","<p style=""font-size: 60px; font-family: BACS"">EtMDMdmRb</p>","","","","","","","","",""
"html-keyboard-response","27","131959","0.0-8.0-0.19","608858869a591bd129fbbc6c","650c16f0f2faf8d7a0d14c09","651c1cef634883898e7a8409","null","null","<p style=""font-size: 60px; font-family: BACS"">rkJuJcUk</p>","","","","","","","","",""
"html-keyboard-response","28","132964","0.0-8.0-0.20","608858869a591bd129fbbc6c","650c16f0f2faf8d7a0d14c09","651c1cef634883898e7a8409","null","null","<p style=""font-size: 60px; font-family: BACS"">EtMDMhBK</p>","","","","","","","","",""
"html-keyboard-response","29","133969","0.0-8.0-0.21","608858869a591bd129fbbc6c","650c16f0f2faf8d7a0d14c09","651c1cef634883898e7a8409","null","null","<p style=""font-size: 60px; font-family: BACS"">hBmMCAPT</p>","","","","","","","","",""
"html-keyboard-response","30","134974","0.0-8.0-0.22","608858869a591bd129fbbc6c","650c16f0f2faf8d7a0d14c09","651c1cef634883898e7a8409","null","null","<p style=""font-size: 60px; font-family: BACS"">OMlTbdtK</p>","","","","","","","","",""
"html-keyboard-response","31","135979","0.0-8.0-0.23","608858869a591bd129fbbc6c","650c16f0f2faf8d7a0d14c09","651c1cef634883898e7a8409","null","null","<p style=""font-size: 60px; font-family: BACS"">BdtACAPT</p>","","","","","","","","",""
"html-keyboard-response","32","136981","0.0-8.0-0.24","608858869a591bd129fbbc6c","650c16f0f2faf8d7a0d14c09","651c1cef634883898e7a8409","null","null","<p style=""font-size: 60px; font-family: BACS"">BOCRMhBK</p>","","","","","","","","",""
"html-keyboard-response","33","137987","0.0-8.0-0.25","608858869a591bd129fbbc6c","650c16f0f2faf8d7a0d14c09","651c1cef634883898e7a8409","null","null","<p style=""font-size: 60px; font-family: BACS"">lYruarAJu</p>","","","","","","","","",""
"html-keyboard-response","34","138991","0.0-8.0-0.26","608858869a591bd129fbbc6c","650c16f0f2faf8d7a0d14c09","651c1cef634883898e7a8409","null","null","<p style=""font-size: 60px; font-family: BACS"">vQdOJcUk</p>","","","","","","","","",""
"html-keyboard-response","35","139997","0.0-8.0-0.27","608858869a591bd129fbbc6c","650c16f0f2faf8d7a0d14c09","651c1cef634883898e7a8409","null","null","<p style=""font-size: 60px; font-family: BACS"">chEDOBCAd</p>","","","","","","","","",""
"html-keyboard-response","36","141002","0.0-8.0-0.28","608858869a591bd129fbbc6c","650c16f0f2faf8d7a0d14c09","651c1cef634883898e7a8409","null","null","<p style=""font-size: 60px; font-family: BACS"">mdlaJud</p>","","","","","","","","",""
"html-keyboard-response","37","142005","0.0-8.0-0.29","608858869a591bd129fbbc6c","650c16f0f2faf8d7a0d14c09","651c1cef634883898e7a8409","null","null","<p style=""font-size: 60px; font-family: BACS"">rkYLJcUk</p>","","","","","","","","",""
"html-keyboard-response","38","143010","0.0-8.0-0.30","608858869a591bd129fbbc6c","650c16f0f2faf8d7a0d14c09","651c1cef634883898e7a8409","null","null","<p style=""font-size: 60px; font-family: BACS"">KMOchBK</p>","","","","","","","","",""
"html-keyboard-response","39","144017","0.0-8.0-0.31","608858869a591bd129fbbc6c","650c16f0f2faf8d7a0d14c09","651c1cef634883898e7a8409","null","null","<p style=""font-size: 60px; font-family: BACS"">AlUYJcUk</p>","","","","","","","","",""
"html-keyboard-response","40","145022","0.0-8.0-0.32","608858869a591bd129fbbc6c","650c16f0f2faf8d7a0d14c09","651c1cef634883898e7a8409","null","null","<p style=""font-size: 60px; font-family: BACS"">EtMDMBCAd</p>","","","","","","","","",""
"html-keyboard-response","41","146026","0.0-8.0-0.33","608858869a591bd129fbbc6c","650c16f0f2faf8d7a0d14c09","651c1cef634883898e7a8409","null","null","<p style=""font-size: 60px; font-family: BACS"">BEPOAPT</p>","","","","","","","","",""
"html-keyboard-response","42","147031","0.0-8.0-0.34","608858869a591bd129fbbc6c","650c16f0f2faf8d7a0d14c09","651c1cef634883898e7a8409","null","null","<p style=""font-size: 60px; font-family: BACS"">kPOtbdtK</p>","","","","","","","","",""
"html-keyboard-response","43","148032","0.0-8.0-0.35","608858869a591bd129fbbc6c","650c16f0f2faf8d7a0d14c09","651c1cef634883898e7a8409","null","null","<p style=""font-size: 60px; font-family: BACS"">chEDOAPT</p>","","","","","","","","",""
"html-keyboard-response","44","149033","0.0-8.0-0.36","608858869a591bd129fbbc6c","650c16f0f2faf8d7a0d14c09","651c1cef634883898e7a8409","null","null","<p style=""font-size: 60px; font-family: BACS"">vQdOcYUv</p>","","","","","","","","",""
"html-keyboard-response","45","150038","0.0-8.0-0.37","608858869a591bd129fbbc6c","650c16f0f2faf8d7a0d14c09","651c1cef634883898e7a8409","null","null","<p style=""font-size: 60px; font-family: BACS"">rLaZrAJu</p>","","","","","","","","",""
"html-keyboard-response","46","151042","0.0-8.0-0.38","608858869a591bd129fbbc6c","650c16f0f2faf8d7a0d14c09","651c1cef634883898e7a8409","null","null","<p style=""font-size: 60px; font-family: BACS"">KMOcAPT</p>","","","","","","","","",""
"html-keyboard-response","47","152048","0.0-8.0-0.39","608858869a591bd129fbbc6c","650c16f0f2faf8d7a0d14c09","651c1cef634883898e7a8409","null","null","<p style=""font-size: 60px; font-family: BACS"">hBmMCdmRb</p>","","","","","","","","",""
"html-keyboard-response","48","153050","0.0-8.0-0.40","608858869a591bd129fbbc6c","650c16f0f2faf8d7a0d14c09","651c1cef634883898e7a8409","null","null","<p style=""font-size: 60px; font-family: BACS"">krUQJud</p>","","","","","","","","",""
"html-keyboard-response","49","154055","0.0-8.0-0.41","608858869a591bd129fbbc6c","650c16f0f2faf8d7a0d14c09","651c1cef634883898e7a8409","null","null","<p style=""font-size: 60px; font-family: BACS"">rLaZcYUv</p>","","","","","","","","",""
"html-keyboard-response","50","155060","0.0-8.0-0.42","608858869a591bd129fbbc6c","650c16f0f2faf8d7a0d14c09","651c1cef634883898e7a8409","null","null","<p style=""font-size: 60px; font-family: BACS"">BEPOdmRb</p>","","","","","","","","",""
"html-keyboard-response","51","156062","0.0-8.0-0.43","608858869a591bd129fbbc6c","650c16f0f2faf8d7a0d14c09","651c1cef634883898e7a8409","null","null","<p style=""font-size: 60px; font-family: BACS"">rkYLcYUv</p>","","","","","","","","",""
"html-keyboard-response","52","157067","0.0-8.0-0.44","608858869a591bd129fbbc6c","650c16f0f2faf8d7a0d14c09","651c1cef634883898e7a8409","null","null","<p style=""font-size: 60px; font-family: BACS"">mhtchBK</p>","","","","","","","","",""
"html-keyboard-response","53","158073","0.0-8.0-0.45","608858869a591bd129fbbc6c","650c16f0f2faf8d7a0d14c09","651c1cef634883898e7a8409","null","null","<p style=""font-size: 60px; font-family: BACS"">BdtACdmRb</p>","","","","","","","","",""
"html-keyboard-response","54","159077","0.0-8.0-0.46","608858869a591bd129fbbc6c","650c16f0f2faf8d7a0d14c09","651c1cef634883898e7a8409","null","null","<p style=""font-size: 60px; font-family: BACS"">YUNkZJcUk</p>","","","","","","","","",""
"html-keyboard-response","55","160082","0.0-8.0-0.47","608858869a591bd129fbbc6c","650c16f0f2faf8d7a0d14c09","651c1cef634883898e7a8409","null","null","<p style=""font-size: 60px; font-family: BACS"">rkJucYUv</p>","","","","","","","","",""
"html-keyboard-response","56","161088","0.0-8.0-0.48","608858869a591bd129fbbc6c","650c16f0f2faf8d7a0d14c09","651c1cef634883898e7a8409","null","null","<p style=""font-size: 60px; font-family: BACS"">YUNkZmkc</p>","","","","","","","","",""
"html-keyboard-response","57","162092","0.0-8.0-0.49","608858869a591bd129fbbc6c","650c16f0f2faf8d7a0d14c09","651c1cef634883898e7a8409","null","null","<p style=""font-size: 60px; font-family: BACS"">mdlacYUv</p>","","","","","","","","",""
"html-keyboard-response","58","163092","0.0-8.0-0.50","608858869a591bd129fbbc6c","650c16f0f2faf8d7a0d14c09","651c1cef634883898e7a8409","null","null","<p style=""font-size: 60px; font-family: BACS"">rkJurAJu</p>","","","","","","","","",""
"html-keyboard-response","59","164099","0.0-8.0-0.51","608858869a591bd129fbbc6c","650c16f0f2faf8d7a0d14c09","651c1cef634883898e7a8409","null","null","<p style=""font-size: 60px; font-family: BACS"">rLaZJcUk</p>","","","","","","","","",""
"html-keyboard-response","60","165104","0.0-8.0-0.52","608858869a591bd129fbbc6c","650c16f0f2faf8d7a0d14c09","651c1cef634883898e7a8409","null","null","<p style=""font-size: 60px; font-family: BACS"">YUNkZcYUv</p>","","","","","","","","",""
"html-keyboard-response","61","166107","0.0-8.0-0.53","608858869a591bd129fbbc6c","650c16f0f2faf8d7a0d14c09","651c1cef634883898e7a8409","null","null","<p style=""font-size: 60px; font-family: BACS"">hBmMCbdtK</p>","","","","","","","","",""
"html-keyboard-response","62","167112","0.0-8.0-0.54","608858869a591bd129fbbc6c","650c16f0f2faf8d7a0d14c09","651c1cef634883898e7a8409","null","null","<p style=""font-size: 60px; font-family: BACS"">krUQrAJu</p>","","","","","","","","",""
"html-keyboard-response","63","168118","0.0-8.0-0.55","608858869a591bd129fbbc6c","650c16f0f2faf8d7a0d14c09","651c1cef634883898e7a8409","null","null","<p style=""font-size: 60px; font-family: BACS"">OMlTBCAd</p>","","","","","","","","",""
"html-keyboard-response","64","169123","0.0-8.0-0.56","608858869a591bd129fbbc6c","650c16f0f2faf8d7a0d14c09","651c1cef634883898e7a8409","null","null","<p style=""font-size: 60px; font-family: BACS"">mhtcbdtK</p>","","","","","","","","",""
"html-keyboard-response","65","170127","0.0-8.0-0.57","608858869a591bd129fbbc6c","650c16f0f2faf8d7a0d14c09","651c1cef634883898e7a8409","null","null","<p style=""font-size: 60px; font-family: BACS"">BOCRMdmRb</p>","","","","","","","","",""
"html-keyboard-response","66","171131","0.0-8.0-0.58","608858869a591bd129fbbc6c","650c16f0f2faf8d7a0d14c09","651c1cef634883898e7a8409","null","null","<p style=""font-size: 60px; font-family: BACS"">mdlamkc</p>","","","","","","","","",""
"html-keyboard-response","67","172136","0.0-8.0-0.59","608858869a591bd129fbbc6c","650c16f0f2faf8d7a0d14c09","651c1cef634883898e7a8409","null","null","<p style=""font-size: 60px; font-family: BACS"">kPOtdmRb</p>","","","","","","","","",""
"html-keyboard-response","68","173140","0.0-8.0-0.60","608858869a591bd129fbbc6c","650c16f0f2faf8d7a0d14c09","651c1cef634883898e7a8409","null","null","<p style=""font-size: 60px; font-family: BACS"">BdtACBCAd</p>","","","","","","","","",""
"html-keyboard-response","69","174145","0.0-8.0-0.61","608858869a591bd129fbbc6c","650c16f0f2faf8d7a0d14c09","651c1cef634883898e7a8409","null","null","<p style=""font-size: 60px; font-family: BACS"">rLaZmkc</p>","","","","","","","","",""
"html-keyboard-response","70","175150","0.0-8.0-0.62","608858869a591bd129fbbc6c","650c16f0f2faf8d7a0d14c09","651c1cef634883898e7a8409","null","null","<p style=""font-size: 60px; font-family: BACS"">vAuNlrAJu</p>","","","","","","","","",""
"html-keyboard-response","71","176155","0.0-8.0-0.63","608858869a591bd129fbbc6c","650c16f0f2faf8d7a0d14c09","651c1cef634883898e7a8409","null","null","<p style=""font-size: 60px; font-family: BACS"">BOCRMbdtK</p>","","","","","","","","",""
"html-keyboard-response","72","177160","0.0-8.0-0.64","608858869a591bd129fbbc6c","650c16f0f2faf8d7a0d14c09","651c1cef634883898e7a8409","null","null","<p style=""font-size: 60px; font-family: BACS"">EtMDMAPT</p>","","","","","","","","",""
"html-keyboard-response","73","178163","0.0-8.0-0.65","608858869a591bd129fbbc6c","650c16f0f2faf8d7a0d14c09","651c1cef634883898e7a8409","null","null","<p style=""font-size: 60px; font-family: BACS"">chEDObdtK</p>","","","","","","","","",""
"html-keyboard-response","74","179167","0.0-8.0-0.66","608858869a591bd129fbbc6c","650c16f0f2faf8d7a0d14c09","651c1cef634883898e7a8409","null","null","<p style=""font-size: 60px; font-family: BACS"">mhtcdmRb</p>","","","","","","","","",""
"html-keyboard-response","75","180173","0.0-8.0-0.67","608858869a591bd129fbbc6c","650c16f0f2faf8d7a0d14c09","651c1cef634883898e7a8409","null","null","<p style=""font-size: 60px; font-family: BACS"">rkYLJud</p>","","","","","","","","",""
"html-keyboard-response","76","181177","0.0-8.0-0.68","608858869a591bd129fbbc6c","650c16f0f2faf8d7a0d14c09","651c1cef634883898e7a8409","null","null","<p style=""font-size: 60px; font-family: BACS"">BdtACbdtK</p>","","","","","","","","",""
"html-keyboard-response","77","182179","0.0-8.0-0.69","608858869a591bd129fbbc6c","650c16f0f2faf8d7a0d14c09","651c1cef634883898e7a8409","null","null","<p style=""font-size: 60px; font-family: BACS"">vAuNlJcUk</p>","","","","","","","","",""
"html-keyboard-response","78","183181","0.0-8.0-0.70","608858869a591bd129fbbc6c","650c16f0f2faf8d7a0d14c09","651c1cef634883898e7a8409","null","null","<p style=""font-size: 60px; font-family: BACS"">vQdOJud</p>","","","","","","","","",""
"html-keyboard-response","79","184185","0.0-8.0-0.71","608858869a591bd129fbbc6c","650c16f0f2faf8d7a0d14c09","651c1cef634883898e7a8409","null","null","<p style=""font-size: 60px; font-family: BACS"">rkYLmkc</p>","","","","","","","","",""
"html-keyboard-response","80","185190","0.0-8.0-0.72","608858869a591bd129fbbc6c","650c16f0f2faf8d7a0d14c09","651c1cef634883898e7a8409","null","null","<p style=""font-size: 60px; font-family: BACS"">BOCRMBCAd</p>","","","","","","","","",""
"html-keyboard-response","81","186196","0.0-8.0-0.73","608858869a591bd129fbbc6c","650c16f0f2faf8d7a0d14c09","651c1cef634883898e7a8409","null","null","<p style=""font-size: 60px; font-family: BACS"">vAuNlJud</p>","","","","","","","","",""
"html-keyboard-response","82","187200","0.0-8.0-0.74","608858869a591bd129fbbc6c","650c16f0f2faf8d7a0d14c09","651c1cef634883898e7a8409","null","null","<p style=""font-size: 60px; font-family: BACS"">chEDOhBK</p>","","","","","","","","",""
"html-keyboard-response","83","188206","0.0-8.0-0.75","608858869a591bd129fbbc6c","650c16f0f2faf8d7a0d14c09","651c1cef634883898e7a8409","null","null","<p style=""font-size: 60px; font-family: BACS"">BEPOBCAd</p>","","","","","","","","",""
"html-keyboard-response","84","189210","0.0-8.0-0.76","608858869a591bd129fbbc6c","650c16f0f2faf8d7a0d14c09","651c1cef634883898e7a8409","null","null","<p style=""font-size: 60px; font-family: BACS"">AlUYJud</p>","","","","","","","","",""
"html-keyboard-response","85","190214","0.0-8.0-0.77","608858869a591bd129fbbc6c","650c16f0f2faf8d7a0d14c09","651c1cef634883898e7a8409","null","null","<p style=""font-size: 60px; font-family: BACS"">mhtcBCAd</p>","","","","","","","","",""
"html-keyboard-response","86","191216","0.0-8.0-0.78","608858869a591bd129fbbc6c","650c16f0f2faf8d7a0d14c09","651c1cef634883898e7a8409","null","null","<p style=""font-size: 60px; font-family: BACS"">kPOtAPT</p>","","","","","","","","",""
"html-keyboard-response","87","192221","0.0-8.0-0.79","608858869a591bd129fbbc6c","650c16f0f2faf8d7a0d14c09","651c1cef634883898e7a8409","null","null","<p style=""font-size: 60px; font-family: BACS"">lYruaJud</p>","","","","","","","","",""
"html-keyboard-response","88","201858","0.0-9.0","608858869a591bd129fbbc6c","650c16f0f2faf8d7a0d14c09","651c1cef634883898e7a8409","9637"," ","<p>Great, you've seen the first block of words. You may now take a short break.</p>
      <p>Press the spacebar when you're ready to continue.</p>","","","","","","","","",""
"html-keyboard-response","89","202864","0.0-10.0-0.0","608858869a591bd129fbbc6c","650c16f0f2faf8d7a0d14c09","651c1cef634883898e7a8409","null","null","<p style=""font-size: 60px; font-family: BACS"">KMOcAPT</p>","","","","","","","","",""
"html-keyboard-response","90","203869","0.0-10.0-0.1","608858869a591bd129fbbc6c","650c16f0f2faf8d7a0d14c09","651c1cef634883898e7a8409","null","null","<p style=""font-size: 60px; font-family: BACS"">BOCRMBCAd</p>","","","","","","","","",""
"html-keyboard-response","91","204871","0.0-10.0-0.2","608858869a591bd129fbbc6c","650c16f0f2faf8d7a0d14c09","651c1cef634883898e7a8409","null","null","<p style=""font-size: 60px; font-family: BACS"">mdlamkc</p>","","","","","","","","",""
"html-keyboard-response","92","205876","0.0-10.0-0.3","608858869a591bd129fbbc6c","650c16f0f2faf8d7a0d14c09","651c1cef634883898e7a8409","null","null","<p style=""font-size: 60px; font-family: BACS"">mhtcdmRb</p>","","","","","","","","",""
"html-keyboard-response","93","206880","0.0-10.0-0.4","608858869a591bd129fbbc6c","650c16f0f2faf8d7a0d14c09","651c1cef634883898e7a8409","null","null","<p style=""font-size: 60px; font-family: BACS"">BdtACAPT</p>","","","","","","","","",""
"html-keyboard-response","94","207885","0.0-10.0-0.5","608858869a591bd129fbbc6c","650c16f0f2faf8d7a0d14c09","651c1cef634883898e7a8409","null","null","<p style=""font-size: 60px; font-family: BACS"">mhtcBCAd</p>","","","","","","","","",""
"html-keyboard-response","95","208889","0.0-10.0-0.6","608858869a591bd129fbbc6c","650c16f0f2faf8d7a0d14c09","651c1cef634883898e7a8409","null","null","<p style=""font-size: 60px; font-family: BACS"">mdlaJud</p>","","","","","","","","",""
"html-keyboard-response","96","209893","0.0-10.0-0.7","608858869a591bd129fbbc6c","650c16f0f2faf8d7a0d14c09","651c1cef634883898e7a8409","null","null","<p style=""font-size: 60px; font-family: BACS"">vAuNlrAJu</p>","","","","","","","","",""
"html-keyboard-response","97","210896","0.0-10.0-0.8","608858869a591bd129fbbc6c","650c16f0f2faf8d7a0d14c09","651c1cef634883898e7a8409","null","null","<p style=""font-size: 60px; font-family: BACS"">rkJuJud</p>","","","","","","","","",""
"html-keyboard-response","98","211903","0.0-10.0-0.9","608858869a591bd129fbbc6c","650c16f0f2faf8d7a0d14c09","651c1cef634883898e7a8409","null","null","<p style=""font-size: 60px; font-family: BACS"">mdlaJcUk</p>","","","","","","","","",""
"html-keyboard-response","99","212906","0.0-10.0-0.10","608858869a591bd129fbbc6c","650c16f0f2faf8d7a0d14c09","651c1cef634883898e7a8409","null","null","<p style=""font-size: 60px; font-family: BACS"">EtMDMAPT</p>","","","","","","","","",""
"html-keyboard-response","100","213906","0.0-10.0-0.11","608858869a591bd129fbbc6c","650c16f0f2faf8d7a0d14c09","651c1cef634883898e7a8409","null","null","<p style=""font-size: 60px; font-family: BACS"">rkYLcYUv</p>","","","","","","","","",""
"html-keyboard-response","101","214910","0.0-10.0-0.12","608858869a591bd129fbbc6c","650c16f0f2faf8d7a0d14c09","651c1cef634883898e7a8409","null","null","<p style=""font-size: 60px; font-family: BACS"">OMlTBCAd</p>","","","","","","","","",""
"html-keyboard-response","102","215914","0.0-10.0-0.13","608858869a591bd129fbbc6c","650c16f0f2faf8d7a0d14c09","651c1cef634883898e7a8409","null","null","<p style=""font-size: 60px; font-family: BACS"">AlUYmkc</p>","","","","","","","","",""
"html-keyboard-response","103","216919","0.0-10.0-0.14","608858869a591bd129fbbc6c","650c16f0f2faf8d7a0d14c09","651c1cef634883898e7a8409","null","null","<p style=""font-size: 60px; font-family: BACS"">YUNkZrAJu</p>","","","","","","","","",""
"html-keyboard-response","104","217925","0.0-10.0-0.15","608858869a591bd129fbbc6c","650c16f0f2faf8d7a0d14c09","651c1cef634883898e7a8409","null","null","<p style=""font-size: 60px; font-family: BACS"">BdtACBCAd</p>","","","","","","","","",""
"html-keyboard-response","105","218927","0.0-10.0-0.16","608858869a591bd129fbbc6c","650c16f0f2faf8d7a0d14c09","651c1cef634883898e7a8409","null","null","<p style=""font-size: 60px; font-family: BACS"">AlUYJcUk</p>","","","","","","","","",""
"html-keyboard-response","106","219931","0.0-10.0-0.17","608858869a591bd129fbbc6c","650c16f0f2faf8d7a0d14c09","651c1cef634883898e7a8409","null","null","<p style=""font-size: 60px; font-family: BACS"">rkYLJud</p>","","","","","","","","",""
"html-keyboard-response","107","220936","0.0-10.0-0.18","608858869a591bd129fbbc6c","650c16f0f2faf8d7a0d14c09","651c1cef634883898e7a8409","null","null","<p style=""font-size: 60px; font-family: BACS"">KMOchBK</p>","","","","","","","","",""
"html-keyboard-response","108","221942","0.0-10.0-0.19","608858869a591bd129fbbc6c","650c16f0f2faf8d7a0d14c09","651c1cef634883898e7a8409","null","null","<p style=""font-size: 60px; font-family: BACS"">OMlTbdtK</p>","","","","","","","","",""
"html-keyboard-response","109","222947","0.0-10.0-0.20","608858869a591bd129fbbc6c","650c16f0f2faf8d7a0d14c09","651c1cef634883898e7a8409","null","null","<p style=""font-size: 60px; font-family: BACS"">hBmMCdmRb</p>","","","","","","","","",""
"html-keyboard-response","110","223953","0.0-10.0-0.21","608858869a591bd129fbbc6c","650c16f0f2faf8d7a0d14c09","651c1cef634883898e7a8409","null","null","<p style=""font-size: 60px; font-family: BACS"">chEDOBCAd</p>","","","","","","","","",""
"html-keyboard-response","111","224961","0.0-10.0-0.22","608858869a591bd129fbbc6c","650c16f0f2faf8d7a0d14c09","651c1cef634883898e7a8409","null","null","<p style=""font-size: 60px; font-family: BACS"">lYruaJud</p>","","","","","","","","",""
"html-keyboard-response","112","225964","0.0-10.0-0.23","608858869a591bd129fbbc6c","650c16f0f2faf8d7a0d14c09","651c1cef634883898e7a8409","null","null","<p style=""font-size: 60px; font-family: BACS"">vQdOJcUk</p>","","","","","","","","",""
"html-keyboard-response","113","226971","0.0-10.0-0.24","608858869a591bd129fbbc6c","650c16f0f2faf8d7a0d14c09","651c1cef634883898e7a8409","null","null","<p style=""font-size: 60px; font-family: BACS"">kPOthBK</p>","","","","","","","","",""
"html-keyboard-response","114","227976","0.0-10.0-0.25","608858869a591bd129fbbc6c","650c16f0f2faf8d7a0d14c09","651c1cef634883898e7a8409","null","null","<p style=""font-size: 60px; font-family: BACS"">OMlTdmRb</p>","","","","","","","","",""
"html-keyboard-response","115","228981","0.0-10.0-0.26","608858869a591bd129fbbc6c","650c16f0f2faf8d7a0d14c09","651c1cef634883898e7a8409","null","null","<p style=""font-size: 60px; font-family: BACS"">hBmMCbdtK</p>","","","","","","","","",""
"html-keyboard-response","116","229986","0.0-10.0-0.27","608858869a591bd129fbbc6c","650c16f0f2faf8d7a0d14c09","651c1cef634883898e7a8409","null","null","<p style=""font-size: 60px; font-family: BACS"">vAuNlJud</p>","","","","","","","","",""
"html-keyboard-response","117","230990","0.0-10.0-0.28","608858869a591bd129fbbc6c","650c16f0f2faf8d7a0d14c09","651c1cef634883898e7a8409","null","null","<p style=""font-size: 60px; font-family: BACS"">rkJucYUv</p>","","","","","","","","",""
"html-keyboard-response","118","231995","0.0-10.0-0.29","608858869a591bd129fbbc6c","650c16f0f2faf8d7a0d14c09","651c1cef634883898e7a8409","null","null","<p style=""font-size: 60px; font-family: BACS"">BOCRMbdtK</p>","","","","","","","","",""
"html-keyboard-response","119","232999","0.0-10.0-0.30","608858869a591bd129fbbc6c","650c16f0f2faf8d7a0d14c09","651c1cef634883898e7a8409","null","null","<p style=""font-size: 60px; font-family: BACS"">rkYLmkc</p>","","","","","","","","",""
"html-keyboard-response","120","234004","0.0-10.0-0.31","608858869a591bd129fbbc6c","650c16f0f2faf8d7a0d14c09","651c1cef634883898e7a8409","null","null","<p style=""font-size: 60px; font-family: BACS"">BEPOdmRb</p>","","","","","","","","",""
"html-keyboard-response","121","235010","0.0-10.0-0.32","608858869a591bd129fbbc6c","650c16f0f2faf8d7a0d14c09","651c1cef634883898e7a8409","null","null","<p style=""font-size: 60px; font-family: BACS"">YUNkZJcUk</p>","","","","","","","","",""
"html-keyboard-response","122","236015","0.0-10.0-0.33","608858869a591bd129fbbc6c","650c16f0f2faf8d7a0d14c09","651c1cef634883898e7a8409","null","null","<p style=""font-size: 60px; font-family: BACS"">EtMDMhBK</p>","","","","","","","","",""
"html-keyboard-response","123","237020","0.0-10.0-0.34","608858869a591bd129fbbc6c","650c16f0f2faf8d7a0d14c09","651c1cef634883898e7a8409","null","null","<p style=""font-size: 60px; font-family: BACS"">kPOtAPT</p>","","","","","","","","",""
"html-keyboard-response","124","238026","0.0-10.0-0.35","608858869a591bd129fbbc6c","650c16f0f2faf8d7a0d14c09","651c1cef634883898e7a8409","null","null","<p style=""font-size: 60px; font-family: BACS"">EtMDMBCAd</p>","","","","","","","","",""
"html-keyboard-response","125","239029","0.0-10.0-0.36","608858869a591bd129fbbc6c","650c16f0f2faf8d7a0d14c09","651c1cef634883898e7a8409","null","null","<p style=""font-size: 60px; font-family: BACS"">rkYLJcUk</p>","","","","","","","","",""
"html-keyboard-response","126","240034","0.0-10.0-0.37","608858869a591bd129fbbc6c","650c16f0f2faf8d7a0d14c09","651c1cef634883898e7a8409","null","null","<p style=""font-size: 60px; font-family: BACS"">KMOcBCAd</p>","","","","","","","","",""
"html-keyboard-response","127","241039","0.0-10.0-0.38","608858869a591bd129fbbc6c","650c16f0f2faf8d7a0d14c09","651c1cef634883898e7a8409","null","null","<p style=""font-size: 60px; font-family: BACS"">BOCRMdmRb</p>","","","","","","","","",""
"html-keyboard-response","128","242044","0.0-10.0-0.39","608858869a591bd129fbbc6c","650c16f0f2faf8d7a0d14c09","651c1cef634883898e7a8409","null","null","<p style=""font-size: 60px; font-family: BACS"">chEDOAPT</p>","","","","","","","","",""
"html-keyboard-response","129","243049","0.0-10.0-0.40","608858869a591bd129fbbc6c","650c16f0f2faf8d7a0d14c09","651c1cef634883898e7a8409","null","null","<p style=""font-size: 60px; font-family: BACS"">krUQrAJu</p>","","","","","","","","",""
"html-keyboard-response","130","244055","0.0-10.0-0.41","608858869a591bd129fbbc6c","650c16f0f2faf8d7a0d14c09","651c1cef634883898e7a8409","null","null","<p style=""font-size: 60px; font-family: BACS"">rLaZmkc</p>","","","","","","","","",""
"html-keyboard-response","131","245055","0.0-10.0-0.42","608858869a591bd129fbbc6c","650c16f0f2faf8d7a0d14c09","651c1cef634883898e7a8409","null","null","<p style=""font-size: 60px; font-family: BACS"">vAuNlJcUk</p>","","","","","","","","",""
"html-keyboard-response","132","246061","0.0-10.0-0.43","608858869a591bd129fbbc6c","650c16f0f2faf8d7a0d14c09","651c1cef634883898e7a8409","null","null","<p style=""font-size: 60px; font-family: BACS"">lYruarAJu</p>","","","","","","","","",""
"html-keyboard-response","133","247062","0.0-10.0-0.44","608858869a591bd129fbbc6c","650c16f0f2faf8d7a0d14c09","651c1cef634883898e7a8409","null","null","<p style=""font-size: 60px; font-family: BACS"">vQdOJud</p>","","","","","","","","",""
"html-keyboard-response","134","248068","0.0-10.0-0.45","608858869a591bd129fbbc6c","650c16f0f2faf8d7a0d14c09","651c1cef634883898e7a8409","null","null","<p style=""font-size: 60px; font-family: BACS"">rLaZrAJu</p>","","","","","","","","",""
"html-keyboard-response","135","249074","0.0-10.0-0.46","608858869a591bd129fbbc6c","650c16f0f2faf8d7a0d14c09","651c1cef634883898e7a8409","null","null","<p style=""font-size: 60px; font-family: BACS"">krUQJud</p>","","","","","","","","",""
"html-keyboard-response","136","250079","0.0-10.0-0.47","608858869a591bd129fbbc6c","650c16f0f2faf8d7a0d14c09","651c1cef634883898e7a8409","null","null","<p style=""font-size: 60px; font-family: BACS"">mhtcbdtK</p>","","","","","","","","",""
"html-keyboard-response","137","251083","0.0-10.0-0.48","608858869a591bd129fbbc6c","650c16f0f2faf8d7a0d14c09","651c1cef634883898e7a8409","null","null","<p style=""font-size: 60px; font-family: BACS"">mdlacYUv</p>","","","","","","","","",""
"html-keyboard-response","138","252089","0.0-10.0-0.49","608858869a591bd129fbbc6c","650c16f0f2faf8d7a0d14c09","651c1cef634883898e7a8409","null","null","<p style=""font-size: 60px; font-family: BACS"">krUQmkc</p>","","","","","","","","",""
"html-keyboard-response","139","253095","0.0-10.0-0.50","608858869a591bd129fbbc6c","650c16f0f2faf8d7a0d14c09","651c1cef634883898e7a8409","null","null","<p style=""font-size: 60px; font-family: BACS"">kPOtdmRb</p>","","","","","","","","",""
"html-keyboard-response","140","254097","0.0-10.0-0.51","608858869a591bd129fbbc6c","650c16f0f2faf8d7a0d14c09","651c1cef634883898e7a8409","null","null","<p style=""font-size: 60px; font-family: BACS"">mhtchBK</p>","","","","","","","","",""
"html-keyboard-response","141","255100","0.0-10.0-0.52","608858869a591bd129fbbc6c","650c16f0f2faf8d7a0d14c09","651c1cef634883898e7a8409","null","null","<p style=""font-size: 60px; font-family: BACS"">hBmMCAPT</p>","","","","","","","","",""
"html-keyboard-response","142","256106","0.0-10.0-0.53","608858869a591bd129fbbc6c","650c16f0f2faf8d7a0d14c09","651c1cef634883898e7a8409","null","null","<p style=""font-size: 60px; font-family: BACS"">rkJurAJu</p>","","","","","","","","",""
"html-keyboard-response","143","257111","0.0-10.0-0.54","608858869a591bd129fbbc6c","650c16f0f2faf8d7a0d14c09","651c1cef634883898e7a8409","null","null","<p style=""font-size: 60px; font-family: BACS"">BdtACbdtK</p>","","","","","","","","",""
"html-keyboard-response","144","258115","0.0-10.0-0.55","608858869a591bd129fbbc6c","650c16f0f2faf8d7a0d14c09","651c1cef634883898e7a8409","null","null","<p style=""font-size: 60px; font-family: BACS"">OMlTAPT</p>","","","","","","","","",""
"html-keyboard-response","145","259119","0.0-10.0-0.56","608858869a591bd129fbbc6c","650c16f0f2faf8d7a0d14c09","651c1cef634883898e7a8409","null","null","<p style=""font-size: 60px; font-family: BACS"">lYruacYUv</p>","","","","","","","","",""
"html-keyboard-response","146","260124","0.0-10.0-0.57","608858869a591bd129fbbc6c","650c16f0f2faf8d7a0d14c09","651c1cef634883898e7a8409","null","null","<p style=""font-size: 60px; font-family: BACS"">kPOtbdtK</p>","","","","","","","","",""
"html-keyboard-response","147","261130","0.0-10.0-0.58","608858869a591bd129fbbc6c","650c16f0f2faf8d7a0d14c09","651c1cef634883898e7a8409","null","null","<p style=""font-size: 60px; font-family: BACS"">YUNkZcYUv</p>","","","","","","","","",""
"html-keyboard-response","148","262131","0.0-10.0-0.59","608858869a591bd129fbbc6c","650c16f0f2faf8d7a0d14c09","651c1cef634883898e7a8409","null","null","<p style=""font-size: 60px; font-family: BACS"">BOCRMhBK</p>","","","","","","","","",""
"html-keyboard-response","149","263134","0.0-10.0-0.60","608858869a591bd129fbbc6c","650c16f0f2faf8d7a0d14c09","651c1cef634883898e7a8409","null","null","<p style=""font-size: 60px; font-family: BACS"">AlUYrAJu</p>","","","","","","","","",""
"html-keyboard-response","150","264135","0.0-10.0-0.61","608858869a591bd129fbbc6c","650c16f0f2faf8d7a0d14c09","651c1cef634883898e7a8409","null","null","<p style=""font-size: 60px; font-family: BACS"">rkJuJcUk</p>","","","","","","","","",""
"html-keyboard-response","151","265141","0.0-10.0-0.62","608858869a591bd129fbbc6c","650c16f0f2faf8d7a0d14c09","651c1cef634883898e7a8409","null","null","<p style=""font-size: 60px; font-family: BACS"">chEDOhBK</p>","","","","","","","","",""
"html-keyboard-response","152","266146","0.0-10.0-0.63","608858869a591bd129fbbc6c","650c16f0f2faf8d7a0d14c09","651c1cef634883898e7a8409","null","null","<p style=""font-size: 60px; font-family: BACS"">BdtACdmRb</p>","","","","","","","","",""
"html-keyboard-response","153","267150","0.0-10.0-0.64","608858869a591bd129fbbc6c","650c16f0f2faf8d7a0d14c09","651c1cef634883898e7a8409","null","null","<p style=""font-size: 60px; font-family: BACS"">lYruamkc</p>","","","","","","","","",""
"html-keyboard-response","154","268152","0.0-10.0-0.65","608858869a591bd129fbbc6c","650c16f0f2faf8d7a0d14c09","651c1cef634883898e7a8409","null","null","<p style=""font-size: 60px; font-family: BACS"">BEPOAPT</p>","","","","","","","","",""
"html-keyboard-response","155","269157","0.0-10.0-0.66","608858869a591bd129fbbc6c","650c16f0f2faf8d7a0d14c09","651c1cef634883898e7a8409","null","null","<p style=""font-size: 60px; font-family: BACS"">AlUYJud</p>","","","","","","","","",""
"html-keyboard-response","156","270163","0.0-10.0-0.67","608858869a591bd129fbbc6c","650c16f0f2faf8d7a0d14c09","651c1cef634883898e7a8409","null","null","<p style=""font-size: 60px; font-family: BACS"">KMOcbdtK</p>","","","","","","","","",""
"html-keyboard-response","157","271167","0.0-10.0-0.68","608858869a591bd129fbbc6c","650c16f0f2faf8d7a0d14c09","651c1cef634883898e7a8409","null","null","<p style=""font-size: 60px; font-family: BACS"">vQdOcYUv</p>","","","","","","","","",""
"html-keyboard-response","158","272173","0.0-10.0-0.69","608858869a591bd129fbbc6c","650c16f0f2faf8d7a0d14c09","651c1cef634883898e7a8409","null","null","<p style=""font-size: 60px; font-family: BACS"">YUNkZmkc</p>","","","","","","","","",""
"html-keyboard-response","159","273178","0.0-10.0-0.70","608858869a591bd129fbbc6c","650c16f0f2faf8d7a0d14c09","651c1cef634883898e7a8409","null","null","<p style=""font-size: 60px; font-family: BACS"">EtMDMdmRb</p>","","","","","","","","",""
"html-keyboard-response","160","274184","0.0-10.0-0.71","608858869a591bd129fbbc6c","650c16f0f2faf8d7a0d14c09","651c1cef634883898e7a8409","null","null","<p style=""font-size: 60px; font-family: BACS"">BEPOBCAd</p>","","","","","","","","",""
"html-keyboard-response","161","275187","0.0-10.0-0.72","608858869a591bd129fbbc6c","650c16f0f2faf8d7a0d14c09","651c1cef634883898e7a8409","null","null","<p style=""font-size: 60px; font-family: BACS"">rLaZcYUv</p>","","","","","","","","",""
"html-keyboard-response","162","276191","0.0-10.0-0.73","608858869a591bd129fbbc6c","650c16f0f2faf8d7a0d14c09","651c1cef634883898e7a8409","null","null","<p style=""font-size: 60px; font-family: BACS"">chEDObdtK</p>","","","","","","","","",""
"html-keyboard-response","163","277194","0.0-10.0-0.74","608858869a591bd129fbbc6c","650c16f0f2faf8d7a0d14c09","651c1cef634883898e7a8409","null","null","<p style=""font-size: 60px; font-family: BACS"">krUQcYUv</p>","","","","","","","","",""
"html-keyboard-response","164","278199","0.0-10.0-0.75","608858869a591bd129fbbc6c","650c16f0f2faf8d7a0d14c09","651c1cef634883898e7a8409","null","null","<p style=""font-size: 60px; font-family: BACS"">vQdOrAJu</p>","","","","","","","","",""
"html-keyboard-response","165","279205","0.0-10.0-0.76","608858869a591bd129fbbc6c","650c16f0f2faf8d7a0d14c09","651c1cef634883898e7a8409","null","null","<p style=""font-size: 60px; font-family: BACS"">vAuNlmkc</p>","","","","","","","","",""
"html-keyboard-response","166","280210","0.0-10.0-0.77","608858869a591bd129fbbc6c","650c16f0f2faf8d7a0d14c09","651c1cef634883898e7a8409","null","null","<p style=""font-size: 60px; font-family: BACS"">BEPOhBK</p>","","","","","","","","",""
"html-keyboard-response","167","281215","0.0-10.0-0.78","608858869a591bd129fbbc6c","650c16f0f2faf8d7a0d14c09","651c1cef634883898e7a8409","null","null","<p style=""font-size: 60px; font-family: BACS"">rLaZJcUk</p>","","","","","","","","",""
"html-keyboard-response","168","282219","0.0-10.0-0.79","608858869a591bd129fbbc6c","650c16f0f2faf8d7a0d14c09","651c1cef634883898e7a8409","null","null","<p style=""font-size: 60px; font-family: BACS"">hBmMChBK</p>","","","","","","","","",""
"html-keyboard-response","169","288273","0.0-11.0","608858869a591bd129fbbc6c","650c16f0f2faf8d7a0d14c09","651c1cef634883898e7a8409","6054"," ","<p>Great, you've seen the second block of words. You may now take a short break.</p>
      <p>Press the spacebar when you're ready to continue.</p>","","","","","","","","",""
"html-keyboard-response","170","289281","0.0-12.0-0.0","608858869a591bd129fbbc6c","650c16f0f2faf8d7a0d14c09","651c1cef634883898e7a8409","null","null","<p style=""font-size: 60px; font-family: BACS"">YUNkZrAJu</p>","","","","","","","","",""
"html-keyboard-response","171","290285","0.0-12.0-0.1","608858869a591bd129fbbc6c","650c16f0f2faf8d7a0d14c09","651c1cef634883898e7a8409","null","null","<p style=""font-size: 60px; font-family: BACS"">vQdOJcUk</p>","","","","","","","","",""
"html-keyboard-response","172","291290","0.0-12.0-0.2","608858869a591bd129fbbc6c","650c16f0f2faf8d7a0d14c09","651c1cef634883898e7a8409","null","null","<p style=""font-size: 60px; font-family: BACS"">EtMDMdmRb</p>","","","","","","","","",""
"html-keyboard-response","173","292296","0.0-12.0-0.3","608858869a591bd129fbbc6c","650c16f0f2faf8d7a0d14c09","651c1cef634883898e7a8409","null","null","<p style=""font-size: 60px; font-family: BACS"">rkYLJcUk</p>","","","","","","","","",""
"html-keyboard-response","174","293299","0.0-12.0-0.4","608858869a591bd129fbbc6c","650c16f0f2faf8d7a0d14c09","651c1cef634883898e7a8409","null","null","<p style=""font-size: 60px; font-family: BACS"">EtMDMhBK</p>","","","","","","","","",""
"html-keyboard-response","175","294303","0.0-12.0-0.5","608858869a591bd129fbbc6c","650c16f0f2faf8d7a0d14c09","651c1cef634883898e7a8409","null","null","<p style=""font-size: 60px; font-family: BACS"">rLaZcYUv</p>","","","","","","","","",""
"html-keyboard-response","176","295308","0.0-12.0-0.6","608858869a591bd129fbbc6c","650c16f0f2faf8d7a0d14c09","651c1cef634883898e7a8409","null","null","<p style=""font-size: 60px; font-family: BACS"">kPOtdmRb</p>","","","","","","","","",""
"html-keyboard-response","177","296311","0.0-12.0-0.7","608858869a591bd129fbbc6c","650c16f0f2faf8d7a0d14c09","651c1cef634883898e7a8409","null","null","<p style=""font-size: 60px; font-family: BACS"">krUQrAJu</p>","","","","","","","","",""
"html-keyboard-response","178","297315","0.0-12.0-0.8","608858869a591bd129fbbc6c","650c16f0f2faf8d7a0d14c09","651c1cef634883898e7a8409","null","null","<p style=""font-size: 60px; font-family: BACS"">mdlacYUv</p>","","","","","","","","",""
"html-keyboard-response","179","298319","0.0-12.0-0.9","608858869a591bd129fbbc6c","650c16f0f2faf8d7a0d14c09","651c1cef634883898e7a8409","null","null","<p style=""font-size: 60px; font-family: BACS"">BOCRMBCAd</p>","","","","","","","","",""
"html-keyboard-response","180","299324","0.0-12.0-0.10","608858869a591bd129fbbc6c","650c16f0f2faf8d7a0d14c09","651c1cef634883898e7a8409","null","null","<p style=""font-size: 60px; font-family: BACS"">BdtACdmRb</p>","","","","","","","","",""
"html-keyboard-response","181","300330","0.0-12.0-0.11","608858869a591bd129fbbc6c","650c16f0f2faf8d7a0d14c09","651c1cef634883898e7a8409","null","null","<p style=""font-size: 60px; font-family: BACS"">mhtcBCAd</p>","","","","","","","","",""
"html-keyboard-response","182","301333","0.0-12.0-0.12","608858869a591bd129fbbc6c","650c16f0f2faf8d7a0d14c09","651c1cef634883898e7a8409","null","null","<p style=""font-size: 60px; font-family: BACS"">vQdOcYUv</p>","","","","","","","","",""
"html-keyboard-response","183","302337","0.0-12.0-0.13","608858869a591bd129fbbc6c","650c16f0f2faf8d7a0d14c09","651c1cef634883898e7a8409","null","null","<p style=""font-size: 60px; font-family: BACS"">kPOtbdtK</p>","","","","","","","","",""
"html-keyboard-response","184","303342","0.0-12.0-0.14","608858869a591bd129fbbc6c","650c16f0f2faf8d7a0d14c09","651c1cef634883898e7a8409","null","null","<p style=""font-size: 60px; font-family: BACS"">OMlTBCAd</p>","","","","","","","","",""
"html-keyboard-response","185","304347","0.0-12.0-0.15","608858869a591bd129fbbc6c","650c16f0f2faf8d7a0d14c09","651c1cef634883898e7a8409","null","null","<p style=""font-size: 60px; font-family: BACS"">rLaZrAJu</p>","","","","","","","","",""
"html-keyboard-response","186","305350","0.0-12.0-0.16","608858869a591bd129fbbc6c","650c16f0f2faf8d7a0d14c09","651c1cef634883898e7a8409","null","null","<p style=""font-size: 60px; font-family: BACS"">lYruamkc</p>","","","","","","","","",""
"html-keyboard-response","187","306354","0.0-12.0-0.17","608858869a591bd129fbbc6c","650c16f0f2faf8d7a0d14c09","651c1cef634883898e7a8409","null","null","<p style=""font-size: 60px; font-family: BACS"">KMOcAPT</p>","","","","","","","","",""
"html-keyboard-response","188","307359","0.0-12.0-0.18","608858869a591bd129fbbc6c","650c16f0f2faf8d7a0d14c09","651c1cef634883898e7a8409","null","null","<p style=""font-size: 60px; font-family: BACS"">OMlTbdtK</p>","","","","","","","","",""
"html-keyboard-response","189","308364","0.0-12.0-0.19","608858869a591bd129fbbc6c","650c16f0f2faf8d7a0d14c09","651c1cef634883898e7a8409","null","null","<p style=""font-size: 60px; font-family: BACS"">vAuNlmkc</p>","","","","","","","","",""
"html-keyboard-response","190","309367","0.0-12.0-0.20","608858869a591bd129fbbc6c","650c16f0f2faf8d7a0d14c09","651c1cef634883898e7a8409","null","null","<p style=""font-size: 60px; font-family: BACS"">hBmMCAPT</p>","","","","","","","","",""
"html-keyboard-response","191","310371","0.0-12.0-0.21","608858869a591bd129fbbc6c","650c16f0f2faf8d7a0d14c09","651c1cef634883898e7a8409","null","null","<p style=""font-size: 60px; font-family: BACS"">lYruacYUv</p>","","","","","","","","",""
"html-keyboard-response","192","311376","0.0-12.0-0.22","608858869a591bd129fbbc6c","650c16f0f2faf8d7a0d14c09","651c1cef634883898e7a8409","null","null","<p style=""font-size: 60px; font-family: BACS"">BdtACbdtK</p>","","","","","","","","",""
"html-keyboard-response","193","312382","0.0-12.0-0.23","608858869a591bd129fbbc6c","650c16f0f2faf8d7a0d14c09","651c1cef634883898e7a8409","null","null","<p style=""font-size: 60px; font-family: BACS"">KMOcBCAd</p>","","","","","","","","",""
"html-keyboard-response","194","313384","0.0-12.0-0.24","608858869a591bd129fbbc6c","650c16f0f2faf8d7a0d14c09","651c1cef634883898e7a8409","null","null","<p style=""font-size: 60px; font-family: BACS"">AlUYmkc</p>","","","","","","","","",""
"html-keyboard-response","195","314390","0.0-12.0-0.25","608858869a591bd129fbbc6c","650c16f0f2faf8d7a0d14c09","651c1cef634883898e7a8409","null","null","<p style=""font-size: 60px; font-family: BACS"">mdlaJud</p>","","","","","","","","",""
"html-keyboard-response","196","315396","0.0-12.0-0.26","608858869a591bd129fbbc6c","650c16f0f2faf8d7a0d14c09","651c1cef634883898e7a8409","null","null","<p style=""font-size: 60px; font-family: BACS"">KMOchBK</p>","","","","","","","","",""
"html-keyboard-response","197","316401","0.0-12.0-0.27","608858869a591bd129fbbc6c","650c16f0f2faf8d7a0d14c09","651c1cef634883898e7a8409","null","null","<p style=""font-size: 60px; font-family: BACS"">BEPOAPT</p>","","","","","","","","",""
"html-keyboard-response","198","317405","0.0-12.0-0.28","608858869a591bd129fbbc6c","650c16f0f2faf8d7a0d14c09","651c1cef634883898e7a8409","null","null","<p style=""font-size: 60px; font-family: BACS"">chEDObdtK</p>","","","","","","","","",""
"html-keyboard-response","199","318409","0.0-12.0-0.29","608858869a591bd129fbbc6c","650c16f0f2faf8d7a0d14c09","651c1cef634883898e7a8409","null","null","<p style=""font-size: 60px; font-family: BACS"">YUNkZcYUv</p>","","","","","","","","",""
"html-keyboard-response","200","319415","0.0-12.0-0.30","608858869a591bd129fbbc6c","650c16f0f2faf8d7a0d14c09","651c1cef634883898e7a8409","null","null","<p style=""font-size: 60px; font-family: BACS"">rLaZmkc</p>","","","","","","","","",""
"html-keyboard-response","201","320418","0.0-12.0-0.31","608858869a591bd129fbbc6c","650c16f0f2faf8d7a0d14c09","651c1cef634883898e7a8409","null","null","<p style=""font-size: 60px; font-family: BACS"">hBmMCbdtK</p>","","","","","","","","",""
"html-keyboard-response","202","321420","0.0-12.0-0.32","608858869a591bd129fbbc6c","650c16f0f2faf8d7a0d14c09","651c1cef634883898e7a8409","null","null","<p style=""font-size: 60px; font-family: BACS"">mdlamkc</p>","","","","","","","","",""
"html-keyboard-response","203","322422","0.0-12.0-0.33","608858869a591bd129fbbc6c","650c16f0f2faf8d7a0d14c09","651c1cef634883898e7a8409","null","null","<p style=""font-size: 60px; font-family: BACS"">BdtACBCAd</p>","","","","","","","","",""
"html-keyboard-response","204","323426","0.0-12.0-0.34","608858869a591bd129fbbc6c","650c16f0f2faf8d7a0d14c09","651c1cef634883898e7a8409","null","null","<p style=""font-size: 60px; font-family: BACS"">vAuNlJud</p>","","","","","","","","",""
"html-keyboard-response","205","324431","0.0-12.0-0.35","608858869a591bd129fbbc6c","650c16f0f2faf8d7a0d14c09","651c1cef634883898e7a8409","null","null","<p style=""font-size: 60px; font-family: BACS"">YUNkZmkc</p>","","","","","","","","",""
"html-keyboard-response","206","325435","0.0-12.0-0.36","608858869a591bd129fbbc6c","650c16f0f2faf8d7a0d14c09","651c1cef634883898e7a8409","null","null","<p style=""font-size: 60px; font-family: BACS"">krUQcYUv</p>","","","","","","","","",""
"html-keyboard-response","207","326438","0.0-12.0-0.37","608858869a591bd129fbbc6c","650c16f0f2faf8d7a0d14c09","651c1cef634883898e7a8409","null","null","<p style=""font-size: 60px; font-family: BACS"">mhtcbdtK</p>","","","","","","","","",""
"html-keyboard-response","208","327440","0.0-12.0-0.38","608858869a591bd129fbbc6c","650c16f0f2faf8d7a0d14c09","651c1cef634883898e7a8409","null","null","<p style=""font-size: 60px; font-family: BACS"">lYruaJud</p>","","","","","","","","",""
"html-keyboard-response","209","328443","0.0-12.0-0.39","608858869a591bd129fbbc6c","650c16f0f2faf8d7a0d14c09","651c1cef634883898e7a8409","null","null","<p style=""font-size: 60px; font-family: BACS"">BEPOdmRb</p>","","","","","","","","",""
"html-keyboard-response","210","329448","0.0-12.0-0.40","608858869a591bd129fbbc6c","650c16f0f2faf8d7a0d14c09","651c1cef634883898e7a8409","null","null","<p style=""font-size: 60px; font-family: BACS"">BdtACAPT</p>","","","","","","","","",""
"html-keyboard-response","211","330452","0.0-12.0-0.41","608858869a591bd129fbbc6c","650c16f0f2faf8d7a0d14c09","651c1cef634883898e7a8409","null","null","<p style=""font-size: 60px; font-family: BACS"">mhtchBK</p>","","","","","","","","",""
"html-keyboard-response","212","331458","0.0-12.0-0.42","608858869a591bd129fbbc6c","650c16f0f2faf8d7a0d14c09","651c1cef634883898e7a8409","null","null","<p style=""font-size: 60px; font-family: BACS"">vQdOJud</p>","","","","","","","","",""
"html-keyboard-response","213","332463","0.0-12.0-0.43","608858869a591bd129fbbc6c","650c16f0f2faf8d7a0d14c09","651c1cef634883898e7a8409","null","null","<p style=""font-size: 60px; font-family: BACS"">chEDOBCAd</p>","","","","","","","","",""
"html-keyboard-response","214","333469","0.0-12.0-0.44","608858869a591bd129fbbc6c","650c16f0f2faf8d7a0d14c09","651c1cef634883898e7a8409","null","null","<p style=""font-size: 60px; font-family: BACS"">rkYLcYUv</p>","","","","","","","","",""
"html-keyboard-response","215","334475","0.0-12.0-0.45","608858869a591bd129fbbc6c","650c16f0f2faf8d7a0d14c09","651c1cef634883898e7a8409","null","null","<p style=""font-size: 60px; font-family: BACS"">chEDOAPT</p>","","","","","","","","",""
"html-keyboard-response","216","335481","0.0-12.0-0.46","608858869a591bd129fbbc6c","650c16f0f2faf8d7a0d14c09","651c1cef634883898e7a8409","null","null","<p style=""font-size: 60px; font-family: BACS"">krUQJud</p>","","","","","","","","",""
"html-keyboard-response","217","336486","0.0-12.0-0.47","608858869a591bd129fbbc6c","650c16f0f2faf8d7a0d14c09","651c1cef634883898e7a8409","null","null","<p style=""font-size: 60px; font-family: BACS"">EtMDMAPT</p>","","","","","","","","",""
"html-keyboard-response","218","337491","0.0-12.0-0.48","608858869a591bd129fbbc6c","650c16f0f2faf8d7a0d14c09","651c1cef634883898e7a8409","null","null","<p style=""font-size: 60px; font-family: BACS"">rkYLmkc</p>","","","","","","","","",""
"html-keyboard-response","219","338497","0.0-12.0-0.49","608858869a591bd129fbbc6c","650c16f0f2faf8d7a0d14c09","651c1cef634883898e7a8409","null","null","<p style=""font-size: 60px; font-family: BACS"">vQdOrAJu</p>","","","","","","","","",""
"html-keyboard-response","220","339499","0.0-12.0-0.50","608858869a591bd129fbbc6c","650c16f0f2faf8d7a0d14c09","651c1cef634883898e7a8409","null","null","<p style=""font-size: 60px; font-family: BACS"">BEPOBCAd</p>","","","","","","","","",""
"html-keyboard-response","221","340502","0.0-12.0-0.51","608858869a591bd129fbbc6c","650c16f0f2faf8d7a0d14c09","651c1cef634883898e7a8409","null","null","<p style=""font-size: 60px; font-family: BACS"">OMlTAPT</p>","","","","","","","","",""
"html-keyboard-response","222","341509","0.0-12.0-0.52","608858869a591bd129fbbc6c","650c16f0f2faf8d7a0d14c09","651c1cef634883898e7a8409","null","null","<p style=""font-size: 60px; font-family: BACS"">BOCRMhBK</p>","","","","","","","","",""
"html-keyboard-response","223","342514","0.0-12.0-0.53","608858869a591bd129fbbc6c","650c16f0f2faf8d7a0d14c09","651c1cef634883898e7a8409","null","null","<p style=""font-size: 60px; font-family: BACS"">AlUYJcUk</p>","","","","","","","","",""
"html-keyboard-response","224","343519","0.0-12.0-0.54","608858869a591bd129fbbc6c","650c16f0f2faf8d7a0d14c09","651c1cef634883898e7a8409","null","null","<p style=""font-size: 60px; font-family: BACS"">kPOtAPT</p>","","","","","","","","",""
"html-keyboard-response","225","344524","0.0-12.0-0.55","608858869a591bd129fbbc6c","650c16f0f2faf8d7a0d14c09","651c1cef634883898e7a8409","null","null","<p style=""font-size: 60px; font-family: BACS"">rkJucYUv</p>","","","","","","","","",""
"html-keyboard-response","226","345530","0.0-12.0-0.56","608858869a591bd129fbbc6c","650c16f0f2faf8d7a0d14c09","651c1cef634883898e7a8409","null","null","<p style=""font-size: 60px; font-family: BACS"">lYruarAJu</p>","","","","","","","","",""
"html-keyboard-response","227","346535","0.0-12.0-0.57","608858869a591bd129fbbc6c","650c16f0f2faf8d7a0d14c09","651c1cef634883898e7a8409","null","null","<p style=""font-size: 60px; font-family: BACS"">KMOcbdtK</p>","","","","","","","","",""
"html-keyboard-response","228","347539","0.0-12.0-0.58","608858869a591bd129fbbc6c","650c16f0f2faf8d7a0d14c09","651c1cef634883898e7a8409","null","null","<p style=""font-size: 60px; font-family: BACS"">BEPOhBK</p>","","","","","","","","",""
"html-keyboard-response","229","348545","0.0-12.0-0.59","608858869a591bd129fbbc6c","650c16f0f2faf8d7a0d14c09","651c1cef634883898e7a8409","null","null","<p style=""font-size: 60px; font-family: BACS"">rkJurAJu</p>","","","","","","","","",""
"html-keyboard-response","230","349551","0.0-12.0-0.60","608858869a591bd129fbbc6c","650c16f0f2faf8d7a0d14c09","651c1cef634883898e7a8409","null","null","<p style=""font-size: 60px; font-family: BACS"">hBmMChBK</p>","","","","","","","","",""
"html-keyboard-response","231","350554","0.0-12.0-0.61","608858869a591bd129fbbc6c","650c16f0f2faf8d7a0d14c09","651c1cef634883898e7a8409","null","null","<p style=""font-size: 60px; font-family: BACS"">YUNkZJcUk</p>","","","","","","","","",""
"html-keyboard-response","232","351559","0.0-12.0-0.62","608858869a591bd129fbbc6c","650c16f0f2faf8d7a0d14c09","651c1cef634883898e7a8409","null","null","<p style=""font-size: 60px; font-family: BACS"">rkYLJud</p>","","","","","","","","",""
"html-keyboard-response","233","352565","0.0-12.0-0.63","608858869a591bd129fbbc6c","650c16f0f2faf8d7a0d14c09","651c1cef634883898e7a8409","null","null","<p style=""font-size: 60px; font-family: BACS"">BOCRMdmRb</p>","","","","","","","","",""
"html-keyboard-response","234","353570","0.0-12.0-0.64","608858869a591bd129fbbc6c","650c16f0f2faf8d7a0d14c09","651c1cef634883898e7a8409","null","null","<p style=""font-size: 60px; font-family: BACS"">EtMDMBCAd</p>","","","","","","","","",""
"html-keyboard-response","235","354576","0.0-12.0-0.65","608858869a591bd129fbbc6c","650c16f0f2faf8d7a0d14c09","651c1cef634883898e7a8409","null","null","<p style=""font-size: 60px; font-family: BACS"">chEDOhBK</p>","","","","","","","","",""
"html-keyboard-response","236","355582","0.0-12.0-0.66","608858869a591bd129fbbc6c","650c16f0f2faf8d7a0d14c09","651c1cef634883898e7a8409","null","null","<p style=""font-size: 60px; font-family: BACS"">AlUYrAJu</p>","","","","","","","","",""
"html-keyboard-response","237","356587","0.0-12.0-0.67","608858869a591bd129fbbc6c","650c16f0f2faf8d7a0d14c09","651c1cef634883898e7a8409","null","null","<p style=""font-size: 60px; font-family: BACS"">mdlaJcUk</p>","","","","","","","","",""
"html-keyboard-response","238","357593","0.0-12.0-0.68","608858869a591bd129fbbc6c","650c16f0f2faf8d7a0d14c09","651c1cef634883898e7a8409","null","null","<p style=""font-size: 60px; font-family: BACS"">BOCRMbdtK</p>","","","","","","","","",""
"html-keyboard-response","239","358597","0.0-12.0-0.69","608858869a591bd129fbbc6c","650c16f0f2faf8d7a0d14c09","651c1cef634883898e7a8409","null","null","<p style=""font-size: 60px; font-family: BACS"">kPOthBK</p>","","","","","","","","",""
"html-keyboard-response","240","359603","0.0-12.0-0.70","608858869a591bd129fbbc6c","650c16f0f2faf8d7a0d14c09","651c1cef634883898e7a8409","null","null","<p style=""font-size: 60px; font-family: BACS"">rLaZJcUk</p>","","","","","","","","",""
"html-keyboard-response","241","360609","0.0-12.0-0.71","608858869a591bd129fbbc6c","650c16f0f2faf8d7a0d14c09","651c1cef634883898e7a8409","null","null","<p style=""font-size: 60px; font-family: BACS"">rkJuJud</p>","","","","","","","","",""
"html-keyboard-response","242","361611","0.0-12.0-0.72","608858869a591bd129fbbc6c","650c16f0f2faf8d7a0d14c09","651c1cef634883898e7a8409","null","null","<p style=""font-size: 60px; font-family: BACS"">vAuNlJcUk</p>","","","","","","","","",""
"html-keyboard-response","243","362617","0.0-12.0-0.73","608858869a591bd129fbbc6c","650c16f0f2faf8d7a0d14c09","651c1cef634883898e7a8409","null","null","<p style=""font-size: 60px; font-family: BACS"">krUQmkc</p>","","","","","","","","",""
"html-keyboard-response","244","363621","0.0-12.0-0.74","608858869a591bd129fbbc6c","650c16f0f2faf8d7a0d14c09","651c1cef634883898e7a8409","null","null","<p style=""font-size: 60px; font-family: BACS"">mhtcdmRb</p>","","","","","","","","",""
"html-keyboard-response","245","364626","0.0-12.0-0.75","608858869a591bd129fbbc6c","650c16f0f2faf8d7a0d14c09","651c1cef634883898e7a8409","null","null","<p style=""font-size: 60px; font-family: BACS"">rkJuJcUk</p>","","","","","","","","",""
"html-keyboard-response","246","365632","0.0-12.0-0.76","608858869a591bd129fbbc6c","650c16f0f2faf8d7a0d14c09","651c1cef634883898e7a8409","null","null","<p style=""font-size: 60px; font-family: BACS"">OMlTdmRb</p>","","","","","","","","",""
"html-keyboard-response","247","366638","0.0-12.0-0.77","608858869a591bd129fbbc6c","650c16f0f2faf8d7a0d14c09","651c1cef634883898e7a8409","null","null","<p style=""font-size: 60px; font-family: BACS"">vAuNlrAJu</p>","","","","","","","","",""
"html-keyboard-response","248","367638","0.0-12.0-0.78","608858869a591bd129fbbc6c","650c16f0f2faf8d7a0d14c09","651c1cef634883898e7a8409","null","null","<p style=""font-size: 60px; font-family: BACS"">AlUYJud</p>","","","","","","","","",""
"html-keyboard-response","249","368644","0.0-12.0-0.79","608858869a591bd129fbbc6c","650c16f0f2faf8d7a0d14c09","651c1cef634883898e7a8409","null","null","<p style=""font-size: 60px; font-family: BACS"">hBmMCdmRb</p>","","","","","","","","",""
"html-keyboard-response","250","372760","0.0-13.0","608858869a591bd129fbbc6c","650c16f0f2faf8d7a0d14c09","651c1cef634883898e7a8409","4116"," ","<p>Great, you've seen the third block of words. You may now take a short break.</p>
      <p>Press the spacebar when you're ready to continue.</p>","","","","","","","","",""
"html-keyboard-response","251","373764","0.0-14.0-0.0","608858869a591bd129fbbc6c","650c16f0f2faf8d7a0d14c09","651c1cef634883898e7a8409","null","null","<p style=""font-size: 60px; font-family: BACS"">BdtACdmRb</p>","","","","","","","","",""
"html-keyboard-response","252","374770","0.0-14.0-0.1","608858869a591bd129fbbc6c","650c16f0f2faf8d7a0d14c09","651c1cef634883898e7a8409","null","null","<p style=""font-size: 60px; font-family: BACS"">mdlamkc</p>","","","","","","","","",""
"html-keyboard-response","253","375772","0.0-14.0-0.2","608858869a591bd129fbbc6c","650c16f0f2faf8d7a0d14c09","651c1cef634883898e7a8409","null","null","<p style=""font-size: 60px; font-family: BACS"">EtMDMBCAd</p>","","","","","","","","",""
"html-keyboard-response","254","376776","0.0-14.0-0.3","608858869a591bd129fbbc6c","650c16f0f2faf8d7a0d14c09","651c1cef634883898e7a8409","null","null","<p style=""font-size: 60px; font-family: BACS"">mdlaJud</p>","","","","","","","","",""
"html-keyboard-response","255","377781","0.0-14.0-0.4","608858869a591bd129fbbc6c","650c16f0f2faf8d7a0d14c09","651c1cef634883898e7a8409","null","null","<p style=""font-size: 60px; font-family: BACS"">BOCRMdmRb</p>","","","","","","","","",""
"html-keyboard-response","256","378786","0.0-14.0-0.5","608858869a591bd129fbbc6c","650c16f0f2faf8d7a0d14c09","651c1cef634883898e7a8409","null","null","<p style=""font-size: 60px; font-family: BACS"">AlUYJud</p>","","","","","","","","",""
"html-keyboard-response","257","379791","0.0-14.0-0.6","608858869a591bd129fbbc6c","650c16f0f2faf8d7a0d14c09","651c1cef634883898e7a8409","null","null","<p style=""font-size: 60px; font-family: BACS"">YUNkZmkc</p>","","","","","","","","",""
"html-keyboard-response","258","380795","0.0-14.0-0.7","608858869a591bd129fbbc6c","650c16f0f2faf8d7a0d14c09","651c1cef634883898e7a8409","null","null","<p style=""font-size: 60px; font-family: BACS"">rkYLJcUk</p>","","","","","","","","",""
"html-keyboard-response","259","381800","0.0-14.0-0.8","608858869a591bd129fbbc6c","650c16f0f2faf8d7a0d14c09","651c1cef634883898e7a8409","null","null","<p style=""font-size: 60px; font-family: BACS"">lYruamkc</p>","","","","","","","","",""
"html-keyboard-response","260","382805","0.0-14.0-0.9","608858869a591bd129fbbc6c","650c16f0f2faf8d7a0d14c09","651c1cef634883898e7a8409","null","null","<p style=""font-size: 60px; font-family: BACS"">rLaZcYUv</p>","","","","","","","","",""
"html-keyboard-response","261","383809","0.0-14.0-0.10","608858869a591bd129fbbc6c","650c16f0f2faf8d7a0d14c09","651c1cef634883898e7a8409","null","null","<p style=""font-size: 60px; font-family: BACS"">chEDOBCAd</p>","","","","","","","","",""
"html-keyboard-response","262","384815","0.0-14.0-0.11","608858869a591bd129fbbc6c","650c16f0f2faf8d7a0d14c09","651c1cef634883898e7a8409","null","null","<p style=""font-size: 60px; font-family: BACS"">mhtcdmRb</p>","","","","","","","","",""
"html-keyboard-response","263","385820","0.0-14.0-0.12","608858869a591bd129fbbc6c","650c16f0f2faf8d7a0d14c09","651c1cef634883898e7a8409","null","null","<p style=""font-size: 60px; font-family: BACS"">YUNkZrAJu</p>","","","","","","","","",""
"html-keyboard-response","264","386824","0.0-14.0-0.13","608858869a591bd129fbbc6c","650c16f0f2faf8d7a0d14c09","651c1cef634883898e7a8409","null","null","<p style=""font-size: 60px; font-family: BACS"">krUQJud</p>","","","","","","","","",""
"html-keyboard-response","265","387828","0.0-14.0-0.14","608858869a591bd129fbbc6c","650c16f0f2faf8d7a0d14c09","651c1cef634883898e7a8409","null","null","<p style=""font-size: 60px; font-family: BACS"">chEDOhBK</p>","","","","","","","","",""
"html-keyboard-response","266","388834","0.0-14.0-0.15","608858869a591bd129fbbc6c","650c16f0f2faf8d7a0d14c09","651c1cef634883898e7a8409","null","null","<p style=""font-size: 60px; font-family: BACS"">rLaZrAJu</p>","","","","","","","","",""
"html-keyboard-response","267","389840","0.0-14.0-0.16","608858869a591bd129fbbc6c","650c16f0f2faf8d7a0d14c09","651c1cef634883898e7a8409","null","null","<p style=""font-size: 60px; font-family: BACS"">mhtchBK</p>","","","","","","","","",""
"html-keyboard-response","268","390844","0.0-14.0-0.17","608858869a591bd129fbbc6c","650c16f0f2faf8d7a0d14c09","651c1cef634883898e7a8409","null","null","<p style=""font-size: 60px; font-family: BACS"">rkJuJud</p>","","","","","","","","",""
"html-keyboard-response","269","391849","0.0-14.0-0.18","608858869a591bd129fbbc6c","650c16f0f2faf8d7a0d14c09","651c1cef634883898e7a8409","null","null","<p style=""font-size: 60px; font-family: BACS"">BOCRMhBK</p>","","","","","","","","",""
"html-keyboard-response","270","392855","0.0-14.0-0.19","608858869a591bd129fbbc6c","650c16f0f2faf8d7a0d14c09","651c1cef634883898e7a8409","null","null","<p style=""font-size: 60px; font-family: BACS"">mhtcBCAd</p>","","","","","","","","",""
"html-keyboard-response","271","393859","0.0-14.0-0.20","608858869a591bd129fbbc6c","650c16f0f2faf8d7a0d14c09","651c1cef634883898e7a8409","null","null","<p style=""font-size: 60px; font-family: BACS"">hBmMCAPT</p>","","","","","","","","",""
"html-keyboard-response","272","394864","0.0-14.0-0.21","608858869a591bd129fbbc6c","650c16f0f2faf8d7a0d14c09","651c1cef634883898e7a8409","null","null","<p style=""font-size: 60px; font-family: BACS"">vAuNlJcUk</p>","","","","","","","","",""
"html-keyboard-response","273","395869","0.0-14.0-0.22","608858869a591bd129fbbc6c","650c16f0f2faf8d7a0d14c09","651c1cef634883898e7a8409","null","null","<p style=""font-size: 60px; font-family: BACS"">vQdOcYUv</p>","","","","","","","","",""
"html-keyboard-response","274","396873","0.0-14.0-0.23","608858869a591bd129fbbc6c","650c16f0f2faf8d7a0d14c09","651c1cef634883898e7a8409","null","null","<p style=""font-size: 60px; font-family: BACS"">BEPOdmRb</p>","","","","","","","","",""
"html-keyboard-response","275","397878","0.0-14.0-0.24","608858869a591bd129fbbc6c","650c16f0f2faf8d7a0d14c09","651c1cef634883898e7a8409","null","null","<p style=""font-size: 60px; font-family: BACS"">vQdOJcUk</p>","","","","","","","","",""
"html-keyboard-response","276","398882","0.0-14.0-0.25","608858869a591bd129fbbc6c","650c16f0f2faf8d7a0d14c09","651c1cef634883898e7a8409","null","null","<p style=""font-size: 60px; font-family: BACS"">mdlacYUv</p>","","","","","","","","",""
"html-keyboard-response","277","399888","0.0-14.0-0.26","608858869a591bd129fbbc6c","650c16f0f2faf8d7a0d14c09","651c1cef634883898e7a8409","null","null","<p style=""font-size: 60px; font-family: BACS"">KMOcBCAd</p>","","","","","","","","",""
"html-keyboard-response","278","400893","0.0-14.0-0.27","608858869a591bd129fbbc6c","650c16f0f2faf8d7a0d14c09","651c1cef634883898e7a8409","null","null","<p style=""font-size: 60px; font-family: BACS"">YUNkZcYUv</p>","","","","","","","","",""
"html-keyboard-response","279","401896","0.0-14.0-0.28","608858869a591bd129fbbc6c","650c16f0f2faf8d7a0d14c09","651c1cef634883898e7a8409","null","null","<p style=""font-size: 60px; font-family: BACS"">rkJuJcUk</p>","","","","","","","","",""
"html-keyboard-response","280","402901","0.0-14.0-0.29","608858869a591bd129fbbc6c","650c16f0f2faf8d7a0d14c09","651c1cef634883898e7a8409","null","null","<p style=""font-size: 60px; font-family: BACS"">KMOcAPT</p>","","","","","","","","",""
"html-keyboard-response","281","403902","0.0-14.0-0.30","608858869a591bd129fbbc6c","650c16f0f2faf8d7a0d14c09","651c1cef634883898e7a8409","null","null","<p style=""font-size: 60px; font-family: BACS"">EtMDMhBK</p>","","","","","","","","",""
"html-keyboard-response","282","404908","0.0-14.0-0.31","608858869a591bd129fbbc6c","650c16f0f2faf8d7a0d14c09","651c1cef634883898e7a8409","null","null","<p style=""font-size: 60px; font-family: BACS"">OMlTAPT</p>","","","","","","","","",""
"html-keyboard-response","283","405913","0.0-14.0-0.32","608858869a591bd129fbbc6c","650c16f0f2faf8d7a0d14c09","651c1cef634883898e7a8409","null","null","<p style=""font-size: 60px; font-family: BACS"">krUQmkc</p>","","","","","","","","",""
"html-keyboard-response","284","406919","0.0-14.0-0.33","608858869a591bd129fbbc6c","650c16f0f2faf8d7a0d14c09","651c1cef634883898e7a8409","null","null","<p style=""font-size: 60px; font-family: BACS"">vQdOrAJu</p>","","","","","","","","",""
"html-keyboard-response","285","407923","0.0-14.0-0.34","608858869a591bd129fbbc6c","650c16f0f2faf8d7a0d14c09","651c1cef634883898e7a8409","null","null","<p style=""font-size: 60px; font-family: BACS"">mdlaJcUk</p>","","","","","","","","",""
"html-keyboard-response","286","408927","0.0-14.0-0.35","608858869a591bd129fbbc6c","650c16f0f2faf8d7a0d14c09","651c1cef634883898e7a8409","null","null","<p style=""font-size: 60px; font-family: BACS"">EtMDMdmRb</p>","","","","","","","","",""
"html-keyboard-response","287","409933","0.0-14.0-0.36","608858869a591bd129fbbc6c","650c16f0f2faf8d7a0d14c09","651c1cef634883898e7a8409","null","null","<p style=""font-size: 60px; font-family: BACS"">BOCRMbdtK</p>","","","","","","","","",""
"html-keyboard-response","288","410939","0.0-14.0-0.37","608858869a591bd129fbbc6c","650c16f0f2faf8d7a0d14c09","651c1cef634883898e7a8409","null","null","<p style=""font-size: 60px; font-family: BACS"">kPOtAPT</p>","","","","","","","","",""
"html-keyboard-response","289","411944","0.0-14.0-0.38","608858869a591bd129fbbc6c","650c16f0f2faf8d7a0d14c09","651c1cef634883898e7a8409","null","null","<p style=""font-size: 60px; font-family: BACS"">rkYLJud</p>","","","","","","","","",""
"html-keyboard-response","290","412949","0.0-14.0-0.39","608858869a591bd129fbbc6c","650c16f0f2faf8d7a0d14c09","651c1cef634883898e7a8409","null","null","<p style=""font-size: 60px; font-family: BACS"">kPOtbdtK</p>","","","","","","","","",""
"html-keyboard-response","291","413955","0.0-14.0-0.40","608858869a591bd129fbbc6c","650c16f0f2faf8d7a0d14c09","651c1cef634883898e7a8409","null","null","<p style=""font-size: 60px; font-family: BACS"">lYruaJud</p>","","","","","","","","",""
"html-keyboard-response","292","414960","0.0-14.0-0.41","608858869a591bd129fbbc6c","650c16f0f2faf8d7a0d14c09","651c1cef634883898e7a8409","null","null","<p style=""font-size: 60px; font-family: BACS"">chEDObdtK</p>","","","","","","","","",""
"html-keyboard-response","293","415965","0.0-14.0-0.42","608858869a591bd129fbbc6c","650c16f0f2faf8d7a0d14c09","651c1cef634883898e7a8409","null","null","<p style=""font-size: 60px; font-family: BACS"">vQdOJud</p>","","","","","","","","",""
"html-keyboard-response","294","416971","0.0-14.0-0.43","608858869a591bd129fbbc6c","650c16f0f2faf8d7a0d14c09","651c1cef634883898e7a8409","null","null","<p style=""font-size: 60px; font-family: BACS"">krUQrAJu</p>","","","","","","","","",""
"html-keyboard-response","295","417977","0.0-14.0-0.44","608858869a591bd129fbbc6c","650c16f0f2faf8d7a0d14c09","651c1cef634883898e7a8409","null","null","<p style=""font-size: 60px; font-family: BACS"">AlUYmkc</p>","","","","","","","","",""
"html-keyboard-response","296","418981","0.0-14.0-0.45","608858869a591bd129fbbc6c","650c16f0f2faf8d7a0d14c09","651c1cef634883898e7a8409","null","null","<p style=""font-size: 60px; font-family: BACS"">rLaZJcUk</p>","","","","","","","","",""
"html-keyboard-response","297","419986","0.0-14.0-0.46","608858869a591bd129fbbc6c","650c16f0f2faf8d7a0d14c09","651c1cef634883898e7a8409","null","null","<p style=""font-size: 60px; font-family: BACS"">AlUYrAJu</p>","","","","","","","","",""
"html-keyboard-response","298","420992","0.0-14.0-0.47","608858869a591bd129fbbc6c","650c16f0f2faf8d7a0d14c09","651c1cef634883898e7a8409","null","null","<p style=""font-size: 60px; font-family: BACS"">krUQcYUv</p>","","","","","","","","",""
"html-keyboard-response","299","421995","0.0-14.0-0.48","608858869a591bd129fbbc6c","650c16f0f2faf8d7a0d14c09","651c1cef634883898e7a8409","null","null","<p style=""font-size: 60px; font-family: BACS"">AlUYJcUk</p>","","","","","","","","",""
"html-keyboard-response","300","423001","0.0-14.0-0.49","608858869a591bd129fbbc6c","650c16f0f2faf8d7a0d14c09","651c1cef634883898e7a8409","null","null","<p style=""font-size: 60px; font-family: BACS"">BdtACbdtK</p>","","","","","","","","",""
"html-keyboard-response","301","424006","0.0-14.0-0.50","608858869a591bd129fbbc6c","650c16f0f2faf8d7a0d14c09","651c1cef634883898e7a8409","null","null","<p style=""font-size: 60px; font-family: BACS"">lYruacYUv</p>","","","","","","","","",""
"html-keyboard-response","302","425012","0.0-14.0-0.51","608858869a591bd129fbbc6c","650c16f0f2faf8d7a0d14c09","651c1cef634883898e7a8409","null","null","<p style=""font-size: 60px; font-family: BACS"">KMOchBK</p>","","","","","","","","",""
"html-keyboard-response","303","426012","0.0-14.0-0.52","608858869a591bd129fbbc6c","650c16f0f2faf8d7a0d14c09","651c1cef634883898e7a8409","null","null","<p style=""font-size: 60px; font-family: BACS"">chEDOAPT</p>","","","","","","","","",""
"html-keyboard-response","304","427018","0.0-14.0-0.53","608858869a591bd129fbbc6c","650c16f0f2faf8d7a0d14c09","651c1cef634883898e7a8409","null","null","<p style=""font-size: 60px; font-family: BACS"">rLaZmkc</p>","","","","","","","","",""
"html-keyboard-response","305","428021","0.0-14.0-0.54","608858869a591bd129fbbc6c","650c16f0f2faf8d7a0d14c09","651c1cef634883898e7a8409","null","null","<p style=""font-size: 60px; font-family: BACS"">EtMDMAPT</p>","","","","","","","","",""
"html-keyboard-response","306","429025","0.0-14.0-0.55","608858869a591bd129fbbc6c","650c16f0f2faf8d7a0d14c09","651c1cef634883898e7a8409","null","null","<p style=""font-size: 60px; font-family: BACS"">vAuNlrAJu</p>","","","","","","","","",""
"html-keyboard-response","307","430030","0.0-14.0-0.56","608858869a591bd129fbbc6c","650c16f0f2faf8d7a0d14c09","651c1cef634883898e7a8409","null","null","<p style=""font-size: 60px; font-family: BACS"">rkJucYUv</p>","","","","","","","","",""
"html-keyboard-response","308","431034","0.0-14.0-0.57","608858869a591bd129fbbc6c","650c16f0f2faf8d7a0d14c09","651c1cef634883898e7a8409","null","null","<p style=""font-size: 60px; font-family: BACS"">BEPOAPT</p>","","","","","","","","",""
"html-keyboard-response","309","432041","0.0-14.0-0.58","608858869a591bd129fbbc6c","650c16f0f2faf8d7a0d14c09","651c1cef634883898e7a8409","null","null","<p style=""font-size: 60px; font-family: BACS"">OMlTBCAd</p>","","","","","","","","",""
"html-keyboard-response","310","433045","0.0-14.0-0.59","608858869a591bd129fbbc6c","650c16f0f2faf8d7a0d14c09","651c1cef634883898e7a8409","null","null","<p style=""font-size: 60px; font-family: BACS"">BEPOhBK</p>","","","","","","","","",""
"html-keyboard-response","311","434052","0.0-14.0-0.60","608858869a591bd129fbbc6c","650c16f0f2faf8d7a0d14c09","651c1cef634883898e7a8409","null","null","<p style=""font-size: 60px; font-family: BACS"">BdtACBCAd</p>","","","","","","","","",""
"html-keyboard-response","312","435057","0.0-14.0-0.61","608858869a591bd129fbbc6c","650c16f0f2faf8d7a0d14c09","651c1cef634883898e7a8409","null","null","<p style=""font-size: 60px; font-family: BACS"">kPOthBK</p>","","","","","","","","",""
"html-keyboard-response","313","436062","0.0-14.0-0.62","608858869a591bd129fbbc6c","650c16f0f2faf8d7a0d14c09","651c1cef634883898e7a8409","null","null","<p style=""font-size: 60px; font-family: BACS"">BEPOBCAd</p>","","","","","","","","",""
"html-keyboard-response","314","437068","0.0-14.0-0.63","608858869a591bd129fbbc6c","650c16f0f2faf8d7a0d14c09","651c1cef634883898e7a8409","null","null","<p style=""font-size: 60px; font-family: BACS"">BdtACAPT</p>","","","","","","","","",""
"html-keyboard-response","315","438074","0.0-14.0-0.64","608858869a591bd129fbbc6c","650c16f0f2faf8d7a0d14c09","651c1cef634883898e7a8409","null","null","<p style=""font-size: 60px; font-family: BACS"">hBmMCbdtK</p>","","","","","","","","",""
"html-keyboard-response","316","439076","0.0-14.0-0.65","608858869a591bd129fbbc6c","650c16f0f2faf8d7a0d14c09","651c1cef634883898e7a8409","null","null","<p style=""font-size: 60px; font-family: BACS"">vAuNlmkc</p>","","","","","","","","",""
"html-keyboard-response","317","440081","0.0-14.0-0.66","608858869a591bd129fbbc6c","650c16f0f2faf8d7a0d14c09","651c1cef634883898e7a8409","null","null","<p style=""font-size: 60px; font-family: BACS"">OMlTbdtK</p>","","","","","","","","",""
"html-keyboard-response","318","441086","0.0-14.0-0.67","608858869a591bd129fbbc6c","650c16f0f2faf8d7a0d14c09","651c1cef634883898e7a8409","null","null","<p style=""font-size: 60px; font-family: BACS"">lYruarAJu</p>","","","","","","","","",""
"html-keyboard-response","319","442091","0.0-14.0-0.68","608858869a591bd129fbbc6c","650c16f0f2faf8d7a0d14c09","651c1cef634883898e7a8409","null","null","<p style=""font-size: 60px; font-family: BACS"">rkYLmkc</p>","","","","","","","","",""
"html-keyboard-response","320","443094","0.0-14.0-0.69","608858869a591bd129fbbc6c","650c16f0f2faf8d7a0d14c09","651c1cef634883898e7a8409","null","null","<p style=""font-size: 60px; font-family: BACS"">BOCRMBCAd</p>","","","","","","","","",""
"html-keyboard-response","321","444098","0.0-14.0-0.70","608858869a591bd129fbbc6c","650c16f0f2faf8d7a0d14c09","651c1cef634883898e7a8409","null","null","<p style=""font-size: 60px; font-family: BACS"">kPOtdmRb</p>","","","","","","","","",""
"html-keyboard-response","322","445102","0.0-14.0-0.71","608858869a591bd129fbbc6c","650c16f0f2faf8d7a0d14c09","651c1cef634883898e7a8409","null","null","<p style=""font-size: 60px; font-family: BACS"">rkYLcYUv</p>","","","","","","","","",""
"html-keyboard-response","323","446109","0.0-14.0-0.72","608858869a591bd129fbbc6c","650c16f0f2faf8d7a0d14c09","651c1cef634883898e7a8409","null","null","<p style=""font-size: 60px; font-family: BACS"">OMlTdmRb</p>","","","","","","","","",""
"html-keyboard-response","324","447113","0.0-14.0-0.73","608858869a591bd129fbbc6c","650c16f0f2faf8d7a0d14c09","651c1cef634883898e7a8409","null","null","<p style=""font-size: 60px; font-family: BACS"">YUNkZJcUk</p>","","","","","","","","",""
"html-keyboard-response","325","448119","0.0-14.0-0.74","608858869a591bd129fbbc6c","650c16f0f2faf8d7a0d14c09","651c1cef634883898e7a8409","null","null","<p style=""font-size: 60px; font-family: BACS"">vAuNlJud</p>","","","","","","","","",""
"html-keyboard-response","326","449124","0.0-14.0-0.75","608858869a591bd129fbbc6c","650c16f0f2faf8d7a0d14c09","651c1cef634883898e7a8409","null","null","<p style=""font-size: 60px; font-family: BACS"">rkJurAJu</p>","","","","","","","","",""
"html-keyboard-response","327","450128","0.0-14.0-0.76","608858869a591bd129fbbc6c","650c16f0f2faf8d7a0d14c09","651c1cef634883898e7a8409","null","null","<p style=""font-size: 60px; font-family: BACS"">hBmMCdmRb</p>","","","","","","","","",""
"html-keyboard-response","328","451132","0.0-14.0-0.77","608858869a591bd129fbbc6c","650c16f0f2faf8d7a0d14c09","651c1cef634883898e7a8409","null","null","<p style=""font-size: 60px; font-family: BACS"">mhtcbdtK</p>","","","","","","","","",""
"html-keyboard-response","329","452139","0.0-14.0-0.78","608858869a591bd129fbbc6c","650c16f0f2faf8d7a0d14c09","651c1cef634883898e7a8409","null","null","<p style=""font-size: 60px; font-family: BACS"">hBmMChBK</p>","","","","","","","","",""
"html-keyboard-response","330","453144","0.0-14.0-0.79","608858869a591bd129fbbc6c","650c16f0f2faf8d7a0d14c09","651c1cef634883898e7a8409","null","null","<p style=""font-size: 60px; font-family: BACS"">KMOcbdtK</p>","","","","","","","","",""
"html-keyboard-response","331","489641","0.0-15.0","608858869a591bd129fbbc6c","650c16f0f2faf8d7a0d14c09","651c1cef634883898e7a8409","36496"," ","<p>Great, you've seen the fourth block of words. You may now take a short break.</p>
      <p>Press the spacebar when you're ready to continue.</p>","","","","","","","","",""
"html-keyboard-response","332","490644","0.0-16.0-0.0","608858869a591bd129fbbc6c","650c16f0f2faf8d7a0d14c09","651c1cef634883898e7a8409","null","null","<p style=""font-size: 60px; font-family: BACS"">lYruaJud</p>","","","","","","","","",""
"html-keyboard-response","333","491648","0.0-16.0-0.1","608858869a591bd129fbbc6c","650c16f0f2faf8d7a0d14c09","651c1cef634883898e7a8409","null","null","<p style=""font-size: 60px; font-family: BACS"">lYruaJud</p>","","","","","","","","",""
"html-keyboard-response","334","492651","0.0-16.0-0.2","608858869a591bd129fbbc6c","650c16f0f2faf8d7a0d14c09","651c1cef634883898e7a8409","null","null","<p style=""font-size: 60px; font-family: BACS"">lYruaJud</p>","","","","","","","","",""
"html-keyboard-response","335","493656","0.0-16.0-0.3","608858869a591bd129fbbc6c","650c16f0f2faf8d7a0d14c09","651c1cef634883898e7a8409","null","null","<p style=""font-size: 60px; font-family: BACS"">lYruaJud</p>","","","","","","","","",""
"html-keyboard-response","336","494662","0.0-16.0-0.4","608858869a591bd129fbbc6c","650c16f0f2faf8d7a0d14c09","651c1cef634883898e7a8409","null","null","<p style=""font-size: 60px; font-family: BACS"">lYruaJud</p>","","","","","","","","",""
"html-keyboard-response","337","495666","0.0-16.0-0.5","608858869a591bd129fbbc6c","650c16f0f2faf8d7a0d14c09","651c1cef634883898e7a8409","null","null","<p style=""font-size: 60px; font-family: BACS"">lYruaJud</p>","","","","","","","","",""
"html-keyboard-response","338","496672","0.0-16.0-0.6","608858869a591bd129fbbc6c","650c16f0f2faf8d7a0d14c09","651c1cef634883898e7a8409","null","null","<p style=""font-size: 60px; font-family: BACS"">lYruaJud</p>","","","","","","","","",""
"html-keyboard-response","339","497673","0.0-16.0-0.7","608858869a591bd129fbbc6c","650c16f0f2faf8d7a0d14c09","651c1cef634883898e7a8409","null","null","<p style=""font-size: 60px; font-family: BACS"">lYruaJud</p>","","","","","","","","",""
"html-keyboard-response","340","498678","0.0-16.0-0.8","608858869a591bd129fbbc6c","650c16f0f2faf8d7a0d14c09","651c1cef634883898e7a8409","null","null","<p style=""font-size: 60px; font-family: BACS"">lYruaJud</p>","","","","","","","","",""
"html-keyboard-response","341","499681","0.0-16.0-0.9","608858869a591bd129fbbc6c","650c16f0f2faf8d7a0d14c09","651c1cef634883898e7a8409","null","null","<p style=""font-size: 60px; font-family: BACS"">lYruaJud</p>","","","","","","","","",""
"html-keyboard-response","342","500687","0.0-16.0-0.10","608858869a591bd129fbbc6c","650c16f0f2faf8d7a0d14c09","651c1cef634883898e7a8409","null","null","<p style=""font-size: 60px; font-family: BACS"">lYruaJud</p>","","","","","","","","",""
"html-keyboard-response","343","501693","0.0-16.0-0.11","608858869a591bd129fbbc6c","650c16f0f2faf8d7a0d14c09","651c1cef634883898e7a8409","null","null","<p style=""font-size: 60px; font-family: BACS"">lYruaJud</p>","","","","","","","","",""
"html-keyboard-response","344","502698","0.0-16.0-0.12","608858869a591bd129fbbc6c","650c16f0f2faf8d7a0d14c09","651c1cef634883898e7a8409","null","null","<p style=""font-size: 60px; font-family: BACS"">lYruaJud</p>","","","","","","","","",""
"html-keyboard-response","345","503701","0.0-16.0-0.13","608858869a591bd129fbbc6c","650c16f0f2faf8d7a0d14c09","651c1cef634883898e7a8409","null","null","<p style=""font-size: 60px; font-family: BACS"">lYruaJud</p>","","","","","","","","",""
"html-keyboard-response","346","504707","0.0-16.0-0.14","608858869a591bd129fbbc6c","650c16f0f2faf8d7a0d14c09","651c1cef634883898e7a8409","null","null","<p style=""font-size: 60px; font-family: BACS"">lYruaJud</p>","","","","","","","","",""
"html-keyboard-response","347","505713","0.0-16.0-0.15","608858869a591bd129fbbc6c","650c16f0f2faf8d7a0d14c09","651c1cef634883898e7a8409","null","null","<p style=""font-size: 60px; font-family: BACS"">lYruaJud</p>","","","","","","","","",""
"html-keyboard-response","348","506718","0.0-16.0-0.16","608858869a591bd129fbbc6c","650c16f0f2faf8d7a0d14c09","651c1cef634883898e7a8409","null","null","<p style=""font-size: 60px; font-family: BACS"">lYruaJud</p>","","","","","","","","",""
"html-keyboard-response","349","507724","0.0-16.0-0.17","608858869a591bd129fbbc6c","650c16f0f2faf8d7a0d14c09","651c1cef634883898e7a8409","null","null","<p style=""font-size: 60px; font-family: BACS"">lYruaJud</p>","","","","","","","","",""
"html-keyboard-response","350","508729","0.0-16.0-0.18","608858869a591bd129fbbc6c","650c16f0f2faf8d7a0d14c09","651c1cef634883898e7a8409","null","null","<p style=""font-size: 60px; font-family: BACS"">lYruaJud</p>","","","","","","","","",""
"html-keyboard-response","351","509731","0.0-16.0-0.19","608858869a591bd129fbbc6c","650c16f0f2faf8d7a0d14c09","651c1cef634883898e7a8409","null","null","<p style=""font-size: 60px; font-family: BACS"">lYruaJud</p>","","","","","","","","",""
"html-keyboard-response","352","510735","0.0-16.0-0.20","608858869a591bd129fbbc6c","650c16f0f2faf8d7a0d14c09","651c1cef634883898e7a8409","null","null","<p style=""font-size: 60px; font-family: BACS"">lYruaJud</p>","","","","","","","","",""
"html-keyboard-response","353","511741","0.0-16.0-0.21","608858869a591bd129fbbc6c","650c16f0f2faf8d7a0d14c09","651c1cef634883898e7a8409","null","null","<p style=""font-size: 60px; font-family: BACS"">lYruaJud</p>","","","","","","","","",""
"html-keyboard-response","354","512747","0.0-16.0-0.22","608858869a591bd129fbbc6c","650c16f0f2faf8d7a0d14c09","651c1cef634883898e7a8409","null","null","<p style=""font-size: 60px; font-family: BACS"">lYruaJud</p>","","","","","","","","",""
"html-keyboard-response","355","513751","0.0-16.0-0.23","608858869a591bd129fbbc6c","650c16f0f2faf8d7a0d14c09","651c1cef634883898e7a8409","null","null","<p style=""font-size: 60px; font-family: BACS"">lYruaJud</p>","","","","","","","","",""
"html-keyboard-response","356","514757","0.0-16.0-0.24","608858869a591bd129fbbc6c","650c16f0f2faf8d7a0d14c09","651c1cef634883898e7a8409","null","null","<p style=""font-size: 60px; font-family: BACS"">lYruaJud</p>","","","","","","","","",""
"html-keyboard-response","357","515763","0.0-16.0-0.25","608858869a591bd129fbbc6c","650c16f0f2faf8d7a0d14c09","651c1cef634883898e7a8409","null","null","<p style=""font-size: 60px; font-family: BACS"">lYruaJud</p>","","","","","","","","",""
"html-keyboard-response","358","516768","0.0-16.0-0.26","608858869a591bd129fbbc6c","650c16f0f2faf8d7a0d14c09","651c1cef634883898e7a8409","null","null","<p style=""font-size: 60px; font-family: BACS"">lYruaJud</p>","","","","","","","","",""
"html-keyboard-response","359","517774","0.0-16.0-0.27","608858869a591bd129fbbc6c","650c16f0f2faf8d7a0d14c09","651c1cef634883898e7a8409","null","null","<p style=""font-size: 60px; font-family: BACS"">lYruaJud</p>","","","","","","","","",""
"html-keyboard-response","360","518781","0.0-16.0-0.28","608858869a591bd129fbbc6c","650c16f0f2faf8d7a0d14c09","651c1cef634883898e7a8409","null","null","<p style=""font-size: 60px; font-family: BACS"">lYruaJud</p>","","","","","","","","",""
"html-keyboard-response","361","519785","0.0-16.0-0.29","608858869a591bd129fbbc6c","650c16f0f2faf8d7a0d14c09","651c1cef634883898e7a8409","null","null","<p style=""font-size: 60px; font-family: BACS"">lYruaJud</p>","","","","","","","","",""
"html-keyboard-response","362","520788","0.0-16.0-0.30","608858869a591bd129fbbc6c","650c16f0f2faf8d7a0d14c09","651c1cef634883898e7a8409","null","null","<p style=""font-size: 60px; font-family: BACS"">lYruaJud</p>","","","","","","","","",""
"html-keyboard-response","363","521788","0.0-16.0-0.31","608858869a591bd129fbbc6c","650c16f0f2faf8d7a0d14c09","651c1cef634883898e7a8409","null","null","<p style=""font-size: 60px; font-family: BACS"">lYruaJud</p>","","","","","","","","",""
"html-keyboard-response","364","522795","0.0-16.0-0.32","608858869a591bd129fbbc6c","650c16f0f2faf8d7a0d14c09","651c1cef634883898e7a8409","null","null","<p style=""font-size: 60px; font-family: BACS"">lYruaJud</p>","","","","","","","","",""
"html-keyboard-response","365","523799","0.0-16.0-0.33","608858869a591bd129fbbc6c","650c16f0f2faf8d7a0d14c09","651c1cef634883898e7a8409","null","null","<p style=""font-size: 60px; font-family: BACS"">lYruaJud</p>","","","","","","","","",""
"html-keyboard-response","366","524803","0.0-16.0-0.34","608858869a591bd129fbbc6c","650c16f0f2faf8d7a0d14c09","651c1cef634883898e7a8409","null","null","<p style=""font-size: 60px; font-family: BACS"">lYruaJud</p>","","","","","","","","",""
"html-keyboard-response","367","525809","0.0-16.0-0.35","608858869a591bd129fbbc6c","650c16f0f2faf8d7a0d14c09","651c1cef634883898e7a8409","null","null","<p style=""font-size: 60px; font-family: BACS"">lYruaJud</p>","","","","","","","","",""
"html-keyboard-response","368","526814","0.0-16.0-0.36","608858869a591bd129fbbc6c","650c16f0f2faf8d7a0d14c09","651c1cef634883898e7a8409","null","null","<p style=""font-size: 60px; font-family: BACS"">lYruaJud</p>","","","","","","","","",""
"html-keyboard-response","369","527820","0.0-16.0-0.37","608858869a591bd129fbbc6c","650c16f0f2faf8d7a0d14c09","651c1cef634883898e7a8409","null","null","<p style=""font-size: 60px; font-family: BACS"">lYruaJud</p>","","","","","","","","",""
"html-keyboard-response","370","528826","0.0-16.0-0.38","608858869a591bd129fbbc6c","650c16f0f2faf8d7a0d14c09","651c1cef634883898e7a8409","null","null","<p style=""font-size: 60px; font-family: BACS"">lYruaJud</p>","","","","","","","","",""
"html-keyboard-response","371","529831","0.0-16.0-0.39","608858869a591bd129fbbc6c","650c16f0f2faf8d7a0d14c09","651c1cef634883898e7a8409","null","null","<p style=""font-size: 60px; font-family: BACS"">lYruaJud</p>","","","","","","","","",""
"html-keyboard-response","372","530836","0.0-16.0-0.40","608858869a591bd129fbbc6c","650c16f0f2faf8d7a0d14c09","651c1cef634883898e7a8409","null","null","<p style=""font-size: 60px; font-family: BACS"">lYruaJud</p>","","","","","","","","",""
"html-keyboard-response","373","531842","0.0-16.0-0.41","608858869a591bd129fbbc6c","650c16f0f2faf8d7a0d14c09","651c1cef634883898e7a8409","null","null","<p style=""font-size: 60px; font-family: BACS"">lYruaJud</p>","","","","","","","","",""
"html-keyboard-response","374","532846","0.0-16.0-0.42","608858869a591bd129fbbc6c","650c16f0f2faf8d7a0d14c09","651c1cef634883898e7a8409","null","null","<p style=""font-size: 60px; font-family: BACS"">lYruaJud</p>","","","","","","","","",""
"html-keyboard-response","375","533850","0.0-16.0-0.43","608858869a591bd129fbbc6c","650c16f0f2faf8d7a0d14c09","651c1cef634883898e7a8409","null","null","<p style=""font-size: 60px; font-family: BACS"">lYruaJud</p>","","","","","","","","",""
"html-keyboard-response","376","534853","0.0-16.0-0.44","608858869a591bd129fbbc6c","650c16f0f2faf8d7a0d14c09","651c1cef634883898e7a8409","null","null","<p style=""font-size: 60px; font-family: BACS"">lYruaJud</p>","","","","","","","","",""
"html-keyboard-response","377","535854","0.0-16.0-0.45","608858869a591bd129fbbc6c","650c16f0f2faf8d7a0d14c09","651c1cef634883898e7a8409","null","null","<p style=""font-size: 60px; font-family: BACS"">lYruaJud</p>","","","","","","","","",""
"html-keyboard-response","378","536860","0.0-16.0-0.46","608858869a591bd129fbbc6c","650c16f0f2faf8d7a0d14c09","651c1cef634883898e7a8409","null","null","<p style=""font-size: 60px; font-family: BACS"">lYruaJud</p>","","","","","","","","",""
"html-keyboard-response","379","537866","0.0-16.0-0.47","608858869a591bd129fbbc6c","650c16f0f2faf8d7a0d14c09","651c1cef634883898e7a8409","null","null","<p style=""font-size: 60px; font-family: BACS"">lYruaJud</p>","","","","","","","","",""
"html-keyboard-response","380","538867","0.0-16.0-0.48","608858869a591bd129fbbc6c","650c16f0f2faf8d7a0d14c09","651c1cef634883898e7a8409","null","null","<p style=""font-size: 60px; font-family: BACS"">lYruaJud</p>","","","","","","","","",""
"html-keyboard-response","381","539871","0.0-16.0-0.49","608858869a591bd129fbbc6c","650c16f0f2faf8d7a0d14c09","651c1cef634883898e7a8409","null","null","<p style=""font-size: 60px; font-family: BACS"">lYruaJud</p>","","","","","","","","",""
"html-keyboard-response","382","540877","0.0-16.0-0.50","608858869a591bd129fbbc6c","650c16f0f2faf8d7a0d14c09","651c1cef634883898e7a8409","null","null","<p style=""font-size: 60px; font-family: BACS"">lYruaJud</p>","","","","","","","","",""
"html-keyboard-response","383","541883","0.0-16.0-0.51","608858869a591bd129fbbc6c","650c16f0f2faf8d7a0d14c09","651c1cef634883898e7a8409","null","null","<p style=""font-size: 60px; font-family: BACS"">lYruaJud</p>","","","","","","","","",""
"html-keyboard-response","384","542887","0.0-16.0-0.52","608858869a591bd129fbbc6c","650c16f0f2faf8d7a0d14c09","651c1cef634883898e7a8409","null","null","<p style=""font-size: 60px; font-family: BACS"">lYruaJud</p>","","","","","","","","",""
"html-keyboard-response","385","543892","0.0-16.0-0.53","608858869a591bd129fbbc6c","650c16f0f2faf8d7a0d14c09","651c1cef634883898e7a8409","null","null","<p style=""font-size: 60px; font-family: BACS"">lYruaJud</p>","","","","","","","","",""
"html-keyboard-response","386","544897","0.0-16.0-0.54","608858869a591bd129fbbc6c","650c16f0f2faf8d7a0d14c09","651c1cef634883898e7a8409","null","null","<p style=""font-size: 60px; font-family: BACS"">lYruaJud</p>","","","","","","","","",""
"html-keyboard-response","387","545901","0.0-16.0-0.55","608858869a591bd129fbbc6c","650c16f0f2faf8d7a0d14c09","651c1cef634883898e7a8409","null","null","<p style=""font-size: 60px; font-family: BACS"">lYruaJud</p>","","","","","","","","",""
"html-keyboard-response","388","546907","0.0-16.0-0.56","608858869a591bd129fbbc6c","650c16f0f2faf8d7a0d14c09","651c1cef634883898e7a8409","null","null","<p style=""font-size: 60px; font-family: BACS"">lYruaJud</p>","","","","","","","","",""
"html-keyboard-response","389","547912","0.0-16.0-0.57","608858869a591bd129fbbc6c","650c16f0f2faf8d7a0d14c09","651c1cef634883898e7a8409","null","null","<p style=""font-size: 60px; font-family: BACS"">lYruaJud</p>","","","","","","","","",""
"html-keyboard-response","390","548917","0.0-16.0-0.58","608858869a591bd129fbbc6c","650c16f0f2faf8d7a0d14c09","651c1cef634883898e7a8409","null","null","<p style=""font-size: 60px; font-family: BACS"">lYruaJud</p>","","","","","","","","",""
"html-keyboard-response","391","549920","0.0-16.0-0.59","608858869a591bd129fbbc6c","650c16f0f2faf8d7a0d14c09","651c1cef634883898e7a8409","null","null","<p style=""font-size: 60px; font-family: BACS"">lYruaJud</p>","","","","","","","","",""
"html-keyboard-response","392","550923","0.0-16.0-0.60","608858869a591bd129fbbc6c","650c16f0f2faf8d7a0d14c09","651c1cef634883898e7a8409","null","null","<p style=""font-size: 60px; font-family: BACS"">lYruaJud</p>","","","","","","","","",""
"html-keyboard-response","393","551928","0.0-16.0-0.61","608858869a591bd129fbbc6c","650c16f0f2faf8d7a0d14c09","651c1cef634883898e7a8409","null","null","<p style=""font-size: 60px; font-family: BACS"">lYruaJud</p>","","","","","","","","",""
"html-keyboard-response","394","552935","0.0-16.0-0.62","608858869a591bd129fbbc6c","650c16f0f2faf8d7a0d14c09","651c1cef634883898e7a8409","null","null","<p style=""font-size: 60px; font-family: BACS"">lYruaJud</p>","","","","","","","","",""
"html-keyboard-response","395","553938","0.0-16.0-0.63","608858869a591bd129fbbc6c","650c16f0f2faf8d7a0d14c09","651c1cef634883898e7a8409","null","null","<p style=""font-size: 60px; font-family: BACS"">lYruaJud</p>","","","","","","","","",""
"html-keyboard-response","396","554944","0.0-16.0-0.64","608858869a591bd129fbbc6c","650c16f0f2faf8d7a0d14c09","651c1cef634883898e7a8409","null","null","<p style=""font-size: 60px; font-family: BACS"">lYruaJud</p>","","","","","","","","",""
"html-keyboard-response","397","555949","0.0-16.0-0.65","608858869a591bd129fbbc6c","650c16f0f2faf8d7a0d14c09","651c1cef634883898e7a8409","null","null","<p style=""font-size: 60px; font-family: BACS"">lYruaJud</p>","","","","","","","","",""
"html-keyboard-response","398","556955","0.0-16.0-0.66","608858869a591bd129fbbc6c","650c16f0f2faf8d7a0d14c09","651c1cef634883898e7a8409","null","null","<p style=""font-size: 60px; font-family: BACS"">lYruaJud</p>","","","","","","","","",""
"html-keyboard-response","399","557960","0.0-16.0-0.67","608858869a591bd129fbbc6c","650c16f0f2faf8d7a0d14c09","651c1cef634883898e7a8409","null","null","<p style=""font-size: 60px; font-family: BACS"">lYruaJud</p>","","","","","","","","",""
