"trial_type","trial_index","time_elapsed","internal_node_id","subject_id","study_id","session_id","rt","response","stimulus","success","item","task","correct_response","testing_condition","correct","target","confound","name"
"pavlovia","0","1084","0.0-0.0","608c2e566d92c2aa3543e2d2","650c16f0f2faf8d7a0d14c09","651c1c3b52d3e8e52b59baa3","","","","","","","","","","","",""
"survey-html-form","1","15000","0.0-1.0","608c2e566d92c2aa3543e2d2","650c16f0f2faf8d7a0d14c09","651c1c3b52d3e8e52b59baa3","13913","{""ID"":""608c2e566d92c2aa3543e2d2""}","","","","","","","","","",""
"html-keyboard-response","2","24572","0.0-2.0","608c2e566d92c2aa3543e2d2","650c16f0f2faf8d7a0d14c09","651c1c3b52d3e8e52b59baa3","9570"," ","<p style=""font-size: 15px;"">Before beginning, we ask that you read the consent information and confirm your agreement to participate in the experiment.</p>
      <p style=""font-size: 15px;""> We ask that you remember that this is a research project and that your participation is entirely voluntary. You can stop your participation at any time, without needing to provide any explanation. The study we're asking you to participate in aims at examining how readers process written words. You will be engaged in a session of apprximately 20 minutes, followed by a brief questionnaire. You will have the opportunity to take a few breaks during the experiment. You will be paid £4 for your participation, corresponding to a rate of £8/hour. While this experiment looks at cognitive faculties, this experiment doesn't constitute clinical proof of eventual pathologies.</p>
      <p style=""font-size: 15px;"">All of the information collected thanks to yours and others' participation will be held in a secure password-protected server, and will not be shared with anyone not authorised to view it. Your personal information will be kept with an arbitrary participant ID. Thanks to this data anonymity process, any researcher analysing the data won't be able to track the information back to a specific participant. Therefore, this process will make identifying you impossibile, even when results from the study will be published in scientific reviews, presented at congresses, or at any other public forum. More generally, the collected data will be treated in accordance with the laws on privacy and conformity to the Legislative Degree n. 196 ""Code regarding the protection of personal data"" of the 30th of June 2003 and to the European Regulation 2016/670 (General Data Protection Regulation - GDPR). The Data Protection Officer is Avv. Valentina Carollo, who can be contacted at the following email addresses: <a href=""mailto:dpo@sissa.it"">dpo@sissa.it</a> or <a href=""mailto:rpd@sissa.it"">rpd@sissa.it</a> - PEC: <a href=""mailto:protocollo@pec.sissa.it"">protocollo@pec.sissa.it</a>.</p>
      <p style=""font-size: 15px;""> Before expressing your consent to participate, we would like to remind you again that in case you need explanations on any aspect of the experimental procedure, the researcher is at your disposition (<a href=""mailto:aliebelt@sissa.it"">aliebelt@sissa.it</a>, <a href=""mailto:davide.crepaldi@sissa.it"">davide.crepaldi@sissa.it</a>).</p>
      <p style=""font-size: 15px;"">If you would like to download the informed consent form, you can do so here: <a href=""BASL-Informed_Consent.pdf"" download>informed consent form</a>.</p>
      <p style=""font-size: 15px;"">We ask that you press the spacebar to proceed to the consent section.</p>","","","","","","","","",""
"survey-html-form","3","40081","0.0-3.0","608c2e566d92c2aa3543e2d2","650c16f0f2faf8d7a0d14c09","651c1c3b52d3e8e52b59baa3","15513","{""consent1"":""YES"",""consent2"":""YES"",""consent3"":""YES"",""consent4"":""YES"",""consent5"":""YES"",""consent6"":""YES""}","","","","","","","","","",""
"fullscreen","4","45049","0.0-4.0","608c2e566d92c2aa3543e2d2","650c16f0f2faf8d7a0d14c09","651c1c3b52d3e8e52b59baa3","","","","true","","","","","","","",""
"html-keyboard-response","5","65510","0.0-5.0","608c2e566d92c2aa3543e2d2","650c16f0f2faf8d7a0d14c09","651c1c3b52d3e8e52b59baa3","20458"," ","<p>Welcome, and thank you very much for your time!</p>
      <p>In this experiment, you'll be a language expert who's been asked to take a look at words that Earth has received in its first communication with aliens. Your task, in this first part of the experiment, is to pay close attention to the words you'll be shown; later, world leaders will ask you questions on what you saw. The words will be shown to you quite quickly; it seems that the aliens were in a hurry :-)</p>
      <p>Press the spacebar to continue.<p>","","","","","","","","",""
"html-keyboard-response","6","65561","0.0-6.0","608c2e566d92c2aa3543e2d2","650c16f0f2faf8d7a0d14c09","651c1c3b52d3e8e52b59baa3","null","null","<p style=""font-size: 120px; font-family: BACS""> </p>","","","","","","","","",""
"html-keyboard-response","7","89338","0.0-7.0","608c2e566d92c2aa3543e2d2","650c16f0f2faf8d7a0d14c09","651c1c3b52d3e8e52b59baa3","23777"," ","<p>Here is an example of the words you'll see:</p>
      <img src='esempio.png' height='400px'>
      <p>When you're ready to begin, press the spacebar.</p></div>","","","","","","","","",""
"html-keyboard-response","8","90345","0.0-8.0-0.0","608c2e566d92c2aa3543e2d2","650c16f0f2faf8d7a0d14c09","651c1c3b52d3e8e52b59baa3","null","null","<p style=""font-size: 60px; font-family: BACS"">YOaAbJUNa</p>","","","","","","","","",""
"html-keyboard-response","9","91355","0.0-8.0-0.1","608c2e566d92c2aa3543e2d2","650c16f0f2faf8d7a0d14c09","651c1c3b52d3e8e52b59baa3","null","null","<p style=""font-size: 60px; font-family: BACS"">mrOdQGb</p>","","","","","","","","",""
"html-keyboard-response","10","92366","0.0-8.0-0.2","608c2e566d92c2aa3543e2d2","650c16f0f2faf8d7a0d14c09","651c1c3b52d3e8e52b59baa3","null","null","<p style=""font-size: 60px; font-family: BACS"">RdPtDCkbd</p>","","","","","","","","",""
"html-keyboard-response","11","93369","0.0-8.0-0.3","608c2e566d92c2aa3543e2d2","650c16f0f2faf8d7a0d14c09","651c1c3b52d3e8e52b59baa3","null","null","<p style=""font-size: 60px; font-family: BACS"">LOLkUvAvb</p>","","","","","","","","",""
"html-keyboard-response","12","94379","0.0-8.0-0.4","608c2e566d92c2aa3543e2d2","650c16f0f2faf8d7a0d14c09","651c1c3b52d3e8e52b59baa3","null","null","<p style=""font-size: 60px; font-family: BACS"">aONdYbN</p>","","","","","","","","",""
"html-keyboard-response","13","95383","0.0-8.0-0.5","608c2e566d92c2aa3543e2d2","650c16f0f2faf8d7a0d14c09","651c1c3b52d3e8e52b59baa3","null","null","<p style=""font-size: 60px; font-family: BACS"">DdckCkbd</p>","","","","","","","","",""
"html-keyboard-response","14","96396","0.0-8.0-0.6","608c2e566d92c2aa3543e2d2","650c16f0f2faf8d7a0d14c09","651c1c3b52d3e8e52b59baa3","null","null","<p style=""font-size: 60px; font-family: BACS"">lkAkmvG</p>","","","","","","","","",""
"html-keyboard-response","15","97399","0.0-8.0-0.7","608c2e566d92c2aa3543e2d2","650c16f0f2faf8d7a0d14c09","651c1c3b52d3e8e52b59baa3","null","null","<p style=""font-size: 60px; font-family: BACS"">ldAaQGb</p>","","","","","","","","",""
"html-keyboard-response","16","98400","0.0-8.0-0.8","608c2e566d92c2aa3543e2d2","650c16f0f2faf8d7a0d14c09","651c1c3b52d3e8e52b59baa3","null","null","<p style=""font-size: 60px; font-family: BACS"">PEtECkbd</p>","","","","","","","","",""
"html-keyboard-response","17","99409","0.0-8.0-0.9","608c2e566d92c2aa3543e2d2","650c16f0f2faf8d7a0d14c09","651c1c3b52d3e8e52b59baa3","null","null","<p style=""font-size: 60px; font-family: BACS"">aUZAYbN</p>","","","","","","","","",""
"html-keyboard-response","18","100425","0.0-8.0-0.10","608c2e566d92c2aa3543e2d2","650c16f0f2faf8d7a0d14c09","651c1c3b52d3e8e52b59baa3","null","null","<p style=""font-size: 60px; font-family: BACS"">damYbmvG</p>","","","","","","","","",""
"html-keyboard-response","19","101436","0.0-8.0-0.11","608c2e566d92c2aa3543e2d2","650c16f0f2faf8d7a0d14c09","651c1c3b52d3e8e52b59baa3","null","null","<p style=""font-size: 60px; font-family: BACS"">hlctEhRKm</p>","","","","","","","","",""
"html-keyboard-response","20","102439","0.0-8.0-0.12","608c2e566d92c2aa3543e2d2","650c16f0f2faf8d7a0d14c09","651c1c3b52d3e8e52b59baa3","null","null","<p style=""font-size: 60px; font-family: BACS"">PdDTCkbd</p>","","","","","","","","",""
"html-keyboard-response","21","103444","0.0-8.0-0.13","608c2e566d92c2aa3543e2d2","650c16f0f2faf8d7a0d14c09","651c1c3b52d3e8e52b59baa3","null","null","<p style=""font-size: 60px; font-family: BACS"">hlkTBbM</p>","","","","","","","","",""
"html-keyboard-response","22","104447","0.0-8.0-0.14","608c2e566d92c2aa3543e2d2","650c16f0f2faf8d7a0d14c09","651c1c3b52d3e8e52b59baa3","null","null","<p style=""font-size: 60px; font-family: BACS"">YOaAbmvG</p>","","","","","","","","",""
"html-keyboard-response","23","105451","0.0-8.0-0.15","608c2e566d92c2aa3543e2d2","650c16f0f2faf8d7a0d14c09","651c1c3b52d3e8e52b59baa3","null","null","<p style=""font-size: 60px; font-family: BACS"">PdDTdPc</p>","","","","","","","","",""
"html-keyboard-response","24","106459","0.0-8.0-0.16","608c2e566d92c2aa3543e2d2","650c16f0f2faf8d7a0d14c09","651c1c3b52d3e8e52b59baa3","null","null","<p style=""font-size: 60px; font-family: BACS"">PEtEBbM</p>","","","","","","","","",""
"html-keyboard-response","25","107473","0.0-8.0-0.17","608c2e566d92c2aa3543e2d2","650c16f0f2faf8d7a0d14c09","651c1c3b52d3e8e52b59baa3","null","null","<p style=""font-size: 60px; font-family: BACS"">EhbthRKm</p>","","","","","","","","",""
"html-keyboard-response","26","108477","0.0-8.0-0.18","608c2e566d92c2aa3543e2d2","650c16f0f2faf8d7a0d14c09","651c1c3b52d3e8e52b59baa3","null","null","<p style=""font-size: 60px; font-family: BACS"">CmcOBbM</p>","","","","","","","","",""
"html-keyboard-response","27","109480","0.0-8.0-0.19","608c2e566d92c2aa3543e2d2","650c16f0f2faf8d7a0d14c09","651c1c3b52d3e8e52b59baa3","null","null","<p style=""font-size: 60px; font-family: BACS"">aUZAmvG</p>","","","","","","","","",""
"html-keyboard-response","28","110482","0.0-8.0-0.20","608c2e566d92c2aa3543e2d2","650c16f0f2faf8d7a0d14c09","651c1c3b52d3e8e52b59baa3","null","null","<p style=""font-size: 60px; font-family: BACS"">mrOdYbN</p>","","","","","","","","",""
"html-keyboard-response","29","111490","0.0-8.0-0.21","608c2e566d92c2aa3543e2d2","650c16f0f2faf8d7a0d14c09","651c1c3b52d3e8e52b59baa3","null","null","<p style=""font-size: 60px; font-family: BACS"">hlctEBbM</p>","","","","","","","","",""
"html-keyboard-response","30","112504","0.0-8.0-0.22","608c2e566d92c2aa3543e2d2","650c16f0f2faf8d7a0d14c09","651c1c3b52d3e8e52b59baa3","null","null","<p style=""font-size: 60px; font-family: BACS"">DdckhRKm</p>","","","","","","","","",""
"html-keyboard-response","31","113520","0.0-8.0-0.23","608c2e566d92c2aa3543e2d2","650c16f0f2faf8d7a0d14c09","651c1c3b52d3e8e52b59baa3","null","null","<p style=""font-size: 60px; font-family: BACS"">YOaAbYbN</p>","","","","","","","","",""
"html-keyboard-response","32","114522","0.0-8.0-0.24","608c2e566d92c2aa3543e2d2","650c16f0f2faf8d7a0d14c09","651c1c3b52d3e8e52b59baa3","null","null","<p style=""font-size: 60px; font-family: BACS"">aONdJUNa</p>","","","","","","","","",""
"html-keyboard-response","33","115525","0.0-8.0-0.25","608c2e566d92c2aa3543e2d2","650c16f0f2faf8d7a0d14c09","651c1c3b52d3e8e52b59baa3","null","null","<p style=""font-size: 60px; font-family: BACS"">krGuYbN</p>","","","","","","","","",""
"html-keyboard-response","34","116528","0.0-8.0-0.26","608c2e566d92c2aa3543e2d2","650c16f0f2faf8d7a0d14c09","651c1c3b52d3e8e52b59baa3","null","null","<p style=""font-size: 60px; font-family: BACS"">GumLlmvG</p>","","","","","","","","",""
"html-keyboard-response","35","117537","0.0-8.0-0.27","608c2e566d92c2aa3543e2d2","650c16f0f2faf8d7a0d14c09","651c1c3b52d3e8e52b59baa3","null","null","<p style=""font-size: 60px; font-family: BACS"">damYbQGb</p>","","","","","","","","",""
"html-keyboard-response","36","118547","0.0-8.0-0.28","608c2e566d92c2aa3543e2d2","650c16f0f2faf8d7a0d14c09","651c1c3b52d3e8e52b59baa3","null","null","<p style=""font-size: 60px; font-family: BACS"">ldAaJUNa</p>","","","","","","","","",""
"html-keyboard-response","37","119563","0.0-8.0-0.29","608c2e566d92c2aa3543e2d2","650c16f0f2faf8d7a0d14c09","651c1c3b52d3e8e52b59baa3","null","null","<p style=""font-size: 60px; font-family: BACS"">aUZAQGb</p>","","","","","","","","",""
"html-keyboard-response","38","120565","0.0-8.0-0.30","608c2e566d92c2aa3543e2d2","650c16f0f2faf8d7a0d14c09","651c1c3b52d3e8e52b59baa3","null","null","<p style=""font-size: 60px; font-family: BACS"">CmcOCkbd</p>","","","","","","","","",""
"html-keyboard-response","39","121580","0.0-8.0-0.31","608c2e566d92c2aa3543e2d2","650c16f0f2faf8d7a0d14c09","651c1c3b52d3e8e52b59baa3","null","null","<p style=""font-size: 60px; font-family: BACS"">RdPtDBbM</p>","","","","","","","","",""
"html-keyboard-response","40","122595","0.0-8.0-0.32","608c2e566d92c2aa3543e2d2","650c16f0f2faf8d7a0d14c09","651c1c3b52d3e8e52b59baa3","null","null","<p style=""font-size: 60px; font-family: BACS"">DdckdPc</p>","","","","","","","","",""
"html-keyboard-response","41","123601","0.0-8.0-0.33","608c2e566d92c2aa3543e2d2","650c16f0f2faf8d7a0d14c09","651c1c3b52d3e8e52b59baa3","null","null","<p style=""font-size: 60px; font-family: BACS"">hlctECkbd</p>","","","","","","","","",""
"html-keyboard-response","42","124605","0.0-8.0-0.34","608c2e566d92c2aa3543e2d2","650c16f0f2faf8d7a0d14c09","651c1c3b52d3e8e52b59baa3","null","null","<p style=""font-size: 60px; font-family: BACS"">cROMthRKm</p>","","","","","","","","",""
"html-keyboard-response","43","125611","0.0-8.0-0.35","608c2e566d92c2aa3543e2d2","650c16f0f2faf8d7a0d14c09","651c1c3b52d3e8e52b59baa3","null","null","<p style=""font-size: 60px; font-family: BACS"">RdPtDMAB</p>","","","","","","","","",""
"html-keyboard-response","44","126615","0.0-8.0-0.36","608c2e566d92c2aa3543e2d2","650c16f0f2faf8d7a0d14c09","651c1c3b52d3e8e52b59baa3","null","null","<p style=""font-size: 60px; font-family: BACS"">GumLlYbN</p>","","","","","","","","",""
"html-keyboard-response","45","127617","0.0-8.0-0.37","608c2e566d92c2aa3543e2d2","650c16f0f2faf8d7a0d14c09","651c1c3b52d3e8e52b59baa3","null","null","<p style=""font-size: 60px; font-family: BACS"">LOLkUJUNa</p>","","","","","","","","",""
"html-keyboard-response","46","128623","0.0-8.0-0.38","608c2e566d92c2aa3543e2d2","650c16f0f2faf8d7a0d14c09","651c1c3b52d3e8e52b59baa3","null","null","<p style=""font-size: 60px; font-family: BACS"">PEtEdPc</p>","","","","","","","","",""
"html-keyboard-response","47","129631","0.0-8.0-0.39","608c2e566d92c2aa3543e2d2","650c16f0f2faf8d7a0d14c09","651c1c3b52d3e8e52b59baa3","null","null","<p style=""font-size: 60px; font-family: BACS"">RdPtDhRKm</p>","","","","","","","","",""
"html-keyboard-response","48","130645","0.0-8.0-0.40","608c2e566d92c2aa3543e2d2","650c16f0f2faf8d7a0d14c09","651c1c3b52d3e8e52b59baa3","null","null","<p style=""font-size: 60px; font-family: BACS"">mrOdmvG</p>","","","","","","","","",""
"html-keyboard-response","49","131659","0.0-8.0-0.41","608c2e566d92c2aa3543e2d2","650c16f0f2faf8d7a0d14c09","651c1c3b52d3e8e52b59baa3","null","null","<p style=""font-size: 60px; font-family: BACS"">DdckMAB</p>","","","","","","","","",""
"html-keyboard-response","50","132667","0.0-8.0-0.42","608c2e566d92c2aa3543e2d2","650c16f0f2faf8d7a0d14c09","651c1c3b52d3e8e52b59baa3","null","null","<p style=""font-size: 60px; font-family: BACS"">lkAkvAvb</p>","","","","","","","","",""
"html-keyboard-response","51","133674","0.0-8.0-0.43","608c2e566d92c2aa3543e2d2","650c16f0f2faf8d7a0d14c09","651c1c3b52d3e8e52b59baa3","null","null","<p style=""font-size: 60px; font-family: BACS"">damYbJUNa</p>","","","","","","","","",""
"html-keyboard-response","52","134677","0.0-8.0-0.44","608c2e566d92c2aa3543e2d2","650c16f0f2faf8d7a0d14c09","651c1c3b52d3e8e52b59baa3","null","null","<p style=""font-size: 60px; font-family: BACS"">ldAavAvb</p>","","","","","","","","",""
"html-keyboard-response","53","135694","0.0-8.0-0.45","608c2e566d92c2aa3543e2d2","650c16f0f2faf8d7a0d14c09","651c1c3b52d3e8e52b59baa3","null","null","<p style=""font-size: 60px; font-family: BACS"">cROMtBbM</p>","","","","","","","","",""
"html-keyboard-response","54","136706","0.0-8.0-0.46","608c2e566d92c2aa3543e2d2","650c16f0f2faf8d7a0d14c09","651c1c3b52d3e8e52b59baa3","null","null","<p style=""font-size: 60px; font-family: BACS"">ctktMAB</p>","","","","","","","","",""
"html-keyboard-response","55","137716","0.0-8.0-0.47","608c2e566d92c2aa3543e2d2","650c16f0f2faf8d7a0d14c09","651c1c3b52d3e8e52b59baa3","null","null","<p style=""font-size: 60px; font-family: BACS"">hlctEdPc</p>","","","","","","","","",""
"html-keyboard-response","56","138732","0.0-8.0-0.48","608c2e566d92c2aa3543e2d2","650c16f0f2faf8d7a0d14c09","651c1c3b52d3e8e52b59baa3","null","null","<p style=""font-size: 60px; font-family: BACS"">ctktBbM</p>","","","","","","","","",""
"html-keyboard-response","57","139736","0.0-8.0-0.49","608c2e566d92c2aa3543e2d2","650c16f0f2faf8d7a0d14c09","651c1c3b52d3e8e52b59baa3","null","null","<p style=""font-size: 60px; font-family: BACS"">cROMtMAB</p>","","","","","","","","",""
"html-keyboard-response","58","140742","0.0-8.0-0.50","608c2e566d92c2aa3543e2d2","650c16f0f2faf8d7a0d14c09","651c1c3b52d3e8e52b59baa3","null","null","<p style=""font-size: 60px; font-family: BACS"">lkAkQGb</p>","","","","","","","","",""
"html-keyboard-response","59","141745","0.0-8.0-0.51","608c2e566d92c2aa3543e2d2","650c16f0f2faf8d7a0d14c09","651c1c3b52d3e8e52b59baa3","null","null","<p style=""font-size: 60px; font-family: BACS"">PdDThRKm</p>","","","","","","","","",""
"html-keyboard-response","60","142754","0.0-8.0-0.52","608c2e566d92c2aa3543e2d2","650c16f0f2faf8d7a0d14c09","651c1c3b52d3e8e52b59baa3","null","null","<p style=""font-size: 60px; font-family: BACS"">GumLlQGb</p>","","","","","","","","",""
"html-keyboard-response","61","143756","0.0-8.0-0.53","608c2e566d92c2aa3543e2d2","650c16f0f2faf8d7a0d14c09","651c1c3b52d3e8e52b59baa3","null","null","<p style=""font-size: 60px; font-family: BACS"">LOLkUmvG</p>","","","","","","","","",""
"html-keyboard-response","62","144763","0.0-8.0-0.54","608c2e566d92c2aa3543e2d2","650c16f0f2faf8d7a0d14c09","651c1c3b52d3e8e52b59baa3","null","null","<p style=""font-size: 60px; font-family: BACS"">hlkTdPc</p>","","","","","","","","",""
"html-keyboard-response","63","145769","0.0-8.0-0.55","608c2e566d92c2aa3543e2d2","650c16f0f2faf8d7a0d14c09","651c1c3b52d3e8e52b59baa3","null","null","<p style=""font-size: 60px; font-family: BACS"">ldAamvG</p>","","","","","","","","",""
"html-keyboard-response","64","146781","0.0-8.0-0.56","608c2e566d92c2aa3543e2d2","650c16f0f2faf8d7a0d14c09","651c1c3b52d3e8e52b59baa3","null","null","<p style=""font-size: 60px; font-family: BACS"">aUZAvAvb</p>","","","","","","","","",""
"html-keyboard-response","65","147791","0.0-8.0-0.57","608c2e566d92c2aa3543e2d2","650c16f0f2faf8d7a0d14c09","651c1c3b52d3e8e52b59baa3","null","null","<p style=""font-size: 60px; font-family: BACS"">CmcOdPc</p>","","","","","","","","",""
"html-keyboard-response","66","148795","0.0-8.0-0.58","608c2e566d92c2aa3543e2d2","650c16f0f2faf8d7a0d14c09","651c1c3b52d3e8e52b59baa3","null","null","<p style=""font-size: 60px; font-family: BACS"">LOLkUYbN</p>","","","","","","","","",""
"html-keyboard-response","67","149802","0.0-8.0-0.59","608c2e566d92c2aa3543e2d2","650c16f0f2faf8d7a0d14c09","651c1c3b52d3e8e52b59baa3","null","null","<p style=""font-size: 60px; font-family: BACS"">mrOdvAvb</p>","","","","","","","","",""
"html-keyboard-response","68","150811","0.0-8.0-0.60","608c2e566d92c2aa3543e2d2","650c16f0f2faf8d7a0d14c09","651c1c3b52d3e8e52b59baa3","null","null","<p style=""font-size: 60px; font-family: BACS"">EhbtBbM</p>","","","","","","","","",""
"html-keyboard-response","69","151815","0.0-8.0-0.61","608c2e566d92c2aa3543e2d2","650c16f0f2faf8d7a0d14c09","651c1c3b52d3e8e52b59baa3","null","null","<p style=""font-size: 60px; font-family: BACS"">GumLlJUNa</p>","","","","","","","","",""
"html-keyboard-response","70","152817","0.0-8.0-0.62","608c2e566d92c2aa3543e2d2","650c16f0f2faf8d7a0d14c09","651c1c3b52d3e8e52b59baa3","null","null","<p style=""font-size: 60px; font-family: BACS"">YOaAbvAvb</p>","","","","","","","","",""
"html-keyboard-response","71","153825","0.0-8.0-0.63","608c2e566d92c2aa3543e2d2","650c16f0f2faf8d7a0d14c09","651c1c3b52d3e8e52b59baa3","null","null","<p style=""font-size: 60px; font-family: BACS"">lkAkJUNa</p>","","","","","","","","",""
"html-keyboard-response","72","154839","0.0-8.0-0.64","608c2e566d92c2aa3543e2d2","650c16f0f2faf8d7a0d14c09","651c1c3b52d3e8e52b59baa3","null","null","<p style=""font-size: 60px; font-family: BACS"">PEtEMAB</p>","","","","","","","","",""
"html-keyboard-response","73","155843","0.0-8.0-0.65","608c2e566d92c2aa3543e2d2","650c16f0f2faf8d7a0d14c09","651c1c3b52d3e8e52b59baa3","null","null","<p style=""font-size: 60px; font-family: BACS"">aONdvAvb</p>","","","","","","","","",""
"html-keyboard-response","74","156845","0.0-8.0-0.66","608c2e566d92c2aa3543e2d2","650c16f0f2faf8d7a0d14c09","651c1c3b52d3e8e52b59baa3","null","null","<p style=""font-size: 60px; font-family: BACS"">krGuQGb</p>","","","","","","","","",""
"html-keyboard-response","75","157853","0.0-8.0-0.67","608c2e566d92c2aa3543e2d2","650c16f0f2faf8d7a0d14c09","651c1c3b52d3e8e52b59baa3","null","null","<p style=""font-size: 60px; font-family: BACS"">hlkThRKm</p>","","","","","","","","",""
"html-keyboard-response","76","158856","0.0-8.0-0.68","608c2e566d92c2aa3543e2d2","650c16f0f2faf8d7a0d14c09","651c1c3b52d3e8e52b59baa3","null","null","<p style=""font-size: 60px; font-family: BACS"">cROMtdPc</p>","","","","","","","","",""
"html-keyboard-response","77","159870","0.0-8.0-0.69","608c2e566d92c2aa3543e2d2","650c16f0f2faf8d7a0d14c09","651c1c3b52d3e8e52b59baa3","null","null","<p style=""font-size: 60px; font-family: BACS"">EhbtMAB</p>","","","","","","","","",""
"html-keyboard-response","78","160877","0.0-8.0-0.70","608c2e566d92c2aa3543e2d2","650c16f0f2faf8d7a0d14c09","651c1c3b52d3e8e52b59baa3","null","null","<p style=""font-size: 60px; font-family: BACS"">damYbYbN</p>","","","","","","","","",""
"html-keyboard-response","79","161885","0.0-8.0-0.71","608c2e566d92c2aa3543e2d2","650c16f0f2faf8d7a0d14c09","651c1c3b52d3e8e52b59baa3","null","null","<p style=""font-size: 60px; font-family: BACS"">ctkthRKm</p>","","","","","","","","",""
"html-keyboard-response","80","162887","0.0-8.0-0.72","608c2e566d92c2aa3543e2d2","650c16f0f2faf8d7a0d14c09","651c1c3b52d3e8e52b59baa3","null","null","<p style=""font-size: 60px; font-family: BACS"">hlkTCkbd</p>","","","","","","","","",""
"html-keyboard-response","81","163891","0.0-8.0-0.73","608c2e566d92c2aa3543e2d2","650c16f0f2faf8d7a0d14c09","651c1c3b52d3e8e52b59baa3","null","null","<p style=""font-size: 60px; font-family: BACS"">PdDTMAB</p>","","","","","","","","",""
"html-keyboard-response","82","164894","0.0-8.0-0.74","608c2e566d92c2aa3543e2d2","650c16f0f2faf8d7a0d14c09","651c1c3b52d3e8e52b59baa3","null","null","<p style=""font-size: 60px; font-family: BACS"">krGuvAvb</p>","","","","","","","","",""
"html-keyboard-response","83","165911","0.0-8.0-0.75","608c2e566d92c2aa3543e2d2","650c16f0f2faf8d7a0d14c09","651c1c3b52d3e8e52b59baa3","null","null","<p style=""font-size: 60px; font-family: BACS"">EhbtdPc</p>","","","","","","","","",""
"html-keyboard-response","84","166918","0.0-8.0-0.76","608c2e566d92c2aa3543e2d2","650c16f0f2faf8d7a0d14c09","651c1c3b52d3e8e52b59baa3","null","null","<p style=""font-size: 60px; font-family: BACS"">CmcOMAB</p>","","","","","","","","",""
"html-keyboard-response","85","167923","0.0-8.0-0.77","608c2e566d92c2aa3543e2d2","650c16f0f2faf8d7a0d14c09","651c1c3b52d3e8e52b59baa3","null","null","<p style=""font-size: 60px; font-family: BACS"">ctktCkbd</p>","","","","","","","","",""
"html-keyboard-response","86","168925","0.0-8.0-0.78","608c2e566d92c2aa3543e2d2","650c16f0f2faf8d7a0d14c09","651c1c3b52d3e8e52b59baa3","null","null","<p style=""font-size: 60px; font-family: BACS"">aONdQGb</p>","","","","","","","","",""
"html-keyboard-response","87","169942","0.0-8.0-0.79","608c2e566d92c2aa3543e2d2","650c16f0f2faf8d7a0d14c09","651c1c3b52d3e8e52b59baa3","null","null","<p style=""font-size: 60px; font-family: BACS"">krGuJUNa</p>","","","","","","","","",""
"html-keyboard-response","88","176361","0.0-9.0","608c2e566d92c2aa3543e2d2","650c16f0f2faf8d7a0d14c09","651c1c3b52d3e8e52b59baa3","6417"," ","<p>Great, you've seen the first block of words. You may now take a short break.</p>
      <p>Press the spacebar when you're ready to continue.</p>","","","","","","","","",""
"html-keyboard-response","89","177378","0.0-10.0-0.0","608c2e566d92c2aa3543e2d2","650c16f0f2faf8d7a0d14c09","651c1c3b52d3e8e52b59baa3","null","null","<p style=""font-size: 60px; font-family: BACS"">mrOdmvG</p>","","","","","","","","",""
"html-keyboard-response","90","178383","0.0-10.0-0.1","608c2e566d92c2aa3543e2d2","650c16f0f2faf8d7a0d14c09","651c1c3b52d3e8e52b59baa3","null","null","<p style=""font-size: 60px; font-family: BACS"">aONdJUNa</p>","","","","","","","","",""
"html-keyboard-response","91","179392","0.0-10.0-0.2","608c2e566d92c2aa3543e2d2","650c16f0f2faf8d7a0d14c09","651c1c3b52d3e8e52b59baa3","null","null","<p style=""font-size: 60px; font-family: BACS"">ctktBbM</p>","","","","","","","","",""
"html-keyboard-response","92","180411","0.0-10.0-0.3","608c2e566d92c2aa3543e2d2","650c16f0f2faf8d7a0d14c09","651c1c3b52d3e8e52b59baa3","null","null","<p style=""font-size: 60px; font-family: BACS"">DdckMAB</p>","","","","","","","","",""
"html-keyboard-response","93","181426","0.0-10.0-0.4","608c2e566d92c2aa3543e2d2","650c16f0f2faf8d7a0d14c09","651c1c3b52d3e8e52b59baa3","null","null","<p style=""font-size: 60px; font-family: BACS"">ctktCkbd</p>","","","","","","","","",""
"html-keyboard-response","94","182440","0.0-10.0-0.5","608c2e566d92c2aa3543e2d2","650c16f0f2faf8d7a0d14c09","651c1c3b52d3e8e52b59baa3","null","null","<p style=""font-size: 60px; font-family: BACS"">damYbQGb</p>","","","","","","","","",""
"html-keyboard-response","95","183442","0.0-10.0-0.6","608c2e566d92c2aa3543e2d2","650c16f0f2faf8d7a0d14c09","651c1c3b52d3e8e52b59baa3","null","null","<p style=""font-size: 60px; font-family: BACS"">CmcOMAB</p>","","","","","","","","",""
"html-keyboard-response","96","184457","0.0-10.0-0.7","608c2e566d92c2aa3543e2d2","650c16f0f2faf8d7a0d14c09","651c1c3b52d3e8e52b59baa3","null","null","<p style=""font-size: 60px; font-family: BACS"">LOLkUmvG</p>","","","","","","","","",""
"html-keyboard-response","97","185468","0.0-10.0-0.8","608c2e566d92c2aa3543e2d2","650c16f0f2faf8d7a0d14c09","651c1c3b52d3e8e52b59baa3","null","null","<p style=""font-size: 60px; font-family: BACS"">cROMtdPc</p>","","","","","","","","",""
"html-keyboard-response","98","186483","0.0-10.0-0.9","608c2e566d92c2aa3543e2d2","650c16f0f2faf8d7a0d14c09","651c1c3b52d3e8e52b59baa3","null","null","<p style=""font-size: 60px; font-family: BACS"">krGuvAvb</p>","","","","","","","","",""
"html-keyboard-response","99","187489","0.0-10.0-0.10","608c2e566d92c2aa3543e2d2","650c16f0f2faf8d7a0d14c09","651c1c3b52d3e8e52b59baa3","null","null","<p style=""font-size: 60px; font-family: BACS"">CmcOBbM</p>","","","","","","","","",""
"html-keyboard-response","100","188499","0.0-10.0-0.11","608c2e566d92c2aa3543e2d2","650c16f0f2faf8d7a0d14c09","651c1c3b52d3e8e52b59baa3","null","null","<p style=""font-size: 60px; font-family: BACS"">YOaAbJUNa</p>","","","","","","","","",""
"html-keyboard-response","101","189515","0.0-10.0-0.12","608c2e566d92c2aa3543e2d2","650c16f0f2faf8d7a0d14c09","651c1c3b52d3e8e52b59baa3","null","null","<p style=""font-size: 60px; font-family: BACS"">cROMtBbM</p>","","","","","","","","",""
"html-keyboard-response","102","190529","0.0-10.0-0.13","608c2e566d92c2aa3543e2d2","650c16f0f2faf8d7a0d14c09","651c1c3b52d3e8e52b59baa3","null","null","<p style=""font-size: 60px; font-family: BACS"">PEtEMAB</p>","","","","","","","","",""
"html-keyboard-response","103","191533","0.0-10.0-0.14","608c2e566d92c2aa3543e2d2","650c16f0f2faf8d7a0d14c09","651c1c3b52d3e8e52b59baa3","null","null","<p style=""font-size: 60px; font-family: BACS"">DdckhRKm</p>","","","","","","","","",""
"html-keyboard-response","104","192536","0.0-10.0-0.15","608c2e566d92c2aa3543e2d2","650c16f0f2faf8d7a0d14c09","651c1c3b52d3e8e52b59baa3","null","null","<p style=""font-size: 60px; font-family: BACS"">PdDTCkbd</p>","","","","","","","","",""
"html-keyboard-response","105","193552","0.0-10.0-0.16","608c2e566d92c2aa3543e2d2","650c16f0f2faf8d7a0d14c09","651c1c3b52d3e8e52b59baa3","null","null","<p style=""font-size: 60px; font-family: BACS"">cROMthRKm</p>","","","","","","","","",""
"html-keyboard-response","106","194560","0.0-10.0-0.17","608c2e566d92c2aa3543e2d2","650c16f0f2faf8d7a0d14c09","651c1c3b52d3e8e52b59baa3","null","null","<p style=""font-size: 60px; font-family: BACS"">GumLlQGb</p>","","","","","","","","",""
"html-keyboard-response","107","195576","0.0-10.0-0.18","608c2e566d92c2aa3543e2d2","650c16f0f2faf8d7a0d14c09","651c1c3b52d3e8e52b59baa3","null","null","<p style=""font-size: 60px; font-family: BACS"">mrOdvAvb</p>","","","","","","","","",""
"html-keyboard-response","108","196580","0.0-10.0-0.19","608c2e566d92c2aa3543e2d2","650c16f0f2faf8d7a0d14c09","651c1c3b52d3e8e52b59baa3","null","null","<p style=""font-size: 60px; font-family: BACS"">aONdYbN</p>","","","","","","","","",""
"html-keyboard-response","109","197587","0.0-10.0-0.20","608c2e566d92c2aa3543e2d2","650c16f0f2faf8d7a0d14c09","651c1c3b52d3e8e52b59baa3","null","null","<p style=""font-size: 60px; font-family: BACS"">lkAkvAvb</p>","","","","","","","","",""
"html-keyboard-response","110","198592","0.0-10.0-0.21","608c2e566d92c2aa3543e2d2","650c16f0f2faf8d7a0d14c09","651c1c3b52d3e8e52b59baa3","null","null","<p style=""font-size: 60px; font-family: BACS"">RdPtDhRKm</p>","","","","","","","","",""
"html-keyboard-response","111","199594","0.0-10.0-0.22","608c2e566d92c2aa3543e2d2","650c16f0f2faf8d7a0d14c09","651c1c3b52d3e8e52b59baa3","null","null","<p style=""font-size: 60px; font-family: BACS"">PEtEdPc</p>","","","","","","","","",""
"html-keyboard-response","112","200611","0.0-10.0-0.23","608c2e566d92c2aa3543e2d2","650c16f0f2faf8d7a0d14c09","651c1c3b52d3e8e52b59baa3","null","null","<p style=""font-size: 60px; font-family: BACS"">damYbJUNa</p>","","","","","","","","",""
"html-keyboard-response","113","201621","0.0-10.0-0.24","608c2e566d92c2aa3543e2d2","650c16f0f2faf8d7a0d14c09","651c1c3b52d3e8e52b59baa3","null","null","<p style=""font-size: 60px; font-family: BACS"">LOLkUvAvb</p>","","","","","","","","",""
"html-keyboard-response","114","202633","0.0-10.0-0.25","608c2e566d92c2aa3543e2d2","650c16f0f2faf8d7a0d14c09","651c1c3b52d3e8e52b59baa3","null","null","<p style=""font-size: 60px; font-family: BACS"">hlkTBbM</p>","","","","","","","","",""
"html-keyboard-response","115","203634","0.0-10.0-0.26","608c2e566d92c2aa3543e2d2","650c16f0f2faf8d7a0d14c09","651c1c3b52d3e8e52b59baa3","null","null","<p style=""font-size: 60px; font-family: BACS"">DdckCkbd</p>","","","","","","","","",""
"html-keyboard-response","116","204646","0.0-10.0-0.27","608c2e566d92c2aa3543e2d2","650c16f0f2faf8d7a0d14c09","651c1c3b52d3e8e52b59baa3","null","null","<p style=""font-size: 60px; font-family: BACS"">mrOdYbN</p>","","","","","","","","",""
"html-keyboard-response","117","205661","0.0-10.0-0.28","608c2e566d92c2aa3543e2d2","650c16f0f2faf8d7a0d14c09","651c1c3b52d3e8e52b59baa3","null","null","<p style=""font-size: 60px; font-family: BACS"">PdDTMAB</p>","","","","","","","","",""
"html-keyboard-response","118","206668","0.0-10.0-0.29","608c2e566d92c2aa3543e2d2","650c16f0f2faf8d7a0d14c09","651c1c3b52d3e8e52b59baa3","null","null","<p style=""font-size: 60px; font-family: BACS"">EhbthRKm</p>","","","","","","","","",""
"html-keyboard-response","119","207674","0.0-10.0-0.30","608c2e566d92c2aa3543e2d2","650c16f0f2faf8d7a0d14c09","651c1c3b52d3e8e52b59baa3","null","null","<p style=""font-size: 60px; font-family: BACS"">hlkTdPc</p>","","","","","","","","",""
"html-keyboard-response","120","208680","0.0-10.0-0.31","608c2e566d92c2aa3543e2d2","650c16f0f2faf8d7a0d14c09","651c1c3b52d3e8e52b59baa3","null","null","<p style=""font-size: 60px; font-family: BACS"">lkAkQGb</p>","","","","","","","","",""
"html-keyboard-response","121","209694","0.0-10.0-0.32","608c2e566d92c2aa3543e2d2","650c16f0f2faf8d7a0d14c09","651c1c3b52d3e8e52b59baa3","null","null","<p style=""font-size: 60px; font-family: BACS"">LOLkUJUNa</p>","","","","","","","","",""
"html-keyboard-response","122","210705","0.0-10.0-0.33","608c2e566d92c2aa3543e2d2","650c16f0f2faf8d7a0d14c09","651c1c3b52d3e8e52b59baa3","null","null","<p style=""font-size: 60px; font-family: BACS"">EhbtMAB</p>","","","","","","","","",""
"html-keyboard-response","123","211719","0.0-10.0-0.34","608c2e566d92c2aa3543e2d2","650c16f0f2faf8d7a0d14c09","651c1c3b52d3e8e52b59baa3","null","null","<p style=""font-size: 60px; font-family: BACS"">ldAamvG</p>","","","","","","","","",""
"html-keyboard-response","124","212734","0.0-10.0-0.35","608c2e566d92c2aa3543e2d2","650c16f0f2faf8d7a0d14c09","651c1c3b52d3e8e52b59baa3","null","null","<p style=""font-size: 60px; font-family: BACS"">RdPtDMAB</p>","","","","","","","","",""
"html-keyboard-response","125","213739","0.0-10.0-0.36","608c2e566d92c2aa3543e2d2","650c16f0f2faf8d7a0d14c09","651c1c3b52d3e8e52b59baa3","null","null","<p style=""font-size: 60px; font-family: BACS"">CmcOdPc</p>","","","","","","","","",""
"html-keyboard-response","126","214753","0.0-10.0-0.37","608c2e566d92c2aa3543e2d2","650c16f0f2faf8d7a0d14c09","651c1c3b52d3e8e52b59baa3","null","null","<p style=""font-size: 60px; font-family: BACS"">aUZAmvG</p>","","","","","","","","",""
"html-keyboard-response","127","215763","0.0-10.0-0.38","608c2e566d92c2aa3543e2d2","650c16f0f2faf8d7a0d14c09","651c1c3b52d3e8e52b59baa3","null","null","<p style=""font-size: 60px; font-family: BACS"">ldAaQGb</p>","","","","","","","","",""
"html-keyboard-response","128","216778","0.0-10.0-0.39","608c2e566d92c2aa3543e2d2","650c16f0f2faf8d7a0d14c09","651c1c3b52d3e8e52b59baa3","null","null","<p style=""font-size: 60px; font-family: BACS"">PEtEBbM</p>","","","","","","","","",""
"html-keyboard-response","129","217788","0.0-10.0-0.40","608c2e566d92c2aa3543e2d2","650c16f0f2faf8d7a0d14c09","651c1c3b52d3e8e52b59baa3","null","null","<p style=""font-size: 60px; font-family: BACS"">GumLlYbN</p>","","","","","","","","",""
"html-keyboard-response","130","218801","0.0-10.0-0.41","608c2e566d92c2aa3543e2d2","650c16f0f2faf8d7a0d14c09","651c1c3b52d3e8e52b59baa3","null","null","<p style=""font-size: 60px; font-family: BACS"">cROMtMAB</p>","","","","","","","","",""
"html-keyboard-response","131","219808","0.0-10.0-0.42","608c2e566d92c2aa3543e2d2","650c16f0f2faf8d7a0d14c09","651c1c3b52d3e8e52b59baa3","null","null","<p style=""font-size: 60px; font-family: BACS"">EhbtBbM</p>","","","","","","","","",""
"html-keyboard-response","132","220810","0.0-10.0-0.43","608c2e566d92c2aa3543e2d2","650c16f0f2faf8d7a0d14c09","651c1c3b52d3e8e52b59baa3","null","null","<p style=""font-size: 60px; font-family: BACS"">ctktMAB</p>","","","","","","","","",""
"html-keyboard-response","133","221824","0.0-10.0-0.44","608c2e566d92c2aa3543e2d2","650c16f0f2faf8d7a0d14c09","651c1c3b52d3e8e52b59baa3","null","null","<p style=""font-size: 60px; font-family: BACS"">DdckdPc</p>","","","","","","","","",""
"html-keyboard-response","134","222827","0.0-10.0-0.45","608c2e566d92c2aa3543e2d2","650c16f0f2faf8d7a0d14c09","651c1c3b52d3e8e52b59baa3","null","null","<p style=""font-size: 60px; font-family: BACS"">aONdvAvb</p>","","","","","","","","",""
"html-keyboard-response","135","223839","0.0-10.0-0.46","608c2e566d92c2aa3543e2d2","650c16f0f2faf8d7a0d14c09","651c1c3b52d3e8e52b59baa3","null","null","<p style=""font-size: 60px; font-family: BACS"">hlctEdPc</p>","","","","","","","","",""
"html-keyboard-response","136","224840","0.0-10.0-0.47","608c2e566d92c2aa3543e2d2","650c16f0f2faf8d7a0d14c09","651c1c3b52d3e8e52b59baa3","null","null","<p style=""font-size: 60px; font-family: BACS"">aUZAQGb</p>","","","","","","","","",""
"html-keyboard-response","137","225845","0.0-10.0-0.48","608c2e566d92c2aa3543e2d2","650c16f0f2faf8d7a0d14c09","651c1c3b52d3e8e52b59baa3","null","null","<p style=""font-size: 60px; font-family: BACS"">damYbmvG</p>","","","","","","","","",""
"html-keyboard-response","138","226848","0.0-10.0-0.49","608c2e566d92c2aa3543e2d2","650c16f0f2faf8d7a0d14c09","651c1c3b52d3e8e52b59baa3","null","null","<p style=""font-size: 60px; font-family: BACS"">ctkthRKm</p>","","","","","","","","",""
"html-keyboard-response","139","227860","0.0-10.0-0.50","608c2e566d92c2aa3543e2d2","650c16f0f2faf8d7a0d14c09","651c1c3b52d3e8e52b59baa3","null","null","<p style=""font-size: 60px; font-family: BACS"">GumLlmvG</p>","","","","","","","","",""
"html-keyboard-response","140","228872","0.0-10.0-0.51","608c2e566d92c2aa3543e2d2","650c16f0f2faf8d7a0d14c09","651c1c3b52d3e8e52b59baa3","null","null","<p style=""font-size: 60px; font-family: BACS"">krGuJUNa</p>","","","","","","","","",""
"html-keyboard-response","141","229886","0.0-10.0-0.52","608c2e566d92c2aa3543e2d2","650c16f0f2faf8d7a0d14c09","651c1c3b52d3e8e52b59baa3","null","null","<p style=""font-size: 60px; font-family: BACS"">ldAavAvb</p>","","","","","","","","",""
"html-keyboard-response","142","230889","0.0-10.0-0.53","608c2e566d92c2aa3543e2d2","650c16f0f2faf8d7a0d14c09","651c1c3b52d3e8e52b59baa3","null","null","<p style=""font-size: 60px; font-family: BACS"">PdDTdPc</p>","","","","","","","","",""
"html-keyboard-response","143","231897","0.0-10.0-0.54","608c2e566d92c2aa3543e2d2","650c16f0f2faf8d7a0d14c09","651c1c3b52d3e8e52b59baa3","null","null","<p style=""font-size: 60px; font-family: BACS"">YOaAbYbN</p>","","","","","","","","",""
"html-keyboard-response","144","232903","0.0-10.0-0.55","608c2e566d92c2aa3543e2d2","650c16f0f2faf8d7a0d14c09","651c1c3b52d3e8e52b59baa3","null","null","<p style=""font-size: 60px; font-family: BACS"">aUZAvAvb</p>","","","","","","","","",""
"html-keyboard-response","145","233905","0.0-10.0-0.56","608c2e566d92c2aa3543e2d2","650c16f0f2faf8d7a0d14c09","651c1c3b52d3e8e52b59baa3","null","null","<p style=""font-size: 60px; font-family: BACS"">hlctECkbd</p>","","","","","","","","",""
"html-keyboard-response","146","234913","0.0-10.0-0.57","608c2e566d92c2aa3543e2d2","650c16f0f2faf8d7a0d14c09","651c1c3b52d3e8e52b59baa3","null","null","<p style=""font-size: 60px; font-family: BACS"">aUZAYbN</p>","","","","","","","","",""
"html-keyboard-response","147","235923","0.0-10.0-0.58","608c2e566d92c2aa3543e2d2","650c16f0f2faf8d7a0d14c09","651c1c3b52d3e8e52b59baa3","null","null","<p style=""font-size: 60px; font-family: BACS"">lkAkmvG</p>","","","","","","","","",""
"html-keyboard-response","148","236926","0.0-10.0-0.59","608c2e566d92c2aa3543e2d2","650c16f0f2faf8d7a0d14c09","651c1c3b52d3e8e52b59baa3","null","null","<p style=""font-size: 60px; font-family: BACS"">YOaAbvAvb</p>","","","","","","","","",""
"html-keyboard-response","149","237940","0.0-10.0-0.60","608c2e566d92c2aa3543e2d2","650c16f0f2faf8d7a0d14c09","651c1c3b52d3e8e52b59baa3","null","null","<p style=""font-size: 60px; font-family: BACS"">RdPtDBbM</p>","","","","","","","","",""
"html-keyboard-response","150","238945","0.0-10.0-0.61","608c2e566d92c2aa3543e2d2","650c16f0f2faf8d7a0d14c09","651c1c3b52d3e8e52b59baa3","null","null","<p style=""font-size: 60px; font-family: BACS"">damYbYbN</p>","","","","","","","","",""
"html-keyboard-response","151","239947","0.0-10.0-0.62","608c2e566d92c2aa3543e2d2","650c16f0f2faf8d7a0d14c09","651c1c3b52d3e8e52b59baa3","null","null","<p style=""font-size: 60px; font-family: BACS"">aONdQGb</p>","","","","","","","","",""
"html-keyboard-response","152","240952","0.0-10.0-0.63","608c2e566d92c2aa3543e2d2","650c16f0f2faf8d7a0d14c09","651c1c3b52d3e8e52b59baa3","null","null","<p style=""font-size: 60px; font-family: BACS"">hlkThRKm</p>","","","","","","","","",""
"html-keyboard-response","153","241955","0.0-10.0-0.64","608c2e566d92c2aa3543e2d2","650c16f0f2faf8d7a0d14c09","651c1c3b52d3e8e52b59baa3","null","null","<p style=""font-size: 60px; font-family: BACS"">krGuQGb</p>","","","","","","","","",""
"html-keyboard-response","154","242965","0.0-10.0-0.65","608c2e566d92c2aa3543e2d2","650c16f0f2faf8d7a0d14c09","651c1c3b52d3e8e52b59baa3","null","null","<p style=""font-size: 60px; font-family: BACS"">YOaAbmvG</p>","","","","","","","","",""
"html-keyboard-response","155","243977","0.0-10.0-0.66","608c2e566d92c2aa3543e2d2","650c16f0f2faf8d7a0d14c09","651c1c3b52d3e8e52b59baa3","null","null","<p style=""font-size: 60px; font-family: BACS"">EhbtdPc</p>","","","","","","","","",""
"html-keyboard-response","156","244987","0.0-10.0-0.67","608c2e566d92c2aa3543e2d2","650c16f0f2faf8d7a0d14c09","651c1c3b52d3e8e52b59baa3","null","null","<p style=""font-size: 60px; font-family: BACS"">hlctEhRKm</p>","","","","","","","","",""
"html-keyboard-response","157","245989","0.0-10.0-0.68","608c2e566d92c2aa3543e2d2","650c16f0f2faf8d7a0d14c09","651c1c3b52d3e8e52b59baa3","null","null","<p style=""font-size: 60px; font-family: BACS"">ldAaJUNa</p>","","","","","","","","",""
"html-keyboard-response","158","246992","0.0-10.0-0.69","608c2e566d92c2aa3543e2d2","650c16f0f2faf8d7a0d14c09","651c1c3b52d3e8e52b59baa3","null","null","<p style=""font-size: 60px; font-family: BACS"">PEtECkbd</p>","","","","","","","","",""
"html-keyboard-response","159","247996","0.0-10.0-0.70","608c2e566d92c2aa3543e2d2","650c16f0f2faf8d7a0d14c09","651c1c3b52d3e8e52b59baa3","null","null","<p style=""font-size: 60px; font-family: BACS"">hlctEBbM</p>","","","","","","","","",""
"html-keyboard-response","160","249013","0.0-10.0-0.71","608c2e566d92c2aa3543e2d2","650c16f0f2faf8d7a0d14c09","651c1c3b52d3e8e52b59baa3","null","null","<p style=""font-size: 60px; font-family: BACS"">PdDThRKm</p>","","","","","","","","",""
"html-keyboard-response","161","250015","0.0-10.0-0.72","608c2e566d92c2aa3543e2d2","650c16f0f2faf8d7a0d14c09","651c1c3b52d3e8e52b59baa3","null","null","<p style=""font-size: 60px; font-family: BACS"">CmcOCkbd</p>","","","","","","","","",""
"html-keyboard-response","162","251019","0.0-10.0-0.73","608c2e566d92c2aa3543e2d2","650c16f0f2faf8d7a0d14c09","651c1c3b52d3e8e52b59baa3","null","null","<p style=""font-size: 60px; font-family: BACS"">lkAkJUNa</p>","","","","","","","","",""
"html-keyboard-response","163","252024","0.0-10.0-0.74","608c2e566d92c2aa3543e2d2","650c16f0f2faf8d7a0d14c09","651c1c3b52d3e8e52b59baa3","null","null","<p style=""font-size: 60px; font-family: BACS"">krGuYbN</p>","","","","","","","","",""
"html-keyboard-response","164","253031","0.0-10.0-0.75","608c2e566d92c2aa3543e2d2","650c16f0f2faf8d7a0d14c09","651c1c3b52d3e8e52b59baa3","null","null","<p style=""font-size: 60px; font-family: BACS"">mrOdQGb</p>","","","","","","","","",""
"html-keyboard-response","165","254046","0.0-10.0-0.76","608c2e566d92c2aa3543e2d2","650c16f0f2faf8d7a0d14c09","651c1c3b52d3e8e52b59baa3","null","null","<p style=""font-size: 60px; font-family: BACS"">GumLlJUNa</p>","","","","","","","","",""
"html-keyboard-response","166","255050","0.0-10.0-0.77","608c2e566d92c2aa3543e2d2","650c16f0f2faf8d7a0d14c09","651c1c3b52d3e8e52b59baa3","null","null","<p style=""font-size: 60px; font-family: BACS"">RdPtDCkbd</p>","","","","","","","","",""
"html-keyboard-response","167","256052","0.0-10.0-0.78","608c2e566d92c2aa3543e2d2","650c16f0f2faf8d7a0d14c09","651c1c3b52d3e8e52b59baa3","null","null","<p style=""font-size: 60px; font-family: BACS"">LOLkUYbN</p>","","","","","","","","",""
"html-keyboard-response","168","257053","0.0-10.0-0.79","608c2e566d92c2aa3543e2d2","650c16f0f2faf8d7a0d14c09","651c1c3b52d3e8e52b59baa3","null","null","<p style=""font-size: 60px; font-family: BACS"">hlkTCkbd</p>","","","","","","","","",""
"html-keyboard-response","169","268052","0.0-11.0","608c2e566d92c2aa3543e2d2","650c16f0f2faf8d7a0d14c09","651c1c3b52d3e8e52b59baa3","10998"," ","<p>Great, you've seen the second block of words. You may now take a short break.</p>
      <p>Press the spacebar when you're ready to continue.</p>","","","","","","","","",""
"html-keyboard-response","170","269058","0.0-12.0-0.0","608c2e566d92c2aa3543e2d2","650c16f0f2faf8d7a0d14c09","651c1c3b52d3e8e52b59baa3","null","null","<p style=""font-size: 60px; font-family: BACS"">PdDTMAB</p>","","","","","","","","",""
"html-keyboard-response","171","270070","0.0-12.0-0.1","608c2e566d92c2aa3543e2d2","650c16f0f2faf8d7a0d14c09","651c1c3b52d3e8e52b59baa3","null","null","<p style=""font-size: 60px; font-family: BACS"">ctktBbM</p>","","","","","","","","",""
"html-keyboard-response","172","271086","0.0-12.0-0.2","608c2e566d92c2aa3543e2d2","650c16f0f2faf8d7a0d14c09","651c1c3b52d3e8e52b59baa3","null","null","<p style=""font-size: 60px; font-family: BACS"">aONdJUNa</p>","","","","","","","","",""
"html-keyboard-response","173","272100","0.0-12.0-0.3","608c2e566d92c2aa3543e2d2","650c16f0f2faf8d7a0d14c09","651c1c3b52d3e8e52b59baa3","null","null","<p style=""font-size: 60px; font-family: BACS"">hlkThRKm</p>","","","","","","","","",""
"html-keyboard-response","174","273107","0.0-12.0-0.4","608c2e566d92c2aa3543e2d2","650c16f0f2faf8d7a0d14c09","651c1c3b52d3e8e52b59baa3","null","null","<p style=""font-size: 60px; font-family: BACS"">GumLlQGb</p>","","","","","","","","",""
"html-keyboard-response","175","274121","0.0-12.0-0.5","608c2e566d92c2aa3543e2d2","650c16f0f2faf8d7a0d14c09","651c1c3b52d3e8e52b59baa3","null","null","<p style=""font-size: 60px; font-family: BACS"">PdDThRKm</p>","","","","","","","","",""
"html-keyboard-response","176","275124","0.0-12.0-0.6","608c2e566d92c2aa3543e2d2","650c16f0f2faf8d7a0d14c09","651c1c3b52d3e8e52b59baa3","null","null","<p style=""font-size: 60px; font-family: BACS"">hlkTCkbd</p>","","","","","","","","",""
"html-keyboard-response","177","276129","0.0-12.0-0.7","608c2e566d92c2aa3543e2d2","650c16f0f2faf8d7a0d14c09","651c1c3b52d3e8e52b59baa3","null","null","<p style=""font-size: 60px; font-family: BACS"">mrOdYbN</p>","","","","","","","","",""
"html-keyboard-response","178","277130","0.0-12.0-0.8","608c2e566d92c2aa3543e2d2","650c16f0f2faf8d7a0d14c09","651c1c3b52d3e8e52b59baa3","null","null","<p style=""font-size: 60px; font-family: BACS"">damYbmvG</p>","","","","","","","","",""
"html-keyboard-response","179","278134","0.0-12.0-0.9","608c2e566d92c2aa3543e2d2","650c16f0f2faf8d7a0d14c09","651c1c3b52d3e8e52b59baa3","null","null","<p style=""font-size: 60px; font-family: BACS"">hlctEBbM</p>","","","","","","","","",""
"html-keyboard-response","180","279139","0.0-12.0-0.10","608c2e566d92c2aa3543e2d2","650c16f0f2faf8d7a0d14c09","651c1c3b52d3e8e52b59baa3","null","null","<p style=""font-size: 60px; font-family: BACS"">GumLlmvG</p>","","","","","","","","",""
"html-keyboard-response","181","280144","0.0-12.0-0.11","608c2e566d92c2aa3543e2d2","650c16f0f2faf8d7a0d14c09","651c1c3b52d3e8e52b59baa3","null","null","<p style=""font-size: 60px; font-family: BACS"">ctktCkbd</p>","","","","","","","","",""
"html-keyboard-response","182","281147","0.0-12.0-0.12","608c2e566d92c2aa3543e2d2","650c16f0f2faf8d7a0d14c09","651c1c3b52d3e8e52b59baa3","null","null","<p style=""font-size: 60px; font-family: BACS"">GumLlYbN</p>","","","","","","","","",""
"html-keyboard-response","183","282162","0.0-12.0-0.13","608c2e566d92c2aa3543e2d2","650c16f0f2faf8d7a0d14c09","651c1c3b52d3e8e52b59baa3","null","null","<p style=""font-size: 60px; font-family: BACS"">RdPtDCkbd</p>","","","","","","","","",""
"html-keyboard-response","184","283167","0.0-12.0-0.14","608c2e566d92c2aa3543e2d2","650c16f0f2faf8d7a0d14c09","651c1c3b52d3e8e52b59baa3","null","null","<p style=""font-size: 60px; font-family: BACS"">cROMtBbM</p>","","","","","","","","",""
"html-keyboard-response","185","284169","0.0-12.0-0.15","608c2e566d92c2aa3543e2d2","650c16f0f2faf8d7a0d14c09","651c1c3b52d3e8e52b59baa3","null","null","<p style=""font-size: 60px; font-family: BACS"">krGuvAvb</p>","","","","","","","","",""
"html-keyboard-response","186","285174","0.0-12.0-0.16","608c2e566d92c2aa3543e2d2","650c16f0f2faf8d7a0d14c09","651c1c3b52d3e8e52b59baa3","null","null","<p style=""font-size: 60px; font-family: BACS"">ldAamvG</p>","","","","","","","","",""
"html-keyboard-response","187","286191","0.0-12.0-0.17","608c2e566d92c2aa3543e2d2","650c16f0f2faf8d7a0d14c09","651c1c3b52d3e8e52b59baa3","null","null","<p style=""font-size: 60px; font-family: BACS"">DdckhRKm</p>","","","","","","","","",""
"html-keyboard-response","188","287194","0.0-12.0-0.18","608c2e566d92c2aa3543e2d2","650c16f0f2faf8d7a0d14c09","651c1c3b52d3e8e52b59baa3","null","null","<p style=""font-size: 60px; font-family: BACS"">aUZAYbN</p>","","","","","","","","",""
"html-keyboard-response","189","288201","0.0-12.0-0.19","608c2e566d92c2aa3543e2d2","650c16f0f2faf8d7a0d14c09","651c1c3b52d3e8e52b59baa3","null","null","<p style=""font-size: 60px; font-family: BACS"">CmcOMAB</p>","","","","","","","","",""
"html-keyboard-response","190","289207","0.0-12.0-0.20","608c2e566d92c2aa3543e2d2","650c16f0f2faf8d7a0d14c09","651c1c3b52d3e8e52b59baa3","null","null","<p style=""font-size: 60px; font-family: BACS"">PEtECkbd</p>","","","","","","","","",""
"html-keyboard-response","191","290215","0.0-12.0-0.21","608c2e566d92c2aa3543e2d2","650c16f0f2faf8d7a0d14c09","651c1c3b52d3e8e52b59baa3","null","null","<p style=""font-size: 60px; font-family: BACS"">EhbtdPc</p>","","","","","","","","",""
"html-keyboard-response","192","291219","0.0-12.0-0.22","608c2e566d92c2aa3543e2d2","650c16f0f2faf8d7a0d14c09","651c1c3b52d3e8e52b59baa3","null","null","<p style=""font-size: 60px; font-family: BACS"">aUZAvAvb</p>","","","","","","","","",""
"html-keyboard-response","193","292231","0.0-12.0-0.23","608c2e566d92c2aa3543e2d2","650c16f0f2faf8d7a0d14c09","651c1c3b52d3e8e52b59baa3","null","null","<p style=""font-size: 60px; font-family: BACS"">GumLlJUNa</p>","","","","","","","","",""
"html-keyboard-response","194","293238","0.0-12.0-0.24","608c2e566d92c2aa3543e2d2","650c16f0f2faf8d7a0d14c09","651c1c3b52d3e8e52b59baa3","null","null","<p style=""font-size: 60px; font-family: BACS"">DdckCkbd</p>","","","","","","","","",""
"html-keyboard-response","195","294244","0.0-12.0-0.25","608c2e566d92c2aa3543e2d2","650c16f0f2faf8d7a0d14c09","651c1c3b52d3e8e52b59baa3","null","null","<p style=""font-size: 60px; font-family: BACS"">ldAavAvb</p>","","","","","","","","",""
"html-keyboard-response","196","295251","0.0-12.0-0.26","608c2e566d92c2aa3543e2d2","650c16f0f2faf8d7a0d14c09","651c1c3b52d3e8e52b59baa3","null","null","<p style=""font-size: 60px; font-family: BACS"">RdPtDMAB</p>","","","","","","","","",""
"html-keyboard-response","197","296252","0.0-12.0-0.27","608c2e566d92c2aa3543e2d2","650c16f0f2faf8d7a0d14c09","651c1c3b52d3e8e52b59baa3","null","null","<p style=""font-size: 60px; font-family: BACS"">lkAkmvG</p>","","","","","","","","",""
"html-keyboard-response","198","297258","0.0-12.0-0.28","608c2e566d92c2aa3543e2d2","650c16f0f2faf8d7a0d14c09","651c1c3b52d3e8e52b59baa3","null","null","<p style=""font-size: 60px; font-family: BACS"">ctkthRKm</p>","","","","","","","","",""
"html-keyboard-response","199","298273","0.0-12.0-0.29","608c2e566d92c2aa3543e2d2","650c16f0f2faf8d7a0d14c09","651c1c3b52d3e8e52b59baa3","null","null","<p style=""font-size: 60px; font-family: BACS"">LOLkUYbN</p>","","","","","","","","",""
"html-keyboard-response","200","299285","0.0-12.0-0.30","608c2e566d92c2aa3543e2d2","650c16f0f2faf8d7a0d14c09","651c1c3b52d3e8e52b59baa3","null","null","<p style=""font-size: 60px; font-family: BACS"">lkAkJUNa</p>","","","","","","","","",""
"html-keyboard-response","201","300290","0.0-12.0-0.31","608c2e566d92c2aa3543e2d2","650c16f0f2faf8d7a0d14c09","651c1c3b52d3e8e52b59baa3","null","null","<p style=""font-size: 60px; font-family: BACS"">YOaAbmvG</p>","","","","","","","","",""
"html-keyboard-response","202","301293","0.0-12.0-0.32","608c2e566d92c2aa3543e2d2","650c16f0f2faf8d7a0d14c09","651c1c3b52d3e8e52b59baa3","null","null","<p style=""font-size: 60px; font-family: BACS"">DdckMAB</p>","","","","","","","","",""
"html-keyboard-response","203","302295","0.0-12.0-0.33","608c2e566d92c2aa3543e2d2","650c16f0f2faf8d7a0d14c09","651c1c3b52d3e8e52b59baa3","null","null","<p style=""font-size: 60px; font-family: BACS"">LOLkUvAvb</p>","","","","","","","","",""
"html-keyboard-response","204","303300","0.0-12.0-0.34","608c2e566d92c2aa3543e2d2","650c16f0f2faf8d7a0d14c09","651c1c3b52d3e8e52b59baa3","null","null","<p style=""font-size: 60px; font-family: BACS"">cROMtdPc</p>","","","","","","","","",""
"html-keyboard-response","205","304310","0.0-12.0-0.35","608c2e566d92c2aa3543e2d2","650c16f0f2faf8d7a0d14c09","651c1c3b52d3e8e52b59baa3","null","null","<p style=""font-size: 60px; font-family: BACS"">LOLkUJUNa</p>","","","","","","","","",""
"html-keyboard-response","206","305313","0.0-12.0-0.36","608c2e566d92c2aa3543e2d2","650c16f0f2faf8d7a0d14c09","651c1c3b52d3e8e52b59baa3","null","null","<p style=""font-size: 60px; font-family: BACS"">damYbQGb</p>","","","","","","","","",""
"html-keyboard-response","207","306316","0.0-12.0-0.37","608c2e566d92c2aa3543e2d2","650c16f0f2faf8d7a0d14c09","651c1c3b52d3e8e52b59baa3","null","null","<p style=""font-size: 60px; font-family: BACS"">PEtEMAB</p>","","","","","","","","",""
"html-keyboard-response","208","307320","0.0-12.0-0.38","608c2e566d92c2aa3543e2d2","650c16f0f2faf8d7a0d14c09","651c1c3b52d3e8e52b59baa3","null","null","<p style=""font-size: 60px; font-family: BACS"">DdckdPc</p>","","","","","","","","",""
"html-keyboard-response","209","308325","0.0-12.0-0.39","608c2e566d92c2aa3543e2d2","650c16f0f2faf8d7a0d14c09","651c1c3b52d3e8e52b59baa3","null","null","<p style=""font-size: 60px; font-family: BACS"">CmcOBbM</p>","","","","","","","","",""
"html-keyboard-response","210","309330","0.0-12.0-0.40","608c2e566d92c2aa3543e2d2","650c16f0f2faf8d7a0d14c09","651c1c3b52d3e8e52b59baa3","null","null","<p style=""font-size: 60px; font-family: BACS"">YOaAbYbN</p>","","","","","","","","",""
"html-keyboard-response","211","310344","0.0-12.0-0.41","608c2e566d92c2aa3543e2d2","650c16f0f2faf8d7a0d14c09","651c1c3b52d3e8e52b59baa3","null","null","<p style=""font-size: 60px; font-family: BACS"">LOLkUmvG</p>","","","","","","","","",""
"html-keyboard-response","212","311353","0.0-12.0-0.42","608c2e566d92c2aa3543e2d2","650c16f0f2faf8d7a0d14c09","651c1c3b52d3e8e52b59baa3","null","null","<p style=""font-size: 60px; font-family: BACS"">mrOdvAvb</p>","","","","","","","","",""
"html-keyboard-response","213","312354","0.0-12.0-0.43","608c2e566d92c2aa3543e2d2","650c16f0f2faf8d7a0d14c09","651c1c3b52d3e8e52b59baa3","null","null","<p style=""font-size: 60px; font-family: BACS"">hlctECkbd</p>","","","","","","","","",""
"html-keyboard-response","214","313360","0.0-12.0-0.44","608c2e566d92c2aa3543e2d2","650c16f0f2faf8d7a0d14c09","651c1c3b52d3e8e52b59baa3","null","null","<p style=""font-size: 60px; font-family: BACS"">CmcOdPc</p>","","","","","","","","",""
"html-keyboard-response","215","314370","0.0-12.0-0.45","608c2e566d92c2aa3543e2d2","650c16f0f2faf8d7a0d14c09","651c1c3b52d3e8e52b59baa3","null","null","<p style=""font-size: 60px; font-family: BACS"">PEtEBbM</p>","","","","","","","","",""
"html-keyboard-response","216","315375","0.0-12.0-0.46","608c2e566d92c2aa3543e2d2","650c16f0f2faf8d7a0d14c09","651c1c3b52d3e8e52b59baa3","null","null","<p style=""font-size: 60px; font-family: BACS"">aUZAmvG</p>","","","","","","","","",""
"html-keyboard-response","217","316378","0.0-12.0-0.47","608c2e566d92c2aa3543e2d2","650c16f0f2faf8d7a0d14c09","651c1c3b52d3e8e52b59baa3","null","null","<p style=""font-size: 60px; font-family: BACS"">PEtEdPc</p>","","","","","","","","",""
"html-keyboard-response","218","317391","0.0-12.0-0.48","608c2e566d92c2aa3543e2d2","650c16f0f2faf8d7a0d14c09","651c1c3b52d3e8e52b59baa3","null","null","<p style=""font-size: 60px; font-family: BACS"">hlkTBbM</p>","","","","","","","","",""
"html-keyboard-response","219","318394","0.0-12.0-0.49","608c2e566d92c2aa3543e2d2","650c16f0f2faf8d7a0d14c09","651c1c3b52d3e8e52b59baa3","null","null","<p style=""font-size: 60px; font-family: BACS"">cROMthRKm</p>","","","","","","","","",""
"html-keyboard-response","220","319400","0.0-12.0-0.50","608c2e566d92c2aa3543e2d2","650c16f0f2faf8d7a0d14c09","651c1c3b52d3e8e52b59baa3","null","null","<p style=""font-size: 60px; font-family: BACS"">EhbtBbM</p>","","","","","","","","",""
"html-keyboard-response","221","320403","0.0-12.0-0.51","608c2e566d92c2aa3543e2d2","650c16f0f2faf8d7a0d14c09","651c1c3b52d3e8e52b59baa3","null","null","<p style=""font-size: 60px; font-family: BACS"">ctktMAB</p>","","","","","","","","",""
"html-keyboard-response","222","321410","0.0-12.0-0.52","608c2e566d92c2aa3543e2d2","650c16f0f2faf8d7a0d14c09","651c1c3b52d3e8e52b59baa3","null","null","<p style=""font-size: 60px; font-family: BACS"">hlctEdPc</p>","","","","","","","","",""
"html-keyboard-response","223","322413","0.0-12.0-0.53","608c2e566d92c2aa3543e2d2","650c16f0f2faf8d7a0d14c09","651c1c3b52d3e8e52b59baa3","null","null","<p style=""font-size: 60px; font-family: BACS"">mrOdQGb</p>","","","","","","","","",""
"html-keyboard-response","224","323415","0.0-12.0-0.54","608c2e566d92c2aa3543e2d2","650c16f0f2faf8d7a0d14c09","651c1c3b52d3e8e52b59baa3","null","null","<p style=""font-size: 60px; font-family: BACS"">EhbthRKm</p>","","","","","","","","",""
"html-keyboard-response","225","324416","0.0-12.0-0.55","608c2e566d92c2aa3543e2d2","650c16f0f2faf8d7a0d14c09","651c1c3b52d3e8e52b59baa3","null","null","<p style=""font-size: 60px; font-family: BACS"">aUZAQGb</p>","","","","","","","","",""
"html-keyboard-response","226","325419","0.0-12.0-0.56","608c2e566d92c2aa3543e2d2","650c16f0f2faf8d7a0d14c09","651c1c3b52d3e8e52b59baa3","null","null","<p style=""font-size: 60px; font-family: BACS"">cROMtMAB</p>","","","","","","","","",""
"html-keyboard-response","227","326424","0.0-12.0-0.57","608c2e566d92c2aa3543e2d2","650c16f0f2faf8d7a0d14c09","651c1c3b52d3e8e52b59baa3","null","null","<p style=""font-size: 60px; font-family: BACS"">krGuYbN</p>","","","","","","","","",""
"html-keyboard-response","228","327431","0.0-12.0-0.58","608c2e566d92c2aa3543e2d2","650c16f0f2faf8d7a0d14c09","651c1c3b52d3e8e52b59baa3","null","null","<p style=""font-size: 60px; font-family: BACS"">damYbJUNa</p>","","","","","","","","",""
"html-keyboard-response","229","328448","0.0-12.0-0.59","608c2e566d92c2aa3543e2d2","650c16f0f2faf8d7a0d14c09","651c1c3b52d3e8e52b59baa3","null","null","<p style=""font-size: 60px; font-family: BACS"">ldAaQGb</p>","","","","","","","","",""
"html-keyboard-response","230","329464","0.0-12.0-0.60","608c2e566d92c2aa3543e2d2","650c16f0f2faf8d7a0d14c09","651c1c3b52d3e8e52b59baa3","null","null","<p style=""font-size: 60px; font-family: BACS"">YOaAbJUNa</p>","","","","","","","","",""
"html-keyboard-response","231","330478","0.0-12.0-0.61","608c2e566d92c2aa3543e2d2","650c16f0f2faf8d7a0d14c09","651c1c3b52d3e8e52b59baa3","null","null","<p style=""font-size: 60px; font-family: BACS"">PdDTCkbd</p>","","","","","","","","",""
"html-keyboard-response","232","331484","0.0-12.0-0.62","608c2e566d92c2aa3543e2d2","650c16f0f2faf8d7a0d14c09","651c1c3b52d3e8e52b59baa3","null","null","<p style=""font-size: 60px; font-family: BACS"">mrOdmvG</p>","","","","","","","","",""
"html-keyboard-response","233","332499","0.0-12.0-0.63","608c2e566d92c2aa3543e2d2","650c16f0f2faf8d7a0d14c09","651c1c3b52d3e8e52b59baa3","null","null","<p style=""font-size: 60px; font-family: BACS"">ldAaJUNa</p>","","","","","","","","",""
"html-keyboard-response","234","333503","0.0-12.0-0.64","608c2e566d92c2aa3543e2d2","650c16f0f2faf8d7a0d14c09","651c1c3b52d3e8e52b59baa3","null","null","<p style=""font-size: 60px; font-family: BACS"">RdPtDhRKm</p>","","","","","","","","",""
"html-keyboard-response","235","334520","0.0-12.0-0.65","608c2e566d92c2aa3543e2d2","650c16f0f2faf8d7a0d14c09","651c1c3b52d3e8e52b59baa3","null","null","<p style=""font-size: 60px; font-family: BACS"">lkAkQGb</p>","","","","","","","","",""
"html-keyboard-response","236","335536","0.0-12.0-0.66","608c2e566d92c2aa3543e2d2","650c16f0f2faf8d7a0d14c09","651c1c3b52d3e8e52b59baa3","null","null","<p style=""font-size: 60px; font-family: BACS"">RdPtDBbM</p>","","","","","","","","",""
"html-keyboard-response","237","336543","0.0-12.0-0.67","608c2e566d92c2aa3543e2d2","650c16f0f2faf8d7a0d14c09","651c1c3b52d3e8e52b59baa3","null","null","<p style=""font-size: 60px; font-family: BACS"">damYbYbN</p>","","","","","","","","",""
"html-keyboard-response","238","337559","0.0-12.0-0.68","608c2e566d92c2aa3543e2d2","650c16f0f2faf8d7a0d14c09","651c1c3b52d3e8e52b59baa3","null","null","<p style=""font-size: 60px; font-family: BACS"">aONdvAvb</p>","","","","","","","","",""
"html-keyboard-response","239","338563","0.0-12.0-0.69","608c2e566d92c2aa3543e2d2","650c16f0f2faf8d7a0d14c09","651c1c3b52d3e8e52b59baa3","null","null","<p style=""font-size: 60px; font-family: BACS"">krGuQGb</p>","","","","","","","","",""
"html-keyboard-response","240","339577","0.0-12.0-0.70","608c2e566d92c2aa3543e2d2","650c16f0f2faf8d7a0d14c09","651c1c3b52d3e8e52b59baa3","null","null","<p style=""font-size: 60px; font-family: BACS"">CmcOCkbd</p>","","","","","","","","",""
"html-keyboard-response","241","340593","0.0-12.0-0.71","608c2e566d92c2aa3543e2d2","650c16f0f2faf8d7a0d14c09","651c1c3b52d3e8e52b59baa3","null","null","<p style=""font-size: 60px; font-family: BACS"">krGuJUNa</p>","","","","","","","","",""
"html-keyboard-response","242","341606","0.0-12.0-0.72","608c2e566d92c2aa3543e2d2","650c16f0f2faf8d7a0d14c09","651c1c3b52d3e8e52b59baa3","null","null","<p style=""font-size: 60px; font-family: BACS"">EhbtMAB</p>","","","","","","","","",""
"html-keyboard-response","243","342610","0.0-12.0-0.73","608c2e566d92c2aa3543e2d2","650c16f0f2faf8d7a0d14c09","651c1c3b52d3e8e52b59baa3","null","null","<p style=""font-size: 60px; font-family: BACS"">hlkTdPc</p>","","","","","","","","",""
"html-keyboard-response","244","343624","0.0-12.0-0.74","608c2e566d92c2aa3543e2d2","650c16f0f2faf8d7a0d14c09","651c1c3b52d3e8e52b59baa3","null","null","<p style=""font-size: 60px; font-family: BACS"">aONdQGb</p>","","","","","","","","",""
"html-keyboard-response","245","344639","0.0-12.0-0.75","608c2e566d92c2aa3543e2d2","650c16f0f2faf8d7a0d14c09","651c1c3b52d3e8e52b59baa3","null","null","<p style=""font-size: 60px; font-family: BACS"">PdDTdPc</p>","","","","","","","","",""
"html-keyboard-response","246","345646","0.0-12.0-0.76","608c2e566d92c2aa3543e2d2","650c16f0f2faf8d7a0d14c09","651c1c3b52d3e8e52b59baa3","null","null","<p style=""font-size: 60px; font-family: BACS"">aONdYbN</p>","","","","","","","","",""
"html-keyboard-response","247","346656","0.0-12.0-0.77","608c2e566d92c2aa3543e2d2","650c16f0f2faf8d7a0d14c09","651c1c3b52d3e8e52b59baa3","null","null","<p style=""font-size: 60px; font-family: BACS"">YOaAbvAvb</p>","","","","","","","","",""
"html-keyboard-response","248","347667","0.0-12.0-0.78","608c2e566d92c2aa3543e2d2","650c16f0f2faf8d7a0d14c09","651c1c3b52d3e8e52b59baa3","null","null","<p style=""font-size: 60px; font-family: BACS"">hlctEhRKm</p>","","","","","","","","",""
"html-keyboard-response","249","348669","0.0-12.0-0.79","608c2e566d92c2aa3543e2d2","650c16f0f2faf8d7a0d14c09","651c1c3b52d3e8e52b59baa3","null","null","<p style=""font-size: 60px; font-family: BACS"">lkAkvAvb</p>","","","","","","","","",""
"html-keyboard-response","250","355121","0.0-13.0","608c2e566d92c2aa3543e2d2","650c16f0f2faf8d7a0d14c09","651c1c3b52d3e8e52b59baa3","6451"," ","<p>Great, you've seen the third block of words. You may now take a short break.</p>
      <p>Press the spacebar when you're ready to continue.</p>","","","","","","","","",""
"html-keyboard-response","251","356136","0.0-14.0-0.0","608c2e566d92c2aa3543e2d2","650c16f0f2faf8d7a0d14c09","651c1c3b52d3e8e52b59baa3","null","null","<p style=""font-size: 60px; font-family: BACS"">PdDThRKm</p>","","","","","","","","",""
"html-keyboard-response","252","357142","0.0-14.0-0.1","608c2e566d92c2aa3543e2d2","650c16f0f2faf8d7a0d14c09","651c1c3b52d3e8e52b59baa3","null","null","<p style=""font-size: 60px; font-family: BACS"">DdckdPc</p>","","","","","","","","",""
"html-keyboard-response","253","358144","0.0-14.0-0.2","608c2e566d92c2aa3543e2d2","650c16f0f2faf8d7a0d14c09","651c1c3b52d3e8e52b59baa3","null","null","<p style=""font-size: 60px; font-family: BACS"">aONdvAvb</p>","","","","","","","","",""
"html-keyboard-response","254","359161","0.0-14.0-0.3","608c2e566d92c2aa3543e2d2","650c16f0f2faf8d7a0d14c09","651c1c3b52d3e8e52b59baa3","null","null","<p style=""font-size: 60px; font-family: BACS"">hlctECkbd</p>","","","","","","","","",""
"html-keyboard-response","255","360172","0.0-14.0-0.4","608c2e566d92c2aa3543e2d2","650c16f0f2faf8d7a0d14c09","651c1c3b52d3e8e52b59baa3","null","null","<p style=""font-size: 60px; font-family: BACS"">LOLkUYbN</p>","","","","","","","","",""
"html-keyboard-response","256","361177","0.0-14.0-0.5","608c2e566d92c2aa3543e2d2","650c16f0f2faf8d7a0d14c09","651c1c3b52d3e8e52b59baa3","null","null","<p style=""font-size: 60px; font-family: BACS"">lkAkQGb</p>","","","","","","","","",""
"html-keyboard-response","257","362193","0.0-14.0-0.6","608c2e566d92c2aa3543e2d2","650c16f0f2faf8d7a0d14c09","651c1c3b52d3e8e52b59baa3","null","null","<p style=""font-size: 60px; font-family: BACS"">hlkTdPc</p>","","","","","","","","",""
"html-keyboard-response","258","363195","0.0-14.0-0.7","608c2e566d92c2aa3543e2d2","650c16f0f2faf8d7a0d14c09","651c1c3b52d3e8e52b59baa3","null","null","<p style=""font-size: 60px; font-family: BACS"">RdPtDMAB</p>","","","","","","","","",""
"html-keyboard-response","259","364208","0.0-14.0-0.8","608c2e566d92c2aa3543e2d2","650c16f0f2faf8d7a0d14c09","651c1c3b52d3e8e52b59baa3","null","null","<p style=""font-size: 60px; font-family: BACS"">mrOdmvG</p>","","","","","","","","",""
"html-keyboard-response","260","365210","0.0-14.0-0.9","608c2e566d92c2aa3543e2d2","650c16f0f2faf8d7a0d14c09","651c1c3b52d3e8e52b59baa3","null","null","<p style=""font-size: 60px; font-family: BACS"">RdPtDCkbd</p>","","","","","","","","",""
"html-keyboard-response","261","366213","0.0-14.0-0.10","608c2e566d92c2aa3543e2d2","650c16f0f2faf8d7a0d14c09","651c1c3b52d3e8e52b59baa3","null","null","<p style=""font-size: 60px; font-family: BACS"">ldAavAvb</p>","","","","","","","","",""
"html-keyboard-response","262","367214","0.0-14.0-0.11","608c2e566d92c2aa3543e2d2","650c16f0f2faf8d7a0d14c09","651c1c3b52d3e8e52b59baa3","null","null","<p style=""font-size: 60px; font-family: BACS"">PdDTCkbd</p>","","","","","","","","",""
"html-keyboard-response","263","368216","0.0-14.0-0.12","608c2e566d92c2aa3543e2d2","650c16f0f2faf8d7a0d14c09","651c1c3b52d3e8e52b59baa3","null","null","<p style=""font-size: 60px; font-family: BACS"">GumLlmvG</p>","","","","","","","","",""
"html-keyboard-response","264","369218","0.0-14.0-0.13","608c2e566d92c2aa3543e2d2","650c16f0f2faf8d7a0d14c09","651c1c3b52d3e8e52b59baa3","null","null","<p style=""font-size: 60px; font-family: BACS"">EhbtBbM</p>","","","","","","","","",""
"html-keyboard-response","265","370220","0.0-14.0-0.14","608c2e566d92c2aa3543e2d2","650c16f0f2faf8d7a0d14c09","651c1c3b52d3e8e52b59baa3","null","null","<p style=""font-size: 60px; font-family: BACS"">ctkthRKm</p>","","","","","","","","",""
"html-keyboard-response","266","371221","0.0-14.0-0.15","608c2e566d92c2aa3543e2d2","650c16f0f2faf8d7a0d14c09","651c1c3b52d3e8e52b59baa3","null","null","<p style=""font-size: 60px; font-family: BACS"">ldAamvG</p>","","","","","","","","",""
"html-keyboard-response","267","372236","0.0-14.0-0.16","608c2e566d92c2aa3543e2d2","650c16f0f2faf8d7a0d14c09","651c1c3b52d3e8e52b59baa3","null","null","<p style=""font-size: 60px; font-family: BACS"">damYbYbN</p>","","","","","","","","",""
"html-keyboard-response","268","373244","0.0-14.0-0.17","608c2e566d92c2aa3543e2d2","650c16f0f2faf8d7a0d14c09","651c1c3b52d3e8e52b59baa3","null","null","<p style=""font-size: 60px; font-family: BACS"">PEtEBbM</p>","","","","","","","","",""
"html-keyboard-response","269","374246","0.0-14.0-0.18","608c2e566d92c2aa3543e2d2","650c16f0f2faf8d7a0d14c09","651c1c3b52d3e8e52b59baa3","null","null","<p style=""font-size: 60px; font-family: BACS"">aUZAvAvb</p>","","","","","","","","",""
"html-keyboard-response","270","375247","0.0-14.0-0.19","608c2e566d92c2aa3543e2d2","650c16f0f2faf8d7a0d14c09","651c1c3b52d3e8e52b59baa3","null","null","<p style=""font-size: 60px; font-family: BACS"">ldAaQGb</p>","","","","","","","","",""
"html-keyboard-response","271","376255","0.0-14.0-0.20","608c2e566d92c2aa3543e2d2","650c16f0f2faf8d7a0d14c09","651c1c3b52d3e8e52b59baa3","null","null","<p style=""font-size: 60px; font-family: BACS"">YOaAbYbN</p>","","","","","","","","",""
"html-keyboard-response","272","377272","0.0-14.0-0.21","608c2e566d92c2aa3543e2d2","650c16f0f2faf8d7a0d14c09","651c1c3b52d3e8e52b59baa3","null","null","<p style=""font-size: 60px; font-family: BACS"">cROMtdPc</p>","","","","","","","","",""
"html-keyboard-response","273","378273","0.0-14.0-0.22","608c2e566d92c2aa3543e2d2","650c16f0f2faf8d7a0d14c09","651c1c3b52d3e8e52b59baa3","null","null","<p style=""font-size: 60px; font-family: BACS"">hlctEhRKm</p>","","","","","","","","",""
"html-keyboard-response","274","379274","0.0-14.0-0.23","608c2e566d92c2aa3543e2d2","650c16f0f2faf8d7a0d14c09","651c1c3b52d3e8e52b59baa3","null","null","<p style=""font-size: 60px; font-family: BACS"">GumLlYbN</p>","","","","","","","","",""
"html-keyboard-response","275","380276","0.0-14.0-0.24","608c2e566d92c2aa3543e2d2","650c16f0f2faf8d7a0d14c09","651c1c3b52d3e8e52b59baa3","null","null","<p style=""font-size: 60px; font-family: BACS"">lkAkvAvb</p>","","","","","","","","",""
"html-keyboard-response","276","381278","0.0-14.0-0.25","608c2e566d92c2aa3543e2d2","650c16f0f2faf8d7a0d14c09","651c1c3b52d3e8e52b59baa3","null","null","<p style=""font-size: 60px; font-family: BACS"">PdDTMAB</p>","","","","","","","","",""
"html-keyboard-response","277","382283","0.0-14.0-0.26","608c2e566d92c2aa3543e2d2","650c16f0f2faf8d7a0d14c09","651c1c3b52d3e8e52b59baa3","null","null","<p style=""font-size: 60px; font-family: BACS"">hlkThRKm</p>","","","","","","","","",""
"html-keyboard-response","278","383289","0.0-14.0-0.27","608c2e566d92c2aa3543e2d2","650c16f0f2faf8d7a0d14c09","651c1c3b52d3e8e52b59baa3","null","null","<p style=""font-size: 60px; font-family: BACS"">CmcOMAB</p>","","","","","","","","",""
"html-keyboard-response","279","384290","0.0-14.0-0.28","608c2e566d92c2aa3543e2d2","650c16f0f2faf8d7a0d14c09","651c1c3b52d3e8e52b59baa3","null","null","<p style=""font-size: 60px; font-family: BACS"">EhbtdPc</p>","","","","","","","","",""
"html-keyboard-response","280","385292","0.0-14.0-0.29","608c2e566d92c2aa3543e2d2","650c16f0f2faf8d7a0d14c09","651c1c3b52d3e8e52b59baa3","null","null","<p style=""font-size: 60px; font-family: BACS"">hlkTBbM</p>","","","","","","","","",""
"html-keyboard-response","281","386294","0.0-14.0-0.30","608c2e566d92c2aa3543e2d2","650c16f0f2faf8d7a0d14c09","651c1c3b52d3e8e52b59baa3","null","null","<p style=""font-size: 60px; font-family: BACS"">mrOdQGb</p>","","","","","","","","",""
"html-keyboard-response","282","387296","0.0-14.0-0.31","608c2e566d92c2aa3543e2d2","650c16f0f2faf8d7a0d14c09","651c1c3b52d3e8e52b59baa3","null","null","<p style=""font-size: 60px; font-family: BACS"">YOaAbmvG</p>","","","","","","","","",""
"html-keyboard-response","283","388297","0.0-14.0-0.32","608c2e566d92c2aa3543e2d2","650c16f0f2faf8d7a0d14c09","651c1c3b52d3e8e52b59baa3","null","null","<p style=""font-size: 60px; font-family: BACS"">CmcOdPc</p>","","","","","","","","",""
"html-keyboard-response","284","389313","0.0-14.0-0.33","608c2e566d92c2aa3543e2d2","650c16f0f2faf8d7a0d14c09","651c1c3b52d3e8e52b59baa3","null","null","<p style=""font-size: 60px; font-family: BACS"">lkAkmvG</p>","","","","","","","","",""
"html-keyboard-response","285","390322","0.0-14.0-0.34","608c2e566d92c2aa3543e2d2","650c16f0f2faf8d7a0d14c09","651c1c3b52d3e8e52b59baa3","null","null","<p style=""font-size: 60px; font-family: BACS"">LOLkUvAvb</p>","","","","","","","","",""
"html-keyboard-response","286","391327","0.0-14.0-0.35","608c2e566d92c2aa3543e2d2","650c16f0f2faf8d7a0d14c09","651c1c3b52d3e8e52b59baa3","null","null","<p style=""font-size: 60px; font-family: BACS"">PdDTdPc</p>","","","","","","","","",""
"html-keyboard-response","287","392332","0.0-14.0-0.36","608c2e566d92c2aa3543e2d2","650c16f0f2faf8d7a0d14c09","651c1c3b52d3e8e52b59baa3","null","null","<p style=""font-size: 60px; font-family: BACS"">LOLkUmvG</p>","","","","","","","","",""
"html-keyboard-response","288","393334","0.0-14.0-0.37","608c2e566d92c2aa3543e2d2","650c16f0f2faf8d7a0d14c09","651c1c3b52d3e8e52b59baa3","null","null","<p style=""font-size: 60px; font-family: BACS"">damYbQGb</p>","","","","","","","","",""
"html-keyboard-response","289","394339","0.0-14.0-0.38","608c2e566d92c2aa3543e2d2","650c16f0f2faf8d7a0d14c09","651c1c3b52d3e8e52b59baa3","null","null","<p style=""font-size: 60px; font-family: BACS"">aUZAmvG</p>","","","","","","","","",""
"html-keyboard-response","290","395351","0.0-14.0-0.39","608c2e566d92c2aa3543e2d2","650c16f0f2faf8d7a0d14c09","651c1c3b52d3e8e52b59baa3","null","null","<p style=""font-size: 60px; font-family: BACS"">krGuvAvb</p>","","","","","","","","",""
"html-keyboard-response","291","396353","0.0-14.0-0.40","608c2e566d92c2aa3543e2d2","650c16f0f2faf8d7a0d14c09","651c1c3b52d3e8e52b59baa3","null","null","<p style=""font-size: 60px; font-family: BACS"">GumLlQGb</p>","","","","","","","","",""
"html-keyboard-response","292","397362","0.0-14.0-0.41","608c2e566d92c2aa3543e2d2","650c16f0f2faf8d7a0d14c09","651c1c3b52d3e8e52b59baa3","null","null","<p style=""font-size: 60px; font-family: BACS"">mrOdvAvb</p>","","","","","","","","",""
"html-keyboard-response","293","398372","0.0-14.0-0.42","608c2e566d92c2aa3543e2d2","650c16f0f2faf8d7a0d14c09","651c1c3b52d3e8e52b59baa3","null","null","<p style=""font-size: 60px; font-family: BACS"">YOaAbJUNa</p>","","","","","","","","",""
"html-keyboard-response","294","399377","0.0-14.0-0.43","608c2e566d92c2aa3543e2d2","650c16f0f2faf8d7a0d14c09","651c1c3b52d3e8e52b59baa3","null","null","<p style=""font-size: 60px; font-family: BACS"">ctktBbM</p>","","","","","","","","",""
"html-keyboard-response","295","400380","0.0-14.0-0.44","608c2e566d92c2aa3543e2d2","650c16f0f2faf8d7a0d14c09","651c1c3b52d3e8e52b59baa3","null","null","<p style=""font-size: 60px; font-family: BACS"">aUZAYbN</p>","","","","","","","","",""
"html-keyboard-response","296","401385","0.0-14.0-0.45","608c2e566d92c2aa3543e2d2","650c16f0f2faf8d7a0d14c09","651c1c3b52d3e8e52b59baa3","null","null","<p style=""font-size: 60px; font-family: BACS"">aONdJUNa</p>","","","","","","","","",""
"html-keyboard-response","297","402389","0.0-14.0-0.46","608c2e566d92c2aa3543e2d2","650c16f0f2faf8d7a0d14c09","651c1c3b52d3e8e52b59baa3","null","null","<p style=""font-size: 60px; font-family: BACS"">damYbmvG</p>","","","","","","","","",""
"html-keyboard-response","298","403405","0.0-14.0-0.47","608c2e566d92c2aa3543e2d2","650c16f0f2faf8d7a0d14c09","651c1c3b52d3e8e52b59baa3","null","null","<p style=""font-size: 60px; font-family: BACS"">hlkTCkbd</p>","","","","","","","","",""
"html-keyboard-response","299","404411","0.0-14.0-0.48","608c2e566d92c2aa3543e2d2","650c16f0f2faf8d7a0d14c09","651c1c3b52d3e8e52b59baa3","null","null","<p style=""font-size: 60px; font-family: BACS"">RdPtDBbM</p>","","","","","","","","",""
"html-keyboard-response","300","405413","0.0-14.0-0.49","608c2e566d92c2aa3543e2d2","650c16f0f2faf8d7a0d14c09","651c1c3b52d3e8e52b59baa3","null","null","<p style=""font-size: 60px; font-family: BACS"">hlctEdPc</p>","","","","","","","","",""
"html-keyboard-response","301","406429","0.0-14.0-0.50","608c2e566d92c2aa3543e2d2","650c16f0f2faf8d7a0d14c09","651c1c3b52d3e8e52b59baa3","null","null","<p style=""font-size: 60px; font-family: BACS"">krGuQGb</p>","","","","","","","","",""
"html-keyboard-response","302","407433","0.0-14.0-0.51","608c2e566d92c2aa3543e2d2","650c16f0f2faf8d7a0d14c09","651c1c3b52d3e8e52b59baa3","null","null","<p style=""font-size: 60px; font-family: BACS"">CmcOCkbd</p>","","","","","","","","",""
"html-keyboard-response","303","408436","0.0-14.0-0.52","608c2e566d92c2aa3543e2d2","650c16f0f2faf8d7a0d14c09","651c1c3b52d3e8e52b59baa3","null","null","<p style=""font-size: 60px; font-family: BACS"">krGuJUNa</p>","","","","","","","","",""
"html-keyboard-response","304","409441","0.0-14.0-0.53","608c2e566d92c2aa3543e2d2","650c16f0f2faf8d7a0d14c09","651c1c3b52d3e8e52b59baa3","null","null","<p style=""font-size: 60px; font-family: BACS"">mrOdYbN</p>","","","","","","","","",""
"html-keyboard-response","305","410443","0.0-14.0-0.54","608c2e566d92c2aa3543e2d2","650c16f0f2faf8d7a0d14c09","651c1c3b52d3e8e52b59baa3","null","null","<p style=""font-size: 60px; font-family: BACS"">aUZAQGb</p>","","","","","","","","",""
"html-keyboard-response","306","411445","0.0-14.0-0.55","608c2e566d92c2aa3543e2d2","650c16f0f2faf8d7a0d14c09","651c1c3b52d3e8e52b59baa3","null","null","<p style=""font-size: 60px; font-family: BACS"">DdckCkbd</p>","","","","","","","","",""
"html-keyboard-response","307","412453","0.0-14.0-0.56","608c2e566d92c2aa3543e2d2","650c16f0f2faf8d7a0d14c09","651c1c3b52d3e8e52b59baa3","null","null","<p style=""font-size: 60px; font-family: BACS"">ldAaJUNa</p>","","","","","","","","",""
"html-keyboard-response","308","413455","0.0-14.0-0.57","608c2e566d92c2aa3543e2d2","650c16f0f2faf8d7a0d14c09","651c1c3b52d3e8e52b59baa3","null","null","<p style=""font-size: 60px; font-family: BACS"">EhbtMAB</p>","","","","","","","","",""
"html-keyboard-response","309","414457","0.0-14.0-0.58","608c2e566d92c2aa3543e2d2","650c16f0f2faf8d7a0d14c09","651c1c3b52d3e8e52b59baa3","null","null","<p style=""font-size: 60px; font-family: BACS"">DdckhRKm</p>","","","","","","","","",""
"html-keyboard-response","310","415463","0.0-14.0-0.59","608c2e566d92c2aa3543e2d2","650c16f0f2faf8d7a0d14c09","651c1c3b52d3e8e52b59baa3","null","null","<p style=""font-size: 60px; font-family: BACS"">ctktCkbd</p>","","","","","","","","",""
"html-keyboard-response","311","416465","0.0-14.0-0.60","608c2e566d92c2aa3543e2d2","650c16f0f2faf8d7a0d14c09","651c1c3b52d3e8e52b59baa3","null","null","<p style=""font-size: 60px; font-family: BACS"">EhbthRKm</p>","","","","","","","","",""
"html-keyboard-response","312","417467","0.0-14.0-0.61","608c2e566d92c2aa3543e2d2","650c16f0f2faf8d7a0d14c09","651c1c3b52d3e8e52b59baa3","null","null","<p style=""font-size: 60px; font-family: BACS"">krGuYbN</p>","","","","","","","","",""
"html-keyboard-response","313","418469","0.0-14.0-0.62","608c2e566d92c2aa3543e2d2","650c16f0f2faf8d7a0d14c09","651c1c3b52d3e8e52b59baa3","null","null","<p style=""font-size: 60px; font-family: BACS"">PEtECkbd</p>","","","","","","","","",""
"html-keyboard-response","314","419471","0.0-14.0-0.63","608c2e566d92c2aa3543e2d2","650c16f0f2faf8d7a0d14c09","651c1c3b52d3e8e52b59baa3","null","null","<p style=""font-size: 60px; font-family: BACS"">DdckMAB</p>","","","","","","","","",""
"html-keyboard-response","315","420474","0.0-14.0-0.64","608c2e566d92c2aa3543e2d2","650c16f0f2faf8d7a0d14c09","651c1c3b52d3e8e52b59baa3","null","null","<p style=""font-size: 60px; font-family: BACS"">cROMtBbM</p>","","","","","","","","",""
"html-keyboard-response","316","421475","0.0-14.0-0.65","608c2e566d92c2aa3543e2d2","650c16f0f2faf8d7a0d14c09","651c1c3b52d3e8e52b59baa3","null","null","<p style=""font-size: 60px; font-family: BACS"">RdPtDhRKm</p>","","","","","","","","",""
"html-keyboard-response","317","422485","0.0-14.0-0.66","608c2e566d92c2aa3543e2d2","650c16f0f2faf8d7a0d14c09","651c1c3b52d3e8e52b59baa3","null","null","<p style=""font-size: 60px; font-family: BACS"">hlctEBbM</p>","","","","","","","","",""
"html-keyboard-response","318","423489","0.0-14.0-0.67","608c2e566d92c2aa3543e2d2","650c16f0f2faf8d7a0d14c09","651c1c3b52d3e8e52b59baa3","null","null","<p style=""font-size: 60px; font-family: BACS"">PEtEdPc</p>","","","","","","","","",""
"html-keyboard-response","319","424496","0.0-14.0-0.68","608c2e566d92c2aa3543e2d2","650c16f0f2faf8d7a0d14c09","651c1c3b52d3e8e52b59baa3","null","null","<p style=""font-size: 60px; font-family: BACS"">damYbJUNa</p>","","","","","","","","",""
"html-keyboard-response","320","425506","0.0-14.0-0.69","608c2e566d92c2aa3543e2d2","650c16f0f2faf8d7a0d14c09","651c1c3b52d3e8e52b59baa3","null","null","<p style=""font-size: 60px; font-family: BACS"">aONdQGb</p>","","","","","","","","",""
"html-keyboard-response","321","426509","0.0-14.0-0.70","608c2e566d92c2aa3543e2d2","650c16f0f2faf8d7a0d14c09","651c1c3b52d3e8e52b59baa3","null","null","<p style=""font-size: 60px; font-family: BACS"">PEtEMAB</p>","","","","","","","","",""
"html-keyboard-response","322","427511","0.0-14.0-0.71","608c2e566d92c2aa3543e2d2","650c16f0f2faf8d7a0d14c09","651c1c3b52d3e8e52b59baa3","null","null","<p style=""font-size: 60px; font-family: BACS"">LOLkUJUNa</p>","","","","","","","","",""
"html-keyboard-response","323","428513","0.0-14.0-0.72","608c2e566d92c2aa3543e2d2","650c16f0f2faf8d7a0d14c09","651c1c3b52d3e8e52b59baa3","null","null","<p style=""font-size: 60px; font-family: BACS"">cROMthRKm</p>","","","","","","","","",""
"html-keyboard-response","324","429521","0.0-14.0-0.73","608c2e566d92c2aa3543e2d2","650c16f0f2faf8d7a0d14c09","651c1c3b52d3e8e52b59baa3","null","null","<p style=""font-size: 60px; font-family: BACS"">CmcOBbM</p>","","","","","","","","",""
"html-keyboard-response","325","430523","0.0-14.0-0.74","608c2e566d92c2aa3543e2d2","650c16f0f2faf8d7a0d14c09","651c1c3b52d3e8e52b59baa3","null","null","<p style=""font-size: 60px; font-family: BACS"">lkAkJUNa</p>","","","","","","","","",""
"html-keyboard-response","326","431525","0.0-14.0-0.75","608c2e566d92c2aa3543e2d2","650c16f0f2faf8d7a0d14c09","651c1c3b52d3e8e52b59baa3","null","null","<p style=""font-size: 60px; font-family: BACS"">ctktMAB</p>","","","","","","","","",""
"html-keyboard-response","327","432527","0.0-14.0-0.76","608c2e566d92c2aa3543e2d2","650c16f0f2faf8d7a0d14c09","651c1c3b52d3e8e52b59baa3","null","null","<p style=""font-size: 60px; font-family: BACS"">aONdYbN</p>","","","","","","","","",""
"html-keyboard-response","328","433539","0.0-14.0-0.77","608c2e566d92c2aa3543e2d2","650c16f0f2faf8d7a0d14c09","651c1c3b52d3e8e52b59baa3","null","null","<p style=""font-size: 60px; font-family: BACS"">cROMtMAB</p>","","","","","","","","",""
"html-keyboard-response","329","434545","0.0-14.0-0.78","608c2e566d92c2aa3543e2d2","650c16f0f2faf8d7a0d14c09","651c1c3b52d3e8e52b59baa3","null","null","<p style=""font-size: 60px; font-family: BACS"">YOaAbvAvb</p>","","","","","","","","",""
"html-keyboard-response","330","435547","0.0-14.0-0.79","608c2e566d92c2aa3543e2d2","650c16f0f2faf8d7a0d14c09","651c1c3b52d3e8e52b59baa3","null","null","<p style=""font-size: 60px; font-family: BACS"">GumLlJUNa</p>","","","","","","","","",""
"html-keyboard-response","331","443728","0.0-15.0","608c2e566d92c2aa3543e2d2","650c16f0f2faf8d7a0d14c09","651c1c3b52d3e8e52b59baa3","8181"," ","<p>Great, you've seen the fourth block of words. You may now take a short break.</p>
      <p>Press the spacebar when you're ready to continue.</p>","","","","","","","","",""
"html-keyboard-response","332","444735","0.0-16.0-0.0","608c2e566d92c2aa3543e2d2","650c16f0f2faf8d7a0d14c09","651c1c3b52d3e8e52b59baa3","null","null","<p style=""font-size: 60px; font-family: BACS"">krGuJUNa</p>","","","","","","","","",""
"html-keyboard-response","333","445737","0.0-16.0-0.1","608c2e566d92c2aa3543e2d2","650c16f0f2faf8d7a0d14c09","651c1c3b52d3e8e52b59baa3","null","null","<p style=""font-size: 60px; font-family: BACS"">krGuJUNa</p>","","","","","","","","",""
"html-keyboard-response","334","446739","0.0-16.0-0.2","608c2e566d92c2aa3543e2d2","650c16f0f2faf8d7a0d14c09","651c1c3b52d3e8e52b59baa3","null","null","<p style=""font-size: 60px; font-family: BACS"">krGuJUNa</p>","","","","","","","","",""
"html-keyboard-response","335","447742","0.0-16.0-0.3","608c2e566d92c2aa3543e2d2","650c16f0f2faf8d7a0d14c09","651c1c3b52d3e8e52b59baa3","null","null","<p style=""font-size: 60px; font-family: BACS"">krGuJUNa</p>","","","","","","","","",""
"html-keyboard-response","336","448747","0.0-16.0-0.4","608c2e566d92c2aa3543e2d2","650c16f0f2faf8d7a0d14c09","651c1c3b52d3e8e52b59baa3","null","null","<p style=""font-size: 60px; font-family: BACS"">krGuJUNa</p>","","","","","","","","",""
"html-keyboard-response","337","449756","0.0-16.0-0.5","608c2e566d92c2aa3543e2d2","650c16f0f2faf8d7a0d14c09","651c1c3b52d3e8e52b59baa3","null","null","<p style=""font-size: 60px; font-family: BACS"">krGuJUNa</p>","","","","","","","","",""
"html-keyboard-response","338","450771","0.0-16.0-0.6","608c2e566d92c2aa3543e2d2","650c16f0f2faf8d7a0d14c09","651c1c3b52d3e8e52b59baa3","null","null","<p style=""font-size: 60px; font-family: BACS"">krGuJUNa</p>","","","","","","","","",""
"html-keyboard-response","339","451773","0.0-16.0-0.7","608c2e566d92c2aa3543e2d2","650c16f0f2faf8d7a0d14c09","651c1c3b52d3e8e52b59baa3","null","null","<p style=""font-size: 60px; font-family: BACS"">krGuJUNa</p>","","","","","","","","",""
"html-keyboard-response","340","452776","0.0-16.0-0.8","608c2e566d92c2aa3543e2d2","650c16f0f2faf8d7a0d14c09","651c1c3b52d3e8e52b59baa3","null","null","<p style=""font-size: 60px; font-family: BACS"">krGuJUNa</p>","","","","","","","","",""
"html-keyboard-response","341","453788","0.0-16.0-0.9","608c2e566d92c2aa3543e2d2","650c16f0f2faf8d7a0d14c09","651c1c3b52d3e8e52b59baa3","null","null","<p style=""font-size: 60px; font-family: BACS"">krGuJUNa</p>","","","","","","","","",""
"html-keyboard-response","342","454795","0.0-16.0-0.10","608c2e566d92c2aa3543e2d2","650c16f0f2faf8d7a0d14c09","651c1c3b52d3e8e52b59baa3","null","null","<p style=""font-size: 60px; font-family: BACS"">krGuJUNa</p>","","","","","","","","",""
"html-keyboard-response","343","455796","0.0-16.0-0.11","608c2e566d92c2aa3543e2d2","650c16f0f2faf8d7a0d14c09","651c1c3b52d3e8e52b59baa3","null","null","<p style=""font-size: 60px; font-family: BACS"">krGuJUNa</p>","","","","","","","","",""
"html-keyboard-response","344","456811","0.0-16.0-0.12","608c2e566d92c2aa3543e2d2","650c16f0f2faf8d7a0d14c09","651c1c3b52d3e8e52b59baa3","null","null","<p style=""font-size: 60px; font-family: BACS"">krGuJUNa</p>","","","","","","","","",""
"html-keyboard-response","345","457825","0.0-16.0-0.13","608c2e566d92c2aa3543e2d2","650c16f0f2faf8d7a0d14c09","651c1c3b52d3e8e52b59baa3","null","null","<p style=""font-size: 60px; font-family: BACS"">krGuJUNa</p>","","","","","","","","",""
"html-keyboard-response","346","458830","0.0-16.0-0.14","608c2e566d92c2aa3543e2d2","650c16f0f2faf8d7a0d14c09","651c1c3b52d3e8e52b59baa3","null","null","<p style=""font-size: 60px; font-family: BACS"">krGuJUNa</p>","","","","","","","","",""
"html-keyboard-response","347","459831","0.0-16.0-0.15","608c2e566d92c2aa3543e2d2","650c16f0f2faf8d7a0d14c09","651c1c3b52d3e8e52b59baa3","null","null","<p style=""font-size: 60px; font-family: BACS"">krGuJUNa</p>","","","","","","","","",""
"html-keyboard-response","348","460839","0.0-16.0-0.16","608c2e566d92c2aa3543e2d2","650c16f0f2faf8d7a0d14c09","651c1c3b52d3e8e52b59baa3","null","null","<p style=""font-size: 60px; font-family: BACS"">krGuJUNa</p>","","","","","","","","",""
"html-keyboard-response","349","461846","0.0-16.0-0.17","608c2e566d92c2aa3543e2d2","650c16f0f2faf8d7a0d14c09","651c1c3b52d3e8e52b59baa3","null","null","<p style=""font-size: 60px; font-family: BACS"">krGuJUNa</p>","","","","","","","","",""
"html-keyboard-response","350","462848","0.0-16.0-0.18","608c2e566d92c2aa3543e2d2","650c16f0f2faf8d7a0d14c09","651c1c3b52d3e8e52b59baa3","null","null","<p style=""font-size: 60px; font-family: BACS"">krGuJUNa</p>","","","","","","","","",""
"html-keyboard-response","351","463855","0.0-16.0-0.19","608c2e566d92c2aa3543e2d2","650c16f0f2faf8d7a0d14c09","651c1c3b52d3e8e52b59baa3","null","null","<p style=""font-size: 60px; font-family: BACS"">krGuJUNa</p>","","","","","","","","",""
"html-keyboard-response","352","464869","0.0-16.0-0.20","608c2e566d92c2aa3543e2d2","650c16f0f2faf8d7a0d14c09","651c1c3b52d3e8e52b59baa3","null","null","<p style=""font-size: 60px; font-family: BACS"">krGuJUNa</p>","","","","","","","","",""
"html-keyboard-response","353","465874","0.0-16.0-0.21","608c2e566d92c2aa3543e2d2","650c16f0f2faf8d7a0d14c09","651c1c3b52d3e8e52b59baa3","null","null","<p style=""font-size: 60px; font-family: BACS"">krGuJUNa</p>","","","","","","","","",""
"html-keyboard-response","354","466878","0.0-16.0-0.22","608c2e566d92c2aa3543e2d2","650c16f0f2faf8d7a0d14c09","651c1c3b52d3e8e52b59baa3","null","null","<p style=""font-size: 60px; font-family: BACS"">krGuJUNa</p>","","","","","","","","",""
"html-keyboard-response","355","467879","0.0-16.0-0.23","608c2e566d92c2aa3543e2d2","650c16f0f2faf8d7a0d14c09","651c1c3b52d3e8e52b59baa3","null","null","<p style=""font-size: 60px; font-family: BACS"">krGuJUNa</p>","","","","","","","","",""
"html-keyboard-response","356","468881","0.0-16.0-0.24","608c2e566d92c2aa3543e2d2","650c16f0f2faf8d7a0d14c09","651c1c3b52d3e8e52b59baa3","null","null","<p style=""font-size: 60px; font-family: BACS"">krGuJUNa</p>","","","","","","","","",""
"html-keyboard-response","357","469889","0.0-16.0-0.25","608c2e566d92c2aa3543e2d2","650c16f0f2faf8d7a0d14c09","651c1c3b52d3e8e52b59baa3","null","null","<p style=""font-size: 60px; font-family: BACS"">krGuJUNa</p>","","","","","","","","",""
"html-keyboard-response","358","470903","0.0-16.0-0.26","608c2e566d92c2aa3543e2d2","650c16f0f2faf8d7a0d14c09","651c1c3b52d3e8e52b59baa3","null","null","<p style=""font-size: 60px; font-family: BACS"">krGuJUNa</p>","","","","","","","","",""
"html-keyboard-response","359","471905","0.0-16.0-0.27","608c2e566d92c2aa3543e2d2","650c16f0f2faf8d7a0d14c09","651c1c3b52d3e8e52b59baa3","null","null","<p style=""font-size: 60px; font-family: BACS"">krGuJUNa</p>","","","","","","","","",""
"html-keyboard-response","360","472912","0.0-16.0-0.28","608c2e566d92c2aa3543e2d2","650c16f0f2faf8d7a0d14c09","651c1c3b52d3e8e52b59baa3","null","null","<p style=""font-size: 60px; font-family: BACS"">krGuJUNa</p>","","","","","","","","",""
"html-keyboard-response","361","473918","0.0-16.0-0.29","608c2e566d92c2aa3543e2d2","650c16f0f2faf8d7a0d14c09","651c1c3b52d3e8e52b59baa3","null","null","<p style=""font-size: 60px; font-family: BACS"">krGuJUNa</p>","","","","","","","","",""
"html-keyboard-response","362","474935","0.0-16.0-0.30","608c2e566d92c2aa3543e2d2","650c16f0f2faf8d7a0d14c09","651c1c3b52d3e8e52b59baa3","null","null","<p style=""font-size: 60px; font-family: BACS"">krGuJUNa</p>","","","","","","","","",""
"html-keyboard-response","363","475938","0.0-16.0-0.31","608c2e566d92c2aa3543e2d2","650c16f0f2faf8d7a0d14c09","651c1c3b52d3e8e52b59baa3","null","null","<p style=""font-size: 60px; font-family: BACS"">krGuJUNa</p>","","","","","","","","",""
"html-keyboard-response","364","476947","0.0-16.0-0.32","608c2e566d92c2aa3543e2d2","650c16f0f2faf8d7a0d14c09","651c1c3b52d3e8e52b59baa3","null","null","<p style=""font-size: 60px; font-family: BACS"">krGuJUNa</p>","","","","","","","","",""
"html-keyboard-response","365","477949","0.0-16.0-0.33","608c2e566d92c2aa3543e2d2","650c16f0f2faf8d7a0d14c09","651c1c3b52d3e8e52b59baa3","null","null","<p style=""font-size: 60px; font-family: BACS"">krGuJUNa</p>","","","","","","","","",""
"html-keyboard-response","366","478952","0.0-16.0-0.34","608c2e566d92c2aa3543e2d2","650c16f0f2faf8d7a0d14c09","651c1c3b52d3e8e52b59baa3","null","null","<p style=""font-size: 60px; font-family: BACS"">krGuJUNa</p>","","","","","","","","",""
"html-keyboard-response","367","479963","0.0-16.0-0.35","608c2e566d92c2aa3543e2d2","650c16f0f2faf8d7a0d14c09","651c1c3b52d3e8e52b59baa3","null","null","<p style=""font-size: 60px; font-family: BACS"">krGuJUNa</p>","","","","","","","","",""
"html-keyboard-response","368","480968","0.0-16.0-0.36","608c2e566d92c2aa3543e2d2","650c16f0f2faf8d7a0d14c09","651c1c3b52d3e8e52b59baa3","null","null","<p style=""font-size: 60px; font-family: BACS"">krGuJUNa</p>","","","","","","","","",""
"html-keyboard-response","369","481972","0.0-16.0-0.37","608c2e566d92c2aa3543e2d2","650c16f0f2faf8d7a0d14c09","651c1c3b52d3e8e52b59baa3","null","null","<p style=""font-size: 60px; font-family: BACS"">krGuJUNa</p>","","","","","","","","",""
"html-keyboard-response","370","482974","0.0-16.0-0.38","608c2e566d92c2aa3543e2d2","650c16f0f2faf8d7a0d14c09","651c1c3b52d3e8e52b59baa3","null","null","<p style=""font-size: 60px; font-family: BACS"">krGuJUNa</p>","","","","","","","","",""
"html-keyboard-response","371","483975","0.0-16.0-0.39","608c2e566d92c2aa3543e2d2","650c16f0f2faf8d7a0d14c09","651c1c3b52d3e8e52b59baa3","null","null","<p style=""font-size: 60px; font-family: BACS"">krGuJUNa</p>","","","","","","","","",""
"html-keyboard-response","372","484978","0.0-16.0-0.40","608c2e566d92c2aa3543e2d2","650c16f0f2faf8d7a0d14c09","651c1c3b52d3e8e52b59baa3","null","null","<p style=""font-size: 60px; font-family: BACS"">krGuJUNa</p>","","","","","","","","",""
"html-keyboard-response","373","485980","0.0-16.0-0.41","608c2e566d92c2aa3543e2d2","650c16f0f2faf8d7a0d14c09","651c1c3b52d3e8e52b59baa3","null","null","<p style=""font-size: 60px; font-family: BACS"">krGuJUNa</p>","","","","","","","","",""
"html-keyboard-response","374","486983","0.0-16.0-0.42","608c2e566d92c2aa3543e2d2","650c16f0f2faf8d7a0d14c09","651c1c3b52d3e8e52b59baa3","null","null","<p style=""font-size: 60px; font-family: BACS"">krGuJUNa</p>","","","","","","","","",""
"html-keyboard-response","375","488000","0.0-16.0-0.43","608c2e566d92c2aa3543e2d2","650c16f0f2faf8d7a0d14c09","651c1c3b52d3e8e52b59baa3","null","null","<p style=""font-size: 60px; font-family: BACS"">krGuJUNa</p>","","","","","","","","",""
"html-keyboard-response","376","489013","0.0-16.0-0.44","608c2e566d92c2aa3543e2d2","650c16f0f2faf8d7a0d14c09","651c1c3b52d3e8e52b59baa3","null","null","<p style=""font-size: 60px; font-family: BACS"">krGuJUNa</p>","","","","","","","","",""
"html-keyboard-response","377","490029","0.0-16.0-0.45","608c2e566d92c2aa3543e2d2","650c16f0f2faf8d7a0d14c09","651c1c3b52d3e8e52b59baa3","null","null","<p style=""font-size: 60px; font-family: BACS"">krGuJUNa</p>","","","","","","","","",""
"html-keyboard-response","378","491031","0.0-16.0-0.46","608c2e566d92c2aa3543e2d2","650c16f0f2faf8d7a0d14c09","651c1c3b52d3e8e52b59baa3","null","null","<p style=""font-size: 60px; font-family: BACS"">krGuJUNa</p>","","","","","","","","",""
"html-keyboard-response","379","492037","0.0-16.0-0.47","608c2e566d92c2aa3543e2d2","650c16f0f2faf8d7a0d14c09","651c1c3b52d3e8e52b59baa3","null","null","<p style=""font-size: 60px; font-family: BACS"">krGuJUNa</p>","","","","","","","","",""
"html-keyboard-response","380","493042","0.0-16.0-0.48","608c2e566d92c2aa3543e2d2","650c16f0f2faf8d7a0d14c09","651c1c3b52d3e8e52b59baa3","null","null","<p style=""font-size: 60px; font-family: BACS"">krGuJUNa</p>","","","","","","","","",""
"html-keyboard-response","381","494045","0.0-16.0-0.49","608c2e566d92c2aa3543e2d2","650c16f0f2faf8d7a0d14c09","651c1c3b52d3e8e52b59baa3","null","null","<p style=""font-size: 60px; font-family: BACS"">krGuJUNa</p>","","","","","","","","",""
"html-keyboard-response","382","495049","0.0-16.0-0.50","608c2e566d92c2aa3543e2d2","650c16f0f2faf8d7a0d14c09","651c1c3b52d3e8e52b59baa3","null","null","<p style=""font-size: 60px; font-family: BACS"">krGuJUNa</p>","","","","","","","","",""
"html-keyboard-response","383","496054","0.0-16.0-0.51","608c2e566d92c2aa3543e2d2","650c16f0f2faf8d7a0d14c09","651c1c3b52d3e8e52b59baa3","null","null","<p style=""font-size: 60px; font-family: BACS"">krGuJUNa</p>","","","","","","","","",""
"html-keyboard-response","384","497056","0.0-16.0-0.52","608c2e566d92c2aa3543e2d2","650c16f0f2faf8d7a0d14c09","651c1c3b52d3e8e52b59baa3","null","null","<p style=""font-size: 60px; font-family: BACS"">krGuJUNa</p>","","","","","","","","",""
"html-keyboard-response","385","498058","0.0-16.0-0.53","608c2e566d92c2aa3543e2d2","650c16f0f2faf8d7a0d14c09","651c1c3b52d3e8e52b59baa3","null","null","<p style=""font-size: 60px; font-family: BACS"">krGuJUNa</p>","","","","","","","","",""
"html-keyboard-response","386","499061","0.0-16.0-0.54","608c2e566d92c2aa3543e2d2","650c16f0f2faf8d7a0d14c09","651c1c3b52d3e8e52b59baa3","null","null","<p style=""font-size: 60px; font-family: BACS"">krGuJUNa</p>","","","","","","","","",""
"html-keyboard-response","387","500063","0.0-16.0-0.55","608c2e566d92c2aa3543e2d2","650c16f0f2faf8d7a0d14c09","651c1c3b52d3e8e52b59baa3","null","null","<p style=""font-size: 60px; font-family: BACS"">krGuJUNa</p>","","","","","","","","",""
"html-keyboard-response","388","501065","0.0-16.0-0.56","608c2e566d92c2aa3543e2d2","650c16f0f2faf8d7a0d14c09","651c1c3b52d3e8e52b59baa3","null","null","<p style=""font-size: 60px; font-family: BACS"">krGuJUNa</p>","","","","","","","","",""
"html-keyboard-response","389","502074","0.0-16.0-0.57","608c2e566d92c2aa3543e2d2","650c16f0f2faf8d7a0d14c09","651c1c3b52d3e8e52b59baa3","null","null","<p style=""font-size: 60px; font-family: BACS"">krGuJUNa</p>","","","","","","","","",""
"html-keyboard-response","390","503085","0.0-16.0-0.58","608c2e566d92c2aa3543e2d2","650c16f0f2faf8d7a0d14c09","651c1c3b52d3e8e52b59baa3","null","null","<p style=""font-size: 60px; font-family: BACS"">krGuJUNa</p>","","","","","","","","",""
"html-keyboard-response","391","504087","0.0-16.0-0.59","608c2e566d92c2aa3543e2d2","650c16f0f2faf8d7a0d14c09","651c1c3b52d3e8e52b59baa3","null","null","<p style=""font-size: 60px; font-family: BACS"">krGuJUNa</p>","","","","","","","","",""
"html-keyboard-response","392","505089","0.0-16.0-0.60","608c2e566d92c2aa3543e2d2","650c16f0f2faf8d7a0d14c09","651c1c3b52d3e8e52b59baa3","null","null","<p style=""font-size: 60px; font-family: BACS"">krGuJUNa</p>","","","","","","","","",""
"html-keyboard-response","393","506091","0.0-16.0-0.61","608c2e566d92c2aa3543e2d2","650c16f0f2faf8d7a0d14c09","651c1c3b52d3e8e52b59baa3","null","null","<p style=""font-size: 60px; font-family: BACS"">krGuJUNa</p>","","","","","","","","",""
"html-keyboard-response","394","507092","0.0-16.0-0.62","608c2e566d92c2aa3543e2d2","650c16f0f2faf8d7a0d14c09","651c1c3b52d3e8e52b59baa3","null","null","<p style=""font-size: 60px; font-family: BACS"">krGuJUNa</p>","","","","","","","","",""
"html-keyboard-response","395","508101","0.0-16.0-0.63","608c2e566d92c2aa3543e2d2","650c16f0f2faf8d7a0d14c09","651c1c3b52d3e8e52b59baa3","null","null","<p style=""font-size: 60px; font-family: BACS"">krGuJUNa</p>","","","","","","","","",""
"html-keyboard-response","396","509102","0.0-16.0-0.64","608c2e566d92c2aa3543e2d2","650c16f0f2faf8d7a0d14c09","651c1c3b52d3e8e52b59baa3","null","null","<p style=""font-size: 60px; font-family: BACS"">krGuJUNa</p>","","","","","","","","",""
"html-keyboard-response","397","510112","0.0-16.0-0.65","608c2e566d92c2aa3543e2d2","650c16f0f2faf8d7a0d14c09","651c1c3b52d3e8e52b59baa3","null","null","<p style=""font-size: 60px; font-family: BACS"">krGuJUNa</p>","","","","","","","","",""
"html-keyboard-response","398","511119","0.0-16.0-0.66","608c2e566d92c2aa3543e2d2","650c16f0f2faf8d7a0d14c09","651c1c3b52d3e8e52b59baa3","null","null","<p style=""font-size: 60px; font-family: BACS"">krGuJUNa</p>","","","","","","","","",""
"html-keyboard-response","399","512120","0.0-16.0-0.67","608c2e566d92c2aa3543e2d2","650c16f0f2faf8d7a0d14c09","651c1c3b52d3e8e52b59baa3","null","null","<p style=""font-size: 60px; font-family: BACS"">krGuJUNa</p>","","","","","","","","",""
"html-keyboard-response","400","513125","0.0-16.0-0.68","608c2e566d92c2aa3543e2d2","650c16f0f2faf8d7a0d14c09","651c1c3b52d3e8e52b59baa3","null","null","<p style=""font-size: 60px; font-family: BACS"">krGuJUNa</p>","","","","","","","","",""
