"trial_type","trial_index","time_elapsed","internal_node_id","subject_id","study_id","session_id","rt","response","stimulus","success","item","task","correct_response","testing_condition","correct","target","confound","name"
"pavlovia","0","907","0.0-0.0","601705a0246e51313e8ed38e","650c16f0f2faf8d7a0d14c09","651c1bc32c70e51c979a9075","","","","","","","","","","","",""
"survey-html-form","1","2267665","0.0-1.0","601705a0246e51313e8ed38e","650c16f0f2faf8d7a0d14c09","651c1bc32c70e51c979a9075","2266755","{""ID"":""601705a0246e51313e8ed38e""}","","","","","","","","","",""
"html-keyboard-response","2","2286888","0.0-2.0","601705a0246e51313e8ed38e","650c16f0f2faf8d7a0d14c09","651c1bc32c70e51c979a9075","19221"," ","<p style=""font-size: 15px;"">Before beginning, we ask that you read the consent information and confirm your agreement to participate in the experiment.</p>
      <p style=""font-size: 15px;""> We ask that you remember that this is a research project and that your participation is entirely voluntary. You can stop your participation at any time, without needing to provide any explanation. The study we're asking you to participate in aims at examining how readers process written words. You will be engaged in a session of apprximately 20 minutes, followed by a brief questionnaire. You will have the opportunity to take a few breaks during the experiment. You will be paid £4 for your participation, corresponding to a rate of £8/hour. While this experiment looks at cognitive faculties, this experiment doesn't constitute clinical proof of eventual pathologies.</p>
      <p style=""font-size: 15px;"">All of the information collected thanks to yours and others' participation will be held in a secure password-protected server, and will not be shared with anyone not authorised to view it. Your personal information will be kept with an arbitrary participant ID. Thanks to this data anonymity process, any researcher analysing the data won't be able to track the information back to a specific participant. Therefore, this process will make identifying you impossibile, even when results from the study will be published in scientific reviews, presented at congresses, or at any other public forum. More generally, the collected data will be treated in accordance with the laws on privacy and conformity to the Legislative Degree n. 196 ""Code regarding the protection of personal data"" of the 30th of June 2003 and to the European Regulation 2016/670 (General Data Protection Regulation - GDPR). The Data Protection Officer is Avv. Valentina Carollo, who can be contacted at the following email addresses: <a href=""mailto:dpo@sissa.it"">dpo@sissa.it</a> or <a href=""mailto:rpd@sissa.it"">rpd@sissa.it</a> - PEC: <a href=""mailto:protocollo@pec.sissa.it"">protocollo@pec.sissa.it</a>.</p>
      <p style=""font-size: 15px;""> Before expressing your consent to participate, we would like to remind you again that in case you need explanations on any aspect of the experimental procedure, the researcher is at your disposition (<a href=""mailto:aliebelt@sissa.it"">aliebelt@sissa.it</a>, <a href=""mailto:davide.crepaldi@sissa.it"">davide.crepaldi@sissa.it</a>).</p>
      <p style=""font-size: 15px;"">If you would like to download the informed consent form, you can do so here: <a href=""BASL-Informed_Consent.pdf"" download>informed consent form</a>.</p>
      <p style=""font-size: 15px;"">We ask that you press the spacebar to proceed to the consent section.</p>","","","","","","","","",""
"survey-html-form","3","2298730","0.0-3.0","601705a0246e51313e8ed38e","650c16f0f2faf8d7a0d14c09","651c1bc32c70e51c979a9075","11841","{""consent1"":""YES"",""consent2"":""YES"",""consent3"":""YES"",""consent4"":""YES"",""consent5"":""YES"",""consent6"":""YES""}","","","","","","","","","",""
"fullscreen","4","2304705","0.0-4.0","601705a0246e51313e8ed38e","650c16f0f2faf8d7a0d14c09","651c1bc32c70e51c979a9075","","","","true","","","","","","","",""
"html-keyboard-response","5","2322394","0.0-5.0","601705a0246e51313e8ed38e","650c16f0f2faf8d7a0d14c09","651c1bc32c70e51c979a9075","17692"," ","<p>Welcome, and thank you very much for your time!</p>
      <p>In this experiment, you'll be a language expert who's been asked to take a look at words that Earth has received in its first communication with aliens. Your task, in this first part of the experiment, is to pay close attention to the words you'll be shown; later, world leaders will ask you questions on what you saw. The words will be shown to you quite quickly; it seems that the aliens were in a hurry :-)</p>
      <p>Press the spacebar to continue.<p>","","","","","","","","",""
"html-keyboard-response","6","2322449","0.0-6.0","601705a0246e51313e8ed38e","650c16f0f2faf8d7a0d14c09","651c1bc32c70e51c979a9075","null","null","<p style=""font-size: 120px; font-family: BACS""> </p>","","","","","","","","",""
"html-keyboard-response","7","2326306","0.0-7.0","601705a0246e51313e8ed38e","650c16f0f2faf8d7a0d14c09","651c1bc32c70e51c979a9075","3856"," ","<p>Here is an example of the words you'll see:</p>
      <img src='esempio.png' height='400px'>
      <p>When you're ready to begin, press the spacebar.</p></div>","","","","","","","","",""
"html-keyboard-response","8","2327309","0.0-8.0-0.0","601705a0246e51313e8ed38e","650c16f0f2faf8d7a0d14c09","651c1bc32c70e51c979a9075","null","null","<p style=""font-size: 60px; font-family: BACS"">AZaJcrab</p>","","","","","","","","",""
"html-keyboard-response","9","2328316","0.0-8.0-0.1","601705a0246e51313e8ed38e","650c16f0f2faf8d7a0d14c09","651c1bc32c70e51c979a9075","null","null","<p style=""font-size: 60px; font-family: BACS"">tdDdcPK</p>","","","","","","","","",""
"html-keyboard-response","10","2329323","0.0-8.0-0.2","601705a0246e51313e8ed38e","650c16f0f2faf8d7a0d14c09","651c1bc32c70e51c979a9075","null","null","<p style=""font-size: 60px; font-family: BACS"">OcYMDbMR</p>","","","","","","","","",""
"html-keyboard-response","11","2330338","0.0-8.0-0.3","601705a0246e51313e8ed38e","650c16f0f2faf8d7a0d14c09","651c1bc32c70e51c979a9075","null","null","<p style=""font-size: 60px; font-family: BACS"">CkBOPKOYC</p>","","","","","","","","",""
"html-keyboard-response","12","2331340","0.0-8.0-0.4","601705a0246e51313e8ed38e","650c16f0f2faf8d7a0d14c09","651c1bc32c70e51c979a9075","null","null","<p style=""font-size: 60px; font-family: BACS"">YdudbLd</p>","","","","","","","","",""
"html-keyboard-response","13","2332346","0.0-8.0-0.5","601705a0246e51313e8ed38e","650c16f0f2faf8d7a0d14c09","651c1bc32c70e51c979a9075","null","null","<p style=""font-size: 60px; font-family: BACS"">JAdLmrAm</p>","","","","","","","","",""
"html-keyboard-response","14","2333350","0.0-8.0-0.6","601705a0246e51313e8ed38e","650c16f0f2faf8d7a0d14c09","651c1bc32c70e51c979a9075","null","null","<p style=""font-size: 60px; font-family: BACS"">tdDdKOYC</p>","","","","","","","","",""
"html-keyboard-response","15","2334360","0.0-8.0-0.7","601705a0246e51313e8ed38e","650c16f0f2faf8d7a0d14c09","651c1bc32c70e51c979a9075","null","null","<p style=""font-size: 60px; font-family: BACS"">udkmrAm</p>","","","","","","","","",""
"html-keyboard-response","16","2335367","0.0-8.0-0.8","601705a0246e51313e8ed38e","650c16f0f2faf8d7a0d14c09","651c1bc32c70e51c979a9075","null","null","<p style=""font-size: 60px; font-family: BACS"">tdDdTRK</p>","","","","","","","","",""
"html-keyboard-response","17","2336374","0.0-8.0-0.9","601705a0246e51313e8ed38e","650c16f0f2faf8d7a0d14c09","651c1bc32c70e51c979a9075","null","null","<p style=""font-size: 60px; font-family: BACS"">JAdLmZvkL</p>","","","","","","","","",""
"html-keyboard-response","18","2337382","0.0-8.0-0.10","601705a0246e51313e8ed38e","650c16f0f2faf8d7a0d14c09","651c1bc32c70e51c979a9075","null","null","<p style=""font-size: 60px; font-family: BACS"">rLkmbLd</p>","","","","","","","","",""
"html-keyboard-response","19","2338390","0.0-8.0-0.11","601705a0246e51313e8ed38e","650c16f0f2faf8d7a0d14c09","651c1bc32c70e51c979a9075","null","null","<p style=""font-size: 60px; font-family: BACS"">MhKdDbMR</p>","","","","","","","","",""
"html-keyboard-response","20","2339398","0.0-8.0-0.12","601705a0246e51313e8ed38e","650c16f0f2faf8d7a0d14c09","651c1bc32c70e51c979a9075","null","null","<p style=""font-size: 60px; font-family: BACS"">lbBDEKOYC</p>","","","","","","","","",""
"html-keyboard-response","21","2340401","0.0-8.0-0.13","601705a0246e51313e8ed38e","650c16f0f2faf8d7a0d14c09","651c1bc32c70e51c979a9075","null","null","<p style=""font-size: 60px; font-family: BACS"">AlNUrab</p>","","","","","","","","",""
"html-keyboard-response","22","2341404","0.0-8.0-0.14","601705a0246e51313e8ed38e","650c16f0f2faf8d7a0d14c09","651c1bc32c70e51c979a9075","null","null","<p style=""font-size: 60px; font-family: BACS"">rLkmZvkL</p>","","","","","","","","",""
"html-keyboard-response","23","2342410","0.0-8.0-0.15","601705a0246e51313e8ed38e","650c16f0f2faf8d7a0d14c09","651c1bc32c70e51c979a9075","null","null","<p style=""font-size: 60px; font-family: BACS"">AmQOYGUOA</p>","","","","","","","","",""
"html-keyboard-response","24","2343414","0.0-8.0-0.16","601705a0246e51313e8ed38e","650c16f0f2faf8d7a0d14c09","651c1bc32c70e51c979a9075","null","null","<p style=""font-size: 60px; font-family: BACS"">AlNUbLd</p>","","","","","","","","",""
"html-keyboard-response","25","2344420","0.0-8.0-0.17","601705a0246e51313e8ed38e","650c16f0f2faf8d7a0d14c09","651c1bc32c70e51c979a9075","null","null","<p style=""font-size: 60px; font-family: BACS"">AmQOYrAm</p>","","","","","","","","",""
"html-keyboard-response","26","2345422","0.0-8.0-0.18","601705a0246e51313e8ed38e","650c16f0f2faf8d7a0d14c09","651c1bc32c70e51c979a9075","null","null","<p style=""font-size: 60px; font-family: BACS"">AdDbKOYC</p>","","","","","","","","",""
"html-keyboard-response","27","2346424","0.0-8.0-0.19","601705a0246e51313e8ed38e","650c16f0f2faf8d7a0d14c09","651c1bc32c70e51c979a9075","null","null","<p style=""font-size: 60px; font-family: BACS"">OcYMcPK</p>","","","","","","","","",""
"html-keyboard-response","28","2347427","0.0-8.0-0.20","601705a0246e51313e8ed38e","650c16f0f2faf8d7a0d14c09","651c1bc32c70e51c979a9075","null","null","<p style=""font-size: 60px; font-family: BACS"">mBYlcthB</p>","","","","","","","","",""
"html-keyboard-response","29","2348441","0.0-8.0-0.21","601705a0246e51313e8ed38e","650c16f0f2faf8d7a0d14c09","651c1bc32c70e51c979a9075","null","null","<p style=""font-size: 60px; font-family: BACS"">AlNUrAm</p>","","","","","","","","",""
"html-keyboard-response","30","2349449","0.0-8.0-0.22","601705a0246e51313e8ed38e","650c16f0f2faf8d7a0d14c09","651c1bc32c70e51c979a9075","null","null","<p style=""font-size: 60px; font-family: BACS"">btlckcPK</p>","","","","","","","","",""
"html-keyboard-response","31","2350457","0.0-8.0-0.23","601705a0246e51313e8ed38e","650c16f0f2faf8d7a0d14c09","651c1bc32c70e51c979a9075","null","null","<p style=""font-size: 60px; font-family: BACS"">CkBOPcthB</p>","","","","","","","","",""
"html-keyboard-response","32","2351459","0.0-8.0-0.24","601705a0246e51313e8ed38e","650c16f0f2faf8d7a0d14c09","651c1bc32c70e51c979a9075","null","null","<p style=""font-size: 60px; font-family: BACS"">AlNUZvkL</p>","","","","","","","","",""
"html-keyboard-response","33","2352463","0.0-8.0-0.25","601705a0246e51313e8ed38e","650c16f0f2faf8d7a0d14c09","651c1bc32c70e51c979a9075","null","null","<p style=""font-size: 60px; font-family: BACS"">kNuabLd</p>","","","","","","","","",""
"html-keyboard-response","34","2353465","0.0-8.0-0.26","601705a0246e51313e8ed38e","650c16f0f2faf8d7a0d14c09","651c1bc32c70e51c979a9075","null","null","<p style=""font-size: 60px; font-family: BACS"">CkBOPTRK</p>","","","","","","","","",""
"html-keyboard-response","35","2354474","0.0-8.0-0.27","601705a0246e51313e8ed38e","650c16f0f2faf8d7a0d14c09","651c1bc32c70e51c979a9075","null","null","<p style=""font-size: 60px; font-family: BACS"">lbBDEcthB</p>","","","","","","","","",""
"html-keyboard-response","36","2355476","0.0-8.0-0.28","601705a0246e51313e8ed38e","650c16f0f2faf8d7a0d14c09","651c1bc32c70e51c979a9075","null","null","<p style=""font-size: 60px; font-family: BACS"">rbYbuZvkL</p>","","","","","","","","",""
"html-keyboard-response","37","2356484","0.0-8.0-0.29","601705a0246e51313e8ed38e","650c16f0f2faf8d7a0d14c09","651c1bc32c70e51c979a9075","null","null","<p style=""font-size: 60px; font-family: BACS"">lbBDEDbMR</p>","","","","","","","","",""
"html-keyboard-response","38","2357491","0.0-8.0-0.30","601705a0246e51313e8ed38e","650c16f0f2faf8d7a0d14c09","651c1bc32c70e51c979a9075","null","null","<p style=""font-size: 60px; font-family: BACS"">btlckcthB</p>","","","","","","","","",""
"html-keyboard-response","39","2358499","0.0-8.0-0.31","601705a0246e51313e8ed38e","650c16f0f2faf8d7a0d14c09","651c1bc32c70e51c979a9075","null","null","<p style=""font-size: 60px; font-family: BACS"">TKDkTRK</p>","","","","","","","","",""
"html-keyboard-response","40","2359504","0.0-8.0-0.32","601705a0246e51313e8ed38e","650c16f0f2faf8d7a0d14c09","651c1bc32c70e51c979a9075","null","null","<p style=""font-size: 60px; font-family: BACS"">rLkmGUOA</p>","","","","","","","","",""
"html-keyboard-response","41","2360509","0.0-8.0-0.33","601705a0246e51313e8ed38e","650c16f0f2faf8d7a0d14c09","651c1bc32c70e51c979a9075","null","null","<p style=""font-size: 60px; font-family: BACS"">mBYlTRK</p>","","","","","","","","",""
"html-keyboard-response","42","2361513","0.0-8.0-0.34","601705a0246e51313e8ed38e","650c16f0f2faf8d7a0d14c09","651c1bc32c70e51c979a9075","null","null","<p style=""font-size: 60px; font-family: BACS"">MhKdcPK</p>","","","","","","","","",""
"html-keyboard-response","43","2362516","0.0-8.0-0.35","601705a0246e51313e8ed38e","650c16f0f2faf8d7a0d14c09","651c1bc32c70e51c979a9075","null","null","<p style=""font-size: 60px; font-family: BACS"">JAdLmbLd</p>","","","","","","","","",""
"html-keyboard-response","44","2363520","0.0-8.0-0.36","601705a0246e51313e8ed38e","650c16f0f2faf8d7a0d14c09","651c1bc32c70e51c979a9075","null","null","<p style=""font-size: 60px; font-family: BACS"">kcOYcthB</p>","","","","","","","","",""
"html-keyboard-response","45","2364524","0.0-8.0-0.37","601705a0246e51313e8ed38e","650c16f0f2faf8d7a0d14c09","651c1bc32c70e51c979a9075","null","null","<p style=""font-size: 60px; font-family: BACS"">AmQOYrab</p>","","","","","","","","",""
"html-keyboard-response","46","2365525","0.0-8.0-0.38","601705a0246e51313e8ed38e","650c16f0f2faf8d7a0d14c09","651c1bc32c70e51c979a9075","null","null","<p style=""font-size: 60px; font-family: BACS"">OcYMKOYC</p>","","","","","","","","",""
"html-keyboard-response","47","2366527","0.0-8.0-0.39","601705a0246e51313e8ed38e","650c16f0f2faf8d7a0d14c09","651c1bc32c70e51c979a9075","null","null","<p style=""font-size: 60px; font-family: BACS"">mBYlcPK</p>","","","","","","","","",""
"html-keyboard-response","48","2367534","0.0-8.0-0.40","601705a0246e51313e8ed38e","650c16f0f2faf8d7a0d14c09","651c1bc32c70e51c979a9075","null","null","<p style=""font-size: 60px; font-family: BACS"">JAdLmGUOA</p>","","","","","","","","",""
"html-keyboard-response","49","2368539","0.0-8.0-0.41","601705a0246e51313e8ed38e","650c16f0f2faf8d7a0d14c09","651c1bc32c70e51c979a9075","null","null","<p style=""font-size: 60px; font-family: BACS"">mBYlKOYC</p>","","","","","","","","",""
"html-keyboard-response","50","2369548","0.0-8.0-0.42","601705a0246e51313e8ed38e","650c16f0f2faf8d7a0d14c09","651c1bc32c70e51c979a9075","null","null","<p style=""font-size: 60px; font-family: BACS"">btlckTRK</p>","","","","","","","","",""
"html-keyboard-response","51","2370553","0.0-8.0-0.43","601705a0246e51313e8ed38e","650c16f0f2faf8d7a0d14c09","651c1bc32c70e51c979a9075","null","null","<p style=""font-size: 60px; font-family: BACS"">rbYburAm</p>","","","","","","","","",""
"html-keyboard-response","52","2371558","0.0-8.0-0.44","601705a0246e51313e8ed38e","650c16f0f2faf8d7a0d14c09","651c1bc32c70e51c979a9075","null","null","<p style=""font-size: 60px; font-family: BACS"">udkmZvkL</p>","","","","","","","","",""
"html-keyboard-response","53","2372566","0.0-8.0-0.45","601705a0246e51313e8ed38e","650c16f0f2faf8d7a0d14c09","651c1bc32c70e51c979a9075","null","null","<p style=""font-size: 60px; font-family: BACS"">AZaJcGUOA</p>","","","","","","","","",""
"html-keyboard-response","54","2373572","0.0-8.0-0.46","601705a0246e51313e8ed38e","650c16f0f2faf8d7a0d14c09","651c1bc32c70e51c979a9075","null","null","<p style=""font-size: 60px; font-family: BACS"">OcYMcthB</p>","","","","","","","","",""
"html-keyboard-response","55","2374579","0.0-8.0-0.47","601705a0246e51313e8ed38e","650c16f0f2faf8d7a0d14c09","651c1bc32c70e51c979a9075","null","null","<p style=""font-size: 60px; font-family: BACS"">TKDkcPK</p>","","","","","","","","",""
"html-keyboard-response","56","2375584","0.0-8.0-0.48","601705a0246e51313e8ed38e","650c16f0f2faf8d7a0d14c09","651c1bc32c70e51c979a9075","null","null","<p style=""font-size: 60px; font-family: BACS"">kNuaGUOA</p>","","","","","","","","",""
"html-keyboard-response","57","2376590","0.0-8.0-0.49","601705a0246e51313e8ed38e","650c16f0f2faf8d7a0d14c09","651c1bc32c70e51c979a9075","null","null","<p style=""font-size: 60px; font-family: BACS"">rbYburab</p>","","","","","","","","",""
"html-keyboard-response","58","2377597","0.0-8.0-0.50","601705a0246e51313e8ed38e","650c16f0f2faf8d7a0d14c09","651c1bc32c70e51c979a9075","null","null","<p style=""font-size: 60px; font-family: BACS"">AdDbTRK</p>","","","","","","","","",""
"html-keyboard-response","59","2378605","0.0-8.0-0.51","601705a0246e51313e8ed38e","650c16f0f2faf8d7a0d14c09","651c1bc32c70e51c979a9075","null","null","<p style=""font-size: 60px; font-family: BACS"">AZaJcrAm</p>","","","","","","","","",""
"html-keyboard-response","60","2379611","0.0-8.0-0.52","601705a0246e51313e8ed38e","650c16f0f2faf8d7a0d14c09","651c1bc32c70e51c979a9075","null","null","<p style=""font-size: 60px; font-family: BACS"">CkBOPDbMR</p>","","","","","","","","",""
"html-keyboard-response","61","2380615","0.0-8.0-0.53","601705a0246e51313e8ed38e","650c16f0f2faf8d7a0d14c09","651c1bc32c70e51c979a9075","null","null","<p style=""font-size: 60px; font-family: BACS"">kcOYTRK</p>","","","","","","","","",""
"html-keyboard-response","62","2381619","0.0-8.0-0.54","601705a0246e51313e8ed38e","650c16f0f2faf8d7a0d14c09","651c1bc32c70e51c979a9075","null","null","<p style=""font-size: 60px; font-family: BACS"">MhKdKOYC</p>","","","","","","","","",""
"html-keyboard-response","63","2382626","0.0-8.0-0.55","601705a0246e51313e8ed38e","650c16f0f2faf8d7a0d14c09","651c1bc32c70e51c979a9075","null","null","<p style=""font-size: 60px; font-family: BACS"">YdudZvkL</p>","","","","","","","","",""
"html-keyboard-response","64","2383634","0.0-8.0-0.56","601705a0246e51313e8ed38e","650c16f0f2faf8d7a0d14c09","651c1bc32c70e51c979a9075","null","null","<p style=""font-size: 60px; font-family: BACS"">AdDbDbMR</p>","","","","","","","","",""
"html-keyboard-response","65","2384636","0.0-8.0-0.57","601705a0246e51313e8ed38e","650c16f0f2faf8d7a0d14c09","651c1bc32c70e51c979a9075","null","null","<p style=""font-size: 60px; font-family: BACS"">MhKdTRK</p>","","","","","","","","",""
"html-keyboard-response","66","2385644","0.0-8.0-0.58","601705a0246e51313e8ed38e","650c16f0f2faf8d7a0d14c09","651c1bc32c70e51c979a9075","null","null","<p style=""font-size: 60px; font-family: BACS"">YdudGUOA</p>","","","","","","","","",""
"html-keyboard-response","67","2386648","0.0-8.0-0.59","601705a0246e51313e8ed38e","650c16f0f2faf8d7a0d14c09","651c1bc32c70e51c979a9075","null","null","<p style=""font-size: 60px; font-family: BACS"">kcOYcPK</p>","","","","","","","","",""
"html-keyboard-response","68","2387651","0.0-8.0-0.60","601705a0246e51313e8ed38e","650c16f0f2faf8d7a0d14c09","651c1bc32c70e51c979a9075","null","null","<p style=""font-size: 60px; font-family: BACS"">LGkAZvkL</p>","","","","","","","","",""
"html-keyboard-response","69","2388659","0.0-8.0-0.61","601705a0246e51313e8ed38e","650c16f0f2faf8d7a0d14c09","651c1bc32c70e51c979a9075","null","null","<p style=""font-size: 60px; font-family: BACS"">AZaJcbLd</p>","","","","","","","","",""
"html-keyboard-response","70","2389668","0.0-8.0-0.62","601705a0246e51313e8ed38e","650c16f0f2faf8d7a0d14c09","651c1bc32c70e51c979a9075","null","null","<p style=""font-size: 60px; font-family: BACS"">rLkmrab</p>","","","","","","","","",""
"html-keyboard-response","71","2390677","0.0-8.0-0.63","601705a0246e51313e8ed38e","650c16f0f2faf8d7a0d14c09","651c1bc32c70e51c979a9075","null","null","<p style=""font-size: 60px; font-family: BACS"">LGkArAm</p>","","","","","","","","",""
"html-keyboard-response","72","2391678","0.0-8.0-0.64","601705a0246e51313e8ed38e","650c16f0f2faf8d7a0d14c09","651c1bc32c70e51c979a9075","null","null","<p style=""font-size: 60px; font-family: BACS"">btlckDbMR</p>","","","","","","","","",""
"html-keyboard-response","73","2392686","0.0-8.0-0.65","601705a0246e51313e8ed38e","650c16f0f2faf8d7a0d14c09","651c1bc32c70e51c979a9075","null","null","<p style=""font-size: 60px; font-family: BACS"">LGkArab</p>","","","","","","","","",""
"html-keyboard-response","74","2393691","0.0-8.0-0.66","601705a0246e51313e8ed38e","650c16f0f2faf8d7a0d14c09","651c1bc32c70e51c979a9075","null","null","<p style=""font-size: 60px; font-family: BACS"">AmQOYbLd</p>","","","","","","","","",""
"html-keyboard-response","75","2394698","0.0-8.0-0.67","601705a0246e51313e8ed38e","650c16f0f2faf8d7a0d14c09","651c1bc32c70e51c979a9075","null","null","<p style=""font-size: 60px; font-family: BACS"">TKDkcthB</p>","","","","","","","","",""
"html-keyboard-response","76","2395704","0.0-8.0-0.68","601705a0246e51313e8ed38e","650c16f0f2faf8d7a0d14c09","651c1bc32c70e51c979a9075","null","null","<p style=""font-size: 60px; font-family: BACS"">udkmrab</p>","","","","","","","","",""
"html-keyboard-response","77","2396708","0.0-8.0-0.69","601705a0246e51313e8ed38e","650c16f0f2faf8d7a0d14c09","651c1bc32c70e51c979a9075","null","null","<p style=""font-size: 60px; font-family: BACS"">kcOYKOYC</p>","","","","","","","","",""
"html-keyboard-response","78","2397715","0.0-8.0-0.70","601705a0246e51313e8ed38e","650c16f0f2faf8d7a0d14c09","651c1bc32c70e51c979a9075","null","null","<p style=""font-size: 60px; font-family: BACS"">LGkAGUOA</p>","","","","","","","","",""
"html-keyboard-response","79","2398720","0.0-8.0-0.71","601705a0246e51313e8ed38e","650c16f0f2faf8d7a0d14c09","651c1bc32c70e51c979a9075","null","null","<p style=""font-size: 60px; font-family: BACS"">YdudrAm</p>","","","","","","","","",""
"html-keyboard-response","80","2399725","0.0-8.0-0.72","601705a0246e51313e8ed38e","650c16f0f2faf8d7a0d14c09","651c1bc32c70e51c979a9075","null","null","<p style=""font-size: 60px; font-family: BACS"">lbBDEcPK</p>","","","","","","","","",""
"html-keyboard-response","81","2400728","0.0-8.0-0.73","601705a0246e51313e8ed38e","650c16f0f2faf8d7a0d14c09","651c1bc32c70e51c979a9075","null","null","<p style=""font-size: 60px; font-family: BACS"">rbYbubLd</p>","","","","","","","","",""
"html-keyboard-response","82","2401742","0.0-8.0-0.74","601705a0246e51313e8ed38e","650c16f0f2faf8d7a0d14c09","651c1bc32c70e51c979a9075","null","null","<p style=""font-size: 60px; font-family: BACS"">AdDbcthB</p>","","","","","","","","",""
"html-keyboard-response","83","2402748","0.0-8.0-0.75","601705a0246e51313e8ed38e","650c16f0f2faf8d7a0d14c09","651c1bc32c70e51c979a9075","null","null","<p style=""font-size: 60px; font-family: BACS"">tdDdDbMR</p>","","","","","","","","",""
"html-keyboard-response","84","2403753","0.0-8.0-0.76","601705a0246e51313e8ed38e","650c16f0f2faf8d7a0d14c09","651c1bc32c70e51c979a9075","null","null","<p style=""font-size: 60px; font-family: BACS"">kNuaZvkL</p>","","","","","","","","",""
"html-keyboard-response","85","2404756","0.0-8.0-0.77","601705a0246e51313e8ed38e","650c16f0f2faf8d7a0d14c09","651c1bc32c70e51c979a9075","null","null","<p style=""font-size: 60px; font-family: BACS"">TKDkDbMR</p>","","","","","","","","",""
"html-keyboard-response","86","2405760","0.0-8.0-0.78","601705a0246e51313e8ed38e","650c16f0f2faf8d7a0d14c09","651c1bc32c70e51c979a9075","null","null","<p style=""font-size: 60px; font-family: BACS"">udkmGUOA</p>","","","","","","","","",""
"html-keyboard-response","87","2406762","0.0-8.0-0.79","601705a0246e51313e8ed38e","650c16f0f2faf8d7a0d14c09","651c1bc32c70e51c979a9075","null","null","<p style=""font-size: 60px; font-family: BACS"">kNuarab</p>","","","","","","","","",""
"html-keyboard-response","88","2745943","0.0-9.0","601705a0246e51313e8ed38e","650c16f0f2faf8d7a0d14c09","651c1bc32c70e51c979a9075","339179"," ","<p>Great, you've seen the first block of words. You may now take a short break.</p>
      <p>Press the spacebar when you're ready to continue.</p>","","","","","","","","",""
"html-keyboard-response","89","2746947","0.0-10.0-0.0","601705a0246e51313e8ed38e","650c16f0f2faf8d7a0d14c09","651c1bc32c70e51c979a9075","null","null","<p style=""font-size: 60px; font-family: BACS"">TKDkDbMR</p>","","","","","","","","",""
"html-keyboard-response","90","2747955","0.0-10.0-0.1","601705a0246e51313e8ed38e","650c16f0f2faf8d7a0d14c09","651c1bc32c70e51c979a9075","null","null","<p style=""font-size: 60px; font-family: BACS"">CkBOPKOYC</p>","","","","","","","","",""
"html-keyboard-response","91","2748963","0.0-10.0-0.2","601705a0246e51313e8ed38e","650c16f0f2faf8d7a0d14c09","651c1bc32c70e51c979a9075","null","null","<p style=""font-size: 60px; font-family: BACS"">lbBDEcthB</p>","","","","","","","","",""
"html-keyboard-response","92","2749968","0.0-10.0-0.3","601705a0246e51313e8ed38e","650c16f0f2faf8d7a0d14c09","651c1bc32c70e51c979a9075","null","null","<p style=""font-size: 60px; font-family: BACS"">rLkmrab</p>","","","","","","","","",""
"html-keyboard-response","93","2750973","0.0-10.0-0.4","601705a0246e51313e8ed38e","650c16f0f2faf8d7a0d14c09","651c1bc32c70e51c979a9075","null","null","<p style=""font-size: 60px; font-family: BACS"">mBYlKOYC</p>","","","","","","","","",""
"html-keyboard-response","94","2751975","0.0-10.0-0.5","601705a0246e51313e8ed38e","650c16f0f2faf8d7a0d14c09","651c1bc32c70e51c979a9075","null","null","<p style=""font-size: 60px; font-family: BACS"">btlckTRK</p>","","","","","","","","",""
"html-keyboard-response","95","2752983","0.0-10.0-0.6","601705a0246e51313e8ed38e","650c16f0f2faf8d7a0d14c09","651c1bc32c70e51c979a9075","null","null","<p style=""font-size: 60px; font-family: BACS"">rLkmbLd</p>","","","","","","","","",""
"html-keyboard-response","96","2753991","0.0-10.0-0.7","601705a0246e51313e8ed38e","650c16f0f2faf8d7a0d14c09","651c1bc32c70e51c979a9075","null","null","<p style=""font-size: 60px; font-family: BACS"">tdDdcPK</p>","","","","","","","","",""
"html-keyboard-response","97","2754997","0.0-10.0-0.8","601705a0246e51313e8ed38e","650c16f0f2faf8d7a0d14c09","651c1bc32c70e51c979a9075","null","null","<p style=""font-size: 60px; font-family: BACS"">CkBOPDbMR</p>","","","","","","","","",""
"html-keyboard-response","98","2756003","0.0-10.0-0.9","601705a0246e51313e8ed38e","650c16f0f2faf8d7a0d14c09","651c1bc32c70e51c979a9075","null","null","<p style=""font-size: 60px; font-family: BACS"">udkmGUOA</p>","","","","","","","","",""
"html-keyboard-response","99","2757004","0.0-10.0-0.10","601705a0246e51313e8ed38e","650c16f0f2faf8d7a0d14c09","651c1bc32c70e51c979a9075","null","null","<p style=""font-size: 60px; font-family: BACS"">CkBOPcthB</p>","","","","","","","","",""
"html-keyboard-response","100","2758009","0.0-10.0-0.11","601705a0246e51313e8ed38e","650c16f0f2faf8d7a0d14c09","651c1bc32c70e51c979a9075","null","null","<p style=""font-size: 60px; font-family: BACS"">JAdLmZvkL</p>","","","","","","","","",""
"html-keyboard-response","101","2759018","0.0-10.0-0.12","601705a0246e51313e8ed38e","650c16f0f2faf8d7a0d14c09","651c1bc32c70e51c979a9075","null","null","<p style=""font-size: 60px; font-family: BACS"">MhKdTRK</p>","","","","","","","","",""
"html-keyboard-response","102","2760026","0.0-10.0-0.13","601705a0246e51313e8ed38e","650c16f0f2faf8d7a0d14c09","651c1bc32c70e51c979a9075","null","null","<p style=""font-size: 60px; font-family: BACS"">rLkmZvkL</p>","","","","","","","","",""
"html-keyboard-response","103","2761030","0.0-10.0-0.14","601705a0246e51313e8ed38e","650c16f0f2faf8d7a0d14c09","651c1bc32c70e51c979a9075","null","null","<p style=""font-size: 60px; font-family: BACS"">AmQOYrab</p>","","","","","","","","",""
"html-keyboard-response","104","2762037","0.0-10.0-0.15","601705a0246e51313e8ed38e","650c16f0f2faf8d7a0d14c09","651c1bc32c70e51c979a9075","null","null","<p style=""font-size: 60px; font-family: BACS"">AZaJcGUOA</p>","","","","","","","","",""
"html-keyboard-response","105","2763042","0.0-10.0-0.16","601705a0246e51313e8ed38e","650c16f0f2faf8d7a0d14c09","651c1bc32c70e51c979a9075","null","null","<p style=""font-size: 60px; font-family: BACS"">udkmZvkL</p>","","","","","","","","",""
"html-keyboard-response","106","2764049","0.0-10.0-0.17","601705a0246e51313e8ed38e","650c16f0f2faf8d7a0d14c09","651c1bc32c70e51c979a9075","null","null","<p style=""font-size: 60px; font-family: BACS"">btlckcPK</p>","","","","","","","","",""
"html-keyboard-response","107","2765055","0.0-10.0-0.18","601705a0246e51313e8ed38e","650c16f0f2faf8d7a0d14c09","651c1bc32c70e51c979a9075","null","null","<p style=""font-size: 60px; font-family: BACS"">kNuaGUOA</p>","","","","","","","","",""
"html-keyboard-response","108","2766063","0.0-10.0-0.19","601705a0246e51313e8ed38e","650c16f0f2faf8d7a0d14c09","651c1bc32c70e51c979a9075","null","null","<p style=""font-size: 60px; font-family: BACS"">AlNUbLd</p>","","","","","","","","",""
"html-keyboard-response","109","2767066","0.0-10.0-0.20","601705a0246e51313e8ed38e","650c16f0f2faf8d7a0d14c09","651c1bc32c70e51c979a9075","null","null","<p style=""font-size: 60px; font-family: BACS"">lbBDEDbMR</p>","","","","","","","","",""
"html-keyboard-response","110","2768068","0.0-10.0-0.21","601705a0246e51313e8ed38e","650c16f0f2faf8d7a0d14c09","651c1bc32c70e51c979a9075","null","null","<p style=""font-size: 60px; font-family: BACS"">AZaJcbLd</p>","","","","","","","","",""
"html-keyboard-response","111","2769071","0.0-10.0-0.22","601705a0246e51313e8ed38e","650c16f0f2faf8d7a0d14c09","651c1bc32c70e51c979a9075","null","null","<p style=""font-size: 60px; font-family: BACS"">AmQOYGUOA</p>","","","","","","","","",""
"html-keyboard-response","112","2770076","0.0-10.0-0.23","601705a0246e51313e8ed38e","650c16f0f2faf8d7a0d14c09","651c1bc32c70e51c979a9075","null","null","<p style=""font-size: 60px; font-family: BACS"">mBYlcthB</p>","","","","","","","","",""
"html-keyboard-response","113","2771081","0.0-10.0-0.24","601705a0246e51313e8ed38e","650c16f0f2faf8d7a0d14c09","651c1bc32c70e51c979a9075","null","null","<p style=""font-size: 60px; font-family: BACS"">udkmrab</p>","","","","","","","","",""
"html-keyboard-response","114","2772085","0.0-10.0-0.25","601705a0246e51313e8ed38e","650c16f0f2faf8d7a0d14c09","651c1bc32c70e51c979a9075","null","null","<p style=""font-size: 60px; font-family: BACS"">AmQOYbLd</p>","","","","","","","","",""
"html-keyboard-response","115","2773093","0.0-10.0-0.26","601705a0246e51313e8ed38e","650c16f0f2faf8d7a0d14c09","651c1bc32c70e51c979a9075","null","null","<p style=""font-size: 60px; font-family: BACS"">rbYburAm</p>","","","","","","","","",""
"html-keyboard-response","116","2774099","0.0-10.0-0.27","601705a0246e51313e8ed38e","650c16f0f2faf8d7a0d14c09","651c1bc32c70e51c979a9075","null","null","<p style=""font-size: 60px; font-family: BACS"">OcYMKOYC</p>","","","","","","","","",""
"html-keyboard-response","117","2775105","0.0-10.0-0.28","601705a0246e51313e8ed38e","650c16f0f2faf8d7a0d14c09","651c1bc32c70e51c979a9075","null","null","<p style=""font-size: 60px; font-family: BACS"">JAdLmGUOA</p>","","","","","","","","",""
"html-keyboard-response","118","2776110","0.0-10.0-0.29","601705a0246e51313e8ed38e","650c16f0f2faf8d7a0d14c09","651c1bc32c70e51c979a9075","null","null","<p style=""font-size: 60px; font-family: BACS"">kNuaZvkL</p>","","","","","","","","",""
"html-keyboard-response","119","2777116","0.0-10.0-0.30","601705a0246e51313e8ed38e","650c16f0f2faf8d7a0d14c09","651c1bc32c70e51c979a9075","null","null","<p style=""font-size: 60px; font-family: BACS"">btlckDbMR</p>","","","","","","","","",""
"html-keyboard-response","120","2778124","0.0-10.0-0.31","601705a0246e51313e8ed38e","650c16f0f2faf8d7a0d14c09","651c1bc32c70e51c979a9075","null","null","<p style=""font-size: 60px; font-family: BACS"">CkBOPTRK</p>","","","","","","","","",""
"html-keyboard-response","121","2779130","0.0-10.0-0.32","601705a0246e51313e8ed38e","650c16f0f2faf8d7a0d14c09","651c1bc32c70e51c979a9075","null","null","<p style=""font-size: 60px; font-family: BACS"">AlNUZvkL</p>","","","","","","","","",""
"html-keyboard-response","122","2780133","0.0-10.0-0.33","601705a0246e51313e8ed38e","650c16f0f2faf8d7a0d14c09","651c1bc32c70e51c979a9075","null","null","<p style=""font-size: 60px; font-family: BACS"">YdudGUOA</p>","","","","","","","","",""
"html-keyboard-response","123","2781141","0.0-10.0-0.34","601705a0246e51313e8ed38e","650c16f0f2faf8d7a0d14c09","651c1bc32c70e51c979a9075","null","null","<p style=""font-size: 60px; font-family: BACS"">AZaJcrab</p>","","","","","","","","",""
"html-keyboard-response","124","2782148","0.0-10.0-0.35","601705a0246e51313e8ed38e","650c16f0f2faf8d7a0d14c09","651c1bc32c70e51c979a9075","null","null","<p style=""font-size: 60px; font-family: BACS"">tdDdDbMR</p>","","","","","","","","",""
"html-keyboard-response","125","2783152","0.0-10.0-0.36","601705a0246e51313e8ed38e","650c16f0f2faf8d7a0d14c09","651c1bc32c70e51c979a9075","null","null","<p style=""font-size: 60px; font-family: BACS"">AdDbcthB</p>","","","","","","","","",""
"html-keyboard-response","126","2784154","0.0-10.0-0.37","601705a0246e51313e8ed38e","650c16f0f2faf8d7a0d14c09","651c1bc32c70e51c979a9075","null","null","<p style=""font-size: 60px; font-family: BACS"">TKDkTRK</p>","","","","","","","","",""
"html-keyboard-response","127","2785161","0.0-10.0-0.38","601705a0246e51313e8ed38e","650c16f0f2faf8d7a0d14c09","651c1bc32c70e51c979a9075","null","null","<p style=""font-size: 60px; font-family: BACS"">mBYlcPK</p>","","","","","","","","",""
"html-keyboard-response","128","2786170","0.0-10.0-0.39","601705a0246e51313e8ed38e","650c16f0f2faf8d7a0d14c09","651c1bc32c70e51c979a9075","null","null","<p style=""font-size: 60px; font-family: BACS"">btlckcthB</p>","","","","","","","","",""
"html-keyboard-response","129","2787173","0.0-10.0-0.40","601705a0246e51313e8ed38e","650c16f0f2faf8d7a0d14c09","651c1bc32c70e51c979a9075","null","null","<p style=""font-size: 60px; font-family: BACS"">MhKdcPK</p>","","","","","","","","",""
"html-keyboard-response","130","2788173","0.0-10.0-0.41","601705a0246e51313e8ed38e","650c16f0f2faf8d7a0d14c09","651c1bc32c70e51c979a9075","null","null","<p style=""font-size: 60px; font-family: BACS"">YdudbLd</p>","","","","","","","","",""
"html-keyboard-response","131","2789190","0.0-10.0-0.42","601705a0246e51313e8ed38e","650c16f0f2faf8d7a0d14c09","651c1bc32c70e51c979a9075","null","null","<p style=""font-size: 60px; font-family: BACS"">tdDdKOYC</p>","","","","","","","","",""
"html-keyboard-response","132","2790198","0.0-10.0-0.43","601705a0246e51313e8ed38e","650c16f0f2faf8d7a0d14c09","651c1bc32c70e51c979a9075","null","null","<p style=""font-size: 60px; font-family: BACS"">AdDbTRK</p>","","","","","","","","",""
"html-keyboard-response","133","2791203","0.0-10.0-0.44","601705a0246e51313e8ed38e","650c16f0f2faf8d7a0d14c09","651c1bc32c70e51c979a9075","null","null","<p style=""font-size: 60px; font-family: BACS"">LGkAGUOA</p>","","","","","","","","",""
"html-keyboard-response","134","2792209","0.0-10.0-0.45","601705a0246e51313e8ed38e","650c16f0f2faf8d7a0d14c09","651c1bc32c70e51c979a9075","null","null","<p style=""font-size: 60px; font-family: BACS"">AdDbDbMR</p>","","","","","","","","",""
"html-keyboard-response","135","2793212","0.0-10.0-0.46","601705a0246e51313e8ed38e","650c16f0f2faf8d7a0d14c09","651c1bc32c70e51c979a9075","null","null","<p style=""font-size: 60px; font-family: BACS"">OcYMcPK</p>","","","","","","","","",""
"html-keyboard-response","136","2794219","0.0-10.0-0.47","601705a0246e51313e8ed38e","650c16f0f2faf8d7a0d14c09","651c1bc32c70e51c979a9075","null","null","<p style=""font-size: 60px; font-family: BACS"">udkmrAm</p>","","","","","","","","",""
"html-keyboard-response","137","2795222","0.0-10.0-0.48","601705a0246e51313e8ed38e","650c16f0f2faf8d7a0d14c09","651c1bc32c70e51c979a9075","null","null","<p style=""font-size: 60px; font-family: BACS"">kcOYTRK</p>","","","","","","","","",""
"html-keyboard-response","138","2796223","0.0-10.0-0.49","601705a0246e51313e8ed38e","650c16f0f2faf8d7a0d14c09","651c1bc32c70e51c979a9075","null","null","<p style=""font-size: 60px; font-family: BACS"">MhKdDbMR</p>","","","","","","","","",""
"html-keyboard-response","139","2797225","0.0-10.0-0.50","601705a0246e51313e8ed38e","650c16f0f2faf8d7a0d14c09","651c1bc32c70e51c979a9075","null","null","<p style=""font-size: 60px; font-family: BACS"">kcOYKOYC</p>","","","","","","","","",""
"html-keyboard-response","140","2798229","0.0-10.0-0.51","601705a0246e51313e8ed38e","650c16f0f2faf8d7a0d14c09","651c1bc32c70e51c979a9075","null","null","<p style=""font-size: 60px; font-family: BACS"">TKDkcPK</p>","","","","","","","","",""
"html-keyboard-response","141","2799237","0.0-10.0-0.52","601705a0246e51313e8ed38e","650c16f0f2faf8d7a0d14c09","651c1bc32c70e51c979a9075","null","null","<p style=""font-size: 60px; font-family: BACS"">kNuabLd</p>","","","","","","","","",""
"html-keyboard-response","142","2800238","0.0-10.0-0.53","601705a0246e51313e8ed38e","650c16f0f2faf8d7a0d14c09","651c1bc32c70e51c979a9075","null","null","<p style=""font-size: 60px; font-family: BACS"">YdudZvkL</p>","","","","","","","","",""
"html-keyboard-response","143","2801239","0.0-10.0-0.54","601705a0246e51313e8ed38e","650c16f0f2faf8d7a0d14c09","651c1bc32c70e51c979a9075","null","null","<p style=""font-size: 60px; font-family: BACS"">OcYMDbMR</p>","","","","","","","","",""
"html-keyboard-response","144","2802243","0.0-10.0-0.55","601705a0246e51313e8ed38e","650c16f0f2faf8d7a0d14c09","651c1bc32c70e51c979a9075","null","null","<p style=""font-size: 60px; font-family: BACS"">JAdLmrAm</p>","","","","","","","","",""
"html-keyboard-response","145","2803248","0.0-10.0-0.56","601705a0246e51313e8ed38e","650c16f0f2faf8d7a0d14c09","651c1bc32c70e51c979a9075","null","null","<p style=""font-size: 60px; font-family: BACS"">rbYbubLd</p>","","","","","","","","",""
"html-keyboard-response","146","2804250","0.0-10.0-0.57","601705a0246e51313e8ed38e","650c16f0f2faf8d7a0d14c09","651c1bc32c70e51c979a9075","null","null","<p style=""font-size: 60px; font-family: BACS"">OcYMcthB</p>","","","","","","","","",""
"html-keyboard-response","147","2805257","0.0-10.0-0.58","601705a0246e51313e8ed38e","650c16f0f2faf8d7a0d14c09","651c1bc32c70e51c979a9075","null","null","<p style=""font-size: 60px; font-family: BACS"">JAdLmbLd</p>","","","","","","","","",""
"html-keyboard-response","148","2806261","0.0-10.0-0.59","601705a0246e51313e8ed38e","650c16f0f2faf8d7a0d14c09","651c1bc32c70e51c979a9075","null","null","<p style=""font-size: 60px; font-family: BACS"">AZaJcrAm</p>","","","","","","","","",""
"html-keyboard-response","149","2807271","0.0-10.0-0.60","601705a0246e51313e8ed38e","650c16f0f2faf8d7a0d14c09","651c1bc32c70e51c979a9075","null","null","<p style=""font-size: 60px; font-family: BACS"">lbBDEcPK</p>","","","","","","","","",""
"html-keyboard-response","150","2808278","0.0-10.0-0.61","601705a0246e51313e8ed38e","650c16f0f2faf8d7a0d14c09","651c1bc32c70e51c979a9075","null","null","<p style=""font-size: 60px; font-family: BACS"">AdDbKOYC</p>","","","","","","","","",""
"html-keyboard-response","151","2809281","0.0-10.0-0.62","601705a0246e51313e8ed38e","650c16f0f2faf8d7a0d14c09","651c1bc32c70e51c979a9075","null","null","<p style=""font-size: 60px; font-family: BACS"">LGkArAm</p>","","","","","","","","",""
"html-keyboard-response","152","2810290","0.0-10.0-0.63","601705a0246e51313e8ed38e","650c16f0f2faf8d7a0d14c09","651c1bc32c70e51c979a9075","null","null","<p style=""font-size: 60px; font-family: BACS"">rbYbuZvkL</p>","","","","","","","","",""
"html-keyboard-response","153","2811296","0.0-10.0-0.64","601705a0246e51313e8ed38e","650c16f0f2faf8d7a0d14c09","651c1bc32c70e51c979a9075","null","null","<p style=""font-size: 60px; font-family: BACS"">TKDkcthB</p>","","","","","","","","",""
"html-keyboard-response","154","2812300","0.0-10.0-0.65","601705a0246e51313e8ed38e","650c16f0f2faf8d7a0d14c09","651c1bc32c70e51c979a9075","null","null","<p style=""font-size: 60px; font-family: BACS"">rbYburab</p>","","","","","","","","",""
"html-keyboard-response","155","2813306","0.0-10.0-0.66","601705a0246e51313e8ed38e","650c16f0f2faf8d7a0d14c09","651c1bc32c70e51c979a9075","null","null","<p style=""font-size: 60px; font-family: BACS"">tdDdTRK</p>","","","","","","","","",""
"html-keyboard-response","156","2814308","0.0-10.0-0.67","601705a0246e51313e8ed38e","650c16f0f2faf8d7a0d14c09","651c1bc32c70e51c979a9075","null","null","<p style=""font-size: 60px; font-family: BACS"">kNuarab</p>","","","","","","","","",""
"html-keyboard-response","157","2815314","0.0-10.0-0.68","601705a0246e51313e8ed38e","650c16f0f2faf8d7a0d14c09","651c1bc32c70e51c979a9075","null","null","<p style=""font-size: 60px; font-family: BACS"">mBYlTRK</p>","","","","","","","","",""
"html-keyboard-response","158","2816318","0.0-10.0-0.69","601705a0246e51313e8ed38e","650c16f0f2faf8d7a0d14c09","651c1bc32c70e51c979a9075","null","null","<p style=""font-size: 60px; font-family: BACS"">AmQOYrAm</p>","","","","","","","","",""
"html-keyboard-response","159","2817327","0.0-10.0-0.70","601705a0246e51313e8ed38e","650c16f0f2faf8d7a0d14c09","651c1bc32c70e51c979a9075","null","null","<p style=""font-size: 60px; font-family: BACS"">MhKdKOYC</p>","","","","","","","","",""
"html-keyboard-response","160","2818331","0.0-10.0-0.71","601705a0246e51313e8ed38e","650c16f0f2faf8d7a0d14c09","651c1bc32c70e51c979a9075","null","null","<p style=""font-size: 60px; font-family: BACS"">LGkAZvkL</p>","","","","","","","","",""
"html-keyboard-response","161","2819337","0.0-10.0-0.72","601705a0246e51313e8ed38e","650c16f0f2faf8d7a0d14c09","651c1bc32c70e51c979a9075","null","null","<p style=""font-size: 60px; font-family: BACS"">AlNUrAm</p>","","","","","","","","",""
"html-keyboard-response","162","2820339","0.0-10.0-0.73","601705a0246e51313e8ed38e","650c16f0f2faf8d7a0d14c09","651c1bc32c70e51c979a9075","null","null","<p style=""font-size: 60px; font-family: BACS"">kcOYcthB</p>","","","","","","","","",""
"html-keyboard-response","163","2821341","0.0-10.0-0.74","601705a0246e51313e8ed38e","650c16f0f2faf8d7a0d14c09","651c1bc32c70e51c979a9075","null","null","<p style=""font-size: 60px; font-family: BACS"">LGkArab</p>","","","","","","","","",""
"html-keyboard-response","164","2822344","0.0-10.0-0.75","601705a0246e51313e8ed38e","650c16f0f2faf8d7a0d14c09","651c1bc32c70e51c979a9075","null","null","<p style=""font-size: 60px; font-family: BACS"">lbBDEKOYC</p>","","","","","","","","",""
"html-keyboard-response","165","2823349","0.0-10.0-0.76","601705a0246e51313e8ed38e","650c16f0f2faf8d7a0d14c09","651c1bc32c70e51c979a9075","null","null","<p style=""font-size: 60px; font-family: BACS"">YdudrAm</p>","","","","","","","","",""
"html-keyboard-response","166","2824357","0.0-10.0-0.77","601705a0246e51313e8ed38e","650c16f0f2faf8d7a0d14c09","651c1bc32c70e51c979a9075","null","null","<p style=""font-size: 60px; font-family: BACS"">kcOYcPK</p>","","","","","","","","",""
"html-keyboard-response","167","2825359","0.0-10.0-0.78","601705a0246e51313e8ed38e","650c16f0f2faf8d7a0d14c09","651c1bc32c70e51c979a9075","null","null","<p style=""font-size: 60px; font-family: BACS"">rLkmGUOA</p>","","","","","","","","",""
"html-keyboard-response","168","2826361","0.0-10.0-0.79","601705a0246e51313e8ed38e","650c16f0f2faf8d7a0d14c09","651c1bc32c70e51c979a9075","null","null","<p style=""font-size: 60px; font-family: BACS"">AlNUrab</p>","","","","","","","","",""
"html-keyboard-response","169","2827784","0.0-11.0","601705a0246e51313e8ed38e","650c16f0f2faf8d7a0d14c09","651c1bc32c70e51c979a9075","1423"," ","<p>Great, you've seen the second block of words. You may now take a short break.</p>
      <p>Press the spacebar when you're ready to continue.</p>","","","","","","","","",""
"html-keyboard-response","170","2828789","0.0-12.0-0.0","601705a0246e51313e8ed38e","650c16f0f2faf8d7a0d14c09","651c1bc32c70e51c979a9075","null","null","<p style=""font-size: 60px; font-family: BACS"">kNuaGUOA</p>","","","","","","","","",""
"html-keyboard-response","171","2829791","0.0-12.0-0.1","601705a0246e51313e8ed38e","650c16f0f2faf8d7a0d14c09","651c1bc32c70e51c979a9075","null","null","<p style=""font-size: 60px; font-family: BACS"">tdDdDbMR</p>","","","","","","","","",""
"html-keyboard-response","172","2830800","0.0-12.0-0.2","601705a0246e51313e8ed38e","650c16f0f2faf8d7a0d14c09","651c1bc32c70e51c979a9075","null","null","<p style=""font-size: 60px; font-family: BACS"">kcOYcPK</p>","","","","","","","","",""
"html-keyboard-response","173","2831805","0.0-12.0-0.3","601705a0246e51313e8ed38e","650c16f0f2faf8d7a0d14c09","651c1bc32c70e51c979a9075","null","null","<p style=""font-size: 60px; font-family: BACS"">AdDbTRK</p>","","","","","","","","",""
"html-keyboard-response","174","2832807","0.0-12.0-0.4","601705a0246e51313e8ed38e","650c16f0f2faf8d7a0d14c09","651c1bc32c70e51c979a9075","null","null","<p style=""font-size: 60px; font-family: BACS"">rbYbubLd</p>","","","","","","","","",""
"html-keyboard-response","175","2833811","0.0-12.0-0.5","601705a0246e51313e8ed38e","650c16f0f2faf8d7a0d14c09","651c1bc32c70e51c979a9075","null","null","<p style=""font-size: 60px; font-family: BACS"">LGkAGUOA</p>","","","","","","","","",""
"html-keyboard-response","176","2834818","0.0-12.0-0.6","601705a0246e51313e8ed38e","650c16f0f2faf8d7a0d14c09","651c1bc32c70e51c979a9075","null","null","<p style=""font-size: 60px; font-family: BACS"">AlNUbLd</p>","","","","","","","","",""
"html-keyboard-response","177","2835822","0.0-12.0-0.7","601705a0246e51313e8ed38e","650c16f0f2faf8d7a0d14c09","651c1bc32c70e51c979a9075","null","null","<p style=""font-size: 60px; font-family: BACS"">YdudGUOA</p>","","","","","","","","",""
"html-keyboard-response","178","2836823","0.0-12.0-0.8","601705a0246e51313e8ed38e","650c16f0f2faf8d7a0d14c09","651c1bc32c70e51c979a9075","null","null","<p style=""font-size: 60px; font-family: BACS"">mBYlTRK</p>","","","","","","","","",""
"html-keyboard-response","179","2837828","0.0-12.0-0.9","601705a0246e51313e8ed38e","650c16f0f2faf8d7a0d14c09","651c1bc32c70e51c979a9075","null","null","<p style=""font-size: 60px; font-family: BACS"">udkmrAm</p>","","","","","","","","",""
"html-keyboard-response","180","2838832","0.0-12.0-0.10","601705a0246e51313e8ed38e","650c16f0f2faf8d7a0d14c09","651c1bc32c70e51c979a9075","null","null","<p style=""font-size: 60px; font-family: BACS"">rLkmZvkL</p>","","","","","","","","",""
"html-keyboard-response","181","2839838","0.0-12.0-0.11","601705a0246e51313e8ed38e","650c16f0f2faf8d7a0d14c09","651c1bc32c70e51c979a9075","null","null","<p style=""font-size: 60px; font-family: BACS"">btlckcPK</p>","","","","","","","","",""
"html-keyboard-response","182","2840847","0.0-12.0-0.12","601705a0246e51313e8ed38e","650c16f0f2faf8d7a0d14c09","651c1bc32c70e51c979a9075","null","null","<p style=""font-size: 60px; font-family: BACS"">OcYMKOYC</p>","","","","","","","","",""
"html-keyboard-response","183","2841851","0.0-12.0-0.13","601705a0246e51313e8ed38e","650c16f0f2faf8d7a0d14c09","651c1bc32c70e51c979a9075","null","null","<p style=""font-size: 60px; font-family: BACS"">JAdLmGUOA</p>","","","","","","","","",""
"html-keyboard-response","184","2842858","0.0-12.0-0.14","601705a0246e51313e8ed38e","650c16f0f2faf8d7a0d14c09","651c1bc32c70e51c979a9075","null","null","<p style=""font-size: 60px; font-family: BACS"">TKDkcPK</p>","","","","","","","","",""
"html-keyboard-response","185","2843861","0.0-12.0-0.15","601705a0246e51313e8ed38e","650c16f0f2faf8d7a0d14c09","651c1bc32c70e51c979a9075","null","null","<p style=""font-size: 60px; font-family: BACS"">MhKdKOYC</p>","","","","","","","","",""
"html-keyboard-response","186","2844864","0.0-12.0-0.16","601705a0246e51313e8ed38e","650c16f0f2faf8d7a0d14c09","651c1bc32c70e51c979a9075","null","null","<p style=""font-size: 60px; font-family: BACS"">AlNUrAm</p>","","","","","","","","",""
"html-keyboard-response","187","2845871","0.0-12.0-0.17","601705a0246e51313e8ed38e","650c16f0f2faf8d7a0d14c09","651c1bc32c70e51c979a9075","null","null","<p style=""font-size: 60px; font-family: BACS"">rLkmbLd</p>","","","","","","","","",""
"html-keyboard-response","188","2846878","0.0-12.0-0.18","601705a0246e51313e8ed38e","650c16f0f2faf8d7a0d14c09","651c1bc32c70e51c979a9075","null","null","<p style=""font-size: 60px; font-family: BACS"">OcYMcPK</p>","","","","","","","","",""
"html-keyboard-response","189","2847880","0.0-12.0-0.19","601705a0246e51313e8ed38e","650c16f0f2faf8d7a0d14c09","651c1bc32c70e51c979a9075","null","null","<p style=""font-size: 60px; font-family: BACS"">YdudZvkL</p>","","","","","","","","",""
"html-keyboard-response","190","2848890","0.0-12.0-0.20","601705a0246e51313e8ed38e","650c16f0f2faf8d7a0d14c09","651c1bc32c70e51c979a9075","null","null","<p style=""font-size: 60px; font-family: BACS"">kNuabLd</p>","","","","","","","","",""
"html-keyboard-response","191","2849897","0.0-12.0-0.21","601705a0246e51313e8ed38e","650c16f0f2faf8d7a0d14c09","651c1bc32c70e51c979a9075","null","null","<p style=""font-size: 60px; font-family: BACS"">kcOYKOYC</p>","","","","","","","","",""
"html-keyboard-response","192","2850900","0.0-12.0-0.22","601705a0246e51313e8ed38e","650c16f0f2faf8d7a0d14c09","651c1bc32c70e51c979a9075","null","null","<p style=""font-size: 60px; font-family: BACS"">mBYlcPK</p>","","","","","","","","",""
"html-keyboard-response","193","2851902","0.0-12.0-0.23","601705a0246e51313e8ed38e","650c16f0f2faf8d7a0d14c09","651c1bc32c70e51c979a9075","null","null","<p style=""font-size: 60px; font-family: BACS"">JAdLmbLd</p>","","","","","","","","",""
"html-keyboard-response","194","2852908","0.0-12.0-0.24","601705a0246e51313e8ed38e","650c16f0f2faf8d7a0d14c09","651c1bc32c70e51c979a9075","null","null","<p style=""font-size: 60px; font-family: BACS"">mBYlcthB</p>","","","","","","","","",""
"html-keyboard-response","195","2853916","0.0-12.0-0.25","601705a0246e51313e8ed38e","650c16f0f2faf8d7a0d14c09","651c1bc32c70e51c979a9075","null","null","<p style=""font-size: 60px; font-family: BACS"">JAdLmrAm</p>","","","","","","","","",""
"html-keyboard-response","196","2854922","0.0-12.0-0.26","601705a0246e51313e8ed38e","650c16f0f2faf8d7a0d14c09","651c1bc32c70e51c979a9075","null","null","<p style=""font-size: 60px; font-family: BACS"">kcOYTRK</p>","","","","","","","","",""
"html-keyboard-response","197","2855931","0.0-12.0-0.27","601705a0246e51313e8ed38e","650c16f0f2faf8d7a0d14c09","651c1bc32c70e51c979a9075","null","null","<p style=""font-size: 60px; font-family: BACS"">AZaJcrab</p>","","","","","","","","",""
"html-keyboard-response","198","2856938","0.0-12.0-0.28","601705a0246e51313e8ed38e","650c16f0f2faf8d7a0d14c09","651c1bc32c70e51c979a9075","null","null","<p style=""font-size: 60px; font-family: BACS"">OcYMDbMR</p>","","","","","","","","",""
"html-keyboard-response","199","2857942","0.0-12.0-0.29","601705a0246e51313e8ed38e","650c16f0f2faf8d7a0d14c09","651c1bc32c70e51c979a9075","null","null","<p style=""font-size: 60px; font-family: BACS"">LGkArAm</p>","","","","","","","","",""
"html-keyboard-response","200","2858950","0.0-12.0-0.30","601705a0246e51313e8ed38e","650c16f0f2faf8d7a0d14c09","651c1bc32c70e51c979a9075","null","null","<p style=""font-size: 60px; font-family: BACS"">MhKdDbMR</p>","","","","","","","","",""
"html-keyboard-response","201","2859956","0.0-12.0-0.31","601705a0246e51313e8ed38e","650c16f0f2faf8d7a0d14c09","651c1bc32c70e51c979a9075","null","null","<p style=""font-size: 60px; font-family: BACS"">kNuarab</p>","","","","","","","","",""
"html-keyboard-response","202","2860959","0.0-12.0-0.32","601705a0246e51313e8ed38e","650c16f0f2faf8d7a0d14c09","651c1bc32c70e51c979a9075","null","null","<p style=""font-size: 60px; font-family: BACS"">btlckcthB</p>","","","","","","","","",""
"html-keyboard-response","203","2861967","0.0-12.0-0.33","601705a0246e51313e8ed38e","650c16f0f2faf8d7a0d14c09","651c1bc32c70e51c979a9075","null","null","<p style=""font-size: 60px; font-family: BACS"">LGkAZvkL</p>","","","","","","","","",""
"html-keyboard-response","204","2862971","0.0-12.0-0.34","601705a0246e51313e8ed38e","650c16f0f2faf8d7a0d14c09","651c1bc32c70e51c979a9075","null","null","<p style=""font-size: 60px; font-family: BACS"">lbBDEcthB</p>","","","","","","","","",""
"html-keyboard-response","205","2863975","0.0-12.0-0.35","601705a0246e51313e8ed38e","650c16f0f2faf8d7a0d14c09","651c1bc32c70e51c979a9075","null","null","<p style=""font-size: 60px; font-family: BACS"">AlNUrab</p>","","","","","","","","",""
"html-keyboard-response","206","2864982","0.0-12.0-0.36","601705a0246e51313e8ed38e","650c16f0f2faf8d7a0d14c09","651c1bc32c70e51c979a9075","null","null","<p style=""font-size: 60px; font-family: BACS"">lbBDEKOYC</p>","","","","","","","","",""
"html-keyboard-response","207","2865988","0.0-12.0-0.37","601705a0246e51313e8ed38e","650c16f0f2faf8d7a0d14c09","651c1bc32c70e51c979a9075","null","null","<p style=""font-size: 60px; font-family: BACS"">AmQOYGUOA</p>","","","","","","","","",""
"html-keyboard-response","208","2866991","0.0-12.0-0.38","601705a0246e51313e8ed38e","650c16f0f2faf8d7a0d14c09","651c1bc32c70e51c979a9075","null","null","<p style=""font-size: 60px; font-family: BACS"">kNuaZvkL</p>","","","","","","","","",""
"html-keyboard-response","209","2867999","0.0-12.0-0.39","601705a0246e51313e8ed38e","650c16f0f2faf8d7a0d14c09","651c1bc32c70e51c979a9075","null","null","<p style=""font-size: 60px; font-family: BACS"">rbYburab</p>","","","","","","","","",""
"html-keyboard-response","210","2869000","0.0-12.0-0.40","601705a0246e51313e8ed38e","650c16f0f2faf8d7a0d14c09","651c1bc32c70e51c979a9075","null","null","<p style=""font-size: 60px; font-family: BACS"">MhKdTRK</p>","","","","","","","","",""
"html-keyboard-response","211","2870002","0.0-12.0-0.41","601705a0246e51313e8ed38e","650c16f0f2faf8d7a0d14c09","651c1bc32c70e51c979a9075","null","null","<p style=""font-size: 60px; font-family: BACS"">btlckDbMR</p>","","","","","","","","",""
"html-keyboard-response","212","2871003","0.0-12.0-0.42","601705a0246e51313e8ed38e","650c16f0f2faf8d7a0d14c09","651c1bc32c70e51c979a9075","null","null","<p style=""font-size: 60px; font-family: BACS"">rLkmGUOA</p>","","","","","","","","",""
"html-keyboard-response","213","2872011","0.0-12.0-0.43","601705a0246e51313e8ed38e","650c16f0f2faf8d7a0d14c09","651c1bc32c70e51c979a9075","null","null","<p style=""font-size: 60px; font-family: BACS"">TKDkDbMR</p>","","","","","","","","",""
"html-keyboard-response","214","2873016","0.0-12.0-0.44","601705a0246e51313e8ed38e","650c16f0f2faf8d7a0d14c09","651c1bc32c70e51c979a9075","null","null","<p style=""font-size: 60px; font-family: BACS"">AdDbKOYC</p>","","","","","","","","",""
"html-keyboard-response","215","2874021","0.0-12.0-0.45","601705a0246e51313e8ed38e","650c16f0f2faf8d7a0d14c09","651c1bc32c70e51c979a9075","null","null","<p style=""font-size: 60px; font-family: BACS"">OcYMcthB</p>","","","","","","","","",""
"html-keyboard-response","216","2875028","0.0-12.0-0.46","601705a0246e51313e8ed38e","650c16f0f2faf8d7a0d14c09","651c1bc32c70e51c979a9075","null","null","<p style=""font-size: 60px; font-family: BACS"">CkBOPTRK</p>","","","","","","","","",""
"html-keyboard-response","217","2876033","0.0-12.0-0.47","601705a0246e51313e8ed38e","650c16f0f2faf8d7a0d14c09","651c1bc32c70e51c979a9075","null","null","<p style=""font-size: 60px; font-family: BACS"">AmQOYbLd</p>","","","","","","","","",""
"html-keyboard-response","218","2877036","0.0-12.0-0.48","601705a0246e51313e8ed38e","650c16f0f2faf8d7a0d14c09","651c1bc32c70e51c979a9075","null","null","<p style=""font-size: 60px; font-family: BACS"">TKDkcthB</p>","","","","","","","","",""
"html-keyboard-response","219","2878039","0.0-12.0-0.49","601705a0246e51313e8ed38e","650c16f0f2faf8d7a0d14c09","651c1bc32c70e51c979a9075","null","null","<p style=""font-size: 60px; font-family: BACS"">udkmrab</p>","","","","","","","","",""
"html-keyboard-response","220","2879041","0.0-12.0-0.50","601705a0246e51313e8ed38e","650c16f0f2faf8d7a0d14c09","651c1bc32c70e51c979a9075","null","null","<p style=""font-size: 60px; font-family: BACS"">AmQOYrAm</p>","","","","","","","","",""
"html-keyboard-response","221","2880043","0.0-12.0-0.51","601705a0246e51313e8ed38e","650c16f0f2faf8d7a0d14c09","651c1bc32c70e51c979a9075","null","null","<p style=""font-size: 60px; font-family: BACS"">udkmGUOA</p>","","","","","","","","",""
"html-keyboard-response","222","2881046","0.0-12.0-0.52","601705a0246e51313e8ed38e","650c16f0f2faf8d7a0d14c09","651c1bc32c70e51c979a9075","null","null","<p style=""font-size: 60px; font-family: BACS"">TKDkTRK</p>","","","","","","","","",""
"html-keyboard-response","223","2882053","0.0-12.0-0.53","601705a0246e51313e8ed38e","650c16f0f2faf8d7a0d14c09","651c1bc32c70e51c979a9075","null","null","<p style=""font-size: 60px; font-family: BACS"">rbYbuZvkL</p>","","","","","","","","",""
"html-keyboard-response","224","2883061","0.0-12.0-0.54","601705a0246e51313e8ed38e","650c16f0f2faf8d7a0d14c09","651c1bc32c70e51c979a9075","null","null","<p style=""font-size: 60px; font-family: BACS"">AZaJcGUOA</p>","","","","","","","","",""
"html-keyboard-response","225","2884069","0.0-12.0-0.55","601705a0246e51313e8ed38e","650c16f0f2faf8d7a0d14c09","651c1bc32c70e51c979a9075","null","null","<p style=""font-size: 60px; font-family: BACS"">CkBOPcthB</p>","","","","","","","","",""
"html-keyboard-response","226","2885075","0.0-12.0-0.56","601705a0246e51313e8ed38e","650c16f0f2faf8d7a0d14c09","651c1bc32c70e51c979a9075","null","null","<p style=""font-size: 60px; font-family: BACS"">mBYlKOYC</p>","","","","","","","","",""
"html-keyboard-response","227","2886081","0.0-12.0-0.57","601705a0246e51313e8ed38e","650c16f0f2faf8d7a0d14c09","651c1bc32c70e51c979a9075","null","null","<p style=""font-size: 60px; font-family: BACS"">CkBOPDbMR</p>","","","","","","","","",""
"html-keyboard-response","228","2887082","0.0-12.0-0.58","601705a0246e51313e8ed38e","650c16f0f2faf8d7a0d14c09","651c1bc32c70e51c979a9075","null","null","<p style=""font-size: 60px; font-family: BACS"">kcOYcthB</p>","","","","","","","","",""
"html-keyboard-response","229","2888091","0.0-12.0-0.59","601705a0246e51313e8ed38e","650c16f0f2faf8d7a0d14c09","651c1bc32c70e51c979a9075","null","null","<p style=""font-size: 60px; font-family: BACS"">lbBDEcPK</p>","","","","","","","","",""
"html-keyboard-response","230","2889097","0.0-12.0-0.60","601705a0246e51313e8ed38e","650c16f0f2faf8d7a0d14c09","651c1bc32c70e51c979a9075","null","null","<p style=""font-size: 60px; font-family: BACS"">AZaJcbLd</p>","","","","","","","","",""
"html-keyboard-response","231","2890100","0.0-12.0-0.61","601705a0246e51313e8ed38e","650c16f0f2faf8d7a0d14c09","651c1bc32c70e51c979a9075","null","null","<p style=""font-size: 60px; font-family: BACS"">CkBOPKOYC</p>","","","","","","","","",""
"html-keyboard-response","232","2891105","0.0-12.0-0.62","601705a0246e51313e8ed38e","650c16f0f2faf8d7a0d14c09","651c1bc32c70e51c979a9075","null","null","<p style=""font-size: 60px; font-family: BACS"">AdDbcthB</p>","","","","","","","","",""
"html-keyboard-response","233","2892106","0.0-12.0-0.63","601705a0246e51313e8ed38e","650c16f0f2faf8d7a0d14c09","651c1bc32c70e51c979a9075","null","null","<p style=""font-size: 60px; font-family: BACS"">AZaJcrAm</p>","","","","","","","","",""
"html-keyboard-response","234","2893111","0.0-12.0-0.64","601705a0246e51313e8ed38e","650c16f0f2faf8d7a0d14c09","651c1bc32c70e51c979a9075","null","null","<p style=""font-size: 60px; font-family: BACS"">btlckTRK</p>","","","","","","","","",""
"html-keyboard-response","235","2894113","0.0-12.0-0.65","601705a0246e51313e8ed38e","650c16f0f2faf8d7a0d14c09","651c1bc32c70e51c979a9075","null","null","<p style=""font-size: 60px; font-family: BACS"">rbYburAm</p>","","","","","","","","",""
"html-keyboard-response","236","2895119","0.0-12.0-0.66","601705a0246e51313e8ed38e","650c16f0f2faf8d7a0d14c09","651c1bc32c70e51c979a9075","null","null","<p style=""font-size: 60px; font-family: BACS"">tdDdTRK</p>","","","","","","","","",""
"html-keyboard-response","237","2896125","0.0-12.0-0.67","601705a0246e51313e8ed38e","650c16f0f2faf8d7a0d14c09","651c1bc32c70e51c979a9075","null","null","<p style=""font-size: 60px; font-family: BACS"">YdudrAm</p>","","","","","","","","",""
"html-keyboard-response","238","2897126","0.0-12.0-0.68","601705a0246e51313e8ed38e","650c16f0f2faf8d7a0d14c09","651c1bc32c70e51c979a9075","null","null","<p style=""font-size: 60px; font-family: BACS"">tdDdcPK</p>","","","","","","","","",""
"html-keyboard-response","239","2898128","0.0-12.0-0.69","601705a0246e51313e8ed38e","650c16f0f2faf8d7a0d14c09","651c1bc32c70e51c979a9075","null","null","<p style=""font-size: 60px; font-family: BACS"">YdudbLd</p>","","","","","","","","",""
"html-keyboard-response","240","2899134","0.0-12.0-0.70","601705a0246e51313e8ed38e","650c16f0f2faf8d7a0d14c09","651c1bc32c70e51c979a9075","null","null","<p style=""font-size: 60px; font-family: BACS"">JAdLmZvkL</p>","","","","","","","","",""
"html-keyboard-response","241","2900140","0.0-12.0-0.71","601705a0246e51313e8ed38e","650c16f0f2faf8d7a0d14c09","651c1bc32c70e51c979a9075","null","null","<p style=""font-size: 60px; font-family: BACS"">rLkmrab</p>","","","","","","","","",""
"html-keyboard-response","242","2901148","0.0-12.0-0.72","601705a0246e51313e8ed38e","650c16f0f2faf8d7a0d14c09","651c1bc32c70e51c979a9075","null","null","<p style=""font-size: 60px; font-family: BACS"">lbBDEDbMR</p>","","","","","","","","",""
"html-keyboard-response","243","2902151","0.0-12.0-0.73","601705a0246e51313e8ed38e","650c16f0f2faf8d7a0d14c09","651c1bc32c70e51c979a9075","null","null","<p style=""font-size: 60px; font-family: BACS"">MhKdcPK</p>","","","","","","","","",""
"html-keyboard-response","244","2903157","0.0-12.0-0.74","601705a0246e51313e8ed38e","650c16f0f2faf8d7a0d14c09","651c1bc32c70e51c979a9075","null","null","<p style=""font-size: 60px; font-family: BACS"">LGkArab</p>","","","","","","","","",""
"html-keyboard-response","245","2904164","0.0-12.0-0.75","601705a0246e51313e8ed38e","650c16f0f2faf8d7a0d14c09","651c1bc32c70e51c979a9075","null","null","<p style=""font-size: 60px; font-family: BACS"">udkmZvkL</p>","","","","","","","","",""
"html-keyboard-response","246","2905168","0.0-12.0-0.76","601705a0246e51313e8ed38e","650c16f0f2faf8d7a0d14c09","651c1bc32c70e51c979a9075","null","null","<p style=""font-size: 60px; font-family: BACS"">AmQOYrab</p>","","","","","","","","",""
"html-keyboard-response","247","2906172","0.0-12.0-0.77","601705a0246e51313e8ed38e","650c16f0f2faf8d7a0d14c09","651c1bc32c70e51c979a9075","null","null","<p style=""font-size: 60px; font-family: BACS"">AdDbDbMR</p>","","","","","","","","",""
"html-keyboard-response","248","2907178","0.0-12.0-0.78","601705a0246e51313e8ed38e","650c16f0f2faf8d7a0d14c09","651c1bc32c70e51c979a9075","null","null","<p style=""font-size: 60px; font-family: BACS"">AlNUZvkL</p>","","","","","","","","",""
"html-keyboard-response","249","2908185","0.0-12.0-0.79","601705a0246e51313e8ed38e","650c16f0f2faf8d7a0d14c09","651c1bc32c70e51c979a9075","null","null","<p style=""font-size: 60px; font-family: BACS"">tdDdKOYC</p>","","","","","","","","",""
"html-keyboard-response","250","2911386","0.0-13.0","601705a0246e51313e8ed38e","650c16f0f2faf8d7a0d14c09","651c1bc32c70e51c979a9075","3201"," ","<p>Great, you've seen the third block of words. You may now take a short break.</p>
      <p>Press the spacebar when you're ready to continue.</p>","","","","","","","","",""
"html-keyboard-response","251","2912387","0.0-14.0-0.0","601705a0246e51313e8ed38e","650c16f0f2faf8d7a0d14c09","651c1bc32c70e51c979a9075","null","null","<p style=""font-size: 60px; font-family: BACS"">MhKdDbMR</p>","","","","","","","","",""
"html-keyboard-response","252","2913390","0.0-14.0-0.1","601705a0246e51313e8ed38e","650c16f0f2faf8d7a0d14c09","651c1bc32c70e51c979a9075","null","null","<p style=""font-size: 60px; font-family: BACS"">kcOYcPK</p>","","","","","","","","",""
"html-keyboard-response","253","2914399","0.0-14.0-0.2","601705a0246e51313e8ed38e","650c16f0f2faf8d7a0d14c09","651c1bc32c70e51c979a9075","null","null","<p style=""font-size: 60px; font-family: BACS"">lbBDEKOYC</p>","","","","","","","","",""
"html-keyboard-response","254","2915401","0.0-14.0-0.3","601705a0246e51313e8ed38e","650c16f0f2faf8d7a0d14c09","651c1bc32c70e51c979a9075","null","null","<p style=""font-size: 60px; font-family: BACS"">YdudZvkL</p>","","","","","","","","",""
"html-keyboard-response","255","2916408","0.0-14.0-0.4","601705a0246e51313e8ed38e","650c16f0f2faf8d7a0d14c09","651c1bc32c70e51c979a9075","null","null","<p style=""font-size: 60px; font-family: BACS"">rLkmrab</p>","","","","","","","","",""
"html-keyboard-response","256","2917416","0.0-14.0-0.5","601705a0246e51313e8ed38e","650c16f0f2faf8d7a0d14c09","651c1bc32c70e51c979a9075","null","null","<p style=""font-size: 60px; font-family: BACS"">AZaJcGUOA</p>","","","","","","","","",""
"html-keyboard-response","257","2918423","0.0-14.0-0.6","601705a0246e51313e8ed38e","650c16f0f2faf8d7a0d14c09","651c1bc32c70e51c979a9075","null","null","<p style=""font-size: 60px; font-family: BACS"">AdDbTRK</p>","","","","","","","","",""
"html-keyboard-response","258","2919428","0.0-14.0-0.7","601705a0246e51313e8ed38e","650c16f0f2faf8d7a0d14c09","651c1bc32c70e51c979a9075","null","null","<p style=""font-size: 60px; font-family: BACS"">AZaJcrab</p>","","","","","","","","",""
"html-keyboard-response","259","2920444","0.0-14.0-0.8","601705a0246e51313e8ed38e","650c16f0f2faf8d7a0d14c09","651c1bc32c70e51c979a9075","null","null","<p style=""font-size: 60px; font-family: BACS"">rLkmZvkL</p>","","","","","","","","",""
"html-keyboard-response","260","2921448","0.0-14.0-0.9","601705a0246e51313e8ed38e","650c16f0f2faf8d7a0d14c09","651c1bc32c70e51c979a9075","null","null","<p style=""font-size: 60px; font-family: BACS"">kNuaGUOA</p>","","","","","","","","",""
"html-keyboard-response","261","2922450","0.0-14.0-0.10","601705a0246e51313e8ed38e","650c16f0f2faf8d7a0d14c09","651c1bc32c70e51c979a9075","null","null","<p style=""font-size: 60px; font-family: BACS"">mBYlTRK</p>","","","","","","","","",""
"html-keyboard-response","262","2923451","0.0-14.0-0.11","601705a0246e51313e8ed38e","650c16f0f2faf8d7a0d14c09","651c1bc32c70e51c979a9075","null","null","<p style=""font-size: 60px; font-family: BACS"">OcYMcPK</p>","","","","","","","","",""
"html-keyboard-response","263","2924453","0.0-14.0-0.12","601705a0246e51313e8ed38e","650c16f0f2faf8d7a0d14c09","651c1bc32c70e51c979a9075","null","null","<p style=""font-size: 60px; font-family: BACS"">LGkAGUOA</p>","","","","","","","","",""
"html-keyboard-response","264","2925454","0.0-14.0-0.13","601705a0246e51313e8ed38e","650c16f0f2faf8d7a0d14c09","651c1bc32c70e51c979a9075","null","null","<p style=""font-size: 60px; font-family: BACS"">AdDbcthB</p>","","","","","","","","",""
"html-keyboard-response","265","2926462","0.0-14.0-0.14","601705a0246e51313e8ed38e","650c16f0f2faf8d7a0d14c09","651c1bc32c70e51c979a9075","null","null","<p style=""font-size: 60px; font-family: BACS"">kNuabLd</p>","","","","","","","","",""
"html-keyboard-response","266","2927469","0.0-14.0-0.15","601705a0246e51313e8ed38e","650c16f0f2faf8d7a0d14c09","651c1bc32c70e51c979a9075","null","null","<p style=""font-size: 60px; font-family: BACS"">tdDdTRK</p>","","","","","","","","",""
"html-keyboard-response","267","2928470","0.0-14.0-0.16","601705a0246e51313e8ed38e","650c16f0f2faf8d7a0d14c09","651c1bc32c70e51c979a9075","null","null","<p style=""font-size: 60px; font-family: BACS"">rLkmGUOA</p>","","","","","","","","",""
"html-keyboard-response","268","2929472","0.0-14.0-0.17","601705a0246e51313e8ed38e","650c16f0f2faf8d7a0d14c09","651c1bc32c70e51c979a9075","null","null","<p style=""font-size: 60px; font-family: BACS"">JAdLmbLd</p>","","","","","","","","",""
"html-keyboard-response","269","2930481","0.0-14.0-0.18","601705a0246e51313e8ed38e","650c16f0f2faf8d7a0d14c09","651c1bc32c70e51c979a9075","null","null","<p style=""font-size: 60px; font-family: BACS"">AlNUZvkL</p>","","","","","","","","",""
"html-keyboard-response","270","2931482","0.0-14.0-0.19","601705a0246e51313e8ed38e","650c16f0f2faf8d7a0d14c09","651c1bc32c70e51c979a9075","null","null","<p style=""font-size: 60px; font-family: BACS"">kcOYcthB</p>","","","","","","","","",""
"html-keyboard-response","271","2932488","0.0-14.0-0.20","601705a0246e51313e8ed38e","650c16f0f2faf8d7a0d14c09","651c1bc32c70e51c979a9075","null","null","<p style=""font-size: 60px; font-family: BACS"">AmQOYGUOA</p>","","","","","","","","",""
"html-keyboard-response","272","2933496","0.0-14.0-0.21","601705a0246e51313e8ed38e","650c16f0f2faf8d7a0d14c09","651c1bc32c70e51c979a9075","null","null","<p style=""font-size: 60px; font-family: BACS"">AlNUrab</p>","","","","","","","","",""
"html-keyboard-response","273","2934501","0.0-14.0-0.22","601705a0246e51313e8ed38e","650c16f0f2faf8d7a0d14c09","651c1bc32c70e51c979a9075","null","null","<p style=""font-size: 60px; font-family: BACS"">YdudrAm</p>","","","","","","","","",""
"html-keyboard-response","274","2935502","0.0-14.0-0.23","601705a0246e51313e8ed38e","650c16f0f2faf8d7a0d14c09","651c1bc32c70e51c979a9075","null","null","<p style=""font-size: 60px; font-family: BACS"">udkmZvkL</p>","","","","","","","","",""
"html-keyboard-response","275","2936508","0.0-14.0-0.24","601705a0246e51313e8ed38e","650c16f0f2faf8d7a0d14c09","651c1bc32c70e51c979a9075","null","null","<p style=""font-size: 60px; font-family: BACS"">rbYburab</p>","","","","","","","","",""
"html-keyboard-response","276","2937511","0.0-14.0-0.25","601705a0246e51313e8ed38e","650c16f0f2faf8d7a0d14c09","651c1bc32c70e51c979a9075","null","null","<p style=""font-size: 60px; font-family: BACS"">CkBOPKOYC</p>","","","","","","","","",""
"html-keyboard-response","277","2938514","0.0-14.0-0.26","601705a0246e51313e8ed38e","650c16f0f2faf8d7a0d14c09","651c1bc32c70e51c979a9075","null","null","<p style=""font-size: 60px; font-family: BACS"">rbYbuZvkL</p>","","","","","","","","",""
"html-keyboard-response","278","2939524","0.0-14.0-0.27","601705a0246e51313e8ed38e","650c16f0f2faf8d7a0d14c09","651c1bc32c70e51c979a9075","null","null","<p style=""font-size: 60px; font-family: BACS"">mBYlcthB</p>","","","","","","","","",""
"html-keyboard-response","279","2940531","0.0-14.0-0.28","601705a0246e51313e8ed38e","650c16f0f2faf8d7a0d14c09","651c1bc32c70e51c979a9075","null","null","<p style=""font-size: 60px; font-family: BACS"">OcYMDbMR</p>","","","","","","","","",""
"html-keyboard-response","280","2941538","0.0-14.0-0.29","601705a0246e51313e8ed38e","650c16f0f2faf8d7a0d14c09","651c1bc32c70e51c979a9075","null","null","<p style=""font-size: 60px; font-family: BACS"">MhKdcPK</p>","","","","","","","","",""
"html-keyboard-response","281","2942542","0.0-14.0-0.30","601705a0246e51313e8ed38e","650c16f0f2faf8d7a0d14c09","651c1bc32c70e51c979a9075","null","null","<p style=""font-size: 60px; font-family: BACS"">AZaJcrAm</p>","","","","","","","","",""
"html-keyboard-response","282","2943548","0.0-14.0-0.31","601705a0246e51313e8ed38e","650c16f0f2faf8d7a0d14c09","651c1bc32c70e51c979a9075","null","null","<p style=""font-size: 60px; font-family: BACS"">TKDkcthB</p>","","","","","","","","",""
"html-keyboard-response","283","2944549","0.0-14.0-0.32","601705a0246e51313e8ed38e","650c16f0f2faf8d7a0d14c09","651c1bc32c70e51c979a9075","null","null","<p style=""font-size: 60px; font-family: BACS"">btlckcPK</p>","","","","","","","","",""
"html-keyboard-response","284","2945556","0.0-14.0-0.33","601705a0246e51313e8ed38e","650c16f0f2faf8d7a0d14c09","651c1bc32c70e51c979a9075","null","null","<p style=""font-size: 60px; font-family: BACS"">kNuaZvkL</p>","","","","","","","","",""
"html-keyboard-response","285","2946559","0.0-14.0-0.34","601705a0246e51313e8ed38e","650c16f0f2faf8d7a0d14c09","651c1bc32c70e51c979a9075","null","null","<p style=""font-size: 60px; font-family: BACS"">MhKdKOYC</p>","","","","","","","","",""
"html-keyboard-response","286","2947566","0.0-14.0-0.35","601705a0246e51313e8ed38e","650c16f0f2faf8d7a0d14c09","651c1bc32c70e51c979a9075","null","null","<p style=""font-size: 60px; font-family: BACS"">lbBDEcthB</p>","","","","","","","","",""
"html-keyboard-response","287","2948567","0.0-14.0-0.36","601705a0246e51313e8ed38e","650c16f0f2faf8d7a0d14c09","651c1bc32c70e51c979a9075","null","null","<p style=""font-size: 60px; font-family: BACS"">AmQOYbLd</p>","","","","","","","","",""
"html-keyboard-response","288","2949576","0.0-14.0-0.37","601705a0246e51313e8ed38e","650c16f0f2faf8d7a0d14c09","651c1bc32c70e51c979a9075","null","null","<p style=""font-size: 60px; font-family: BACS"">AdDbKOYC</p>","","","","","","","","",""
"html-keyboard-response","289","2950590","0.0-14.0-0.38","601705a0246e51313e8ed38e","650c16f0f2faf8d7a0d14c09","651c1bc32c70e51c979a9075","null","null","<p style=""font-size: 60px; font-family: BACS"">lbBDEDbMR</p>","","","","","","","","",""
"html-keyboard-response","290","2951592","0.0-14.0-0.39","601705a0246e51313e8ed38e","650c16f0f2faf8d7a0d14c09","651c1bc32c70e51c979a9075","null","null","<p style=""font-size: 60px; font-family: BACS"">YdudbLd</p>","","","","","","","","",""
"html-keyboard-response","291","2952598","0.0-14.0-0.40","601705a0246e51313e8ed38e","650c16f0f2faf8d7a0d14c09","651c1bc32c70e51c979a9075","null","null","<p style=""font-size: 60px; font-family: BACS"">TKDkcPK</p>","","","","","","","","",""
"html-keyboard-response","292","2953606","0.0-14.0-0.41","601705a0246e51313e8ed38e","650c16f0f2faf8d7a0d14c09","651c1bc32c70e51c979a9075","null","null","<p style=""font-size: 60px; font-family: BACS"">MhKdTRK</p>","","","","","","","","",""
"html-keyboard-response","293","2954610","0.0-14.0-0.42","601705a0246e51313e8ed38e","650c16f0f2faf8d7a0d14c09","651c1bc32c70e51c979a9075","null","null","<p style=""font-size: 60px; font-family: BACS"">AlNUrAm</p>","","","","","","","","",""
"html-keyboard-response","294","2955617","0.0-14.0-0.43","601705a0246e51313e8ed38e","650c16f0f2faf8d7a0d14c09","651c1bc32c70e51c979a9075","null","null","<p style=""font-size: 60px; font-family: BACS"">AmQOYrab</p>","","","","","","","","",""
"html-keyboard-response","295","2956622","0.0-14.0-0.44","601705a0246e51313e8ed38e","650c16f0f2faf8d7a0d14c09","651c1bc32c70e51c979a9075","null","null","<p style=""font-size: 60px; font-family: BACS"">JAdLmGUOA</p>","","","","","","","","",""
"html-keyboard-response","296","2957628","0.0-14.0-0.45","601705a0246e51313e8ed38e","650c16f0f2faf8d7a0d14c09","651c1bc32c70e51c979a9075","null","null","<p style=""font-size: 60px; font-family: BACS"">LGkArAm</p>","","","","","","","","",""
"html-keyboard-response","297","2958636","0.0-14.0-0.46","601705a0246e51313e8ed38e","650c16f0f2faf8d7a0d14c09","651c1bc32c70e51c979a9075","null","null","<p style=""font-size: 60px; font-family: BACS"">btlckcthB</p>","","","","","","","","",""
"html-keyboard-response","298","2959642","0.0-14.0-0.47","601705a0246e51313e8ed38e","650c16f0f2faf8d7a0d14c09","651c1bc32c70e51c979a9075","null","null","<p style=""font-size: 60px; font-family: BACS"">AmQOYrAm</p>","","","","","","","","",""
"html-keyboard-response","299","2960651","0.0-14.0-0.48","601705a0246e51313e8ed38e","650c16f0f2faf8d7a0d14c09","651c1bc32c70e51c979a9075","null","null","<p style=""font-size: 60px; font-family: BACS"">mBYlKOYC</p>","","","","","","","","",""
"html-keyboard-response","300","2961659","0.0-14.0-0.49","601705a0246e51313e8ed38e","650c16f0f2faf8d7a0d14c09","651c1bc32c70e51c979a9075","null","null","<p style=""font-size: 60px; font-family: BACS"">OcYMcthB</p>","","","","","","","","",""
"html-keyboard-response","301","2962667","0.0-14.0-0.50","601705a0246e51313e8ed38e","650c16f0f2faf8d7a0d14c09","651c1bc32c70e51c979a9075","null","null","<p style=""font-size: 60px; font-family: BACS"">tdDdDbMR</p>","","","","","","","","",""
"html-keyboard-response","302","2963674","0.0-14.0-0.51","601705a0246e51313e8ed38e","650c16f0f2faf8d7a0d14c09","651c1bc32c70e51c979a9075","null","null","<p style=""font-size: 60px; font-family: BACS"">TKDkTRK</p>","","","","","","","","",""
"html-keyboard-response","303","2964675","0.0-14.0-0.52","601705a0246e51313e8ed38e","650c16f0f2faf8d7a0d14c09","651c1bc32c70e51c979a9075","null","null","<p style=""font-size: 60px; font-family: BACS"">udkmrAm</p>","","","","","","","","",""
"html-keyboard-response","304","2965676","0.0-14.0-0.53","601705a0246e51313e8ed38e","650c16f0f2faf8d7a0d14c09","651c1bc32c70e51c979a9075","null","null","<p style=""font-size: 60px; font-family: BACS"">CkBOPcthB</p>","","","","","","","","",""
"html-keyboard-response","305","2966681","0.0-14.0-0.54","601705a0246e51313e8ed38e","650c16f0f2faf8d7a0d14c09","651c1bc32c70e51c979a9075","null","null","<p style=""font-size: 60px; font-family: BACS"">LGkAZvkL</p>","","","","","","","","",""
"html-keyboard-response","306","2967682","0.0-14.0-0.55","601705a0246e51313e8ed38e","650c16f0f2faf8d7a0d14c09","651c1bc32c70e51c979a9075","null","null","<p style=""font-size: 60px; font-family: BACS"">CkBOPTRK</p>","","","","","","","","",""
"html-keyboard-response","307","2968685","0.0-14.0-0.56","601705a0246e51313e8ed38e","650c16f0f2faf8d7a0d14c09","651c1bc32c70e51c979a9075","null","null","<p style=""font-size: 60px; font-family: BACS"">kNuarab</p>","","","","","","","","",""
"html-keyboard-response","308","2969690","0.0-14.0-0.57","601705a0246e51313e8ed38e","650c16f0f2faf8d7a0d14c09","651c1bc32c70e51c979a9075","null","null","<p style=""font-size: 60px; font-family: BACS"">rbYburAm</p>","","","","","","","","",""
"html-keyboard-response","309","2970696","0.0-14.0-0.58","601705a0246e51313e8ed38e","650c16f0f2faf8d7a0d14c09","651c1bc32c70e51c979a9075","null","null","<p style=""font-size: 60px; font-family: BACS"">CkBOPDbMR</p>","","","","","","","","",""
"html-keyboard-response","310","2971701","0.0-14.0-0.59","601705a0246e51313e8ed38e","650c16f0f2faf8d7a0d14c09","651c1bc32c70e51c979a9075","null","null","<p style=""font-size: 60px; font-family: BACS"">udkmGUOA</p>","","","","","","","","",""
"html-keyboard-response","311","2972710","0.0-14.0-0.60","601705a0246e51313e8ed38e","650c16f0f2faf8d7a0d14c09","651c1bc32c70e51c979a9075","null","null","<p style=""font-size: 60px; font-family: BACS"">rbYbubLd</p>","","","","","","","","",""
"html-keyboard-response","312","2973712","0.0-14.0-0.61","601705a0246e51313e8ed38e","650c16f0f2faf8d7a0d14c09","651c1bc32c70e51c979a9075","null","null","<p style=""font-size: 60px; font-family: BACS"">btlckTRK</p>","","","","","","","","",""
"html-keyboard-response","313","2974718","0.0-14.0-0.62","601705a0246e51313e8ed38e","650c16f0f2faf8d7a0d14c09","651c1bc32c70e51c979a9075","null","null","<p style=""font-size: 60px; font-family: BACS"">tdDdcPK</p>","","","","","","","","",""
"html-keyboard-response","314","2975724","0.0-14.0-0.63","601705a0246e51313e8ed38e","650c16f0f2faf8d7a0d14c09","651c1bc32c70e51c979a9075","null","null","<p style=""font-size: 60px; font-family: BACS"">AlNUbLd</p>","","","","","","","","",""
"html-keyboard-response","315","2976728","0.0-14.0-0.64","601705a0246e51313e8ed38e","650c16f0f2faf8d7a0d14c09","651c1bc32c70e51c979a9075","null","null","<p style=""font-size: 60px; font-family: BACS"">btlckDbMR</p>","","","","","","","","",""
"html-keyboard-response","316","2977735","0.0-14.0-0.65","601705a0246e51313e8ed38e","650c16f0f2faf8d7a0d14c09","651c1bc32c70e51c979a9075","null","null","<p style=""font-size: 60px; font-family: BACS"">JAdLmZvkL</p>","","","","","","","","",""
"html-keyboard-response","317","2978744","0.0-14.0-0.66","601705a0246e51313e8ed38e","650c16f0f2faf8d7a0d14c09","651c1bc32c70e51c979a9075","null","null","<p style=""font-size: 60px; font-family: BACS"">mBYlcPK</p>","","","","","","","","",""
"html-keyboard-response","318","2979747","0.0-14.0-0.67","601705a0246e51313e8ed38e","650c16f0f2faf8d7a0d14c09","651c1bc32c70e51c979a9075","null","null","<p style=""font-size: 60px; font-family: BACS"">kcOYTRK</p>","","","","","","","","",""
"html-keyboard-response","319","2980754","0.0-14.0-0.68","601705a0246e51313e8ed38e","650c16f0f2faf8d7a0d14c09","651c1bc32c70e51c979a9075","null","null","<p style=""font-size: 60px; font-family: BACS"">YdudGUOA</p>","","","","","","","","",""
"html-keyboard-response","320","2981759","0.0-14.0-0.69","601705a0246e51313e8ed38e","650c16f0f2faf8d7a0d14c09","651c1bc32c70e51c979a9075","null","null","<p style=""font-size: 60px; font-family: BACS"">AdDbDbMR</p>","","","","","","","","",""
"html-keyboard-response","321","2982762","0.0-14.0-0.70","601705a0246e51313e8ed38e","650c16f0f2faf8d7a0d14c09","651c1bc32c70e51c979a9075","null","null","<p style=""font-size: 60px; font-family: BACS"">tdDdKOYC</p>","","","","","","","","",""
"html-keyboard-response","322","2983770","0.0-14.0-0.71","601705a0246e51313e8ed38e","650c16f0f2faf8d7a0d14c09","651c1bc32c70e51c979a9075","null","null","<p style=""font-size: 60px; font-family: BACS"">JAdLmrAm</p>","","","","","","","","",""
"html-keyboard-response","323","2984775","0.0-14.0-0.72","601705a0246e51313e8ed38e","650c16f0f2faf8d7a0d14c09","651c1bc32c70e51c979a9075","null","null","<p style=""font-size: 60px; font-family: BACS"">rLkmbLd</p>","","","","","","","","",""
"html-keyboard-response","324","2985783","0.0-14.0-0.73","601705a0246e51313e8ed38e","650c16f0f2faf8d7a0d14c09","651c1bc32c70e51c979a9075","null","null","<p style=""font-size: 60px; font-family: BACS"">LGkArab</p>","","","","","","","","",""
"html-keyboard-response","325","2986785","0.0-14.0-0.74","601705a0246e51313e8ed38e","650c16f0f2faf8d7a0d14c09","651c1bc32c70e51c979a9075","null","null","<p style=""font-size: 60px; font-family: BACS"">lbBDEcPK</p>","","","","","","","","",""
"html-keyboard-response","326","2987794","0.0-14.0-0.75","601705a0246e51313e8ed38e","650c16f0f2faf8d7a0d14c09","651c1bc32c70e51c979a9075","null","null","<p style=""font-size: 60px; font-family: BACS"">AZaJcbLd</p>","","","","","","","","",""
"html-keyboard-response","327","2988797","0.0-14.0-0.76","601705a0246e51313e8ed38e","650c16f0f2faf8d7a0d14c09","651c1bc32c70e51c979a9075","null","null","<p style=""font-size: 60px; font-family: BACS"">udkmrab</p>","","","","","","","","",""
"html-keyboard-response","328","2989799","0.0-14.0-0.77","601705a0246e51313e8ed38e","650c16f0f2faf8d7a0d14c09","651c1bc32c70e51c979a9075","null","null","<p style=""font-size: 60px; font-family: BACS"">OcYMKOYC</p>","","","","","","","","",""
"html-keyboard-response","329","2990805","0.0-14.0-0.78","601705a0246e51313e8ed38e","650c16f0f2faf8d7a0d14c09","651c1bc32c70e51c979a9075","null","null","<p style=""font-size: 60px; font-family: BACS"">TKDkDbMR</p>","","","","","","","","",""
"html-keyboard-response","330","2991810","0.0-14.0-0.79","601705a0246e51313e8ed38e","650c16f0f2faf8d7a0d14c09","651c1bc32c70e51c979a9075","null","null","<p style=""font-size: 60px; font-family: BACS"">kcOYKOYC</p>","","","","","","","","",""
"html-keyboard-response","331","2994939","0.0-15.0","601705a0246e51313e8ed38e","650c16f0f2faf8d7a0d14c09","651c1bc32c70e51c979a9075","3129"," ","<p>Great, you've seen the fourth block of words. You may now take a short break.</p>
      <p>Press the spacebar when you're ready to continue.</p>","","","","","","","","",""
"html-keyboard-response","332","2995941","0.0-16.0-0.0","601705a0246e51313e8ed38e","650c16f0f2faf8d7a0d14c09","651c1bc32c70e51c979a9075","null","null","<p style=""font-size: 60px; font-family: BACS"">kNuarab</p>","","","","","","","","",""
"html-keyboard-response","333","2996948","0.0-16.0-0.1","601705a0246e51313e8ed38e","650c16f0f2faf8d7a0d14c09","651c1bc32c70e51c979a9075","null","null","<p style=""font-size: 60px; font-family: BACS"">kNuarab</p>","","","","","","","","",""
"html-keyboard-response","334","2997955","0.0-16.0-0.2","601705a0246e51313e8ed38e","650c16f0f2faf8d7a0d14c09","651c1bc32c70e51c979a9075","null","null","<p style=""font-size: 60px; font-family: BACS"">kNuarab</p>","","","","","","","","",""
"html-keyboard-response","335","2998962","0.0-16.0-0.3","601705a0246e51313e8ed38e","650c16f0f2faf8d7a0d14c09","651c1bc32c70e51c979a9075","null","null","<p style=""font-size: 60px; font-family: BACS"">kNuarab</p>","","","","","","","","",""
"html-keyboard-response","336","2999968","0.0-16.0-0.4","601705a0246e51313e8ed38e","650c16f0f2faf8d7a0d14c09","651c1bc32c70e51c979a9075","null","null","<p style=""font-size: 60px; font-family: BACS"">kNuarab</p>","","","","","","","","",""
"html-keyboard-response","337","3000975","0.0-16.0-0.5","601705a0246e51313e8ed38e","650c16f0f2faf8d7a0d14c09","651c1bc32c70e51c979a9075","null","null","<p style=""font-size: 60px; font-family: BACS"">kNuarab</p>","","","","","","","","",""
"html-keyboard-response","338","3001984","0.0-16.0-0.6","601705a0246e51313e8ed38e","650c16f0f2faf8d7a0d14c09","651c1bc32c70e51c979a9075","null","null","<p style=""font-size: 60px; font-family: BACS"">kNuarab</p>","","","","","","","","",""
"html-keyboard-response","339","3002988","0.0-16.0-0.7","601705a0246e51313e8ed38e","650c16f0f2faf8d7a0d14c09","651c1bc32c70e51c979a9075","null","null","<p style=""font-size: 60px; font-family: BACS"">kNuarab</p>","","","","","","","","",""
"html-keyboard-response","340","3003992","0.0-16.0-0.8","601705a0246e51313e8ed38e","650c16f0f2faf8d7a0d14c09","651c1bc32c70e51c979a9075","null","null","<p style=""font-size: 60px; font-family: BACS"">kNuarab</p>","","","","","","","","",""
"html-keyboard-response","341","3004995","0.0-16.0-0.9","601705a0246e51313e8ed38e","650c16f0f2faf8d7a0d14c09","651c1bc32c70e51c979a9075","null","null","<p style=""font-size: 60px; font-family: BACS"">kNuarab</p>","","","","","","","","",""
"html-keyboard-response","342","3005999","0.0-16.0-0.10","601705a0246e51313e8ed38e","650c16f0f2faf8d7a0d14c09","651c1bc32c70e51c979a9075","null","null","<p style=""font-size: 60px; font-family: BACS"">kNuarab</p>","","","","","","","","",""
"html-keyboard-response","343","3007001","0.0-16.0-0.11","601705a0246e51313e8ed38e","650c16f0f2faf8d7a0d14c09","651c1bc32c70e51c979a9075","null","null","<p style=""font-size: 60px; font-family: BACS"">kNuarab</p>","","","","","","","","",""
"html-keyboard-response","344","3008009","0.0-16.0-0.12","601705a0246e51313e8ed38e","650c16f0f2faf8d7a0d14c09","651c1bc32c70e51c979a9075","null","null","<p style=""font-size: 60px; font-family: BACS"">kNuarab</p>","","","","","","","","",""
"html-keyboard-response","345","3009014","0.0-16.0-0.13","601705a0246e51313e8ed38e","650c16f0f2faf8d7a0d14c09","651c1bc32c70e51c979a9075","null","null","<p style=""font-size: 60px; font-family: BACS"">kNuarab</p>","","","","","","","","",""
"html-keyboard-response","346","3010017","0.0-16.0-0.14","601705a0246e51313e8ed38e","650c16f0f2faf8d7a0d14c09","651c1bc32c70e51c979a9075","null","null","<p style=""font-size: 60px; font-family: BACS"">kNuarab</p>","","","","","","","","",""
"html-keyboard-response","347","3011019","0.0-16.0-0.15","601705a0246e51313e8ed38e","650c16f0f2faf8d7a0d14c09","651c1bc32c70e51c979a9075","null","null","<p style=""font-size: 60px; font-family: BACS"">kNuarab</p>","","","","","","","","",""
"html-keyboard-response","348","3012021","0.0-16.0-0.16","601705a0246e51313e8ed38e","650c16f0f2faf8d7a0d14c09","651c1bc32c70e51c979a9075","null","null","<p style=""font-size: 60px; font-family: BACS"">kNuarab</p>","","","","","","","","",""
"html-keyboard-response","349","3013025","0.0-16.0-0.17","601705a0246e51313e8ed38e","650c16f0f2faf8d7a0d14c09","651c1bc32c70e51c979a9075","null","null","<p style=""font-size: 60px; font-family: BACS"">kNuarab</p>","","","","","","","","",""
"html-keyboard-response","350","3014026","0.0-16.0-0.18","601705a0246e51313e8ed38e","650c16f0f2faf8d7a0d14c09","651c1bc32c70e51c979a9075","null","null","<p style=""font-size: 60px; font-family: BACS"">kNuarab</p>","","","","","","","","",""
"html-keyboard-response","351","3015029","0.0-16.0-0.19","601705a0246e51313e8ed38e","650c16f0f2faf8d7a0d14c09","651c1bc32c70e51c979a9075","null","null","<p style=""font-size: 60px; font-family: BACS"">kNuarab</p>","","","","","","","","",""
"html-keyboard-response","352","3016031","0.0-16.0-0.20","601705a0246e51313e8ed38e","650c16f0f2faf8d7a0d14c09","651c1bc32c70e51c979a9075","null","null","<p style=""font-size: 60px; font-family: BACS"">kNuarab</p>","","","","","","","","",""
"html-keyboard-response","353","3017042","0.0-16.0-0.21","601705a0246e51313e8ed38e","650c16f0f2faf8d7a0d14c09","651c1bc32c70e51c979a9075","null","null","<p style=""font-size: 60px; font-family: BACS"">kNuarab</p>","","","","","","","","",""
"html-keyboard-response","354","3018051","0.0-16.0-0.22","601705a0246e51313e8ed38e","650c16f0f2faf8d7a0d14c09","651c1bc32c70e51c979a9075","null","null","<p style=""font-size: 60px; font-family: BACS"">kNuarab</p>","","","","","","","","",""
"html-keyboard-response","355","3019059","0.0-16.0-0.23","601705a0246e51313e8ed38e","650c16f0f2faf8d7a0d14c09","651c1bc32c70e51c979a9075","null","null","<p style=""font-size: 60px; font-family: BACS"">kNuarab</p>","","","","","","","","",""
"html-keyboard-response","356","3020060","0.0-16.0-0.24","601705a0246e51313e8ed38e","650c16f0f2faf8d7a0d14c09","651c1bc32c70e51c979a9075","null","null","<p style=""font-size: 60px; font-family: BACS"">kNuarab</p>","","","","","","","","",""
"html-keyboard-response","357","3021065","0.0-16.0-0.25","601705a0246e51313e8ed38e","650c16f0f2faf8d7a0d14c09","651c1bc32c70e51c979a9075","null","null","<p style=""font-size: 60px; font-family: BACS"">kNuarab</p>","","","","","","","","",""
"html-keyboard-response","358","3022068","0.0-16.0-0.26","601705a0246e51313e8ed38e","650c16f0f2faf8d7a0d14c09","651c1bc32c70e51c979a9075","null","null","<p style=""font-size: 60px; font-family: BACS"">kNuarab</p>","","","","","","","","",""
"html-keyboard-response","359","3023072","0.0-16.0-0.27","601705a0246e51313e8ed38e","650c16f0f2faf8d7a0d14c09","651c1bc32c70e51c979a9075","null","null","<p style=""font-size: 60px; font-family: BACS"">kNuarab</p>","","","","","","","","",""
"html-keyboard-response","360","3024076","0.0-16.0-0.28","601705a0246e51313e8ed38e","650c16f0f2faf8d7a0d14c09","651c1bc32c70e51c979a9075","null","null","<p style=""font-size: 60px; font-family: BACS"">kNuarab</p>","","","","","","","","",""
"html-keyboard-response","361","3025080","0.0-16.0-0.29","601705a0246e51313e8ed38e","650c16f0f2faf8d7a0d14c09","651c1bc32c70e51c979a9075","null","null","<p style=""font-size: 60px; font-family: BACS"">kNuarab</p>","","","","","","","","",""
"html-keyboard-response","362","3026081","0.0-16.0-0.30","601705a0246e51313e8ed38e","650c16f0f2faf8d7a0d14c09","651c1bc32c70e51c979a9075","null","null","<p style=""font-size: 60px; font-family: BACS"">kNuarab</p>","","","","","","","","",""
"html-keyboard-response","363","3027083","0.0-16.0-0.31","601705a0246e51313e8ed38e","650c16f0f2faf8d7a0d14c09","651c1bc32c70e51c979a9075","null","null","<p style=""font-size: 60px; font-family: BACS"">kNuarab</p>","","","","","","","","",""
"html-keyboard-response","364","3028086","0.0-16.0-0.32","601705a0246e51313e8ed38e","650c16f0f2faf8d7a0d14c09","651c1bc32c70e51c979a9075","null","null","<p style=""font-size: 60px; font-family: BACS"">kNuarab</p>","","","","","","","","",""
"html-keyboard-response","365","3029095","0.0-16.0-0.33","601705a0246e51313e8ed38e","650c16f0f2faf8d7a0d14c09","651c1bc32c70e51c979a9075","null","null","<p style=""font-size: 60px; font-family: BACS"">kNuarab</p>","","","","","","","","",""
"html-keyboard-response","366","3030101","0.0-16.0-0.34","601705a0246e51313e8ed38e","650c16f0f2faf8d7a0d14c09","651c1bc32c70e51c979a9075","null","null","<p style=""font-size: 60px; font-family: BACS"">kNuarab</p>","","","","","","","","",""
"html-keyboard-response","367","3031107","0.0-16.0-0.35","601705a0246e51313e8ed38e","650c16f0f2faf8d7a0d14c09","651c1bc32c70e51c979a9075","null","null","<p style=""font-size: 60px; font-family: BACS"">kNuarab</p>","","","","","","","","",""
"html-keyboard-response","368","3032108","0.0-16.0-0.36","601705a0246e51313e8ed38e","650c16f0f2faf8d7a0d14c09","651c1bc32c70e51c979a9075","null","null","<p style=""font-size: 60px; font-family: BACS"">kNuarab</p>","","","","","","","","",""
"html-keyboard-response","369","3033110","0.0-16.0-0.37","601705a0246e51313e8ed38e","650c16f0f2faf8d7a0d14c09","651c1bc32c70e51c979a9075","null","null","<p style=""font-size: 60px; font-family: BACS"">kNuarab</p>","","","","","","","","",""
"html-keyboard-response","370","3034111","0.0-16.0-0.38","601705a0246e51313e8ed38e","650c16f0f2faf8d7a0d14c09","651c1bc32c70e51c979a9075","null","null","<p style=""font-size: 60px; font-family: BACS"">kNuarab</p>","","","","","","","","",""
"html-keyboard-response","371","3035127","0.0-16.0-0.39","601705a0246e51313e8ed38e","650c16f0f2faf8d7a0d14c09","651c1bc32c70e51c979a9075","null","null","<p style=""font-size: 60px; font-family: BACS"">kNuarab</p>","","","","","","","","",""
"html-keyboard-response","372","3036131","0.0-16.0-0.40","601705a0246e51313e8ed38e","650c16f0f2faf8d7a0d14c09","651c1bc32c70e51c979a9075","null","null","<p style=""font-size: 60px; font-family: BACS"">kNuarab</p>","","","","","","","","",""
"html-keyboard-response","373","3037133","0.0-16.0-0.41","601705a0246e51313e8ed38e","650c16f0f2faf8d7a0d14c09","651c1bc32c70e51c979a9075","null","null","<p style=""font-size: 60px; font-family: BACS"">kNuarab</p>","","","","","","","","",""
"html-keyboard-response","374","3038140","0.0-16.0-0.42","601705a0246e51313e8ed38e","650c16f0f2faf8d7a0d14c09","651c1bc32c70e51c979a9075","null","null","<p style=""font-size: 60px; font-family: BACS"">kNuarab</p>","","","","","","","","",""
"html-keyboard-response","375","3039148","0.0-16.0-0.43","601705a0246e51313e8ed38e","650c16f0f2faf8d7a0d14c09","651c1bc32c70e51c979a9075","null","null","<p style=""font-size: 60px; font-family: BACS"">kNuarab</p>","","","","","","","","",""
"html-keyboard-response","376","3040156","0.0-16.0-0.44","601705a0246e51313e8ed38e","650c16f0f2faf8d7a0d14c09","651c1bc32c70e51c979a9075","null","null","<p style=""font-size: 60px; font-family: BACS"">kNuarab</p>","","","","","","","","",""
"html-keyboard-response","377","3041164","0.0-16.0-0.45","601705a0246e51313e8ed38e","650c16f0f2faf8d7a0d14c09","651c1bc32c70e51c979a9075","null","null","<p style=""font-size: 60px; font-family: BACS"">kNuarab</p>","","","","","","","","",""
"html-keyboard-response","378","3042168","0.0-16.0-0.46","601705a0246e51313e8ed38e","650c16f0f2faf8d7a0d14c09","651c1bc32c70e51c979a9075","null","null","<p style=""font-size: 60px; font-family: BACS"">kNuarab</p>","","","","","","","","",""
"html-keyboard-response","379","3043173","0.0-16.0-0.47","601705a0246e51313e8ed38e","650c16f0f2faf8d7a0d14c09","651c1bc32c70e51c979a9075","null","null","<p style=""font-size: 60px; font-family: BACS"">kNuarab</p>","","","","","","","","",""
"html-keyboard-response","380","3044176","0.0-16.0-0.48","601705a0246e51313e8ed38e","650c16f0f2faf8d7a0d14c09","651c1bc32c70e51c979a9075","null","null","<p style=""font-size: 60px; font-family: BACS"">kNuarab</p>","","","","","","","","",""
"html-keyboard-response","381","3045178","0.0-16.0-0.49","601705a0246e51313e8ed38e","650c16f0f2faf8d7a0d14c09","651c1bc32c70e51c979a9075","null","null","<p style=""font-size: 60px; font-family: BACS"">kNuarab</p>","","","","","","","","",""
"html-keyboard-response","382","3046179","0.0-16.0-0.50","601705a0246e51313e8ed38e","650c16f0f2faf8d7a0d14c09","651c1bc32c70e51c979a9075","null","null","<p style=""font-size: 60px; font-family: BACS"">kNuarab</p>","","","","","","","","",""
"html-keyboard-response","383","3047184","0.0-16.0-0.51","601705a0246e51313e8ed38e","650c16f0f2faf8d7a0d14c09","651c1bc32c70e51c979a9075","null","null","<p style=""font-size: 60px; font-family: BACS"">kNuarab</p>","","","","","","","","",""
"html-keyboard-response","384","3048191","0.0-16.0-0.52","601705a0246e51313e8ed38e","650c16f0f2faf8d7a0d14c09","651c1bc32c70e51c979a9075","null","null","<p style=""font-size: 60px; font-family: BACS"">kNuarab</p>","","","","","","","","",""
"html-keyboard-response","385","3049197","0.0-16.0-0.53","601705a0246e51313e8ed38e","650c16f0f2faf8d7a0d14c09","651c1bc32c70e51c979a9075","null","null","<p style=""font-size: 60px; font-family: BACS"">kNuarab</p>","","","","","","","","",""
"html-keyboard-response","386","3050205","0.0-16.0-0.54","601705a0246e51313e8ed38e","650c16f0f2faf8d7a0d14c09","651c1bc32c70e51c979a9075","null","null","<p style=""font-size: 60px; font-family: BACS"">kNuarab</p>","","","","","","","","",""
"html-keyboard-response","387","3051209","0.0-16.0-0.55","601705a0246e51313e8ed38e","650c16f0f2faf8d7a0d14c09","651c1bc32c70e51c979a9075","null","null","<p style=""font-size: 60px; font-family: BACS"">kNuarab</p>","","","","","","","","",""
"html-keyboard-response","388","3052217","0.0-16.0-0.56","601705a0246e51313e8ed38e","650c16f0f2faf8d7a0d14c09","651c1bc32c70e51c979a9075","null","null","<p style=""font-size: 60px; font-family: BACS"">kNuarab</p>","","","","","","","","",""
"html-keyboard-response","389","3053219","0.0-16.0-0.57","601705a0246e51313e8ed38e","650c16f0f2faf8d7a0d14c09","651c1bc32c70e51c979a9075","null","null","<p style=""font-size: 60px; font-family: BACS"">kNuarab</p>","","","","","","","","",""
"html-keyboard-response","390","3054224","0.0-16.0-0.58","601705a0246e51313e8ed38e","650c16f0f2faf8d7a0d14c09","651c1bc32c70e51c979a9075","null","null","<p style=""font-size: 60px; font-family: BACS"">kNuarab</p>","","","","","","","","",""
"html-keyboard-response","391","3055227","0.0-16.0-0.59","601705a0246e51313e8ed38e","650c16f0f2faf8d7a0d14c09","651c1bc32c70e51c979a9075","null","null","<p style=""font-size: 60px; font-family: BACS"">kNuarab</p>","","","","","","","","",""
"html-keyboard-response","392","3056236","0.0-16.0-0.60","601705a0246e51313e8ed38e","650c16f0f2faf8d7a0d14c09","651c1bc32c70e51c979a9075","null","null","<p style=""font-size: 60px; font-family: BACS"">kNuarab</p>","","","","","","","","",""
"html-keyboard-response","393","3057239","0.0-16.0-0.61","601705a0246e51313e8ed38e","650c16f0f2faf8d7a0d14c09","651c1bc32c70e51c979a9075","null","null","<p style=""font-size: 60px; font-family: BACS"">kNuarab</p>","","","","","","","","",""
"html-keyboard-response","394","3058241","0.0-16.0-0.62","601705a0246e51313e8ed38e","650c16f0f2faf8d7a0d14c09","651c1bc32c70e51c979a9075","null","null","<p style=""font-size: 60px; font-family: BACS"">kNuarab</p>","","","","","","","","",""
"html-keyboard-response","395","3059249","0.0-16.0-0.63","601705a0246e51313e8ed38e","650c16f0f2faf8d7a0d14c09","651c1bc32c70e51c979a9075","null","null","<p style=""font-size: 60px; font-family: BACS"">kNuarab</p>","","","","","","","","",""
"html-keyboard-response","396","3060251","0.0-16.0-0.64","601705a0246e51313e8ed38e","650c16f0f2faf8d7a0d14c09","651c1bc32c70e51c979a9075","null","null","<p style=""font-size: 60px; font-family: BACS"">kNuarab</p>","","","","","","","","",""
"html-keyboard-response","397","3061252","0.0-16.0-0.65","601705a0246e51313e8ed38e","650c16f0f2faf8d7a0d14c09","651c1bc32c70e51c979a9075","null","null","<p style=""font-size: 60px; font-family: BACS"">kNuarab</p>","","","","","","","","",""
"html-keyboard-response","398","3062260","0.0-16.0-0.66","601705a0246e51313e8ed38e","650c16f0f2faf8d7a0d14c09","651c1bc32c70e51c979a9075","null","null","<p style=""font-size: 60px; font-family: BACS"">kNuarab</p>","","","","","","","","",""
