"trial_type","trial_index","time_elapsed","internal_node_id","subject_id","study_id","session_id","rt","response","stimulus","success","item","task","correct_response","testing_condition","correct","target","confound","name"
"pavlovia","0","659","0.0-0.0","610a52647a452dee7ca89360","650c16f0f2faf8d7a0d14c09","651c1e366464efa3e7a1f61e","","","","","","","","","","","",""
"survey-html-form","1","10484","0.0-1.0","610a52647a452dee7ca89360","650c16f0f2faf8d7a0d14c09","651c1e366464efa3e7a1f61e","9823","{""ID"":""610a52647a452dee7ca89360""}","","","","","","","","","",""
"html-keyboard-response","2","45303","0.0-2.0","610a52647a452dee7ca89360","650c16f0f2faf8d7a0d14c09","651c1e366464efa3e7a1f61e","34817"," ","<p style=""font-size: 15px;"">Before beginning, we ask that you read the consent information and confirm your agreement to participate in the experiment.</p>
      <p style=""font-size: 15px;""> We ask that you remember that this is a research project and that your participation is entirely voluntary. You can stop your participation at any time, without needing to provide any explanation. The study we're asking you to participate in aims at examining how readers process written words. You will be engaged in a session of apprximately 20 minutes, followed by a brief questionnaire. You will have the opportunity to take a few breaks during the experiment. You will be paid £4 for your participation, corresponding to a rate of £8/hour. While this experiment looks at cognitive faculties, this experiment doesn't constitute clinical proof of eventual pathologies.</p>
      <p style=""font-size: 15px;"">All of the information collected thanks to yours and others' participation will be held in a secure password-protected server, and will not be shared with anyone not authorised to view it. Your personal information will be kept with an arbitrary participant ID. Thanks to this data anonymity process, any researcher analysing the data won't be able to track the information back to a specific participant. Therefore, this process will make identifying you impossibile, even when results from the study will be published in scientific reviews, presented at congresses, or at any other public forum. More generally, the collected data will be treated in accordance with the laws on privacy and conformity to the Legislative Degree n. 196 ""Code regarding the protection of personal data"" of the 30th of June 2003 and to the European Regulation 2016/670 (General Data Protection Regulation - GDPR). The Data Protection Officer is Avv. Valentina Carollo, who can be contacted at the following email addresses: <a href=""mailto:dpo@sissa.it"">dpo@sissa.it</a> or <a href=""mailto:rpd@sissa.it"">rpd@sissa.it</a> - PEC: <a href=""mailto:protocollo@pec.sissa.it"">protocollo@pec.sissa.it</a>.</p>
      <p style=""font-size: 15px;""> Before expressing your consent to participate, we would like to remind you again that in case you need explanations on any aspect of the experimental procedure, the researcher is at your disposition (<a href=""mailto:aliebelt@sissa.it"">aliebelt@sissa.it</a>, <a href=""mailto:davide.crepaldi@sissa.it"">davide.crepaldi@sissa.it</a>).</p>
      <p style=""font-size: 15px;"">If you would like to download the informed consent form, you can do so here: <a href=""BASL-Informed_Consent.pdf"" download>informed consent form</a>.</p>
      <p style=""font-size: 15px;"">We ask that you press the spacebar to proceed to the consent section.</p>","","","","","","","","",""
"survey-html-form","3","64909","0.0-3.0","610a52647a452dee7ca89360","650c16f0f2faf8d7a0d14c09","651c1e366464efa3e7a1f61e","19604","{""consent1"":""YES"",""consent2"":""YES"",""consent3"":""YES"",""consent4"":""YES"",""consent5"":""YES"",""consent6"":""YES""}","","","","","","","","","",""
"fullscreen","4","71857","0.0-4.0","610a52647a452dee7ca89360","650c16f0f2faf8d7a0d14c09","651c1e366464efa3e7a1f61e","","","","true","","","","","","","",""
"html-keyboard-response","5","88271","0.0-5.0","610a52647a452dee7ca89360","650c16f0f2faf8d7a0d14c09","651c1e366464efa3e7a1f61e","16412"," ","<p>Welcome, and thank you very much for your time!</p>
      <p>In this experiment, you'll be a language expert who's been asked to take a look at words that Earth has received in its first communication with aliens. Your task, in this first part of the experiment, is to pay close attention to the words you'll be shown; later, world leaders will ask you questions on what you saw. The words will be shown to you quite quickly; it seems that the aliens were in a hurry :-)</p>
      <p>Press the spacebar to continue.<p>","","","","","","","","",""
"html-keyboard-response","6","88322","0.0-6.0","610a52647a452dee7ca89360","650c16f0f2faf8d7a0d14c09","651c1e366464efa3e7a1f61e","null","null","<p style=""font-size: 120px; font-family: BACS""> </p>","","","","","","","","",""
"html-keyboard-response","7","104246","0.0-7.0","610a52647a452dee7ca89360","650c16f0f2faf8d7a0d14c09","651c1e366464efa3e7a1f61e","15923"," ","<p>Here is an example of the words you'll see:</p>
      <img src='esempio.png' height='400px'>
      <p>When you're ready to begin, press the spacebar.</p></div>","","","","","","","","",""
"html-keyboard-response","8","105258","0.0-8.0-0.0","610a52647a452dee7ca89360","650c16f0f2faf8d7a0d14c09","651c1e366464efa3e7a1f61e","null","null","<p style=""font-size: 60px; font-family: BACS"">hlctEcPK</p>","","","","","","","","",""
"html-keyboard-response","9","106270","0.0-8.0-0.1","610a52647a452dee7ca89360","650c16f0f2faf8d7a0d14c09","651c1e366464efa3e7a1f61e","null","null","<p style=""font-size: 60px; font-family: BACS"">lYruaYbN</p>","","","","","","","","",""
"html-keyboard-response","10","107285","0.0-8.0-0.2","610a52647a452dee7ca89360","650c16f0f2faf8d7a0d14c09","651c1e366464efa3e7a1f61e","null","null","<p style=""font-size: 60px; font-family: BACS"">BOCRMmAM</p>","","","","","","","","",""
"html-keyboard-response","11","108297","0.0-8.0-0.3","610a52647a452dee7ca89360","650c16f0f2faf8d7a0d14c09","651c1e366464efa3e7a1f61e","null","null","<p style=""font-size: 60px; font-family: BACS"">DOchlAkd</p>","","","","","","","","",""
"html-keyboard-response","12","109307","0.0-8.0-0.4","610a52647a452dee7ca89360","650c16f0f2faf8d7a0d14c09","651c1e366464efa3e7a1f61e","null","null","<p style=""font-size: 60px; font-family: BACS"">ukYZYbN</p>","","","","","","","","",""
"html-keyboard-response","13","110319","0.0-8.0-0.5","610a52647a452dee7ca89360","650c16f0f2faf8d7a0d14c09","651c1e366464efa3e7a1f61e","null","null","<p style=""font-size: 60px; font-family: BACS"">vmuLlYZUZ</p>","","","","","","","","",""
"html-keyboard-response","14","111334","0.0-8.0-0.6","610a52647a452dee7ca89360","650c16f0f2faf8d7a0d14c09","651c1e366464efa3e7a1f61e","null","null","<p style=""font-size: 60px; font-family: BACS"">YZJmJcL</p>","","","","","","","","",""
"html-keyboard-response","15","112335","0.0-8.0-0.7","610a52647a452dee7ca89360","650c16f0f2faf8d7a0d14c09","651c1e366464efa3e7a1f61e","null","null","<p style=""font-size: 60px; font-family: BACS"">OQarQYZUZ</p>","","","","","","","","",""
"html-keyboard-response","16","113345","0.0-8.0-0.8","610a52647a452dee7ca89360","650c16f0f2faf8d7a0d14c09","651c1e366464efa3e7a1f61e","null","null","<p style=""font-size: 60px; font-family: BACS"">EhbtDmh</p>","","","","","","","","",""
"html-keyboard-response","17","114358","0.0-8.0-0.9","610a52647a452dee7ca89360","650c16f0f2faf8d7a0d14c09","651c1e366464efa3e7a1f61e","null","null","<p style=""font-size: 60px; font-family: BACS"">DOchlTRkY</p>","","","","","","","","",""
"html-keyboard-response","18","115370","0.0-8.0-0.10","610a52647a452dee7ca89360","650c16f0f2faf8d7a0d14c09","651c1e366464efa3e7a1f61e","null","null","<p style=""font-size: 60px; font-family: BACS"">BKDRYmAM</p>","","","","","","","","",""
"html-keyboard-response","19","116382","0.0-8.0-0.11","610a52647a452dee7ca89360","650c16f0f2faf8d7a0d14c09","651c1e366464efa3e7a1f61e","null","null","<p style=""font-size: 60px; font-family: BACS"">dmZvmcYUv</p>","","","","","","","","",""
"html-keyboard-response","20","117385","0.0-8.0-0.12","610a52647a452dee7ca89360","650c16f0f2faf8d7a0d14c09","651c1e366464efa3e7a1f61e","null","null","<p style=""font-size: 60px; font-family: BACS"">OtlRcPK</p>","","","","","","","","",""
"html-keyboard-response","21","118399","0.0-8.0-0.13","610a52647a452dee7ca89360","650c16f0f2faf8d7a0d14c09","651c1e366464efa3e7a1f61e","null","null","<p style=""font-size: 60px; font-family: BACS"">hlbtbDmh</p>","","","","","","","","",""
"html-keyboard-response","22","119409","0.0-8.0-0.14","610a52647a452dee7ca89360","650c16f0f2faf8d7a0d14c09","651c1e366464efa3e7a1f61e","null","null","<p style=""font-size: 60px; font-family: BACS"">aLNlkYZUZ</p>","","","","","","","","",""
"html-keyboard-response","23","120420","0.0-8.0-0.15","610a52647a452dee7ca89360","650c16f0f2faf8d7a0d14c09","651c1e366464efa3e7a1f61e","null","null","<p style=""font-size: 60px; font-family: BACS"">lYruaJcL</p>","","","","","","","","",""
"html-keyboard-response","24","121436","0.0-8.0-0.16","610a52647a452dee7ca89360","650c16f0f2faf8d7a0d14c09","651c1e366464efa3e7a1f61e","null","null","<p style=""font-size: 60px; font-family: BACS"">YZJmcYUv</p>","","","","","","","","",""
"html-keyboard-response","25","122448","0.0-8.0-0.17","610a52647a452dee7ca89360","650c16f0f2faf8d7a0d14c09","651c1e366464efa3e7a1f61e","null","null","<p style=""font-size: 60px; font-family: BACS"">EhbtAkd</p>","","","","","","","","",""
"html-keyboard-response","26","123464","0.0-8.0-0.18","610a52647a452dee7ca89360","650c16f0f2faf8d7a0d14c09","651c1e366464efa3e7a1f61e","null","null","<p style=""font-size: 60px; font-family: BACS"">udkmYZUZ</p>","","","","","","","","",""
"html-keyboard-response","27","124475","0.0-8.0-0.19","610a52647a452dee7ca89360","650c16f0f2faf8d7a0d14c09","651c1e366464efa3e7a1f61e","null","null","<p style=""font-size: 60px; font-family: BACS"">aUZAcYUv</p>","","","","","","","","",""
"html-keyboard-response","28","125486","0.0-8.0-0.20","610a52647a452dee7ca89360","650c16f0f2faf8d7a0d14c09","651c1e366464efa3e7a1f61e","null","null","<p style=""font-size: 60px; font-family: BACS"">dmZvmYbN</p>","","","","","","","","",""
"html-keyboard-response","29","126502","0.0-8.0-0.21","610a52647a452dee7ca89360","650c16f0f2faf8d7a0d14c09","651c1e366464efa3e7a1f61e","null","null","<p style=""font-size: 60px; font-family: BACS"">bRABtcPK</p>","","","","","","","","",""
"html-keyboard-response","30","127514","0.0-8.0-0.22","610a52647a452dee7ca89360","650c16f0f2faf8d7a0d14c09","651c1e366464efa3e7a1f61e","null","null","<p style=""font-size: 60px; font-family: BACS"">aUZAYZUZ</p>","","","","","","","","",""
"html-keyboard-response","31","128523","0.0-8.0-0.23","610a52647a452dee7ca89360","650c16f0f2faf8d7a0d14c09","651c1e366464efa3e7a1f61e","null","null","<p style=""font-size: 60px; font-family: BACS"">udkmYbN</p>","","","","","","","","",""
"html-keyboard-response","32","129525","0.0-8.0-0.24","610a52647a452dee7ca89360","650c16f0f2faf8d7a0d14c09","651c1e366464efa3e7a1f61e","null","null","<p style=""font-size: 60px; font-family: BACS"">EhbtmAM</p>","","","","","","","","",""
"html-keyboard-response","33","130526","0.0-8.0-0.25","610a52647a452dee7ca89360","650c16f0f2faf8d7a0d14c09","651c1e366464efa3e7a1f61e","null","null","<p style=""font-size: 60px; font-family: BACS"">JdGmrGl</p>","","","","","","","","",""
"html-keyboard-response","34","131531","0.0-8.0-0.26","610a52647a452dee7ca89360","650c16f0f2faf8d7a0d14c09","651c1e366464efa3e7a1f61e","null","null","<p style=""font-size: 60px; font-family: BACS"">OtlRTRkY</p>","","","","","","","","",""
"html-keyboard-response","35","132546","0.0-8.0-0.27","610a52647a452dee7ca89360","650c16f0f2faf8d7a0d14c09","651c1e366464efa3e7a1f61e","null","null","<p style=""font-size: 60px; font-family: BACS"">JdGmYbN</p>","","","","","","","","",""
"html-keyboard-response","36","133561","0.0-8.0-0.28","610a52647a452dee7ca89360","650c16f0f2faf8d7a0d14c09","651c1e366464efa3e7a1f61e","null","null","<p style=""font-size: 60px; font-family: BACS"">lYruacYUv</p>","","","","","","","","",""
"html-keyboard-response","37","134575","0.0-8.0-0.29","610a52647a452dee7ca89360","650c16f0f2faf8d7a0d14c09","651c1e366464efa3e7a1f61e","null","null","<p style=""font-size: 60px; font-family: BACS"">hlctEDmh</p>","","","","","","","","",""
"html-keyboard-response","38","135583","0.0-8.0-0.30","610a52647a452dee7ca89360","650c16f0f2faf8d7a0d14c09","651c1e366464efa3e7a1f61e","null","null","<p style=""font-size: 60px; font-family: BACS"">vmuLlcYUv</p>","","","","","","","","",""
"html-keyboard-response","39","136584","0.0-8.0-0.31","610a52647a452dee7ca89360","650c16f0f2faf8d7a0d14c09","651c1e366464efa3e7a1f61e","null","null","<p style=""font-size: 60px; font-family: BACS"">BKDRYAkd</p>","","","","","","","","",""
"html-keyboard-response","40","137595","0.0-8.0-0.32","610a52647a452dee7ca89360","650c16f0f2faf8d7a0d14c09","651c1e366464efa3e7a1f61e","null","null","<p style=""font-size: 60px; font-family: BACS"">aLNlkcYUv</p>","","","","","","","","",""
"html-keyboard-response","41","138611","0.0-8.0-0.33","610a52647a452dee7ca89360","650c16f0f2faf8d7a0d14c09","651c1e366464efa3e7a1f61e","null","null","<p style=""font-size: 60px; font-family: BACS"">vmuLlYbN</p>","","","","","","","","",""
"html-keyboard-response","42","139618","0.0-8.0-0.34","610a52647a452dee7ca89360","650c16f0f2faf8d7a0d14c09","651c1e366464efa3e7a1f61e","null","null","<p style=""font-size: 60px; font-family: BACS"">OcYMAkd</p>","","","","","","","","",""
"html-keyboard-response","43","140620","0.0-8.0-0.35","610a52647a452dee7ca89360","650c16f0f2faf8d7a0d14c09","651c1e366464efa3e7a1f61e","null","null","<p style=""font-size: 60px; font-family: BACS"">ukYZrGl</p>","","","","","","","","",""
"html-keyboard-response","44","141631","0.0-8.0-0.36","610a52647a452dee7ca89360","650c16f0f2faf8d7a0d14c09","651c1e366464efa3e7a1f61e","null","null","<p style=""font-size: 60px; font-family: BACS"">JdGmYZUZ</p>","","","","","","","","",""
"html-keyboard-response","45","142642","0.0-8.0-0.37","610a52647a452dee7ca89360","650c16f0f2faf8d7a0d14c09","651c1e366464efa3e7a1f61e","null","null","<p style=""font-size: 60px; font-family: BACS"">lBlEmAM</p>","","","","","","","","",""
"html-keyboard-response","46","143652","0.0-8.0-0.38","610a52647a452dee7ca89360","650c16f0f2faf8d7a0d14c09","651c1e366464efa3e7a1f61e","null","null","<p style=""font-size: 60px; font-family: BACS"">aUZAJcL</p>","","","","","","","","",""
"html-keyboard-response","47","144661","0.0-8.0-0.39","610a52647a452dee7ca89360","650c16f0f2faf8d7a0d14c09","651c1e366464efa3e7a1f61e","null","null","<p style=""font-size: 60px; font-family: BACS"">OtlRmAM</p>","","","","","","","","",""
"html-keyboard-response","48","145677","0.0-8.0-0.40","610a52647a452dee7ca89360","650c16f0f2faf8d7a0d14c09","651c1e366464efa3e7a1f61e","null","null","<p style=""font-size: 60px; font-family: BACS"">bRABtDmh</p>","","","","","","","","",""
"html-keyboard-response","49","146689","0.0-8.0-0.41","610a52647a452dee7ca89360","650c16f0f2faf8d7a0d14c09","651c1e366464efa3e7a1f61e","null","null","<p style=""font-size: 60px; font-family: BACS"">DOchlcPK</p>","","","","","","","","",""
"html-keyboard-response","50","147704","0.0-8.0-0.42","610a52647a452dee7ca89360","650c16f0f2faf8d7a0d14c09","651c1e366464efa3e7a1f61e","null","null","<p style=""font-size: 60px; font-family: BACS"">hlctEAkd</p>","","","","","","","","",""
"html-keyboard-response","51","148721","0.0-8.0-0.43","610a52647a452dee7ca89360","650c16f0f2faf8d7a0d14c09","651c1e366464efa3e7a1f61e","null","null","<p style=""font-size: 60px; font-family: BACS"">YZJmYbN</p>","","","","","","","","",""
"html-keyboard-response","52","149732","0.0-8.0-0.44","610a52647a452dee7ca89360","650c16f0f2faf8d7a0d14c09","651c1e366464efa3e7a1f61e","null","null","<p style=""font-size: 60px; font-family: BACS"">hlbtbAkd</p>","","","","","","","","",""
"html-keyboard-response","53","150744","0.0-8.0-0.45","610a52647a452dee7ca89360","650c16f0f2faf8d7a0d14c09","651c1e366464efa3e7a1f61e","null","null","<p style=""font-size: 60px; font-family: BACS"">EhbtcPK</p>","","","","","","","","",""
"html-keyboard-response","54","151750","0.0-8.0-0.46","610a52647a452dee7ca89360","650c16f0f2faf8d7a0d14c09","651c1e366464efa3e7a1f61e","null","null","<p style=""font-size: 60px; font-family: BACS"">hlbtbmAM</p>","","","","","","","","",""
"html-keyboard-response","55","152765","0.0-8.0-0.47","610a52647a452dee7ca89360","650c16f0f2faf8d7a0d14c09","651c1e366464efa3e7a1f61e","null","null","<p style=""font-size: 60px; font-family: BACS"">bRABtAkd</p>","","","","","","","","",""
"html-keyboard-response","56","153779","0.0-8.0-0.48","610a52647a452dee7ca89360","650c16f0f2faf8d7a0d14c09","651c1e366464efa3e7a1f61e","null","null","<p style=""font-size: 60px; font-family: BACS"">DOchlmAM</p>","","","","","","","","",""
"html-keyboard-response","57","154793","0.0-8.0-0.49","610a52647a452dee7ca89360","650c16f0f2faf8d7a0d14c09","651c1e366464efa3e7a1f61e","null","null","<p style=""font-size: 60px; font-family: BACS"">udkmrGl</p>","","","","","","","","",""
"html-keyboard-response","58","155806","0.0-8.0-0.50","610a52647a452dee7ca89360","650c16f0f2faf8d7a0d14c09","651c1e366464efa3e7a1f61e","null","null","<p style=""font-size: 60px; font-family: BACS"">ukYZYZUZ</p>","","","","","","","","",""
"html-keyboard-response","59","156816","0.0-8.0-0.51","610a52647a452dee7ca89360","650c16f0f2faf8d7a0d14c09","651c1e366464efa3e7a1f61e","null","null","<p style=""font-size: 60px; font-family: BACS"">vmuLlrGl</p>","","","","","","","","",""
"html-keyboard-response","60","157832","0.0-8.0-0.52","610a52647a452dee7ca89360","650c16f0f2faf8d7a0d14c09","651c1e366464efa3e7a1f61e","null","null","<p style=""font-size: 60px; font-family: BACS"">OQarQJcL</p>","","","","","","","","",""
"html-keyboard-response","61","158847","0.0-8.0-0.53","610a52647a452dee7ca89360","650c16f0f2faf8d7a0d14c09","651c1e366464efa3e7a1f61e","null","null","<p style=""font-size: 60px; font-family: BACS"">BOCRMDmh</p>","","","","","","","","",""
"html-keyboard-response","62","159862","0.0-8.0-0.54","610a52647a452dee7ca89360","650c16f0f2faf8d7a0d14c09","651c1e366464efa3e7a1f61e","null","null","<p style=""font-size: 60px; font-family: BACS"">hlctETRkY</p>","","","","","","","","",""
"html-keyboard-response","63","160875","0.0-8.0-0.55","610a52647a452dee7ca89360","650c16f0f2faf8d7a0d14c09","651c1e366464efa3e7a1f61e","null","null","<p style=""font-size: 60px; font-family: BACS"">aLNlkJcL</p>","","","","","","","","",""
"html-keyboard-response","64","161877","0.0-8.0-0.56","610a52647a452dee7ca89360","650c16f0f2faf8d7a0d14c09","651c1e366464efa3e7a1f61e","null","null","<p style=""font-size: 60px; font-family: BACS"">OQarQrGl</p>","","","","","","","","",""
"html-keyboard-response","65","162894","0.0-8.0-0.57","610a52647a452dee7ca89360","650c16f0f2faf8d7a0d14c09","651c1e366464efa3e7a1f61e","null","null","<p style=""font-size: 60px; font-family: BACS"">bRABtTRkY</p>","","","","","","","","",""
"html-keyboard-response","66","163905","0.0-8.0-0.58","610a52647a452dee7ca89360","650c16f0f2faf8d7a0d14c09","651c1e366464efa3e7a1f61e","null","null","<p style=""font-size: 60px; font-family: BACS"">OQarQcYUv</p>","","","","","","","","",""
"html-keyboard-response","67","164920","0.0-8.0-0.59","610a52647a452dee7ca89360","650c16f0f2faf8d7a0d14c09","651c1e366464efa3e7a1f61e","null","null","<p style=""font-size: 60px; font-family: BACS"">dmZvmJcL</p>","","","","","","","","",""
"html-keyboard-response","68","165932","0.0-8.0-0.60","610a52647a452dee7ca89360","650c16f0f2faf8d7a0d14c09","651c1e366464efa3e7a1f61e","null","null","<p style=""font-size: 60px; font-family: BACS"">aLNlkYbN</p>","","","","","","","","",""
"html-keyboard-response","69","166942","0.0-8.0-0.61","610a52647a452dee7ca89360","650c16f0f2faf8d7a0d14c09","651c1e366464efa3e7a1f61e","null","null","<p style=""font-size: 60px; font-family: BACS"">JdGmJcL</p>","","","","","","","","",""
"html-keyboard-response","70","167956","0.0-8.0-0.62","610a52647a452dee7ca89360","650c16f0f2faf8d7a0d14c09","651c1e366464efa3e7a1f61e","null","null","<p style=""font-size: 60px; font-family: BACS"">lBlETRkY</p>","","","","","","","","",""
"html-keyboard-response","71","168966","0.0-8.0-0.63","610a52647a452dee7ca89360","650c16f0f2faf8d7a0d14c09","651c1e366464efa3e7a1f61e","null","null","<p style=""font-size: 60px; font-family: BACS"">lYruarGl</p>","","","","","","","","",""
"html-keyboard-response","72","169978","0.0-8.0-0.64","610a52647a452dee7ca89360","650c16f0f2faf8d7a0d14c09","651c1e366464efa3e7a1f61e","null","null","<p style=""font-size: 60px; font-family: BACS"">hlbtbcPK</p>","","","","","","","","",""
"html-keyboard-response","73","170993","0.0-8.0-0.65","610a52647a452dee7ca89360","650c16f0f2faf8d7a0d14c09","651c1e366464efa3e7a1f61e","null","null","<p style=""font-size: 60px; font-family: BACS"">OcYMTRkY</p>","","","","","","","","",""
"html-keyboard-response","74","172004","0.0-8.0-0.66","610a52647a452dee7ca89360","650c16f0f2faf8d7a0d14c09","651c1e366464efa3e7a1f61e","null","null","<p style=""font-size: 60px; font-family: BACS"">YZJmYZUZ</p>","","","","","","","","",""
"html-keyboard-response","75","173015","0.0-8.0-0.67","610a52647a452dee7ca89360","650c16f0f2faf8d7a0d14c09","651c1e366464efa3e7a1f61e","null","null","<p style=""font-size: 60px; font-family: BACS"">OtlRDmh</p>","","","","","","","","",""
"html-keyboard-response","76","174029","0.0-8.0-0.68","610a52647a452dee7ca89360","650c16f0f2faf8d7a0d14c09","651c1e366464efa3e7a1f61e","null","null","<p style=""font-size: 60px; font-family: BACS"">udkmcYUv</p>","","","","","","","","",""
"html-keyboard-response","77","175038","0.0-8.0-0.69","610a52647a452dee7ca89360","650c16f0f2faf8d7a0d14c09","651c1e366464efa3e7a1f61e","null","null","<p style=""font-size: 60px; font-family: BACS"">BOCRMTRkY</p>","","","","","","","","",""
"html-keyboard-response","78","176044","0.0-8.0-0.70","610a52647a452dee7ca89360","650c16f0f2faf8d7a0d14c09","651c1e366464efa3e7a1f61e","null","null","<p style=""font-size: 60px; font-family: BACS"">aUZArGl</p>","","","","","","","","",""
"html-keyboard-response","79","177061","0.0-8.0-0.71","610a52647a452dee7ca89360","650c16f0f2faf8d7a0d14c09","651c1e366464efa3e7a1f61e","null","null","<p style=""font-size: 60px; font-family: BACS"">lBlEDmh</p>","","","","","","","","",""
"html-keyboard-response","80","178070","0.0-8.0-0.72","610a52647a452dee7ca89360","650c16f0f2faf8d7a0d14c09","651c1e366464efa3e7a1f61e","null","null","<p style=""font-size: 60px; font-family: BACS"">BOCRMAkd</p>","","","","","","","","",""
"html-keyboard-response","81","179079","0.0-8.0-0.73","610a52647a452dee7ca89360","650c16f0f2faf8d7a0d14c09","651c1e366464efa3e7a1f61e","null","null","<p style=""font-size: 60px; font-family: BACS"">OcYMmAM</p>","","","","","","","","",""
"html-keyboard-response","82","180082","0.0-8.0-0.74","610a52647a452dee7ca89360","650c16f0f2faf8d7a0d14c09","651c1e366464efa3e7a1f61e","null","null","<p style=""font-size: 60px; font-family: BACS"">BKDRYcPK</p>","","","","","","","","",""
"html-keyboard-response","83","181091","0.0-8.0-0.75","610a52647a452dee7ca89360","650c16f0f2faf8d7a0d14c09","651c1e366464efa3e7a1f61e","null","null","<p style=""font-size: 60px; font-family: BACS"">dmZvmrGl</p>","","","","","","","","",""
"html-keyboard-response","84","182106","0.0-8.0-0.76","610a52647a452dee7ca89360","650c16f0f2faf8d7a0d14c09","651c1e366464efa3e7a1f61e","null","null","<p style=""font-size: 60px; font-family: BACS"">BKDRYTRkY</p>","","","","","","","","",""
"html-keyboard-response","85","183116","0.0-8.0-0.77","610a52647a452dee7ca89360","650c16f0f2faf8d7a0d14c09","651c1e366464efa3e7a1f61e","null","null","<p style=""font-size: 60px; font-family: BACS"">OcYMDmh</p>","","","","","","","","",""
"html-keyboard-response","86","184129","0.0-8.0-0.78","610a52647a452dee7ca89360","650c16f0f2faf8d7a0d14c09","651c1e366464efa3e7a1f61e","null","null","<p style=""font-size: 60px; font-family: BACS"">lBlEcPK</p>","","","","","","","","",""
"html-keyboard-response","87","185138","0.0-8.0-0.79","610a52647a452dee7ca89360","650c16f0f2faf8d7a0d14c09","651c1e366464efa3e7a1f61e","null","null","<p style=""font-size: 60px; font-family: BACS"">ukYZJcL</p>","","","","","","","","",""
"html-keyboard-response","88","193135","0.0-9.0","610a52647a452dee7ca89360","650c16f0f2faf8d7a0d14c09","651c1e366464efa3e7a1f61e","7996"," ","<p>Great, you've seen the first block of words. You may now take a short break.</p>
      <p>Press the spacebar when you're ready to continue.</p>","","","","","","","","",""
"html-keyboard-response","89","194145","0.0-10.0-0.0","610a52647a452dee7ca89360","650c16f0f2faf8d7a0d14c09","651c1e366464efa3e7a1f61e","null","null","<p style=""font-size: 60px; font-family: BACS"">lYruaJcL</p>","","","","","","","","",""
"html-keyboard-response","90","195148","0.0-10.0-0.1","610a52647a452dee7ca89360","650c16f0f2faf8d7a0d14c09","651c1e366464efa3e7a1f61e","null","null","<p style=""font-size: 60px; font-family: BACS"">ukYZYZUZ</p>","","","","","","","","",""
"html-keyboard-response","91","196161","0.0-10.0-0.2","610a52647a452dee7ca89360","650c16f0f2faf8d7a0d14c09","651c1e366464efa3e7a1f61e","null","null","<p style=""font-size: 60px; font-family: BACS"">lYruacYUv</p>","","","","","","","","",""
"html-keyboard-response","92","197174","0.0-10.0-0.3","610a52647a452dee7ca89360","650c16f0f2faf8d7a0d14c09","651c1e366464efa3e7a1f61e","null","null","<p style=""font-size: 60px; font-family: BACS"">BKDRYTRkY</p>","","","","","","","","",""
"html-keyboard-response","93","198190","0.0-10.0-0.4","610a52647a452dee7ca89360","650c16f0f2faf8d7a0d14c09","651c1e366464efa3e7a1f61e","null","null","<p style=""font-size: 60px; font-family: BACS"">OcYMAkd</p>","","","","","","","","",""
"html-keyboard-response","94","199203","0.0-10.0-0.5","610a52647a452dee7ca89360","650c16f0f2faf8d7a0d14c09","651c1e366464efa3e7a1f61e","null","null","<p style=""font-size: 60px; font-family: BACS"">JdGmJcL</p>","","","","","","","","",""
"html-keyboard-response","95","200205","0.0-10.0-0.6","610a52647a452dee7ca89360","650c16f0f2faf8d7a0d14c09","651c1e366464efa3e7a1f61e","null","null","<p style=""font-size: 60px; font-family: BACS"">dmZvmYbN</p>","","","","","","","","",""
"html-keyboard-response","96","201220","0.0-10.0-0.7","610a52647a452dee7ca89360","650c16f0f2faf8d7a0d14c09","651c1e366464efa3e7a1f61e","null","null","<p style=""font-size: 60px; font-family: BACS"">BKDRYAkd</p>","","","","","","","","",""
"html-keyboard-response","97","202222","0.0-10.0-0.8","610a52647a452dee7ca89360","650c16f0f2faf8d7a0d14c09","651c1e366464efa3e7a1f61e","null","null","<p style=""font-size: 60px; font-family: BACS"">OcYMDmh</p>","","","","","","","","",""
"html-keyboard-response","98","203234","0.0-10.0-0.9","610a52647a452dee7ca89360","650c16f0f2faf8d7a0d14c09","651c1e366464efa3e7a1f61e","null","null","<p style=""font-size: 60px; font-family: BACS"">aLNlkJcL</p>","","","","","","","","",""
"html-keyboard-response","99","204236","0.0-10.0-0.10","610a52647a452dee7ca89360","650c16f0f2faf8d7a0d14c09","651c1e366464efa3e7a1f61e","null","null","<p style=""font-size: 60px; font-family: BACS"">OQarQcYUv</p>","","","","","","","","",""
"html-keyboard-response","100","205250","0.0-10.0-0.11","610a52647a452dee7ca89360","650c16f0f2faf8d7a0d14c09","651c1e366464efa3e7a1f61e","null","null","<p style=""font-size: 60px; font-family: BACS"">ukYZYbN</p>","","","","","","","","",""
"html-keyboard-response","101","206260","0.0-10.0-0.12","610a52647a452dee7ca89360","650c16f0f2faf8d7a0d14c09","651c1e366464efa3e7a1f61e","null","null","<p style=""font-size: 60px; font-family: BACS"">dmZvmJcL</p>","","","","","","","","",""
"html-keyboard-response","102","207274","0.0-10.0-0.13","610a52647a452dee7ca89360","650c16f0f2faf8d7a0d14c09","651c1e366464efa3e7a1f61e","null","null","<p style=""font-size: 60px; font-family: BACS"">lBlETRkY</p>","","","","","","","","",""
"html-keyboard-response","103","208286","0.0-10.0-0.14","610a52647a452dee7ca89360","650c16f0f2faf8d7a0d14c09","651c1e366464efa3e7a1f61e","null","null","<p style=""font-size: 60px; font-family: BACS"">hlbtbmAM</p>","","","","","","","","",""
"html-keyboard-response","104","209301","0.0-10.0-0.15","610a52647a452dee7ca89360","650c16f0f2faf8d7a0d14c09","651c1e366464efa3e7a1f61e","null","null","<p style=""font-size: 60px; font-family: BACS"">OQarQYZUZ</p>","","","","","","","","",""
"html-keyboard-response","105","210312","0.0-10.0-0.16","610a52647a452dee7ca89360","650c16f0f2faf8d7a0d14c09","651c1e366464efa3e7a1f61e","null","null","<p style=""font-size: 60px; font-family: BACS"">BOCRMDmh</p>","","","","","","","","",""
"html-keyboard-response","106","211324","0.0-10.0-0.17","610a52647a452dee7ca89360","650c16f0f2faf8d7a0d14c09","651c1e366464efa3e7a1f61e","null","null","<p style=""font-size: 60px; font-family: BACS"">BKDRYmAM</p>","","","","","","","","",""
"html-keyboard-response","107","212335","0.0-10.0-0.18","610a52647a452dee7ca89360","650c16f0f2faf8d7a0d14c09","651c1e366464efa3e7a1f61e","null","null","<p style=""font-size: 60px; font-family: BACS"">YZJmYbN</p>","","","","","","","","",""
"html-keyboard-response","108","213344","0.0-10.0-0.19","610a52647a452dee7ca89360","650c16f0f2faf8d7a0d14c09","651c1e366464efa3e7a1f61e","null","null","<p style=""font-size: 60px; font-family: BACS"">aLNlkcYUv</p>","","","","","","","","",""
"html-keyboard-response","109","214357","0.0-10.0-0.20","610a52647a452dee7ca89360","650c16f0f2faf8d7a0d14c09","651c1e366464efa3e7a1f61e","null","null","<p style=""font-size: 60px; font-family: BACS"">OtlRcPK</p>","","","","","","","","",""
"html-keyboard-response","110","215373","0.0-10.0-0.21","610a52647a452dee7ca89360","650c16f0f2faf8d7a0d14c09","651c1e366464efa3e7a1f61e","null","null","<p style=""font-size: 60px; font-family: BACS"">OQarQJcL</p>","","","","","","","","",""
"html-keyboard-response","111","216380","0.0-10.0-0.22","610a52647a452dee7ca89360","650c16f0f2faf8d7a0d14c09","651c1e366464efa3e7a1f61e","null","null","<p style=""font-size: 60px; font-family: BACS"">EhbtcPK</p>","","","","","","","","",""
"html-keyboard-response","112","217392","0.0-10.0-0.23","610a52647a452dee7ca89360","650c16f0f2faf8d7a0d14c09","651c1e366464efa3e7a1f61e","null","null","<p style=""font-size: 60px; font-family: BACS"">udkmrGl</p>","","","","","","","","",""
"html-keyboard-response","113","218397","0.0-10.0-0.24","610a52647a452dee7ca89360","650c16f0f2faf8d7a0d14c09","651c1e366464efa3e7a1f61e","null","null","<p style=""font-size: 60px; font-family: BACS"">JdGmYbN</p>","","","","","","","","",""
"html-keyboard-response","114","219406","0.0-10.0-0.25","610a52647a452dee7ca89360","650c16f0f2faf8d7a0d14c09","651c1e366464efa3e7a1f61e","null","null","<p style=""font-size: 60px; font-family: BACS"">BOCRMmAM</p>","","","","","","","","",""
"html-keyboard-response","115","220416","0.0-10.0-0.26","610a52647a452dee7ca89360","650c16f0f2faf8d7a0d14c09","651c1e366464efa3e7a1f61e","null","null","<p style=""font-size: 60px; font-family: BACS"">udkmYbN</p>","","","","","","","","",""
"html-keyboard-response","116","221423","0.0-10.0-0.27","610a52647a452dee7ca89360","650c16f0f2faf8d7a0d14c09","651c1e366464efa3e7a1f61e","null","null","<p style=""font-size: 60px; font-family: BACS"">OtlRTRkY</p>","","","","","","","","",""
"html-keyboard-response","117","222434","0.0-10.0-0.28","610a52647a452dee7ca89360","650c16f0f2faf8d7a0d14c09","651c1e366464efa3e7a1f61e","null","null","<p style=""font-size: 60px; font-family: BACS"">hlctEcPK</p>","","","","","","","","",""
"html-keyboard-response","118","223443","0.0-10.0-0.29","610a52647a452dee7ca89360","650c16f0f2faf8d7a0d14c09","651c1e366464efa3e7a1f61e","null","null","<p style=""font-size: 60px; font-family: BACS"">udkmYZUZ</p>","","","","","","","","",""
"html-keyboard-response","119","224445","0.0-10.0-0.30","610a52647a452dee7ca89360","650c16f0f2faf8d7a0d14c09","651c1e366464efa3e7a1f61e","null","null","<p style=""font-size: 60px; font-family: BACS"">JdGmrGl</p>","","","","","","","","",""
"html-keyboard-response","120","225450","0.0-10.0-0.31","610a52647a452dee7ca89360","650c16f0f2faf8d7a0d14c09","651c1e366464efa3e7a1f61e","null","null","<p style=""font-size: 60px; font-family: BACS"">vmuLlcYUv</p>","","","","","","","","",""
"html-keyboard-response","121","226463","0.0-10.0-0.32","610a52647a452dee7ca89360","650c16f0f2faf8d7a0d14c09","651c1e366464efa3e7a1f61e","null","null","<p style=""font-size: 60px; font-family: BACS"">aUZArGl</p>","","","","","","","","",""
"html-keyboard-response","122","227474","0.0-10.0-0.33","610a52647a452dee7ca89360","650c16f0f2faf8d7a0d14c09","651c1e366464efa3e7a1f61e","null","null","<p style=""font-size: 60px; font-family: BACS"">EhbtmAM</p>","","","","","","","","",""
"html-keyboard-response","123","228490","0.0-10.0-0.34","610a52647a452dee7ca89360","650c16f0f2faf8d7a0d14c09","651c1e366464efa3e7a1f61e","null","null","<p style=""font-size: 60px; font-family: BACS"">YZJmcYUv</p>","","","","","","","","",""
"html-keyboard-response","124","229500","0.0-10.0-0.35","610a52647a452dee7ca89360","650c16f0f2faf8d7a0d14c09","651c1e366464efa3e7a1f61e","null","null","<p style=""font-size: 60px; font-family: BACS"">bRABtTRkY</p>","","","","","","","","",""
"html-keyboard-response","125","230507","0.0-10.0-0.36","610a52647a452dee7ca89360","650c16f0f2faf8d7a0d14c09","651c1e366464efa3e7a1f61e","null","null","<p style=""font-size: 60px; font-family: BACS"">hlbtbDmh</p>","","","","","","","","",""
"html-keyboard-response","126","231514","0.0-10.0-0.37","610a52647a452dee7ca89360","650c16f0f2faf8d7a0d14c09","651c1e366464efa3e7a1f61e","null","null","<p style=""font-size: 60px; font-family: BACS"">BOCRMAkd</p>","","","","","","","","",""
"html-keyboard-response","127","232528","0.0-10.0-0.38","610a52647a452dee7ca89360","650c16f0f2faf8d7a0d14c09","651c1e366464efa3e7a1f61e","null","null","<p style=""font-size: 60px; font-family: BACS"">aUZAJcL</p>","","","","","","","","",""
"html-keyboard-response","128","233534","0.0-10.0-0.39","610a52647a452dee7ca89360","650c16f0f2faf8d7a0d14c09","651c1e366464efa3e7a1f61e","null","null","<p style=""font-size: 60px; font-family: BACS"">DOchlAkd</p>","","","","","","","","",""
"html-keyboard-response","129","234547","0.0-10.0-0.40","610a52647a452dee7ca89360","650c16f0f2faf8d7a0d14c09","651c1e366464efa3e7a1f61e","null","null","<p style=""font-size: 60px; font-family: BACS"">aUZAYZUZ</p>","","","","","","","","",""
"html-keyboard-response","130","235557","0.0-10.0-0.41","610a52647a452dee7ca89360","650c16f0f2faf8d7a0d14c09","651c1e366464efa3e7a1f61e","null","null","<p style=""font-size: 60px; font-family: BACS"">hlctEAkd</p>","","","","","","","","",""
"html-keyboard-response","131","236570","0.0-10.0-0.42","610a52647a452dee7ca89360","650c16f0f2faf8d7a0d14c09","651c1e366464efa3e7a1f61e","null","null","<p style=""font-size: 60px; font-family: BACS"">bRABtDmh</p>","","","","","","","","",""
"html-keyboard-response","132","237578","0.0-10.0-0.43","610a52647a452dee7ca89360","650c16f0f2faf8d7a0d14c09","651c1e366464efa3e7a1f61e","null","null","<p style=""font-size: 60px; font-family: BACS"">vmuLlrGl</p>","","","","","","","","",""
"html-keyboard-response","133","238586","0.0-10.0-0.44","610a52647a452dee7ca89360","650c16f0f2faf8d7a0d14c09","651c1e366464efa3e7a1f61e","null","null","<p style=""font-size: 60px; font-family: BACS"">udkmcYUv</p>","","","","","","","","",""
"html-keyboard-response","134","239598","0.0-10.0-0.45","610a52647a452dee7ca89360","650c16f0f2faf8d7a0d14c09","651c1e366464efa3e7a1f61e","null","null","<p style=""font-size: 60px; font-family: BACS"">JdGmYZUZ</p>","","","","","","","","",""
"html-keyboard-response","135","240613","0.0-10.0-0.46","610a52647a452dee7ca89360","650c16f0f2faf8d7a0d14c09","651c1e366464efa3e7a1f61e","null","null","<p style=""font-size: 60px; font-family: BACS"">OtlRmAM</p>","","","","","","","","",""
"html-keyboard-response","136","241618","0.0-10.0-0.47","610a52647a452dee7ca89360","650c16f0f2faf8d7a0d14c09","651c1e366464efa3e7a1f61e","null","null","<p style=""font-size: 60px; font-family: BACS"">lBlEDmh</p>","","","","","","","","",""
"html-keyboard-response","137","242631","0.0-10.0-0.48","610a52647a452dee7ca89360","650c16f0f2faf8d7a0d14c09","651c1e366464efa3e7a1f61e","null","null","<p style=""font-size: 60px; font-family: BACS"">aLNlkYZUZ</p>","","","","","","","","",""
"html-keyboard-response","138","243645","0.0-10.0-0.49","610a52647a452dee7ca89360","650c16f0f2faf8d7a0d14c09","651c1e366464efa3e7a1f61e","null","null","<p style=""font-size: 60px; font-family: BACS"">lBlEmAM</p>","","","","","","","","",""
"html-keyboard-response","139","244656","0.0-10.0-0.50","610a52647a452dee7ca89360","650c16f0f2faf8d7a0d14c09","651c1e366464efa3e7a1f61e","null","null","<p style=""font-size: 60px; font-family: BACS"">DOchlcPK</p>","","","","","","","","",""
"html-keyboard-response","140","245671","0.0-10.0-0.51","610a52647a452dee7ca89360","650c16f0f2faf8d7a0d14c09","651c1e366464efa3e7a1f61e","null","null","<p style=""font-size: 60px; font-family: BACS"">lYruaYbN</p>","","","","","","","","",""
"html-keyboard-response","141","246684","0.0-10.0-0.52","610a52647a452dee7ca89360","650c16f0f2faf8d7a0d14c09","651c1e366464efa3e7a1f61e","null","null","<p style=""font-size: 60px; font-family: BACS"">ukYZrGl</p>","","","","","","","","",""
"html-keyboard-response","142","247694","0.0-10.0-0.53","610a52647a452dee7ca89360","650c16f0f2faf8d7a0d14c09","651c1e366464efa3e7a1f61e","null","null","<p style=""font-size: 60px; font-family: BACS"">hlctEDmh</p>","","","","","","","","",""
"html-keyboard-response","143","248707","0.0-10.0-0.54","610a52647a452dee7ca89360","650c16f0f2faf8d7a0d14c09","651c1e366464efa3e7a1f61e","null","null","<p style=""font-size: 60px; font-family: BACS"">BKDRYcPK</p>","","","","","","","","",""
"html-keyboard-response","144","249722","0.0-10.0-0.55","610a52647a452dee7ca89360","650c16f0f2faf8d7a0d14c09","651c1e366464efa3e7a1f61e","null","null","<p style=""font-size: 60px; font-family: BACS"">EhbtDmh</p>","","","","","","","","",""
"html-keyboard-response","145","250735","0.0-10.0-0.56","610a52647a452dee7ca89360","650c16f0f2faf8d7a0d14c09","651c1e366464efa3e7a1f61e","null","null","<p style=""font-size: 60px; font-family: BACS"">bRABtcPK</p>","","","","","","","","",""
"html-keyboard-response","146","251742","0.0-10.0-0.57","610a52647a452dee7ca89360","650c16f0f2faf8d7a0d14c09","651c1e366464efa3e7a1f61e","null","null","<p style=""font-size: 60px; font-family: BACS"">aUZAcYUv</p>","","","","","","","","",""
"html-keyboard-response","147","252756","0.0-10.0-0.58","610a52647a452dee7ca89360","650c16f0f2faf8d7a0d14c09","651c1e366464efa3e7a1f61e","null","null","<p style=""font-size: 60px; font-family: BACS"">OcYMmAM</p>","","","","","","","","",""
"html-keyboard-response","148","253768","0.0-10.0-0.59","610a52647a452dee7ca89360","650c16f0f2faf8d7a0d14c09","651c1e366464efa3e7a1f61e","null","null","<p style=""font-size: 60px; font-family: BACS"">DOchlTRkY</p>","","","","","","","","",""
"html-keyboard-response","149","254776","0.0-10.0-0.60","610a52647a452dee7ca89360","650c16f0f2faf8d7a0d14c09","651c1e366464efa3e7a1f61e","null","null","<p style=""font-size: 60px; font-family: BACS"">aLNlkYbN</p>","","","","","","","","",""
"html-keyboard-response","150","255791","0.0-10.0-0.61","610a52647a452dee7ca89360","650c16f0f2faf8d7a0d14c09","651c1e366464efa3e7a1f61e","null","null","<p style=""font-size: 60px; font-family: BACS"">hlbtbAkd</p>","","","","","","","","",""
"html-keyboard-response","151","256802","0.0-10.0-0.62","610a52647a452dee7ca89360","650c16f0f2faf8d7a0d14c09","651c1e366464efa3e7a1f61e","null","null","<p style=""font-size: 60px; font-family: BACS"">vmuLlYbN</p>","","","","","","","","",""
"html-keyboard-response","152","257817","0.0-10.0-0.63","610a52647a452dee7ca89360","650c16f0f2faf8d7a0d14c09","651c1e366464efa3e7a1f61e","null","null","<p style=""font-size: 60px; font-family: BACS"">YZJmJcL</p>","","","","","","","","",""
"html-keyboard-response","153","258829","0.0-10.0-0.64","610a52647a452dee7ca89360","650c16f0f2faf8d7a0d14c09","651c1e366464efa3e7a1f61e","null","null","<p style=""font-size: 60px; font-family: BACS"">hlctETRkY</p>","","","","","","","","",""
"html-keyboard-response","154","259843","0.0-10.0-0.65","610a52647a452dee7ca89360","650c16f0f2faf8d7a0d14c09","651c1e366464efa3e7a1f61e","null","null","<p style=""font-size: 60px; font-family: BACS"">bRABtAkd</p>","","","","","","","","",""
"html-keyboard-response","155","260853","0.0-10.0-0.66","610a52647a452dee7ca89360","650c16f0f2faf8d7a0d14c09","651c1e366464efa3e7a1f61e","null","null","<p style=""font-size: 60px; font-family: BACS"">ukYZJcL</p>","","","","","","","","",""
"html-keyboard-response","156","261868","0.0-10.0-0.67","610a52647a452dee7ca89360","650c16f0f2faf8d7a0d14c09","651c1e366464efa3e7a1f61e","null","null","<p style=""font-size: 60px; font-family: BACS"">OtlRDmh</p>","","","","","","","","",""
"html-keyboard-response","157","262881","0.0-10.0-0.68","610a52647a452dee7ca89360","650c16f0f2faf8d7a0d14c09","651c1e366464efa3e7a1f61e","null","null","<p style=""font-size: 60px; font-family: BACS"">lBlEcPK</p>","","","","","","","","",""
"html-keyboard-response","158","263895","0.0-10.0-0.69","610a52647a452dee7ca89360","650c16f0f2faf8d7a0d14c09","651c1e366464efa3e7a1f61e","null","null","<p style=""font-size: 60px; font-family: BACS"">DOchlmAM</p>","","","","","","","","",""
"html-keyboard-response","159","264909","0.0-10.0-0.70","610a52647a452dee7ca89360","650c16f0f2faf8d7a0d14c09","651c1e366464efa3e7a1f61e","null","null","<p style=""font-size: 60px; font-family: BACS"">lYruarGl</p>","","","","","","","","",""
"html-keyboard-response","160","265922","0.0-10.0-0.71","610a52647a452dee7ca89360","650c16f0f2faf8d7a0d14c09","651c1e366464efa3e7a1f61e","null","null","<p style=""font-size: 60px; font-family: BACS"">vmuLlYZUZ</p>","","","","","","","","",""
"html-keyboard-response","161","266934","0.0-10.0-0.72","610a52647a452dee7ca89360","650c16f0f2faf8d7a0d14c09","651c1e366464efa3e7a1f61e","null","null","<p style=""font-size: 60px; font-family: BACS"">dmZvmrGl</p>","","","","","","","","",""
"html-keyboard-response","162","267944","0.0-10.0-0.73","610a52647a452dee7ca89360","650c16f0f2faf8d7a0d14c09","651c1e366464efa3e7a1f61e","null","null","<p style=""font-size: 60px; font-family: BACS"">hlbtbcPK</p>","","","","","","","","",""
"html-keyboard-response","163","268955","0.0-10.0-0.74","610a52647a452dee7ca89360","650c16f0f2faf8d7a0d14c09","651c1e366464efa3e7a1f61e","null","null","<p style=""font-size: 60px; font-family: BACS"">EhbtAkd</p>","","","","","","","","",""
"html-keyboard-response","164","269968","0.0-10.0-0.75","610a52647a452dee7ca89360","650c16f0f2faf8d7a0d14c09","651c1e366464efa3e7a1f61e","null","null","<p style=""font-size: 60px; font-family: BACS"">BOCRMTRkY</p>","","","","","","","","",""
"html-keyboard-response","165","270979","0.0-10.0-0.76","610a52647a452dee7ca89360","650c16f0f2faf8d7a0d14c09","651c1e366464efa3e7a1f61e","null","null","<p style=""font-size: 60px; font-family: BACS"">YZJmYZUZ</p>","","","","","","","","",""
"html-keyboard-response","166","271992","0.0-10.0-0.77","610a52647a452dee7ca89360","650c16f0f2faf8d7a0d14c09","651c1e366464efa3e7a1f61e","null","null","<p style=""font-size: 60px; font-family: BACS"">OQarQrGl</p>","","","","","","","","",""
"html-keyboard-response","167","273004","0.0-10.0-0.78","610a52647a452dee7ca89360","650c16f0f2faf8d7a0d14c09","651c1e366464efa3e7a1f61e","null","null","<p style=""font-size: 60px; font-family: BACS"">OcYMTRkY</p>","","","","","","","","",""
"html-keyboard-response","168","274018","0.0-10.0-0.79","610a52647a452dee7ca89360","650c16f0f2faf8d7a0d14c09","651c1e366464efa3e7a1f61e","null","null","<p style=""font-size: 60px; font-family: BACS"">dmZvmcYUv</p>","","","","","","","","",""
"html-keyboard-response","169","282319","0.0-11.0","610a52647a452dee7ca89360","650c16f0f2faf8d7a0d14c09","651c1e366464efa3e7a1f61e","8301"," ","<p>Great, you've seen the second block of words. You may now take a short break.</p>
      <p>Press the spacebar when you're ready to continue.</p>","","","","","","","","",""
"html-keyboard-response","170","283331","0.0-12.0-0.0","610a52647a452dee7ca89360","650c16f0f2faf8d7a0d14c09","651c1e366464efa3e7a1f61e","null","null","<p style=""font-size: 60px; font-family: BACS"">vmuLlYbN</p>","","","","","","","","",""
"html-keyboard-response","171","284345","0.0-12.0-0.1","610a52647a452dee7ca89360","650c16f0f2faf8d7a0d14c09","651c1e366464efa3e7a1f61e","null","null","<p style=""font-size: 60px; font-family: BACS"">hlctEcPK</p>","","","","","","","","",""
"html-keyboard-response","172","285357","0.0-12.0-0.2","610a52647a452dee7ca89360","650c16f0f2faf8d7a0d14c09","651c1e366464efa3e7a1f61e","null","null","<p style=""font-size: 60px; font-family: BACS"">BOCRMmAM</p>","","","","","","","","",""
"html-keyboard-response","173","286369","0.0-12.0-0.3","610a52647a452dee7ca89360","650c16f0f2faf8d7a0d14c09","651c1e366464efa3e7a1f61e","null","null","<p style=""font-size: 60px; font-family: BACS"">aUZAJcL</p>","","","","","","","","",""
"html-keyboard-response","174","287383","0.0-12.0-0.4","610a52647a452dee7ca89360","650c16f0f2faf8d7a0d14c09","651c1e366464efa3e7a1f61e","null","null","<p style=""font-size: 60px; font-family: BACS"">hlbtbmAM</p>","","","","","","","","",""
"html-keyboard-response","175","288396","0.0-12.0-0.5","610a52647a452dee7ca89360","650c16f0f2faf8d7a0d14c09","651c1e366464efa3e7a1f61e","null","null","<p style=""font-size: 60px; font-family: BACS"">dmZvmJcL</p>","","","","","","","","",""
"html-keyboard-response","176","289408","0.0-12.0-0.6","610a52647a452dee7ca89360","650c16f0f2faf8d7a0d14c09","651c1e366464efa3e7a1f61e","null","null","<p style=""font-size: 60px; font-family: BACS"">vmuLlrGl</p>","","","","","","","","",""
"html-keyboard-response","177","290423","0.0-12.0-0.7","610a52647a452dee7ca89360","650c16f0f2faf8d7a0d14c09","651c1e366464efa3e7a1f61e","null","null","<p style=""font-size: 60px; font-family: BACS"">BKDRYmAM</p>","","","","","","","","",""
"html-keyboard-response","178","291424","0.0-12.0-0.8","610a52647a452dee7ca89360","650c16f0f2faf8d7a0d14c09","651c1e366464efa3e7a1f61e","null","null","<p style=""font-size: 60px; font-family: BACS"">aLNlkcYUv</p>","","","","","","","","",""
"html-keyboard-response","179","292426","0.0-12.0-0.9","610a52647a452dee7ca89360","650c16f0f2faf8d7a0d14c09","651c1e366464efa3e7a1f61e","null","null","<p style=""font-size: 60px; font-family: BACS"">OQarQrGl</p>","","","","","","","","",""
"html-keyboard-response","180","293439","0.0-12.0-0.10","610a52647a452dee7ca89360","650c16f0f2faf8d7a0d14c09","651c1e366464efa3e7a1f61e","null","null","<p style=""font-size: 60px; font-family: BACS"">hlbtbAkd</p>","","","","","","","","",""
"html-keyboard-response","181","294440","0.0-12.0-0.11","610a52647a452dee7ca89360","650c16f0f2faf8d7a0d14c09","651c1e366464efa3e7a1f61e","null","null","<p style=""font-size: 60px; font-family: BACS"">bRABtDmh</p>","","","","","","","","",""
"html-keyboard-response","182","295452","0.0-12.0-0.12","610a52647a452dee7ca89360","650c16f0f2faf8d7a0d14c09","651c1e366464efa3e7a1f61e","null","null","<p style=""font-size: 60px; font-family: BACS"">DOchlTRkY</p>","","","","","","","","",""
"html-keyboard-response","183","296462","0.0-12.0-0.13","610a52647a452dee7ca89360","650c16f0f2faf8d7a0d14c09","651c1e366464efa3e7a1f61e","null","null","<p style=""font-size: 60px; font-family: BACS"">YZJmYbN</p>","","","","","","","","",""
"html-keyboard-response","184","297474","0.0-12.0-0.14","610a52647a452dee7ca89360","650c16f0f2faf8d7a0d14c09","651c1e366464efa3e7a1f61e","null","null","<p style=""font-size: 60px; font-family: BACS"">udkmcYUv</p>","","","","","","","","",""
"html-keyboard-response","185","298486","0.0-12.0-0.15","610a52647a452dee7ca89360","650c16f0f2faf8d7a0d14c09","651c1e366464efa3e7a1f61e","null","null","<p style=""font-size: 60px; font-family: BACS"">ukYZJcL</p>","","","","","","","","",""
"html-keyboard-response","186","299494","0.0-12.0-0.16","610a52647a452dee7ca89360","650c16f0f2faf8d7a0d14c09","651c1e366464efa3e7a1f61e","null","null","<p style=""font-size: 60px; font-family: BACS"">EhbtmAM</p>","","","","","","","","",""
"html-keyboard-response","187","300503","0.0-12.0-0.17","610a52647a452dee7ca89360","650c16f0f2faf8d7a0d14c09","651c1e366464efa3e7a1f61e","null","null","<p style=""font-size: 60px; font-family: BACS"">lBlETRkY</p>","","","","","","","","",""
"html-keyboard-response","188","301517","0.0-12.0-0.18","610a52647a452dee7ca89360","650c16f0f2faf8d7a0d14c09","651c1e366464efa3e7a1f61e","null","null","<p style=""font-size: 60px; font-family: BACS"">hlbtbDmh</p>","","","","","","","","",""
"html-keyboard-response","189","302520","0.0-12.0-0.19","610a52647a452dee7ca89360","650c16f0f2faf8d7a0d14c09","651c1e366464efa3e7a1f61e","null","null","<p style=""font-size: 60px; font-family: BACS"">BKDRYTRkY</p>","","","","","","","","",""
"html-keyboard-response","190","303527","0.0-12.0-0.20","610a52647a452dee7ca89360","650c16f0f2faf8d7a0d14c09","651c1e366464efa3e7a1f61e","null","null","<p style=""font-size: 60px; font-family: BACS"">aUZAYZUZ</p>","","","","","","","","",""
"html-keyboard-response","191","304529","0.0-12.0-0.21","610a52647a452dee7ca89360","650c16f0f2faf8d7a0d14c09","651c1e366464efa3e7a1f61e","null","null","<p style=""font-size: 60px; font-family: BACS"">lYruacYUv</p>","","","","","","","","",""
"html-keyboard-response","192","305539","0.0-12.0-0.22","610a52647a452dee7ca89360","650c16f0f2faf8d7a0d14c09","651c1e366464efa3e7a1f61e","null","null","<p style=""font-size: 60px; font-family: BACS"">bRABtAkd</p>","","","","","","","","",""
"html-keyboard-response","193","306551","0.0-12.0-0.23","610a52647a452dee7ca89360","650c16f0f2faf8d7a0d14c09","651c1e366464efa3e7a1f61e","null","null","<p style=""font-size: 60px; font-family: BACS"">ukYZYbN</p>","","","","","","","","",""
"html-keyboard-response","194","307562","0.0-12.0-0.24","610a52647a452dee7ca89360","650c16f0f2faf8d7a0d14c09","651c1e366464efa3e7a1f61e","null","null","<p style=""font-size: 60px; font-family: BACS"">OQarQYZUZ</p>","","","","","","","","",""
"html-keyboard-response","195","308576","0.0-12.0-0.25","610a52647a452dee7ca89360","650c16f0f2faf8d7a0d14c09","651c1e366464efa3e7a1f61e","null","null","<p style=""font-size: 60px; font-family: BACS"">JdGmYbN</p>","","","","","","","","",""
"html-keyboard-response","196","309584","0.0-12.0-0.26","610a52647a452dee7ca89360","650c16f0f2faf8d7a0d14c09","651c1e366464efa3e7a1f61e","null","null","<p style=""font-size: 60px; font-family: BACS"">EhbtcPK</p>","","","","","","","","",""
"html-keyboard-response","197","310598","0.0-12.0-0.27","610a52647a452dee7ca89360","650c16f0f2faf8d7a0d14c09","651c1e366464efa3e7a1f61e","null","null","<p style=""font-size: 60px; font-family: BACS"">udkmYbN</p>","","","","","","","","",""
"html-keyboard-response","198","311610","0.0-12.0-0.28","610a52647a452dee7ca89360","650c16f0f2faf8d7a0d14c09","651c1e366464efa3e7a1f61e","null","null","<p style=""font-size: 60px; font-family: BACS"">OtlRTRkY</p>","","","","","","","","",""
"html-keyboard-response","199","312622","0.0-12.0-0.29","610a52647a452dee7ca89360","650c16f0f2faf8d7a0d14c09","651c1e366464efa3e7a1f61e","null","null","<p style=""font-size: 60px; font-family: BACS"">aLNlkYbN</p>","","","","","","","","",""
"html-keyboard-response","200","313637","0.0-12.0-0.30","610a52647a452dee7ca89360","650c16f0f2faf8d7a0d14c09","651c1e366464efa3e7a1f61e","null","null","<p style=""font-size: 60px; font-family: BACS"">BOCRMAkd</p>","","","","","","","","",""
"html-keyboard-response","201","314653","0.0-12.0-0.31","610a52647a452dee7ca89360","650c16f0f2faf8d7a0d14c09","651c1e366464efa3e7a1f61e","null","null","<p style=""font-size: 60px; font-family: BACS"">aUZArGl</p>","","","","","","","","",""
"html-keyboard-response","202","315659","0.0-12.0-0.32","610a52647a452dee7ca89360","650c16f0f2faf8d7a0d14c09","651c1e366464efa3e7a1f61e","null","null","<p style=""font-size: 60px; font-family: BACS"">BKDRYAkd</p>","","","","","","","","",""
"html-keyboard-response","203","316673","0.0-12.0-0.33","610a52647a452dee7ca89360","650c16f0f2faf8d7a0d14c09","651c1e366464efa3e7a1f61e","null","null","<p style=""font-size: 60px; font-family: BACS"">BOCRMTRkY</p>","","","","","","","","",""
"html-keyboard-response","204","317681","0.0-12.0-0.34","610a52647a452dee7ca89360","650c16f0f2faf8d7a0d14c09","651c1e366464efa3e7a1f61e","null","null","<p style=""font-size: 60px; font-family: BACS"">DOchlmAM</p>","","","","","","","","",""
"html-keyboard-response","205","318688","0.0-12.0-0.35","610a52647a452dee7ca89360","650c16f0f2faf8d7a0d14c09","651c1e366464efa3e7a1f61e","null","null","<p style=""font-size: 60px; font-family: BACS"">BOCRMDmh</p>","","","","","","","","",""
"html-keyboard-response","206","319702","0.0-12.0-0.36","610a52647a452dee7ca89360","650c16f0f2faf8d7a0d14c09","651c1e366464efa3e7a1f61e","null","null","<p style=""font-size: 60px; font-family: BACS"">OcYMAkd</p>","","","","","","","","",""
"html-keyboard-response","207","320712","0.0-12.0-0.37","610a52647a452dee7ca89360","650c16f0f2faf8d7a0d14c09","651c1e366464efa3e7a1f61e","null","null","<p style=""font-size: 60px; font-family: BACS"">ukYZrGl</p>","","","","","","","","",""
"html-keyboard-response","208","321723","0.0-12.0-0.38","610a52647a452dee7ca89360","650c16f0f2faf8d7a0d14c09","651c1e366464efa3e7a1f61e","null","null","<p style=""font-size: 60px; font-family: BACS"">lYruaYbN</p>","","","","","","","","",""
"html-keyboard-response","209","322735","0.0-12.0-0.39","610a52647a452dee7ca89360","650c16f0f2faf8d7a0d14c09","651c1e366464efa3e7a1f61e","null","null","<p style=""font-size: 60px; font-family: BACS"">DOchlcPK</p>","","","","","","","","",""
"html-keyboard-response","210","323738","0.0-12.0-0.40","610a52647a452dee7ca89360","650c16f0f2faf8d7a0d14c09","651c1e366464efa3e7a1f61e","null","null","<p style=""font-size: 60px; font-family: BACS"">YZJmYZUZ</p>","","","","","","","","",""
"html-keyboard-response","211","324752","0.0-12.0-0.41","610a52647a452dee7ca89360","650c16f0f2faf8d7a0d14c09","651c1e366464efa3e7a1f61e","null","null","<p style=""font-size: 60px; font-family: BACS"">dmZvmrGl</p>","","","","","","","","",""
"html-keyboard-response","212","325767","0.0-12.0-0.42","610a52647a452dee7ca89360","650c16f0f2faf8d7a0d14c09","651c1e366464efa3e7a1f61e","null","null","<p style=""font-size: 60px; font-family: BACS"">lBlEmAM</p>","","","","","","","","",""
"html-keyboard-response","213","326769","0.0-12.0-0.43","610a52647a452dee7ca89360","650c16f0f2faf8d7a0d14c09","651c1e366464efa3e7a1f61e","null","null","<p style=""font-size: 60px; font-family: BACS"">aLNlkJcL</p>","","","","","","","","",""
"html-keyboard-response","214","327784","0.0-12.0-0.44","610a52647a452dee7ca89360","650c16f0f2faf8d7a0d14c09","651c1e366464efa3e7a1f61e","null","null","<p style=""font-size: 60px; font-family: BACS"">ukYZYZUZ</p>","","","","","","","","",""
"html-keyboard-response","215","328798","0.0-12.0-0.45","610a52647a452dee7ca89360","650c16f0f2faf8d7a0d14c09","651c1e366464efa3e7a1f61e","null","null","<p style=""font-size: 60px; font-family: BACS"">YZJmJcL</p>","","","","","","","","",""
"html-keyboard-response","216","329802","0.0-12.0-0.46","610a52647a452dee7ca89360","650c16f0f2faf8d7a0d14c09","651c1e366464efa3e7a1f61e","null","null","<p style=""font-size: 60px; font-family: BACS"">vmuLlYZUZ</p>","","","","","","","","",""
"html-keyboard-response","217","330817","0.0-12.0-0.47","610a52647a452dee7ca89360","650c16f0f2faf8d7a0d14c09","651c1e366464efa3e7a1f61e","null","null","<p style=""font-size: 60px; font-family: BACS"">OcYMTRkY</p>","","","","","","","","",""
"html-keyboard-response","218","331832","0.0-12.0-0.48","610a52647a452dee7ca89360","650c16f0f2faf8d7a0d14c09","651c1e366464efa3e7a1f61e","null","null","<p style=""font-size: 60px; font-family: BACS"">udkmrGl</p>","","","","","","","","",""
"html-keyboard-response","219","332843","0.0-12.0-0.49","610a52647a452dee7ca89360","650c16f0f2faf8d7a0d14c09","651c1e366464efa3e7a1f61e","null","null","<p style=""font-size: 60px; font-family: BACS"">vmuLlcYUv</p>","","","","","","","","",""
"html-keyboard-response","220","333850","0.0-12.0-0.50","610a52647a452dee7ca89360","650c16f0f2faf8d7a0d14c09","651c1e366464efa3e7a1f61e","null","null","<p style=""font-size: 60px; font-family: BACS"">OcYMDmh</p>","","","","","","","","",""
"html-keyboard-response","221","334864","0.0-12.0-0.51","610a52647a452dee7ca89360","650c16f0f2faf8d7a0d14c09","651c1e366464efa3e7a1f61e","null","null","<p style=""font-size: 60px; font-family: BACS"">OQarQcYUv</p>","","","","","","","","",""
"html-keyboard-response","222","335874","0.0-12.0-0.52","610a52647a452dee7ca89360","650c16f0f2faf8d7a0d14c09","651c1e366464efa3e7a1f61e","null","null","<p style=""font-size: 60px; font-family: BACS"">OtlRmAM</p>","","","","","","","","",""
"html-keyboard-response","223","336886","0.0-12.0-0.53","610a52647a452dee7ca89360","650c16f0f2faf8d7a0d14c09","651c1e366464efa3e7a1f61e","null","null","<p style=""font-size: 60px; font-family: BACS"">hlctEDmh</p>","","","","","","","","",""
"html-keyboard-response","224","337897","0.0-12.0-0.54","610a52647a452dee7ca89360","650c16f0f2faf8d7a0d14c09","651c1e366464efa3e7a1f61e","null","null","<p style=""font-size: 60px; font-family: BACS"">OQarQJcL</p>","","","","","","","","",""
"html-keyboard-response","225","338909","0.0-12.0-0.55","610a52647a452dee7ca89360","650c16f0f2faf8d7a0d14c09","651c1e366464efa3e7a1f61e","null","null","<p style=""font-size: 60px; font-family: BACS"">OtlRDmh</p>","","","","","","","","",""
"html-keyboard-response","226","339911","0.0-12.0-0.56","610a52647a452dee7ca89360","650c16f0f2faf8d7a0d14c09","651c1e366464efa3e7a1f61e","null","null","<p style=""font-size: 60px; font-family: BACS"">lYruaJcL</p>","","","","","","","","",""
"html-keyboard-response","227","340924","0.0-12.0-0.57","610a52647a452dee7ca89360","650c16f0f2faf8d7a0d14c09","651c1e366464efa3e7a1f61e","null","null","<p style=""font-size: 60px; font-family: BACS"">lBlEDmh</p>","","","","","","","","",""
"html-keyboard-response","228","341932","0.0-12.0-0.58","610a52647a452dee7ca89360","650c16f0f2faf8d7a0d14c09","651c1e366464efa3e7a1f61e","null","null","<p style=""font-size: 60px; font-family: BACS"">dmZvmYbN</p>","","","","","","","","",""
"html-keyboard-response","229","342947","0.0-12.0-0.59","610a52647a452dee7ca89360","650c16f0f2faf8d7a0d14c09","651c1e366464efa3e7a1f61e","null","null","<p style=""font-size: 60px; font-family: BACS"">udkmYZUZ</p>","","","","","","","","",""
"html-keyboard-response","230","343955","0.0-12.0-0.60","610a52647a452dee7ca89360","650c16f0f2faf8d7a0d14c09","651c1e366464efa3e7a1f61e","null","null","<p style=""font-size: 60px; font-family: BACS"">EhbtAkd</p>","","","","","","","","",""
"html-keyboard-response","231","344971","0.0-12.0-0.61","610a52647a452dee7ca89360","650c16f0f2faf8d7a0d14c09","651c1e366464efa3e7a1f61e","null","null","<p style=""font-size: 60px; font-family: BACS"">YZJmcYUv</p>","","","","","","","","",""
"html-keyboard-response","232","345978","0.0-12.0-0.62","610a52647a452dee7ca89360","650c16f0f2faf8d7a0d14c09","651c1e366464efa3e7a1f61e","null","null","<p style=""font-size: 60px; font-family: BACS"">BKDRYcPK</p>","","","","","","","","",""
"html-keyboard-response","233","346985","0.0-12.0-0.63","610a52647a452dee7ca89360","650c16f0f2faf8d7a0d14c09","651c1e366464efa3e7a1f61e","null","null","<p style=""font-size: 60px; font-family: BACS"">bRABtTRkY</p>","","","","","","","","",""
"html-keyboard-response","234","347999","0.0-12.0-0.64","610a52647a452dee7ca89360","650c16f0f2faf8d7a0d14c09","651c1e366464efa3e7a1f61e","null","null","<p style=""font-size: 60px; font-family: BACS"">hlctEAkd</p>","","","","","","","","",""
"html-keyboard-response","235","349011","0.0-12.0-0.65","610a52647a452dee7ca89360","650c16f0f2faf8d7a0d14c09","651c1e366464efa3e7a1f61e","null","null","<p style=""font-size: 60px; font-family: BACS"">lBlEcPK</p>","","","","","","","","",""
"html-keyboard-response","236","350020","0.0-12.0-0.66","610a52647a452dee7ca89360","650c16f0f2faf8d7a0d14c09","651c1e366464efa3e7a1f61e","null","null","<p style=""font-size: 60px; font-family: BACS"">aUZAcYUv</p>","","","","","","","","",""
"html-keyboard-response","237","351024","0.0-12.0-0.67","610a52647a452dee7ca89360","650c16f0f2faf8d7a0d14c09","651c1e366464efa3e7a1f61e","null","null","<p style=""font-size: 60px; font-family: BACS"">hlbtbcPK</p>","","","","","","","","",""
"html-keyboard-response","238","352036","0.0-12.0-0.68","610a52647a452dee7ca89360","650c16f0f2faf8d7a0d14c09","651c1e366464efa3e7a1f61e","null","null","<p style=""font-size: 60px; font-family: BACS"">dmZvmcYUv</p>","","","","","","","","",""
"html-keyboard-response","239","353051","0.0-12.0-0.69","610a52647a452dee7ca89360","650c16f0f2faf8d7a0d14c09","651c1e366464efa3e7a1f61e","null","null","<p style=""font-size: 60px; font-family: BACS"">JdGmYZUZ</p>","","","","","","","","",""
"html-keyboard-response","240","354064","0.0-12.0-0.70","610a52647a452dee7ca89360","650c16f0f2faf8d7a0d14c09","651c1e366464efa3e7a1f61e","null","null","<p style=""font-size: 60px; font-family: BACS"">OcYMmAM</p>","","","","","","","","",""
"html-keyboard-response","241","355078","0.0-12.0-0.71","610a52647a452dee7ca89360","650c16f0f2faf8d7a0d14c09","651c1e366464efa3e7a1f61e","null","null","<p style=""font-size: 60px; font-family: BACS"">JdGmJcL</p>","","","","","","","","",""
"html-keyboard-response","242","356083","0.0-12.0-0.72","610a52647a452dee7ca89360","650c16f0f2faf8d7a0d14c09","651c1e366464efa3e7a1f61e","null","null","<p style=""font-size: 60px; font-family: BACS"">EhbtDmh</p>","","","","","","","","",""
"html-keyboard-response","243","357095","0.0-12.0-0.73","610a52647a452dee7ca89360","650c16f0f2faf8d7a0d14c09","651c1e366464efa3e7a1f61e","null","null","<p style=""font-size: 60px; font-family: BACS"">aLNlkYZUZ</p>","","","","","","","","",""
"html-keyboard-response","244","358104","0.0-12.0-0.74","610a52647a452dee7ca89360","650c16f0f2faf8d7a0d14c09","651c1e366464efa3e7a1f61e","null","null","<p style=""font-size: 60px; font-family: BACS"">lYruarGl</p>","","","","","","","","",""
"html-keyboard-response","245","359116","0.0-12.0-0.75","610a52647a452dee7ca89360","650c16f0f2faf8d7a0d14c09","651c1e366464efa3e7a1f61e","null","null","<p style=""font-size: 60px; font-family: BACS"">bRABtcPK</p>","","","","","","","","",""
"html-keyboard-response","246","360130","0.0-12.0-0.76","610a52647a452dee7ca89360","650c16f0f2faf8d7a0d14c09","651c1e366464efa3e7a1f61e","null","null","<p style=""font-size: 60px; font-family: BACS"">DOchlAkd</p>","","","","","","","","",""
"html-keyboard-response","247","361138","0.0-12.0-0.77","610a52647a452dee7ca89360","650c16f0f2faf8d7a0d14c09","651c1e366464efa3e7a1f61e","null","null","<p style=""font-size: 60px; font-family: BACS"">hlctETRkY</p>","","","","","","","","",""
"html-keyboard-response","248","362148","0.0-12.0-0.78","610a52647a452dee7ca89360","650c16f0f2faf8d7a0d14c09","651c1e366464efa3e7a1f61e","null","null","<p style=""font-size: 60px; font-family: BACS"">JdGmrGl</p>","","","","","","","","",""
"html-keyboard-response","249","363160","0.0-12.0-0.79","610a52647a452dee7ca89360","650c16f0f2faf8d7a0d14c09","651c1e366464efa3e7a1f61e","null","null","<p style=""font-size: 60px; font-family: BACS"">OtlRcPK</p>","","","","","","","","",""
"html-keyboard-response","250","400391","0.0-13.0","610a52647a452dee7ca89360","650c16f0f2faf8d7a0d14c09","651c1e366464efa3e7a1f61e","37231"," ","<p>Great, you've seen the third block of words. You may now take a short break.</p>
      <p>Press the spacebar when you're ready to continue.</p>","","","","","","","","",""
"html-keyboard-response","251","401406","0.0-14.0-0.0","610a52647a452dee7ca89360","650c16f0f2faf8d7a0d14c09","651c1e366464efa3e7a1f61e","null","null","<p style=""font-size: 60px; font-family: BACS"">BOCRMmAM</p>","","","","","","","","",""
"html-keyboard-response","252","402419","0.0-14.0-0.1","610a52647a452dee7ca89360","650c16f0f2faf8d7a0d14c09","651c1e366464efa3e7a1f61e","null","null","<p style=""font-size: 60px; font-family: BACS"">lYruaYbN</p>","","","","","","","","",""
"html-keyboard-response","253","403430","0.0-14.0-0.2","610a52647a452dee7ca89360","650c16f0f2faf8d7a0d14c09","651c1e366464efa3e7a1f61e","null","null","<p style=""font-size: 60px; font-family: BACS"">hlctETRkY</p>","","","","","","","","",""
"html-keyboard-response","254","404442","0.0-14.0-0.3","610a52647a452dee7ca89360","650c16f0f2faf8d7a0d14c09","651c1e366464efa3e7a1f61e","null","null","<p style=""font-size: 60px; font-family: BACS"">bRABtDmh</p>","","","","","","","","",""
"html-keyboard-response","255","405452","0.0-14.0-0.4","610a52647a452dee7ca89360","650c16f0f2faf8d7a0d14c09","651c1e366464efa3e7a1f61e","null","null","<p style=""font-size: 60px; font-family: BACS"">OtlRcPK</p>","","","","","","","","",""
"html-keyboard-response","256","406461","0.0-14.0-0.5","610a52647a452dee7ca89360","650c16f0f2faf8d7a0d14c09","651c1e366464efa3e7a1f61e","null","null","<p style=""font-size: 60px; font-family: BACS"">BOCRMAkd</p>","","","","","","","","",""
"html-keyboard-response","257","407472","0.0-14.0-0.6","610a52647a452dee7ca89360","650c16f0f2faf8d7a0d14c09","651c1e366464efa3e7a1f61e","null","null","<p style=""font-size: 60px; font-family: BACS"">lBlETRkY</p>","","","","","","","","",""
"html-keyboard-response","258","408473","0.0-14.0-0.7","610a52647a452dee7ca89360","650c16f0f2faf8d7a0d14c09","651c1e366464efa3e7a1f61e","null","null","<p style=""font-size: 60px; font-family: BACS"">JdGmYbN</p>","","","","","","","","",""
"html-keyboard-response","259","409487","0.0-14.0-0.8","610a52647a452dee7ca89360","650c16f0f2faf8d7a0d14c09","651c1e366464efa3e7a1f61e","null","null","<p style=""font-size: 60px; font-family: BACS"">vmuLlrGl</p>","","","","","","","","",""
"html-keyboard-response","260","410498","0.0-14.0-0.9","610a52647a452dee7ca89360","650c16f0f2faf8d7a0d14c09","651c1e366464efa3e7a1f61e","null","null","<p style=""font-size: 60px; font-family: BACS"">OcYMTRkY</p>","","","","","","","","",""
"html-keyboard-response","261","411514","0.0-14.0-0.10","610a52647a452dee7ca89360","650c16f0f2faf8d7a0d14c09","651c1e366464efa3e7a1f61e","null","null","<p style=""font-size: 60px; font-family: BACS"">JdGmrGl</p>","","","","","","","","",""
"html-keyboard-response","262","412519","0.0-14.0-0.11","610a52647a452dee7ca89360","650c16f0f2faf8d7a0d14c09","651c1e366464efa3e7a1f61e","null","null","<p style=""font-size: 60px; font-family: BACS"">OcYMDmh</p>","","","","","","","","",""
"html-keyboard-response","263","413530","0.0-14.0-0.12","610a52647a452dee7ca89360","650c16f0f2faf8d7a0d14c09","651c1e366464efa3e7a1f61e","null","null","<p style=""font-size: 60px; font-family: BACS"">udkmYZUZ</p>","","","","","","","","",""
"html-keyboard-response","264","414540","0.0-14.0-0.13","610a52647a452dee7ca89360","650c16f0f2faf8d7a0d14c09","651c1e366464efa3e7a1f61e","null","null","<p style=""font-size: 60px; font-family: BACS"">DOchlcPK</p>","","","","","","","","",""
"html-keyboard-response","265","415552","0.0-14.0-0.14","610a52647a452dee7ca89360","650c16f0f2faf8d7a0d14c09","651c1e366464efa3e7a1f61e","null","null","<p style=""font-size: 60px; font-family: BACS"">OQarQYZUZ</p>","","","","","","","","",""
"html-keyboard-response","266","416567","0.0-14.0-0.15","610a52647a452dee7ca89360","650c16f0f2faf8d7a0d14c09","651c1e366464efa3e7a1f61e","null","null","<p style=""font-size: 60px; font-family: BACS"">lBlEmAM</p>","","","","","","","","",""
"html-keyboard-response","267","417583","0.0-14.0-0.16","610a52647a452dee7ca89360","650c16f0f2faf8d7a0d14c09","651c1e366464efa3e7a1f61e","null","null","<p style=""font-size: 60px; font-family: BACS"">bRABtAkd</p>","","","","","","","","",""
"html-keyboard-response","268","418597","0.0-14.0-0.17","610a52647a452dee7ca89360","650c16f0f2faf8d7a0d14c09","651c1e366464efa3e7a1f61e","null","null","<p style=""font-size: 60px; font-family: BACS"">hlbtbcPK</p>","","","","","","","","",""
"html-keyboard-response","269","419610","0.0-14.0-0.18","610a52647a452dee7ca89360","650c16f0f2faf8d7a0d14c09","651c1e366464efa3e7a1f61e","null","null","<p style=""font-size: 60px; font-family: BACS"">aUZAYZUZ</p>","","","","","","","","",""
"html-keyboard-response","270","420625","0.0-14.0-0.19","610a52647a452dee7ca89360","650c16f0f2faf8d7a0d14c09","651c1e366464efa3e7a1f61e","null","null","<p style=""font-size: 60px; font-family: BACS"">lYruaJcL</p>","","","","","","","","",""
"html-keyboard-response","271","421634","0.0-14.0-0.20","610a52647a452dee7ca89360","650c16f0f2faf8d7a0d14c09","651c1e366464efa3e7a1f61e","null","null","<p style=""font-size: 60px; font-family: BACS"">vmuLlcYUv</p>","","","","","","","","",""
"html-keyboard-response","272","422645","0.0-14.0-0.21","610a52647a452dee7ca89360","650c16f0f2faf8d7a0d14c09","651c1e366464efa3e7a1f61e","null","null","<p style=""font-size: 60px; font-family: BACS"">OtlRDmh</p>","","","","","","","","",""
"html-keyboard-response","273","423658","0.0-14.0-0.22","610a52647a452dee7ca89360","650c16f0f2faf8d7a0d14c09","651c1e366464efa3e7a1f61e","null","null","<p style=""font-size: 60px; font-family: BACS"">vmuLlYbN</p>","","","","","","","","",""
"html-keyboard-response","274","424668","0.0-14.0-0.23","610a52647a452dee7ca89360","650c16f0f2faf8d7a0d14c09","651c1e366464efa3e7a1f61e","null","null","<p style=""font-size: 60px; font-family: BACS"">lYruacYUv</p>","","","","","","","","",""
"html-keyboard-response","275","425670","0.0-14.0-0.24","610a52647a452dee7ca89360","650c16f0f2faf8d7a0d14c09","651c1e366464efa3e7a1f61e","null","null","<p style=""font-size: 60px; font-family: BACS"">ukYZrGl</p>","","","","","","","","",""
"html-keyboard-response","276","426675","0.0-14.0-0.25","610a52647a452dee7ca89360","650c16f0f2faf8d7a0d14c09","651c1e366464efa3e7a1f61e","null","null","<p style=""font-size: 60px; font-family: BACS"">hlbtbmAM</p>","","","","","","","","",""
"html-keyboard-response","277","427689","0.0-14.0-0.26","610a52647a452dee7ca89360","650c16f0f2faf8d7a0d14c09","651c1e366464efa3e7a1f61e","null","null","<p style=""font-size: 60px; font-family: BACS"">ukYZJcL</p>","","","","","","","","",""
"html-keyboard-response","278","428703","0.0-14.0-0.27","610a52647a452dee7ca89360","650c16f0f2faf8d7a0d14c09","651c1e366464efa3e7a1f61e","null","null","<p style=""font-size: 60px; font-family: BACS"">aUZAcYUv</p>","","","","","","","","",""
"html-keyboard-response","279","429718","0.0-14.0-0.28","610a52647a452dee7ca89360","650c16f0f2faf8d7a0d14c09","651c1e366464efa3e7a1f61e","null","null","<p style=""font-size: 60px; font-family: BACS"">aLNlkJcL</p>","","","","","","","","",""
"html-keyboard-response","280","430721","0.0-14.0-0.29","610a52647a452dee7ca89360","650c16f0f2faf8d7a0d14c09","651c1e366464efa3e7a1f61e","null","null","<p style=""font-size: 60px; font-family: BACS"">EhbtcPK</p>","","","","","","","","",""
"html-keyboard-response","281","431735","0.0-14.0-0.30","610a52647a452dee7ca89360","650c16f0f2faf8d7a0d14c09","651c1e366464efa3e7a1f61e","null","null","<p style=""font-size: 60px; font-family: BACS"">YZJmJcL</p>","","","","","","","","",""
"html-keyboard-response","282","432737","0.0-14.0-0.31","610a52647a452dee7ca89360","650c16f0f2faf8d7a0d14c09","651c1e366464efa3e7a1f61e","null","null","<p style=""font-size: 60px; font-family: BACS"">aLNlkYZUZ</p>","","","","","","","","",""
"html-keyboard-response","283","433739","0.0-14.0-0.32","610a52647a452dee7ca89360","650c16f0f2faf8d7a0d14c09","651c1e366464efa3e7a1f61e","null","null","<p style=""font-size: 60px; font-family: BACS"">BOCRMDmh</p>","","","","","","","","",""
"html-keyboard-response","284","434752","0.0-14.0-0.33","610a52647a452dee7ca89360","650c16f0f2faf8d7a0d14c09","651c1e366464efa3e7a1f61e","null","null","<p style=""font-size: 60px; font-family: BACS"">bRABtTRkY</p>","","","","","","","","",""
"html-keyboard-response","285","435753","0.0-14.0-0.34","610a52647a452dee7ca89360","650c16f0f2faf8d7a0d14c09","651c1e366464efa3e7a1f61e","null","null","<p style=""font-size: 60px; font-family: BACS"">ukYZYZUZ</p>","","","","","","","","",""
"html-keyboard-response","286","436761","0.0-14.0-0.35","610a52647a452dee7ca89360","650c16f0f2faf8d7a0d14c09","651c1e366464efa3e7a1f61e","null","null","<p style=""font-size: 60px; font-family: BACS"">hlbtbAkd</p>","","","","","","","","",""
"html-keyboard-response","287","437771","0.0-14.0-0.36","610a52647a452dee7ca89360","650c16f0f2faf8d7a0d14c09","651c1e366464efa3e7a1f61e","null","null","<p style=""font-size: 60px; font-family: BACS"">udkmcYUv</p>","","","","","","","","",""
"html-keyboard-response","288","438784","0.0-14.0-0.37","610a52647a452dee7ca89360","650c16f0f2faf8d7a0d14c09","651c1e366464efa3e7a1f61e","null","null","<p style=""font-size: 60px; font-family: BACS"">DOchlTRkY</p>","","","","","","","","",""
"html-keyboard-response","289","439790","0.0-14.0-0.38","610a52647a452dee7ca89360","650c16f0f2faf8d7a0d14c09","651c1e366464efa3e7a1f61e","null","null","<p style=""font-size: 60px; font-family: BACS"">OQarQrGl</p>","","","","","","","","",""
"html-keyboard-response","290","440798","0.0-14.0-0.39","610a52647a452dee7ca89360","650c16f0f2faf8d7a0d14c09","651c1e366464efa3e7a1f61e","null","null","<p style=""font-size: 60px; font-family: BACS"">YZJmYZUZ</p>","","","","","","","","",""
"html-keyboard-response","291","441813","0.0-14.0-0.40","610a52647a452dee7ca89360","650c16f0f2faf8d7a0d14c09","651c1e366464efa3e7a1f61e","null","null","<p style=""font-size: 60px; font-family: BACS"">EhbtmAM</p>","","","","","","","","",""
"html-keyboard-response","292","442816","0.0-14.0-0.41","610a52647a452dee7ca89360","650c16f0f2faf8d7a0d14c09","651c1e366464efa3e7a1f61e","null","null","<p style=""font-size: 60px; font-family: BACS"">JdGmJcL</p>","","","","","","","","",""
"html-keyboard-response","293","443819","0.0-14.0-0.42","610a52647a452dee7ca89360","650c16f0f2faf8d7a0d14c09","651c1e366464efa3e7a1f61e","null","null","<p style=""font-size: 60px; font-family: BACS"">udkmrGl</p>","","","","","","","","",""
"html-keyboard-response","294","444830","0.0-14.0-0.43","610a52647a452dee7ca89360","650c16f0f2faf8d7a0d14c09","651c1e366464efa3e7a1f61e","null","null","<p style=""font-size: 60px; font-family: BACS"">aUZAJcL</p>","","","","","","","","",""
"html-keyboard-response","295","445841","0.0-14.0-0.44","610a52647a452dee7ca89360","650c16f0f2faf8d7a0d14c09","651c1e366464efa3e7a1f61e","null","null","<p style=""font-size: 60px; font-family: BACS"">OQarQcYUv</p>","","","","","","","","",""
"html-keyboard-response","296","446852","0.0-14.0-0.45","610a52647a452dee7ca89360","650c16f0f2faf8d7a0d14c09","651c1e366464efa3e7a1f61e","null","null","<p style=""font-size: 60px; font-family: BACS"">hlbtbDmh</p>","","","","","","","","",""
"html-keyboard-response","297","447864","0.0-14.0-0.46","610a52647a452dee7ca89360","650c16f0f2faf8d7a0d14c09","651c1e366464efa3e7a1f61e","null","null","<p style=""font-size: 60px; font-family: BACS"">BKDRYAkd</p>","","","","","","","","",""
"html-keyboard-response","298","448881","0.0-14.0-0.47","610a52647a452dee7ca89360","650c16f0f2faf8d7a0d14c09","651c1e366464efa3e7a1f61e","null","null","<p style=""font-size: 60px; font-family: BACS"">YZJmYbN</p>","","","","","","","","",""
"html-keyboard-response","299","449891","0.0-14.0-0.48","610a52647a452dee7ca89360","650c16f0f2faf8d7a0d14c09","651c1e366464efa3e7a1f61e","null","null","<p style=""font-size: 60px; font-family: BACS"">BKDRYTRkY</p>","","","","","","","","",""
"html-keyboard-response","300","450905","0.0-14.0-0.49","610a52647a452dee7ca89360","650c16f0f2faf8d7a0d14c09","651c1e366464efa3e7a1f61e","null","null","<p style=""font-size: 60px; font-family: BACS"">JdGmYZUZ</p>","","","","","","","","",""
"html-keyboard-response","301","451914","0.0-14.0-0.50","610a52647a452dee7ca89360","650c16f0f2faf8d7a0d14c09","651c1e366464efa3e7a1f61e","null","null","<p style=""font-size: 60px; font-family: BACS"">ukYZYbN</p>","","","","","","","","",""
"html-keyboard-response","302","452925","0.0-14.0-0.51","610a52647a452dee7ca89360","650c16f0f2faf8d7a0d14c09","651c1e366464efa3e7a1f61e","null","null","<p style=""font-size: 60px; font-family: BACS"">BOCRMTRkY</p>","","","","","","","","",""
"html-keyboard-response","303","453939","0.0-14.0-0.52","610a52647a452dee7ca89360","650c16f0f2faf8d7a0d14c09","651c1e366464efa3e7a1f61e","null","null","<p style=""font-size: 60px; font-family: BACS"">dmZvmrGl</p>","","","","","","","","",""
"html-keyboard-response","304","454951","0.0-14.0-0.53","610a52647a452dee7ca89360","650c16f0f2faf8d7a0d14c09","651c1e366464efa3e7a1f61e","null","null","<p style=""font-size: 60px; font-family: BACS"">OtlRmAM</p>","","","","","","","","",""
"html-keyboard-response","305","455957","0.0-14.0-0.54","610a52647a452dee7ca89360","650c16f0f2faf8d7a0d14c09","651c1e366464efa3e7a1f61e","null","null","<p style=""font-size: 60px; font-family: BACS"">OQarQJcL</p>","","","","","","","","",""
"html-keyboard-response","306","456967","0.0-14.0-0.55","610a52647a452dee7ca89360","650c16f0f2faf8d7a0d14c09","651c1e366464efa3e7a1f61e","null","null","<p style=""font-size: 60px; font-family: BACS"">hlctEDmh</p>","","","","","","","","",""
"html-keyboard-response","307","457977","0.0-14.0-0.56","610a52647a452dee7ca89360","650c16f0f2faf8d7a0d14c09","651c1e366464efa3e7a1f61e","null","null","<p style=""font-size: 60px; font-family: BACS"">aUZArGl</p>","","","","","","","","",""
"html-keyboard-response","308","458985","0.0-14.0-0.57","610a52647a452dee7ca89360","650c16f0f2faf8d7a0d14c09","651c1e366464efa3e7a1f61e","null","null","<p style=""font-size: 60px; font-family: BACS"">dmZvmJcL</p>","","","","","","","","",""
"html-keyboard-response","309","459987","0.0-14.0-0.58","610a52647a452dee7ca89360","650c16f0f2faf8d7a0d14c09","651c1e366464efa3e7a1f61e","null","null","<p style=""font-size: 60px; font-family: BACS"">hlctEAkd</p>","","","","","","","","",""
"html-keyboard-response","310","460993","0.0-14.0-0.59","610a52647a452dee7ca89360","650c16f0f2faf8d7a0d14c09","651c1e366464efa3e7a1f61e","null","null","<p style=""font-size: 60px; font-family: BACS"">lBlEDmh</p>","","","","","","","","",""
"html-keyboard-response","311","462000","0.0-14.0-0.60","610a52647a452dee7ca89360","650c16f0f2faf8d7a0d14c09","651c1e366464efa3e7a1f61e","null","null","<p style=""font-size: 60px; font-family: BACS"">OcYMmAM</p>","","","","","","","","",""
"html-keyboard-response","312","463010","0.0-14.0-0.61","610a52647a452dee7ca89360","650c16f0f2faf8d7a0d14c09","651c1e366464efa3e7a1f61e","null","null","<p style=""font-size: 60px; font-family: BACS"">DOchlAkd</p>","","","","","","","","",""
"html-keyboard-response","313","464023","0.0-14.0-0.62","610a52647a452dee7ca89360","650c16f0f2faf8d7a0d14c09","651c1e366464efa3e7a1f61e","null","null","<p style=""font-size: 60px; font-family: BACS"">dmZvmYbN</p>","","","","","","","","",""
"html-keyboard-response","314","465035","0.0-14.0-0.63","610a52647a452dee7ca89360","650c16f0f2faf8d7a0d14c09","651c1e366464efa3e7a1f61e","null","null","<p style=""font-size: 60px; font-family: BACS"">aLNlkcYUv</p>","","","","","","","","",""
"html-keyboard-response","315","466049","0.0-14.0-0.64","610a52647a452dee7ca89360","650c16f0f2faf8d7a0d14c09","651c1e366464efa3e7a1f61e","null","null","<p style=""font-size: 60px; font-family: BACS"">bRABtcPK</p>","","","","","","","","",""
"html-keyboard-response","316","467060","0.0-14.0-0.65","610a52647a452dee7ca89360","650c16f0f2faf8d7a0d14c09","651c1e366464efa3e7a1f61e","null","null","<p style=""font-size: 60px; font-family: BACS"">YZJmcYUv</p>","","","","","","","","",""
"html-keyboard-response","317","468074","0.0-14.0-0.66","610a52647a452dee7ca89360","650c16f0f2faf8d7a0d14c09","651c1e366464efa3e7a1f61e","null","null","<p style=""font-size: 60px; font-family: BACS"">udkmYbN</p>","","","","","","","","",""
"html-keyboard-response","318","469084","0.0-14.0-0.67","610a52647a452dee7ca89360","650c16f0f2faf8d7a0d14c09","651c1e366464efa3e7a1f61e","null","null","<p style=""font-size: 60px; font-family: BACS"">DOchlmAM</p>","","","","","","","","",""
"html-keyboard-response","319","470085","0.0-14.0-0.68","610a52647a452dee7ca89360","650c16f0f2faf8d7a0d14c09","651c1e366464efa3e7a1f61e","null","null","<p style=""font-size: 60px; font-family: BACS"">OcYMAkd</p>","","","","","","","","",""
"html-keyboard-response","320","471091","0.0-14.0-0.69","610a52647a452dee7ca89360","650c16f0f2faf8d7a0d14c09","651c1e366464efa3e7a1f61e","null","null","<p style=""font-size: 60px; font-family: BACS"">hlctEcPK</p>","","","","","","","","",""
"html-keyboard-response","321","472099","0.0-14.0-0.70","610a52647a452dee7ca89360","650c16f0f2faf8d7a0d14c09","651c1e366464efa3e7a1f61e","null","null","<p style=""font-size: 60px; font-family: BACS"">vmuLlYZUZ</p>","","","","","","","","",""
"html-keyboard-response","322","473108","0.0-14.0-0.71","610a52647a452dee7ca89360","650c16f0f2faf8d7a0d14c09","651c1e366464efa3e7a1f61e","null","null","<p style=""font-size: 60px; font-family: BACS"">EhbtAkd</p>","","","","","","","","",""
"html-keyboard-response","323","474121","0.0-14.0-0.72","610a52647a452dee7ca89360","650c16f0f2faf8d7a0d14c09","651c1e366464efa3e7a1f61e","null","null","<p style=""font-size: 60px; font-family: BACS"">BKDRYcPK</p>","","","","","","","","",""
"html-keyboard-response","324","475131","0.0-14.0-0.73","610a52647a452dee7ca89360","650c16f0f2faf8d7a0d14c09","651c1e366464efa3e7a1f61e","null","null","<p style=""font-size: 60px; font-family: BACS"">aLNlkYbN</p>","","","","","","","","",""
"html-keyboard-response","325","476140","0.0-14.0-0.74","610a52647a452dee7ca89360","650c16f0f2faf8d7a0d14c09","651c1e366464efa3e7a1f61e","null","null","<p style=""font-size: 60px; font-family: BACS"">EhbtDmh</p>","","","","","","","","",""
"html-keyboard-response","326","477156","0.0-14.0-0.75","610a52647a452dee7ca89360","650c16f0f2faf8d7a0d14c09","651c1e366464efa3e7a1f61e","null","null","<p style=""font-size: 60px; font-family: BACS"">dmZvmcYUv</p>","","","","","","","","",""
"html-keyboard-response","327","478171","0.0-14.0-0.76","610a52647a452dee7ca89360","650c16f0f2faf8d7a0d14c09","651c1e366464efa3e7a1f61e","null","null","<p style=""font-size: 60px; font-family: BACS"">lYruarGl</p>","","","","","","","","",""
"html-keyboard-response","328","479181","0.0-14.0-0.77","610a52647a452dee7ca89360","650c16f0f2faf8d7a0d14c09","651c1e366464efa3e7a1f61e","null","null","<p style=""font-size: 60px; font-family: BACS"">OtlRTRkY</p>","","","","","","","","",""
"html-keyboard-response","329","480184","0.0-14.0-0.78","610a52647a452dee7ca89360","650c16f0f2faf8d7a0d14c09","651c1e366464efa3e7a1f61e","null","null","<p style=""font-size: 60px; font-family: BACS"">BKDRYmAM</p>","","","","","","","","",""
"html-keyboard-response","330","481193","0.0-14.0-0.79","610a52647a452dee7ca89360","650c16f0f2faf8d7a0d14c09","651c1e366464efa3e7a1f61e","null","null","<p style=""font-size: 60px; font-family: BACS"">lBlEcPK</p>","","","","","","","","",""
"html-keyboard-response","331","517822","0.0-15.0","610a52647a452dee7ca89360","650c16f0f2faf8d7a0d14c09","651c1e366464efa3e7a1f61e","36628"," ","<p>Great, you've seen the fourth block of words. You may now take a short break.</p>
      <p>Press the spacebar when you're ready to continue.</p>","","","","","","","","",""
"html-keyboard-response","332","518829","0.0-16.0-0.0","610a52647a452dee7ca89360","650c16f0f2faf8d7a0d14c09","651c1e366464efa3e7a1f61e","null","null","<p style=""font-size: 60px; font-family: BACS"">ukYZJcL</p>","","","","","","","","",""
"html-keyboard-response","333","519840","0.0-16.0-0.1","610a52647a452dee7ca89360","650c16f0f2faf8d7a0d14c09","651c1e366464efa3e7a1f61e","null","null","<p style=""font-size: 60px; font-family: BACS"">ukYZJcL</p>","","","","","","","","",""
"html-keyboard-response","334","520842","0.0-16.0-0.2","610a52647a452dee7ca89360","650c16f0f2faf8d7a0d14c09","651c1e366464efa3e7a1f61e","null","null","<p style=""font-size: 60px; font-family: BACS"">ukYZJcL</p>","","","","","","","","",""
"html-keyboard-response","335","521852","0.0-16.0-0.3","610a52647a452dee7ca89360","650c16f0f2faf8d7a0d14c09","651c1e366464efa3e7a1f61e","null","null","<p style=""font-size: 60px; font-family: BACS"">ukYZJcL</p>","","","","","","","","",""
"html-keyboard-response","336","522859","0.0-16.0-0.4","610a52647a452dee7ca89360","650c16f0f2faf8d7a0d14c09","651c1e366464efa3e7a1f61e","null","null","<p style=""font-size: 60px; font-family: BACS"">ukYZJcL</p>","","","","","","","","",""
"html-keyboard-response","337","523872","0.0-16.0-0.5","610a52647a452dee7ca89360","650c16f0f2faf8d7a0d14c09","651c1e366464efa3e7a1f61e","null","null","<p style=""font-size: 60px; font-family: BACS"">ukYZJcL</p>","","","","","","","","",""
"html-keyboard-response","338","524886","0.0-16.0-0.6","610a52647a452dee7ca89360","650c16f0f2faf8d7a0d14c09","651c1e366464efa3e7a1f61e","null","null","<p style=""font-size: 60px; font-family: BACS"">ukYZJcL</p>","","","","","","","","",""
"html-keyboard-response","339","525896","0.0-16.0-0.7","610a52647a452dee7ca89360","650c16f0f2faf8d7a0d14c09","651c1e366464efa3e7a1f61e","null","null","<p style=""font-size: 60px; font-family: BACS"">ukYZJcL</p>","","","","","","","","",""
"html-keyboard-response","340","526907","0.0-16.0-0.8","610a52647a452dee7ca89360","650c16f0f2faf8d7a0d14c09","651c1e366464efa3e7a1f61e","null","null","<p style=""font-size: 60px; font-family: BACS"">ukYZJcL</p>","","","","","","","","",""
"html-keyboard-response","341","527919","0.0-16.0-0.9","610a52647a452dee7ca89360","650c16f0f2faf8d7a0d14c09","651c1e366464efa3e7a1f61e","null","null","<p style=""font-size: 60px; font-family: BACS"">ukYZJcL</p>","","","","","","","","",""
"html-keyboard-response","342","528926","0.0-16.0-0.10","610a52647a452dee7ca89360","650c16f0f2faf8d7a0d14c09","651c1e366464efa3e7a1f61e","null","null","<p style=""font-size: 60px; font-family: BACS"">ukYZJcL</p>","","","","","","","","",""
"html-keyboard-response","343","529936","0.0-16.0-0.11","610a52647a452dee7ca89360","650c16f0f2faf8d7a0d14c09","651c1e366464efa3e7a1f61e","null","null","<p style=""font-size: 60px; font-family: BACS"">ukYZJcL</p>","","","","","","","","",""
"html-keyboard-response","344","530949","0.0-16.0-0.12","610a52647a452dee7ca89360","650c16f0f2faf8d7a0d14c09","651c1e366464efa3e7a1f61e","null","null","<p style=""font-size: 60px; font-family: BACS"">ukYZJcL</p>","","","","","","","","",""
"html-keyboard-response","345","531961","0.0-16.0-0.13","610a52647a452dee7ca89360","650c16f0f2faf8d7a0d14c09","651c1e366464efa3e7a1f61e","null","null","<p style=""font-size: 60px; font-family: BACS"">ukYZJcL</p>","","","","","","","","",""
"html-keyboard-response","346","532972","0.0-16.0-0.14","610a52647a452dee7ca89360","650c16f0f2faf8d7a0d14c09","651c1e366464efa3e7a1f61e","null","null","<p style=""font-size: 60px; font-family: BACS"">ukYZJcL</p>","","","","","","","","",""
"html-keyboard-response","347","533985","0.0-16.0-0.15","610a52647a452dee7ca89360","650c16f0f2faf8d7a0d14c09","651c1e366464efa3e7a1f61e","null","null","<p style=""font-size: 60px; font-family: BACS"">ukYZJcL</p>","","","","","","","","",""
"html-keyboard-response","348","535000","0.0-16.0-0.16","610a52647a452dee7ca89360","650c16f0f2faf8d7a0d14c09","651c1e366464efa3e7a1f61e","null","null","<p style=""font-size: 60px; font-family: BACS"">ukYZJcL</p>","","","","","","","","",""
"html-keyboard-response","349","536005","0.0-16.0-0.17","610a52647a452dee7ca89360","650c16f0f2faf8d7a0d14c09","651c1e366464efa3e7a1f61e","null","null","<p style=""font-size: 60px; font-family: BACS"">ukYZJcL</p>","","","","","","","","",""
"html-keyboard-response","350","537019","0.0-16.0-0.18","610a52647a452dee7ca89360","650c16f0f2faf8d7a0d14c09","651c1e366464efa3e7a1f61e","null","null","<p style=""font-size: 60px; font-family: BACS"">ukYZJcL</p>","","","","","","","","",""
"html-keyboard-response","351","538032","0.0-16.0-0.19","610a52647a452dee7ca89360","650c16f0f2faf8d7a0d14c09","651c1e366464efa3e7a1f61e","null","null","<p style=""font-size: 60px; font-family: BACS"">ukYZJcL</p>","","","","","","","","",""
"html-keyboard-response","352","539043","0.0-16.0-0.20","610a52647a452dee7ca89360","650c16f0f2faf8d7a0d14c09","651c1e366464efa3e7a1f61e","null","null","<p style=""font-size: 60px; font-family: BACS"">ukYZJcL</p>","","","","","","","","",""
"html-keyboard-response","353","540053","0.0-16.0-0.21","610a52647a452dee7ca89360","650c16f0f2faf8d7a0d14c09","651c1e366464efa3e7a1f61e","null","null","<p style=""font-size: 60px; font-family: BACS"">ukYZJcL</p>","","","","","","","","",""
"html-keyboard-response","354","541068","0.0-16.0-0.22","610a52647a452dee7ca89360","650c16f0f2faf8d7a0d14c09","651c1e366464efa3e7a1f61e","null","null","<p style=""font-size: 60px; font-family: BACS"">ukYZJcL</p>","","","","","","","","",""
"html-keyboard-response","355","542083","0.0-16.0-0.23","610a52647a452dee7ca89360","650c16f0f2faf8d7a0d14c09","651c1e366464efa3e7a1f61e","null","null","<p style=""font-size: 60px; font-family: BACS"">ukYZJcL</p>","","","","","","","","",""
"html-keyboard-response","356","543097","0.0-16.0-0.24","610a52647a452dee7ca89360","650c16f0f2faf8d7a0d14c09","651c1e366464efa3e7a1f61e","null","null","<p style=""font-size: 60px; font-family: BACS"">ukYZJcL</p>","","","","","","","","",""
"html-keyboard-response","357","544112","0.0-16.0-0.25","610a52647a452dee7ca89360","650c16f0f2faf8d7a0d14c09","651c1e366464efa3e7a1f61e","null","null","<p style=""font-size: 60px; font-family: BACS"">ukYZJcL</p>","","","","","","","","",""
"html-keyboard-response","358","545127","0.0-16.0-0.26","610a52647a452dee7ca89360","650c16f0f2faf8d7a0d14c09","651c1e366464efa3e7a1f61e","null","null","<p style=""font-size: 60px; font-family: BACS"">ukYZJcL</p>","","","","","","","","",""
"html-keyboard-response","359","546141","0.0-16.0-0.27","610a52647a452dee7ca89360","650c16f0f2faf8d7a0d14c09","651c1e366464efa3e7a1f61e","null","null","<p style=""font-size: 60px; font-family: BACS"">ukYZJcL</p>","","","","","","","","",""
"html-keyboard-response","360","547152","0.0-16.0-0.28","610a52647a452dee7ca89360","650c16f0f2faf8d7a0d14c09","651c1e366464efa3e7a1f61e","null","null","<p style=""font-size: 60px; font-family: BACS"">ukYZJcL</p>","","","","","","","","",""
"html-keyboard-response","361","548161","0.0-16.0-0.29","610a52647a452dee7ca89360","650c16f0f2faf8d7a0d14c09","651c1e366464efa3e7a1f61e","null","null","<p style=""font-size: 60px; font-family: BACS"">ukYZJcL</p>","","","","","","","","",""
"html-keyboard-response","362","549175","0.0-16.0-0.30","610a52647a452dee7ca89360","650c16f0f2faf8d7a0d14c09","651c1e366464efa3e7a1f61e","null","null","<p style=""font-size: 60px; font-family: BACS"">ukYZJcL</p>","","","","","","","","",""
"html-keyboard-response","363","550190","0.0-16.0-0.31","610a52647a452dee7ca89360","650c16f0f2faf8d7a0d14c09","651c1e366464efa3e7a1f61e","null","null","<p style=""font-size: 60px; font-family: BACS"">ukYZJcL</p>","","","","","","","","",""
"html-keyboard-response","364","551191","0.0-16.0-0.32","610a52647a452dee7ca89360","650c16f0f2faf8d7a0d14c09","651c1e366464efa3e7a1f61e","null","null","<p style=""font-size: 60px; font-family: BACS"">ukYZJcL</p>","","","","","","","","",""
"html-keyboard-response","365","552205","0.0-16.0-0.33","610a52647a452dee7ca89360","650c16f0f2faf8d7a0d14c09","651c1e366464efa3e7a1f61e","null","null","<p style=""font-size: 60px; font-family: BACS"">ukYZJcL</p>","","","","","","","","",""
"html-keyboard-response","366","553219","0.0-16.0-0.34","610a52647a452dee7ca89360","650c16f0f2faf8d7a0d14c09","651c1e366464efa3e7a1f61e","null","null","<p style=""font-size: 60px; font-family: BACS"">ukYZJcL</p>","","","","","","","","",""
"html-keyboard-response","367","554235","0.0-16.0-0.35","610a52647a452dee7ca89360","650c16f0f2faf8d7a0d14c09","651c1e366464efa3e7a1f61e","null","null","<p style=""font-size: 60px; font-family: BACS"">ukYZJcL</p>","","","","","","","","",""
"html-keyboard-response","368","555244","0.0-16.0-0.36","610a52647a452dee7ca89360","650c16f0f2faf8d7a0d14c09","651c1e366464efa3e7a1f61e","null","null","<p style=""font-size: 60px; font-family: BACS"">ukYZJcL</p>","","","","","","","","",""
"html-keyboard-response","369","556256","0.0-16.0-0.37","610a52647a452dee7ca89360","650c16f0f2faf8d7a0d14c09","651c1e366464efa3e7a1f61e","null","null","<p style=""font-size: 60px; font-family: BACS"">ukYZJcL</p>","","","","","","","","",""
"html-keyboard-response","370","557269","0.0-16.0-0.38","610a52647a452dee7ca89360","650c16f0f2faf8d7a0d14c09","651c1e366464efa3e7a1f61e","null","null","<p style=""font-size: 60px; font-family: BACS"">ukYZJcL</p>","","","","","","","","",""
"html-keyboard-response","371","558279","0.0-16.0-0.39","610a52647a452dee7ca89360","650c16f0f2faf8d7a0d14c09","651c1e366464efa3e7a1f61e","null","null","<p style=""font-size: 60px; font-family: BACS"">ukYZJcL</p>","","","","","","","","",""
"html-keyboard-response","372","559280","0.0-16.0-0.40","610a52647a452dee7ca89360","650c16f0f2faf8d7a0d14c09","651c1e366464efa3e7a1f61e","null","null","<p style=""font-size: 60px; font-family: BACS"">ukYZJcL</p>","","","","","","","","",""
"html-keyboard-response","373","560293","0.0-16.0-0.41","610a52647a452dee7ca89360","650c16f0f2faf8d7a0d14c09","651c1e366464efa3e7a1f61e","null","null","<p style=""font-size: 60px; font-family: BACS"">ukYZJcL</p>","","","","","","","","",""
"html-keyboard-response","374","561308","0.0-16.0-0.42","610a52647a452dee7ca89360","650c16f0f2faf8d7a0d14c09","651c1e366464efa3e7a1f61e","null","null","<p style=""font-size: 60px; font-family: BACS"">ukYZJcL</p>","","","","","","","","",""
"html-keyboard-response","375","562320","0.0-16.0-0.43","610a52647a452dee7ca89360","650c16f0f2faf8d7a0d14c09","651c1e366464efa3e7a1f61e","null","null","<p style=""font-size: 60px; font-family: BACS"">ukYZJcL</p>","","","","","","","","",""
"html-keyboard-response","376","563332","0.0-16.0-0.44","610a52647a452dee7ca89360","650c16f0f2faf8d7a0d14c09","651c1e366464efa3e7a1f61e","null","null","<p style=""font-size: 60px; font-family: BACS"">ukYZJcL</p>","","","","","","","","",""
"html-keyboard-response","377","564346","0.0-16.0-0.45","610a52647a452dee7ca89360","650c16f0f2faf8d7a0d14c09","651c1e366464efa3e7a1f61e","null","null","<p style=""font-size: 60px; font-family: BACS"">ukYZJcL</p>","","","","","","","","",""
"html-keyboard-response","378","565359","0.0-16.0-0.46","610a52647a452dee7ca89360","650c16f0f2faf8d7a0d14c09","651c1e366464efa3e7a1f61e","null","null","<p style=""font-size: 60px; font-family: BACS"">ukYZJcL</p>","","","","","","","","",""
"html-keyboard-response","379","566372","0.0-16.0-0.47","610a52647a452dee7ca89360","650c16f0f2faf8d7a0d14c09","651c1e366464efa3e7a1f61e","null","null","<p style=""font-size: 60px; font-family: BACS"">ukYZJcL</p>","","","","","","","","",""
"html-keyboard-response","380","567386","0.0-16.0-0.48","610a52647a452dee7ca89360","650c16f0f2faf8d7a0d14c09","651c1e366464efa3e7a1f61e","null","null","<p style=""font-size: 60px; font-family: BACS"">ukYZJcL</p>","","","","","","","","",""
"html-keyboard-response","381","568388","0.0-16.0-0.49","610a52647a452dee7ca89360","650c16f0f2faf8d7a0d14c09","651c1e366464efa3e7a1f61e","null","null","<p style=""font-size: 60px; font-family: BACS"">ukYZJcL</p>","","","","","","","","",""
"html-keyboard-response","382","569392","0.0-16.0-0.50","610a52647a452dee7ca89360","650c16f0f2faf8d7a0d14c09","651c1e366464efa3e7a1f61e","null","null","<p style=""font-size: 60px; font-family: BACS"">ukYZJcL</p>","","","","","","","","",""
"html-keyboard-response","383","570403","0.0-16.0-0.51","610a52647a452dee7ca89360","650c16f0f2faf8d7a0d14c09","651c1e366464efa3e7a1f61e","null","null","<p style=""font-size: 60px; font-family: BACS"">ukYZJcL</p>","","","","","","","","",""
"html-keyboard-response","384","571414","0.0-16.0-0.52","610a52647a452dee7ca89360","650c16f0f2faf8d7a0d14c09","651c1e366464efa3e7a1f61e","null","null","<p style=""font-size: 60px; font-family: BACS"">ukYZJcL</p>","","","","","","","","",""
"html-keyboard-response","385","572424","0.0-16.0-0.53","610a52647a452dee7ca89360","650c16f0f2faf8d7a0d14c09","651c1e366464efa3e7a1f61e","null","null","<p style=""font-size: 60px; font-family: BACS"">ukYZJcL</p>","","","","","","","","",""
"html-keyboard-response","386","573440","0.0-16.0-0.54","610a52647a452dee7ca89360","650c16f0f2faf8d7a0d14c09","651c1e366464efa3e7a1f61e","null","null","<p style=""font-size: 60px; font-family: BACS"">ukYZJcL</p>","","","","","","","","",""
"html-keyboard-response","387","574451","0.0-16.0-0.55","610a52647a452dee7ca89360","650c16f0f2faf8d7a0d14c09","651c1e366464efa3e7a1f61e","null","null","<p style=""font-size: 60px; font-family: BACS"">ukYZJcL</p>","","","","","","","","",""
"html-keyboard-response","388","575463","0.0-16.0-0.56","610a52647a452dee7ca89360","650c16f0f2faf8d7a0d14c09","651c1e366464efa3e7a1f61e","null","null","<p style=""font-size: 60px; font-family: BACS"">ukYZJcL</p>","","","","","","","","",""
"html-keyboard-response","389","576476","0.0-16.0-0.57","610a52647a452dee7ca89360","650c16f0f2faf8d7a0d14c09","651c1e366464efa3e7a1f61e","null","null","<p style=""font-size: 60px; font-family: BACS"">ukYZJcL</p>","","","","","","","","",""
"html-keyboard-response","390","577489","0.0-16.0-0.58","610a52647a452dee7ca89360","650c16f0f2faf8d7a0d14c09","651c1e366464efa3e7a1f61e","null","null","<p style=""font-size: 60px; font-family: BACS"">ukYZJcL</p>","","","","","","","","",""
"html-keyboard-response","391","578502","0.0-16.0-0.59","610a52647a452dee7ca89360","650c16f0f2faf8d7a0d14c09","651c1e366464efa3e7a1f61e","null","null","<p style=""font-size: 60px; font-family: BACS"">ukYZJcL</p>","","","","","","","","",""
"html-keyboard-response","392","579516","0.0-16.0-0.60","610a52647a452dee7ca89360","650c16f0f2faf8d7a0d14c09","651c1e366464efa3e7a1f61e","null","null","<p style=""font-size: 60px; font-family: BACS"">ukYZJcL</p>","","","","","","","","",""
"html-keyboard-response","393","580528","0.0-16.0-0.61","610a52647a452dee7ca89360","650c16f0f2faf8d7a0d14c09","651c1e366464efa3e7a1f61e","null","null","<p style=""font-size: 60px; font-family: BACS"">ukYZJcL</p>","","","","","","","","",""
"html-keyboard-response","394","581539","0.0-16.0-0.62","610a52647a452dee7ca89360","650c16f0f2faf8d7a0d14c09","651c1e366464efa3e7a1f61e","null","null","<p style=""font-size: 60px; font-family: BACS"">ukYZJcL</p>","","","","","","","","",""
"html-keyboard-response","395","582550","0.0-16.0-0.63","610a52647a452dee7ca89360","650c16f0f2faf8d7a0d14c09","651c1e366464efa3e7a1f61e","null","null","<p style=""font-size: 60px; font-family: BACS"">ukYZJcL</p>","","","","","","","","",""
"html-keyboard-response","396","583560","0.0-16.0-0.64","610a52647a452dee7ca89360","650c16f0f2faf8d7a0d14c09","651c1e366464efa3e7a1f61e","null","null","<p style=""font-size: 60px; font-family: BACS"">ukYZJcL</p>","","","","","","","","",""
"html-keyboard-response","397","584569","0.0-16.0-0.65","610a52647a452dee7ca89360","650c16f0f2faf8d7a0d14c09","651c1e366464efa3e7a1f61e","null","null","<p style=""font-size: 60px; font-family: BACS"">ukYZJcL</p>","","","","","","","","",""
"html-keyboard-response","398","585582","0.0-16.0-0.66","610a52647a452dee7ca89360","650c16f0f2faf8d7a0d14c09","651c1e366464efa3e7a1f61e","null","null","<p style=""font-size: 60px; font-family: BACS"">ukYZJcL</p>","","","","","","","","",""
"html-keyboard-response","399","586597","0.0-16.0-0.67","610a52647a452dee7ca89360","650c16f0f2faf8d7a0d14c09","651c1e366464efa3e7a1f61e","null","null","<p style=""font-size: 60px; font-family: BACS"">ukYZJcL</p>","","","","","","","","",""
"html-keyboard-response","400","587612","0.0-16.0-0.68","610a52647a452dee7ca89360","650c16f0f2faf8d7a0d14c09","651c1e366464efa3e7a1f61e","null","null","<p style=""font-size: 60px; font-family: BACS"">ukYZJcL</p>","","","","","","","","",""
