"trial_type","trial_index","time_elapsed","internal_node_id","subject_id","study_id","session_id","rt","response","stimulus","success","item","task","correct_response","correct","target","confound","name"
"pavlovia","0","2892","0.0-0.0","59aaf4b1321f870001d16f6c","64b003020eef62ee308107cc","64b1152ad9071683d62814c0","","","","","","","","","","",""
"survey-html-form","1","12833","0.0-1.0","59aaf4b1321f870001d16f6c","64b003020eef62ee308107cc","64b1152ad9071683d62814c0","9940","{""ID"":""59aaf4b1321f870001d16f6c""}","","","","","","","","",""
"html-keyboard-response","2","30732","0.0-2.0","59aaf4b1321f870001d16f6c","64b003020eef62ee308107cc","64b1152ad9071683d62814c0","17898"," ","<p style=""font-size: 15px;"">Prima di cominciare, le chiediamo di leggere il modulo di consenso informato e confermare la sua volontà di partecipare all'esperimento.</p>
      <p style=""font-size: 15px;""> La preghiamo di ricordare che questo è un progetto di ricerca e che la sua partecipazione è completamente volontaria. Lei si potra' ritirare in qualunque momento, senza necessariamente dover dare alcuna spiegazione. Lo studio al quale Le si chiede di partecipare ha lo scopo di esaminare come i lettori elaborano le parole scritte. La somministrazione delle prove è individuale. Lei sarà impegnato in una sessione di lavoro della durata media di 10 minuti, e un questionario di 10 minuti. L’ordine delle prove ed il loro svolgimento sono stabiliti in modo tale da evitare un eventuale affaticamento. Tutte le prove saranno precedute da un breve addestramento in modo tale che abbia la possibilità di familiarizzare con il compito. Sono previste alcune pause nel corso dello svolgimento dell’esperimento. Una ricompensa di £4 (£8 per ora) Le verrà consegnata al termine della sessione di testing. Nonostante il testing preveda delle prove cognitive, il presente esperimento non costituisce una prova clinica che permetta la diagnosi di eventuali patologie.</p>
      <p style=""font-size: 15px;"">Tutti i dati raccolti grazie alla partecipazione Sua e di altre persone volontarie saranno custoditi in server sicuri e protetti da password, e non sarà consentito ad alcuna persona non autorizzata di accedervi. Le Sue informazioni personali saranno conservate separatamente dai risultati della presente ricerca, cui saranno associati soltanto attraverso un ID arbitrario. Grazie a questo processo di anonimizzazione dei dati, a nessun ricercatore sarà possibile analizzare i risultati sapendo da quale specifico partecipante essi provengono. Inoltre, questa procedura renderà impossibile la Sua identificazione anche nel momento in cui i risultati della ricerca fossero pubblicati su riviste scientifiche, o presentati a congressi o in qualsiasi altro pubblico consesso. Più in generale, i dati raccolti saranno trattati in accordo con le leggi sulla privacy e in conformità al Decreto Legislativo 30 giugno 2003 n. 196 “Codice in materia di protezione dei dati personali” e al Regolamento Europeo 2016/679 (General Data Protection Regulation - GDPR). Il Responsabile della protezione dei dati (RPD) è l’Avv. Valentina Carollo che può essere contattato ai seguenti indirizzi email: <a href=""mailto:dpo@sissa.it"">dpo@sissa.it</a> oppure <a href=""mailto:rpd@sissa.it"">rpd@sissa.it</a> - PEC: <a href=""mailto:protocollo@pec.sissa.it"">protocollo@pec.sissa.it</a>.</p>
      <p style=""font-size: 15px;""> Prima di esprimere il suo consenso alla partecipazione, Le ricordiamo ancora che in caso Lei abbia bisogno di delucidazioni su qualunque aspetto della procedura sperimentale, il ricercatore è a Sua completa disposizione (<a href=""mailto:aliebelt@sissa.it"">aliebelt@sissa.it</a>, <a href=""mailto:davide.crepaldi@sissa.it"">davide.crepaldi@sissa.it</a>).</p>
      <p style=""font-size: 15px;"">Se vuole scaricare il modulo di consenso informato, clicca qui: <a href=""BASL_modulo_consenso.pdf"" download>modulo di consenso</a>.</p>
      <p style=""font-size: 15px;""> Le chiediamo di premere la barra per continuare al consenso.</p>","","","","","","","",""
"survey-html-form","3","46467","0.0-3.0","59aaf4b1321f870001d16f6c","64b003020eef62ee308107cc","64b1152ad9071683d62814c0","15735","{""consent1"":""YES"",""consent2"":""YES"",""consent3"":""YES"",""consent4"":""YES"",""consent5"":""YES"",""consent6"":""YES""}","","","","","","","","",""
"fullscreen","4","56516","0.0-4.0","59aaf4b1321f870001d16f6c","64b003020eef62ee308107cc","64b1152ad9071683d62814c0","","","","true","","","","","","",""
"html-keyboard-response","5","125477","0.0-5.0","59aaf4b1321f870001d16f6c","64b003020eef62ee308107cc","64b1152ad9071683d62814c0","68960"," ","<p>Benvenuta/o, e grazie mille del tuo tempo!</p>
      <p>In questo esperimento sarai un esperto/un'esperta di linguaggio cui è stato chiesto di dare un'occhiata ad alcuni messaggi che la Terra ha ricevuto dallo spazio. Il tuo compito, in questa prima parte dell'esperimento, sarà di fare molta attenzione alle parole che ti verranno mostrate; più tardi, i leader del mondo ti chiederanno qualche informazione su quello che hai visto. Le parole si susseguiranno abbastanza velocemente; sembra che questi alieni abbiano una certa fretta :-) </p>
      <p>Per favore, chiama lo sperimentatore se ha qualche domanda.</p><p>Premi la barra per continuare.</p>","","","","","","","",""
"html-keyboard-response","6","133663","0.0-6.0","59aaf4b1321f870001d16f6c","64b003020eef62ee308107cc","64b1152ad9071683d62814c0","8186"," ","<p>Ecco un esempio delle parole che vedrai:</p>
      <img src='esempio.png' height='400px'>
      <p>Quando sei pronti per iniziare, premi la barra.</p></div>","","","","","","","",""
"html-keyboard-response","7","134671","0.0-7.0-0.0","59aaf4b1321f870001d16f6c","64b003020eef62ee308107cc","64b1152ad9071683d62814c0","null","null","<p style=""font-size: 60px; font-family: BACS"">JdOAYJUNa</p>","","","","","","","",""
"html-keyboard-response","8","135682","0.0-7.0-0.1","59aaf4b1321f870001d16f6c","64b003020eef62ee308107cc","64b1152ad9071683d62814c0","null","null","<p style=""font-size: 60px; font-family: BACS"">ZcGdNkJdr</p>","","","","","","","",""
"html-keyboard-response","9","136695","0.0-7.0-0.2","59aaf4b1321f870001d16f6c","64b003020eef62ee308107cc","64b1152ad9071683d62814c0","null","null","<p style=""font-size: 60px; font-family: BACS"">bGuOJUNa</p>","","","","","","","",""
"html-keyboard-response","10","137697","0.0-7.0-0.3","59aaf4b1321f870001d16f6c","64b003020eef62ee308107cc","64b1152ad9071683d62814c0","null","null","<p style=""font-size: 60px; font-family: BACS"">AdDbYDE</p>","","","","","","","",""
"html-keyboard-response","11","138699","0.0-7.0-0.4","59aaf4b1321f870001d16f6c","64b003020eef62ee308107cc","64b1152ad9071683d62814c0","null","null","<p style=""font-size: 60px; font-family: BACS"">kPOtcDR</p>","","","","","","","",""
"html-keyboard-response","12","139714","0.0-7.0-0.5","59aaf4b1321f870001d16f6c","64b003020eef62ee308107cc","64b1152ad9071683d62814c0","null","null","<p style=""font-size: 60px; font-family: BACS"">vYLUZAUu</p>","","","","","","","",""
"html-keyboard-response","13","140716","0.0-7.0-0.6","59aaf4b1321f870001d16f6c","64b003020eef62ee308107cc","64b1152ad9071683d62814c0","null","null","<p style=""font-size: 60px; font-family: BACS"">PEkhAOtM</p>","","","","","","","",""
"html-keyboard-response","14","141723","0.0-7.0-0.7","59aaf4b1321f870001d16f6c","64b003020eef62ee308107cc","64b1152ad9071683d62814c0","null","null","<p style=""font-size: 60px; font-family: BACS"">kPOtYcM</p>","","","","","","","",""
"html-keyboard-response","15","142725","0.0-7.0-0.8","59aaf4b1321f870001d16f6c","64b003020eef62ee308107cc","64b1152ad9071683d62814c0","null","null","<p style=""font-size: 60px; font-family: BACS"">bmbNcrdY</p>","","","","","","","",""
"html-keyboard-response","16","143727","0.0-7.0-0.9","59aaf4b1321f870001d16f6c","64b003020eef62ee308107cc","64b1152ad9071683d62814c0","null","null","<p style=""font-size: 60px; font-family: BACS"">vQdOkJdr</p>","","","","","","","",""
"html-keyboard-response","17","144728","0.0-7.0-0.10","59aaf4b1321f870001d16f6c","64b003020eef62ee308107cc","64b1152ad9071683d62814c0","null","null","<p style=""font-size: 60px; font-family: BACS"">tKDmhYcM</p>","","","","","","","",""
"html-keyboard-response","18","145735","0.0-7.0-0.11","59aaf4b1321f870001d16f6c","64b003020eef62ee308107cc","64b1152ad9071683d62814c0","null","null","<p style=""font-size: 60px; font-family: BACS"">MkmEdcDR</p>","","","","","","","",""
"html-keyboard-response","19","146743","0.0-7.0-0.12","59aaf4b1321f870001d16f6c","64b003020eef62ee308107cc","64b1152ad9071683d62814c0","null","null","<p style=""font-size: 60px; font-family: BACS"">ZcGdNcrdY</p>","","","","","","","",""
"html-keyboard-response","20","147751","0.0-7.0-0.13","59aaf4b1321f870001d16f6c","64b003020eef62ee308107cc","64b1152ad9071683d62814c0","null","null","<p style=""font-size: 60px; font-family: BACS"">LQurZAUu</p>","","","","","","","",""
"html-keyboard-response","21","148755","0.0-7.0-0.14","59aaf4b1321f870001d16f6c","64b003020eef62ee308107cc","64b1152ad9071683d62814c0","null","null","<p style=""font-size: 60px; font-family: BACS"">htmhCOtM</p>","","","","","","","",""
"html-keyboard-response","22","149758","0.0-7.0-0.15","59aaf4b1321f870001d16f6c","64b003020eef62ee308107cc","64b1152ad9071683d62814c0","null","null","<p style=""font-size: 60px; font-family: BACS"">tKDmhOdOP</p>","","","","","","","",""
"html-keyboard-response","23","150758","0.0-7.0-0.16","59aaf4b1321f870001d16f6c","64b003020eef62ee308107cc","64b1152ad9071683d62814c0","null","null","<p style=""font-size: 60px; font-family: BACS"">ZcGdNZAUu</p>","","","","","","","",""
"html-keyboard-response","24","151764","0.0-7.0-0.17","59aaf4b1321f870001d16f6c","64b003020eef62ee308107cc","64b1152ad9071683d62814c0","null","null","<p style=""font-size: 60px; font-family: BACS"">COTKYDE</p>","","","","","","","",""
"html-keyboard-response","25","152766","0.0-7.0-0.18","59aaf4b1321f870001d16f6c","64b003020eef62ee308107cc","64b1152ad9071683d62814c0","null","null","<p style=""font-size: 60px; font-family: BACS"">LQurcrdY</p>","","","","","","","",""
"html-keyboard-response","26","153778","0.0-7.0-0.19","59aaf4b1321f870001d16f6c","64b003020eef62ee308107cc","64b1152ad9071683d62814c0","null","null","<p style=""font-size: 60px; font-family: BACS"">bmbNZAUu</p>","","","","","","","",""
"html-keyboard-response","27","154793","0.0-7.0-0.20","59aaf4b1321f870001d16f6c","64b003020eef62ee308107cc","64b1152ad9071683d62814c0","null","null","<p style=""font-size: 60px; font-family: BACS"">JdOAYQGb</p>","","","","","","","",""
"html-keyboard-response","28","155802","0.0-7.0-0.21","59aaf4b1321f870001d16f6c","64b003020eef62ee308107cc","64b1152ad9071683d62814c0","null","null","<p style=""font-size: 60px; font-family: BACS"">LOLkUJUNa</p>","","","","","","","",""
"html-keyboard-response","29","156808","0.0-7.0-0.22","59aaf4b1321f870001d16f6c","64b003020eef62ee308107cc","64b1152ad9071683d62814c0","null","null","<p style=""font-size: 60px; font-family: BACS"">MkmEdYcM</p>","","","","","","","",""
"html-keyboard-response","30","157816","0.0-7.0-0.23","59aaf4b1321f870001d16f6c","64b003020eef62ee308107cc","64b1152ad9071683d62814c0","null","null","<p style=""font-size: 60px; font-family: BACS"">LQurkJdr</p>","","","","","","","",""
"html-keyboard-response","31","158819","0.0-7.0-0.24","59aaf4b1321f870001d16f6c","64b003020eef62ee308107cc","64b1152ad9071683d62814c0","null","null","<p style=""font-size: 60px; font-family: BACS"">MhKdcDR</p>","","","","","","","",""
"html-keyboard-response","32","159821","0.0-7.0-0.25","59aaf4b1321f870001d16f6c","64b003020eef62ee308107cc","64b1152ad9071683d62814c0","null","null","<p style=""font-size: 60px; font-family: BACS"">CtmbOtM</p>","","","","","","","",""
"html-keyboard-response","33","160836","0.0-7.0-0.26","59aaf4b1321f870001d16f6c","64b003020eef62ee308107cc","64b1152ad9071683d62814c0","null","null","<p style=""font-size: 60px; font-family: BACS"">bGuOcrdY</p>","","","","","","","",""
"html-keyboard-response","34","161851","0.0-7.0-0.27","59aaf4b1321f870001d16f6c","64b003020eef62ee308107cc","64b1152ad9071683d62814c0","null","null","<p style=""font-size: 60px; font-family: BACS"">PEkhAYDE</p>","","","","","","","",""
"html-keyboard-response","35","162866","0.0-7.0-0.28","59aaf4b1321f870001d16f6c","64b003020eef62ee308107cc","64b1152ad9071683d62814c0","null","null","<p style=""font-size: 60px; font-family: BACS"">LOLkUQGb</p>","","","","","","","",""
"html-keyboard-response","36","163867","0.0-7.0-0.29","59aaf4b1321f870001d16f6c","64b003020eef62ee308107cc","64b1152ad9071683d62814c0","null","null","<p style=""font-size: 60px; font-family: BACS"">LAclAcrdY</p>","","","","","","","",""
"html-keyboard-response","37","164870","0.0-7.0-0.30","59aaf4b1321f870001d16f6c","64b003020eef62ee308107cc","64b1152ad9071683d62814c0","null","null","<p style=""font-size: 60px; font-family: BACS"">COTKcDR</p>","","","","","","","",""
"html-keyboard-response","38","165878","0.0-7.0-0.31","59aaf4b1321f870001d16f6c","64b003020eef62ee308107cc","64b1152ad9071683d62814c0","null","null","<p style=""font-size: 60px; font-family: BACS"">vQdOQGb</p>","","","","","","","",""
"html-keyboard-response","39","166888","0.0-7.0-0.32","59aaf4b1321f870001d16f6c","64b003020eef62ee308107cc","64b1152ad9071683d62814c0","null","null","<p style=""font-size: 60px; font-family: BACS"">LOLkUkJdr</p>","","","","","","","",""
"html-keyboard-response","40","167890","0.0-7.0-0.33","59aaf4b1321f870001d16f6c","64b003020eef62ee308107cc","64b1152ad9071683d62814c0","null","null","<p style=""font-size: 60px; font-family: BACS"">EYtYRYDE</p>","","","","","","","",""
"html-keyboard-response","41","168890","0.0-7.0-0.34","59aaf4b1321f870001d16f6c","64b003020eef62ee308107cc","64b1152ad9071683d62814c0","null","null","<p style=""font-size: 60px; font-family: BACS"">LAclAZAUu</p>","","","","","","","",""
"html-keyboard-response","42","169903","0.0-7.0-0.35","59aaf4b1321f870001d16f6c","64b003020eef62ee308107cc","64b1152ad9071683d62814c0","null","null","<p style=""font-size: 60px; font-family: BACS"">kPOtOtM</p>","","","","","","","",""
"html-keyboard-response","43","170919","0.0-7.0-0.36","59aaf4b1321f870001d16f6c","64b003020eef62ee308107cc","64b1152ad9071683d62814c0","null","null","<p style=""font-size: 60px; font-family: BACS"">MhKdYcM</p>","","","","","","","",""
"html-keyboard-response","44","171925","0.0-7.0-0.37","59aaf4b1321f870001d16f6c","64b003020eef62ee308107cc","64b1152ad9071683d62814c0","null","null","<p style=""font-size: 60px; font-family: BACS"">vQdOZAUu</p>","","","","","","","",""
"html-keyboard-response","45","172926","0.0-7.0-0.38","59aaf4b1321f870001d16f6c","64b003020eef62ee308107cc","64b1152ad9071683d62814c0","null","null","<p style=""font-size: 60px; font-family: BACS"">tKDmhOtM</p>","","","","","","","",""
"html-keyboard-response","46","173932","0.0-7.0-0.39","59aaf4b1321f870001d16f6c","64b003020eef62ee308107cc","64b1152ad9071683d62814c0","null","null","<p style=""font-size: 60px; font-family: BACS"">ZYcQUcrdY</p>","","","","","","","",""
"html-keyboard-response","47","174939","0.0-7.0-0.40","59aaf4b1321f870001d16f6c","64b003020eef62ee308107cc","64b1152ad9071683d62814c0","null","null","<p style=""font-size: 60px; font-family: BACS"">CtmbOdOP</p>","","","","","","","",""
"html-keyboard-response","48","175947","0.0-7.0-0.41","59aaf4b1321f870001d16f6c","64b003020eef62ee308107cc","64b1152ad9071683d62814c0","null","null","<p style=""font-size: 60px; font-family: BACS"">vYLUJUNa</p>","","","","","","","",""
"html-keyboard-response","49","176948","0.0-7.0-0.42","59aaf4b1321f870001d16f6c","64b003020eef62ee308107cc","64b1152ad9071683d62814c0","null","null","<p style=""font-size: 60px; font-family: BACS"">CtmbcDR</p>","","","","","","","",""
"html-keyboard-response","50","177956","0.0-7.0-0.43","59aaf4b1321f870001d16f6c","64b003020eef62ee308107cc","64b1152ad9071683d62814c0","null","null","<p style=""font-size: 60px; font-family: BACS"">JdOAYcrdY</p>","","","","","","","",""
"html-keyboard-response","51","178957","0.0-7.0-0.44","59aaf4b1321f870001d16f6c","64b003020eef62ee308107cc","64b1152ad9071683d62814c0","null","null","<p style=""font-size: 60px; font-family: BACS"">bmbNJUNa</p>","","","","","","","",""
"html-keyboard-response","52","179957","0.0-7.0-0.45","59aaf4b1321f870001d16f6c","64b003020eef62ee308107cc","64b1152ad9071683d62814c0","null","null","<p style=""font-size: 60px; font-family: BACS"">MkmEdOdOP</p>","","","","","","","",""
"html-keyboard-response","53","180958","0.0-7.0-0.46","59aaf4b1321f870001d16f6c","64b003020eef62ee308107cc","64b1152ad9071683d62814c0","null","null","<p style=""font-size: 60px; font-family: BACS"">JdOAYkJdr</p>","","","","","","","",""
"html-keyboard-response","54","181958","0.0-7.0-0.47","59aaf4b1321f870001d16f6c","64b003020eef62ee308107cc","64b1152ad9071683d62814c0","null","null","<p style=""font-size: 60px; font-family: BACS"">LAclAJUNa</p>","","","","","","","",""
"html-keyboard-response","55","182970","0.0-7.0-0.48","59aaf4b1321f870001d16f6c","64b003020eef62ee308107cc","64b1152ad9071683d62814c0","null","null","<p style=""font-size: 60px; font-family: BACS"">AdDbcDR</p>","","","","","","","",""
"html-keyboard-response","56","183973","0.0-7.0-0.49","59aaf4b1321f870001d16f6c","64b003020eef62ee308107cc","64b1152ad9071683d62814c0","null","null","<p style=""font-size: 60px; font-family: BACS"">MkmEdYDE</p>","","","","","","","",""
"html-keyboard-response","57","184974","0.0-7.0-0.50","59aaf4b1321f870001d16f6c","64b003020eef62ee308107cc","64b1152ad9071683d62814c0","null","null","<p style=""font-size: 60px; font-family: BACS"">htmhCYcM</p>","","","","","","","",""
"html-keyboard-response","58","185976","0.0-7.0-0.51","59aaf4b1321f870001d16f6c","64b003020eef62ee308107cc","64b1152ad9071683d62814c0","null","null","<p style=""font-size: 60px; font-family: BACS"">bGuOZAUu</p>","","","","","","","",""
"html-keyboard-response","59","186983","0.0-7.0-0.52","59aaf4b1321f870001d16f6c","64b003020eef62ee308107cc","64b1152ad9071683d62814c0","null","null","<p style=""font-size: 60px; font-family: BACS"">kPOtYDE</p>","","","","","","","",""
"html-keyboard-response","60","187988","0.0-7.0-0.53","59aaf4b1321f870001d16f6c","64b003020eef62ee308107cc","64b1152ad9071683d62814c0","null","null","<p style=""font-size: 60px; font-family: BACS"">EYtYRcDR</p>","","","","","","","",""
"html-keyboard-response","61","188989","0.0-7.0-0.54","59aaf4b1321f870001d16f6c","64b003020eef62ee308107cc","64b1152ad9071683d62814c0","null","null","<p style=""font-size: 60px; font-family: BACS"">vYLUQGb</p>","","","","","","","",""
"html-keyboard-response","62","189998","0.0-7.0-0.55","59aaf4b1321f870001d16f6c","64b003020eef62ee308107cc","64b1152ad9071683d62814c0","null","null","<p style=""font-size: 60px; font-family: BACS"">PEkhAOdOP</p>","","","","","","","",""
"html-keyboard-response","63","191001","0.0-7.0-0.56","59aaf4b1321f870001d16f6c","64b003020eef62ee308107cc","64b1152ad9071683d62814c0","null","null","<p style=""font-size: 60px; font-family: BACS"">AdDbOtM</p>","","","","","","","",""
"html-keyboard-response","64","192002","0.0-7.0-0.57","59aaf4b1321f870001d16f6c","64b003020eef62ee308107cc","64b1152ad9071683d62814c0","null","null","<p style=""font-size: 60px; font-family: BACS"">ZYcQUkJdr</p>","","","","","","","",""
"html-keyboard-response","65","193016","0.0-7.0-0.58","59aaf4b1321f870001d16f6c","64b003020eef62ee308107cc","64b1152ad9071683d62814c0","null","null","<p style=""font-size: 60px; font-family: BACS"">htmhCOdOP</p>","","","","","","","",""
"html-keyboard-response","66","194021","0.0-7.0-0.59","59aaf4b1321f870001d16f6c","64b003020eef62ee308107cc","64b1152ad9071683d62814c0","null","null","<p style=""font-size: 60px; font-family: BACS"">ZcGdNJUNa</p>","","","","","","","",""
"html-keyboard-response","67","195032","0.0-7.0-0.60","59aaf4b1321f870001d16f6c","64b003020eef62ee308107cc","64b1152ad9071683d62814c0","null","null","<p style=""font-size: 60px; font-family: BACS"">ZYcQUQGb</p>","","","","","","","",""
"html-keyboard-response","68","196043","0.0-7.0-0.61","59aaf4b1321f870001d16f6c","64b003020eef62ee308107cc","64b1152ad9071683d62814c0","null","null","<p style=""font-size: 60px; font-family: BACS"">MhKdOtM</p>","","","","","","","",""
"html-keyboard-response","69","197054","0.0-7.0-0.62","59aaf4b1321f870001d16f6c","64b003020eef62ee308107cc","64b1152ad9071683d62814c0","null","null","<p style=""font-size: 60px; font-family: BACS"">ZYcQUJUNa</p>","","","","","","","",""
"html-keyboard-response","70","198060","0.0-7.0-0.63","59aaf4b1321f870001d16f6c","64b003020eef62ee308107cc","64b1152ad9071683d62814c0","null","null","<p style=""font-size: 60px; font-family: BACS"">tKDmhcDR</p>","","","","","","","",""
"html-keyboard-response","71","199061","0.0-7.0-0.64","59aaf4b1321f870001d16f6c","64b003020eef62ee308107cc","64b1152ad9071683d62814c0","null","null","<p style=""font-size: 60px; font-family: BACS"">bGuOQGb</p>","","","","","","","",""
"html-keyboard-response","72","200069","0.0-7.0-0.65","59aaf4b1321f870001d16f6c","64b003020eef62ee308107cc","64b1152ad9071683d62814c0","null","null","<p style=""font-size: 60px; font-family: BACS"">vQdOcrdY</p>","","","","","","","",""
"html-keyboard-response","73","201070","0.0-7.0-0.66","59aaf4b1321f870001d16f6c","64b003020eef62ee308107cc","64b1152ad9071683d62814c0","null","null","<p style=""font-size: 60px; font-family: BACS"">EYtYRYcM</p>","","","","","","","",""
"html-keyboard-response","74","202080","0.0-7.0-0.67","59aaf4b1321f870001d16f6c","64b003020eef62ee308107cc","64b1152ad9071683d62814c0","null","null","<p style=""font-size: 60px; font-family: BACS"">COTKOdOP</p>","","","","","","","",""
"html-keyboard-response","75","203094","0.0-7.0-0.68","59aaf4b1321f870001d16f6c","64b003020eef62ee308107cc","64b1152ad9071683d62814c0","null","null","<p style=""font-size: 60px; font-family: BACS"">htmhCYDE</p>","","","","","","","",""
"html-keyboard-response","76","204096","0.0-7.0-0.69","59aaf4b1321f870001d16f6c","64b003020eef62ee308107cc","64b1152ad9071683d62814c0","null","null","<p style=""font-size: 60px; font-family: BACS"">LAclAkJdr</p>","","","","","","","",""
"html-keyboard-response","77","205105","0.0-7.0-0.70","59aaf4b1321f870001d16f6c","64b003020eef62ee308107cc","64b1152ad9071683d62814c0","null","null","<p style=""font-size: 60px; font-family: BACS"">bmbNQGb</p>","","","","","","","",""
"html-keyboard-response","78","206107","0.0-7.0-0.71","59aaf4b1321f870001d16f6c","64b003020eef62ee308107cc","64b1152ad9071683d62814c0","null","null","<p style=""font-size: 60px; font-family: BACS"">CtmbYDE</p>","","","","","","","",""
"html-keyboard-response","79","207107","0.0-7.0-0.72","59aaf4b1321f870001d16f6c","64b003020eef62ee308107cc","64b1152ad9071683d62814c0","null","null","<p style=""font-size: 60px; font-family: BACS"">MhKdOdOP</p>","","","","","","","",""
"html-keyboard-response","80","208110","0.0-7.0-0.73","59aaf4b1321f870001d16f6c","64b003020eef62ee308107cc","64b1152ad9071683d62814c0","null","null","<p style=""font-size: 60px; font-family: BACS"">EYtYROtM</p>","","","","","","","",""
"html-keyboard-response","81","209112","0.0-7.0-0.74","59aaf4b1321f870001d16f6c","64b003020eef62ee308107cc","64b1152ad9071683d62814c0","null","null","<p style=""font-size: 60px; font-family: BACS"">COTKYcM</p>","","","","","","","",""
"html-keyboard-response","82","210118","0.0-7.0-0.75","59aaf4b1321f870001d16f6c","64b003020eef62ee308107cc","64b1152ad9071683d62814c0","null","null","<p style=""font-size: 60px; font-family: BACS"">LQurQGb</p>","","","","","","","",""
"html-keyboard-response","83","211127","0.0-7.0-0.76","59aaf4b1321f870001d16f6c","64b003020eef62ee308107cc","64b1152ad9071683d62814c0","null","null","<p style=""font-size: 60px; font-family: BACS"">vYLUkJdr</p>","","","","","","","",""
"html-keyboard-response","84","212137","0.0-7.0-0.77","59aaf4b1321f870001d16f6c","64b003020eef62ee308107cc","64b1152ad9071683d62814c0","null","null","<p style=""font-size: 60px; font-family: BACS"">PEkhAYcM</p>","","","","","","","",""
"html-keyboard-response","85","213141","0.0-7.0-0.78","59aaf4b1321f870001d16f6c","64b003020eef62ee308107cc","64b1152ad9071683d62814c0","null","null","<p style=""font-size: 60px; font-family: BACS"">AdDbOdOP</p>","","","","","","","",""
"html-keyboard-response","86","214147","0.0-7.0-0.79","59aaf4b1321f870001d16f6c","64b003020eef62ee308107cc","64b1152ad9071683d62814c0","null","null","<p style=""font-size: 60px; font-family: BACS"">LOLkUZAUu</p>","","","","","","","",""
"html-keyboard-response","87","218617","0.0-8.0","59aaf4b1321f870001d16f6c","64b003020eef62ee308107cc","64b1152ad9071683d62814c0","4470"," ","<p>Ottimo, hai visto il primo blocco di parole. Ora puoi prenderti una piccola pausa.</p>
      <p>Premi la barra quando sei pronta/o per riprendere.</p>","","","","","","","",""
"html-keyboard-response","88","219618","0.0-9.0-0.0","59aaf4b1321f870001d16f6c","64b003020eef62ee308107cc","64b1152ad9071683d62814c0","null","null","<p style=""font-size: 60px; font-family: BACS"">tKDmhcDR</p>","","","","","","","",""
"html-keyboard-response","89","220618","0.0-9.0-0.1","59aaf4b1321f870001d16f6c","64b003020eef62ee308107cc","64b1152ad9071683d62814c0","null","null","<p style=""font-size: 60px; font-family: BACS"">LQurcrdY</p>","","","","","","","",""
"html-keyboard-response","90","221624","0.0-9.0-0.2","59aaf4b1321f870001d16f6c","64b003020eef62ee308107cc","64b1152ad9071683d62814c0","null","null","<p style=""font-size: 60px; font-family: BACS"">CtmbOtM</p>","","","","","","","",""
"html-keyboard-response","91","222630","0.0-9.0-0.3","59aaf4b1321f870001d16f6c","64b003020eef62ee308107cc","64b1152ad9071683d62814c0","null","null","<p style=""font-size: 60px; font-family: BACS"">AdDbcDR</p>","","","","","","","",""
"html-keyboard-response","92","223632","0.0-9.0-0.4","59aaf4b1321f870001d16f6c","64b003020eef62ee308107cc","64b1152ad9071683d62814c0","null","null","<p style=""font-size: 60px; font-family: BACS"">ZYcQUQGb</p>","","","","","","","",""
"html-keyboard-response","93","224634","0.0-9.0-0.5","59aaf4b1321f870001d16f6c","64b003020eef62ee308107cc","64b1152ad9071683d62814c0","null","null","<p style=""font-size: 60px; font-family: BACS"">htmhCYcM</p>","","","","","","","",""
"html-keyboard-response","94","225640","0.0-9.0-0.6","59aaf4b1321f870001d16f6c","64b003020eef62ee308107cc","64b1152ad9071683d62814c0","null","null","<p style=""font-size: 60px; font-family: BACS"">LAclAcrdY</p>","","","","","","","",""
"html-keyboard-response","95","226642","0.0-9.0-0.7","59aaf4b1321f870001d16f6c","64b003020eef62ee308107cc","64b1152ad9071683d62814c0","null","null","<p style=""font-size: 60px; font-family: BACS"">vYLUkJdr</p>","","","","","","","",""
"html-keyboard-response","96","227644","0.0-9.0-0.8","59aaf4b1321f870001d16f6c","64b003020eef62ee308107cc","64b1152ad9071683d62814c0","null","null","<p style=""font-size: 60px; font-family: BACS"">MkmEdYcM</p>","","","","","","","",""
"html-keyboard-response","97","228658","0.0-9.0-0.9","59aaf4b1321f870001d16f6c","64b003020eef62ee308107cc","64b1152ad9071683d62814c0","null","null","<p style=""font-size: 60px; font-family: BACS"">LOLkUJUNa</p>","","","","","","","",""
"html-keyboard-response","98","229659","0.0-9.0-0.10","59aaf4b1321f870001d16f6c","64b003020eef62ee308107cc","64b1152ad9071683d62814c0","null","null","<p style=""font-size: 60px; font-family: BACS"">LQurQGb</p>","","","","","","","",""
"html-keyboard-response","99","230661","0.0-9.0-0.11","59aaf4b1321f870001d16f6c","64b003020eef62ee308107cc","64b1152ad9071683d62814c0","null","null","<p style=""font-size: 60px; font-family: BACS"">LAclAZAUu</p>","","","","","","","",""
"html-keyboard-response","100","231662","0.0-9.0-0.12","59aaf4b1321f870001d16f6c","64b003020eef62ee308107cc","64b1152ad9071683d62814c0","null","null","<p style=""font-size: 60px; font-family: BACS"">MhKdYcM</p>","","","","","","","",""
"html-keyboard-response","101","232667","0.0-9.0-0.13","59aaf4b1321f870001d16f6c","64b003020eef62ee308107cc","64b1152ad9071683d62814c0","null","null","<p style=""font-size: 60px; font-family: BACS"">PEkhAYDE</p>","","","","","","","",""
"html-keyboard-response","102","233681","0.0-9.0-0.14","59aaf4b1321f870001d16f6c","64b003020eef62ee308107cc","64b1152ad9071683d62814c0","null","null","<p style=""font-size: 60px; font-family: BACS"">CtmbOdOP</p>","","","","","","","",""
"html-keyboard-response","103","234694","0.0-9.0-0.15","59aaf4b1321f870001d16f6c","64b003020eef62ee308107cc","64b1152ad9071683d62814c0","null","null","<p style=""font-size: 60px; font-family: BACS"">JdOAYQGb</p>","","","","","","","",""
"html-keyboard-response","104","235700","0.0-9.0-0.16","59aaf4b1321f870001d16f6c","64b003020eef62ee308107cc","64b1152ad9071683d62814c0","null","null","<p style=""font-size: 60px; font-family: BACS"">ZcGdNcrdY</p>","","","","","","","",""
"html-keyboard-response","105","236716","0.0-9.0-0.17","59aaf4b1321f870001d16f6c","64b003020eef62ee308107cc","64b1152ad9071683d62814c0","null","null","<p style=""font-size: 60px; font-family: BACS"">EYtYROtM</p>","","","","","","","",""
"html-keyboard-response","106","237720","0.0-9.0-0.18","59aaf4b1321f870001d16f6c","64b003020eef62ee308107cc","64b1152ad9071683d62814c0","null","null","<p style=""font-size: 60px; font-family: BACS"">JdOAYkJdr</p>","","","","","","","",""
"html-keyboard-response","107","238728","0.0-9.0-0.19","59aaf4b1321f870001d16f6c","64b003020eef62ee308107cc","64b1152ad9071683d62814c0","null","null","<p style=""font-size: 60px; font-family: BACS"">tKDmhYcM</p>","","","","","","","",""
"html-keyboard-response","108","239733","0.0-9.0-0.20","59aaf4b1321f870001d16f6c","64b003020eef62ee308107cc","64b1152ad9071683d62814c0","null","null","<p style=""font-size: 60px; font-family: BACS"">MkmEdOdOP</p>","","","","","","","",""
"html-keyboard-response","109","240734","0.0-9.0-0.21","59aaf4b1321f870001d16f6c","64b003020eef62ee308107cc","64b1152ad9071683d62814c0","null","null","<p style=""font-size: 60px; font-family: BACS"">COTKcDR</p>","","","","","","","",""
"html-keyboard-response","110","241735","0.0-9.0-0.22","59aaf4b1321f870001d16f6c","64b003020eef62ee308107cc","64b1152ad9071683d62814c0","null","null","<p style=""font-size: 60px; font-family: BACS"">MhKdOtM</p>","","","","","","","",""
"html-keyboard-response","111","242742","0.0-9.0-0.23","59aaf4b1321f870001d16f6c","64b003020eef62ee308107cc","64b1152ad9071683d62814c0","null","null","<p style=""font-size: 60px; font-family: BACS"">bGuOZAUu</p>","","","","","","","",""
"html-keyboard-response","112","243757","0.0-9.0-0.24","59aaf4b1321f870001d16f6c","64b003020eef62ee308107cc","64b1152ad9071683d62814c0","null","null","<p style=""font-size: 60px; font-family: BACS"">vQdOcrdY</p>","","","","","","","",""
"html-keyboard-response","113","244773","0.0-9.0-0.25","59aaf4b1321f870001d16f6c","64b003020eef62ee308107cc","64b1152ad9071683d62814c0","null","null","<p style=""font-size: 60px; font-family: BACS"">vYLUQGb</p>","","","","","","","",""
"html-keyboard-response","114","245773","0.0-9.0-0.26","59aaf4b1321f870001d16f6c","64b003020eef62ee308107cc","64b1152ad9071683d62814c0","null","null","<p style=""font-size: 60px; font-family: BACS"">ZYcQUkJdr</p>","","","","","","","",""
"html-keyboard-response","115","246775","0.0-9.0-0.27","59aaf4b1321f870001d16f6c","64b003020eef62ee308107cc","64b1152ad9071683d62814c0","null","null","<p style=""font-size: 60px; font-family: BACS"">kPOtcDR</p>","","","","","","","",""
"html-keyboard-response","116","247776","0.0-9.0-0.28","59aaf4b1321f870001d16f6c","64b003020eef62ee308107cc","64b1152ad9071683d62814c0","null","null","<p style=""font-size: 60px; font-family: BACS"">LAclAJUNa</p>","","","","","","","",""
"html-keyboard-response","117","248778","0.0-9.0-0.29","59aaf4b1321f870001d16f6c","64b003020eef62ee308107cc","64b1152ad9071683d62814c0","null","null","<p style=""font-size: 60px; font-family: BACS"">vQdOQGb</p>","","","","","","","",""
"html-keyboard-response","118","249781","0.0-9.0-0.30","59aaf4b1321f870001d16f6c","64b003020eef62ee308107cc","64b1152ad9071683d62814c0","null","null","<p style=""font-size: 60px; font-family: BACS"">bmbNJUNa</p>","","","","","","","",""
"html-keyboard-response","119","250784","0.0-9.0-0.31","59aaf4b1321f870001d16f6c","64b003020eef62ee308107cc","64b1152ad9071683d62814c0","null","null","<p style=""font-size: 60px; font-family: BACS"">LOLkUZAUu</p>","","","","","","","",""
"html-keyboard-response","120","251799","0.0-9.0-0.32","59aaf4b1321f870001d16f6c","64b003020eef62ee308107cc","64b1152ad9071683d62814c0","null","null","<p style=""font-size: 60px; font-family: BACS"">ZYcQUJUNa</p>","","","","","","","",""
"html-keyboard-response","121","252800","0.0-9.0-0.33","59aaf4b1321f870001d16f6c","64b003020eef62ee308107cc","64b1152ad9071683d62814c0","null","null","<p style=""font-size: 60px; font-family: BACS"">bGuOcrdY</p>","","","","","","","",""
"html-keyboard-response","122","253802","0.0-9.0-0.34","59aaf4b1321f870001d16f6c","64b003020eef62ee308107cc","64b1152ad9071683d62814c0","null","null","<p style=""font-size: 60px; font-family: BACS"">PEkhAYcM</p>","","","","","","","",""
"html-keyboard-response","123","254809","0.0-9.0-0.35","59aaf4b1321f870001d16f6c","64b003020eef62ee308107cc","64b1152ad9071683d62814c0","null","null","<p style=""font-size: 60px; font-family: BACS"">bGuOQGb</p>","","","","","","","",""
"html-keyboard-response","124","255815","0.0-9.0-0.36","59aaf4b1321f870001d16f6c","64b003020eef62ee308107cc","64b1152ad9071683d62814c0","null","null","<p style=""font-size: 60px; font-family: BACS"">MkmEdYDE</p>","","","","","","","",""
"html-keyboard-response","125","256819","0.0-9.0-0.37","59aaf4b1321f870001d16f6c","64b003020eef62ee308107cc","64b1152ad9071683d62814c0","null","null","<p style=""font-size: 60px; font-family: BACS"">bmbNQGb</p>","","","","","","","",""
"html-keyboard-response","126","257830","0.0-9.0-0.38","59aaf4b1321f870001d16f6c","64b003020eef62ee308107cc","64b1152ad9071683d62814c0","null","null","<p style=""font-size: 60px; font-family: BACS"">PEkhAOdOP</p>","","","","","","","",""
"html-keyboard-response","127","258834","0.0-9.0-0.39","59aaf4b1321f870001d16f6c","64b003020eef62ee308107cc","64b1152ad9071683d62814c0","null","null","<p style=""font-size: 60px; font-family: BACS"">LQurkJdr</p>","","","","","","","",""
"html-keyboard-response","128","259835","0.0-9.0-0.40","59aaf4b1321f870001d16f6c","64b003020eef62ee308107cc","64b1152ad9071683d62814c0","null","null","<p style=""font-size: 60px; font-family: BACS"">kPOtOtM</p>","","","","","","","",""
"html-keyboard-response","129","260839","0.0-9.0-0.41","59aaf4b1321f870001d16f6c","64b003020eef62ee308107cc","64b1152ad9071683d62814c0","null","null","<p style=""font-size: 60px; font-family: BACS"">COTKOdOP</p>","","","","","","","",""
"html-keyboard-response","130","261846","0.0-9.0-0.42","59aaf4b1321f870001d16f6c","64b003020eef62ee308107cc","64b1152ad9071683d62814c0","null","null","<p style=""font-size: 60px; font-family: BACS"">ZcGdNZAUu</p>","","","","","","","",""
"html-keyboard-response","131","262853","0.0-9.0-0.43","59aaf4b1321f870001d16f6c","64b003020eef62ee308107cc","64b1152ad9071683d62814c0","null","null","<p style=""font-size: 60px; font-family: BACS"">AdDbOtM</p>","","","","","","","",""
"html-keyboard-response","132","263857","0.0-9.0-0.44","59aaf4b1321f870001d16f6c","64b003020eef62ee308107cc","64b1152ad9071683d62814c0","null","null","<p style=""font-size: 60px; font-family: BACS"">vQdOZAUu</p>","","","","","","","",""
"html-keyboard-response","133","264862","0.0-9.0-0.45","59aaf4b1321f870001d16f6c","64b003020eef62ee308107cc","64b1152ad9071683d62814c0","null","null","<p style=""font-size: 60px; font-family: BACS"">kPOtYDE</p>","","","","","","","",""
"html-keyboard-response","134","265871","0.0-9.0-0.46","59aaf4b1321f870001d16f6c","64b003020eef62ee308107cc","64b1152ad9071683d62814c0","null","null","<p style=""font-size: 60px; font-family: BACS"">htmhCOdOP</p>","","","","","","","",""
"html-keyboard-response","135","266881","0.0-9.0-0.47","59aaf4b1321f870001d16f6c","64b003020eef62ee308107cc","64b1152ad9071683d62814c0","null","null","<p style=""font-size: 60px; font-family: BACS"">LOLkUQGb</p>","","","","","","","",""
"html-keyboard-response","136","267882","0.0-9.0-0.48","59aaf4b1321f870001d16f6c","64b003020eef62ee308107cc","64b1152ad9071683d62814c0","null","null","<p style=""font-size: 60px; font-family: BACS"">JdOAYcrdY</p>","","","","","","","",""
"html-keyboard-response","137","268882","0.0-9.0-0.49","59aaf4b1321f870001d16f6c","64b003020eef62ee308107cc","64b1152ad9071683d62814c0","null","null","<p style=""font-size: 60px; font-family: BACS"">vQdOkJdr</p>","","","","","","","",""
"html-keyboard-response","138","269884","0.0-9.0-0.50","59aaf4b1321f870001d16f6c","64b003020eef62ee308107cc","64b1152ad9071683d62814c0","null","null","<p style=""font-size: 60px; font-family: BACS"">PEkhAOtM</p>","","","","","","","",""
"html-keyboard-response","139","270885","0.0-9.0-0.51","59aaf4b1321f870001d16f6c","64b003020eef62ee308107cc","64b1152ad9071683d62814c0","null","null","<p style=""font-size: 60px; font-family: BACS"">bmbNcrdY</p>","","","","","","","",""
"html-keyboard-response","140","271889","0.0-9.0-0.52","59aaf4b1321f870001d16f6c","64b003020eef62ee308107cc","64b1152ad9071683d62814c0","null","null","<p style=""font-size: 60px; font-family: BACS"">ZcGdNJUNa</p>","","","","","","","",""
"html-keyboard-response","141","272896","0.0-9.0-0.53","59aaf4b1321f870001d16f6c","64b003020eef62ee308107cc","64b1152ad9071683d62814c0","null","null","<p style=""font-size: 60px; font-family: BACS"">tKDmhOdOP</p>","","","","","","","",""
"html-keyboard-response","142","273898","0.0-9.0-0.54","59aaf4b1321f870001d16f6c","64b003020eef62ee308107cc","64b1152ad9071683d62814c0","null","null","<p style=""font-size: 60px; font-family: BACS"">kPOtYcM</p>","","","","","","","",""
"html-keyboard-response","143","274903","0.0-9.0-0.55","59aaf4b1321f870001d16f6c","64b003020eef62ee308107cc","64b1152ad9071683d62814c0","null","null","<p style=""font-size: 60px; font-family: BACS"">EYtYRcDR</p>","","","","","","","",""
"html-keyboard-response","144","275904","0.0-9.0-0.56","59aaf4b1321f870001d16f6c","64b003020eef62ee308107cc","64b1152ad9071683d62814c0","null","null","<p style=""font-size: 60px; font-family: BACS"">COTKYcM</p>","","","","","","","",""
"html-keyboard-response","145","276911","0.0-9.0-0.57","59aaf4b1321f870001d16f6c","64b003020eef62ee308107cc","64b1152ad9071683d62814c0","null","null","<p style=""font-size: 60px; font-family: BACS"">LQurZAUu</p>","","","","","","","",""
"html-keyboard-response","146","277925","0.0-9.0-0.58","59aaf4b1321f870001d16f6c","64b003020eef62ee308107cc","64b1152ad9071683d62814c0","null","null","<p style=""font-size: 60px; font-family: BACS"">ZcGdNkJdr</p>","","","","","","","",""
"html-keyboard-response","147","278938","0.0-9.0-0.59","59aaf4b1321f870001d16f6c","64b003020eef62ee308107cc","64b1152ad9071683d62814c0","null","null","<p style=""font-size: 60px; font-family: BACS"">MkmEdcDR</p>","","","","","","","",""
"html-keyboard-response","148","279938","0.0-9.0-0.60","59aaf4b1321f870001d16f6c","64b003020eef62ee308107cc","64b1152ad9071683d62814c0","null","null","<p style=""font-size: 60px; font-family: BACS"">AdDbOdOP</p>","","","","","","","",""
"html-keyboard-response","149","280951","0.0-9.0-0.61","59aaf4b1321f870001d16f6c","64b003020eef62ee308107cc","64b1152ad9071683d62814c0","null","null","<p style=""font-size: 60px; font-family: BACS"">JdOAYJUNa</p>","","","","","","","",""
"html-keyboard-response","150","281958","0.0-9.0-0.62","59aaf4b1321f870001d16f6c","64b003020eef62ee308107cc","64b1152ad9071683d62814c0","null","null","<p style=""font-size: 60px; font-family: BACS"">EYtYRYDE</p>","","","","","","","",""
"html-keyboard-response","151","282966","0.0-9.0-0.63","59aaf4b1321f870001d16f6c","64b003020eef62ee308107cc","64b1152ad9071683d62814c0","null","null","<p style=""font-size: 60px; font-family: BACS"">ZYcQUcrdY</p>","","","","","","","",""
"html-keyboard-response","152","283967","0.0-9.0-0.64","59aaf4b1321f870001d16f6c","64b003020eef62ee308107cc","64b1152ad9071683d62814c0","null","null","<p style=""font-size: 60px; font-family: BACS"">LAclAkJdr</p>","","","","","","","",""
"html-keyboard-response","153","284967","0.0-9.0-0.65","59aaf4b1321f870001d16f6c","64b003020eef62ee308107cc","64b1152ad9071683d62814c0","null","null","<p style=""font-size: 60px; font-family: BACS"">bmbNZAUu</p>","","","","","","","",""
"html-keyboard-response","154","285980","0.0-9.0-0.66","59aaf4b1321f870001d16f6c","64b003020eef62ee308107cc","64b1152ad9071683d62814c0","null","null","<p style=""font-size: 60px; font-family: BACS"">htmhCOtM</p>","","","","","","","",""
"html-keyboard-response","155","286983","0.0-9.0-0.67","59aaf4b1321f870001d16f6c","64b003020eef62ee308107cc","64b1152ad9071683d62814c0","null","null","<p style=""font-size: 60px; font-family: BACS"">CtmbcDR</p>","","","","","","","",""
"html-keyboard-response","156","287990","0.0-9.0-0.68","59aaf4b1321f870001d16f6c","64b003020eef62ee308107cc","64b1152ad9071683d62814c0","null","null","<p style=""font-size: 60px; font-family: BACS"">bGuOJUNa</p>","","","","","","","",""
"html-keyboard-response","157","288997","0.0-9.0-0.69","59aaf4b1321f870001d16f6c","64b003020eef62ee308107cc","64b1152ad9071683d62814c0","null","null","<p style=""font-size: 60px; font-family: BACS"">AdDbYDE</p>","","","","","","","",""
"html-keyboard-response","158","289999","0.0-9.0-0.70","59aaf4b1321f870001d16f6c","64b003020eef62ee308107cc","64b1152ad9071683d62814c0","null","null","<p style=""font-size: 60px; font-family: BACS"">LOLkUkJdr</p>","","","","","","","",""
"html-keyboard-response","159","291006","0.0-9.0-0.71","59aaf4b1321f870001d16f6c","64b003020eef62ee308107cc","64b1152ad9071683d62814c0","null","null","<p style=""font-size: 60px; font-family: BACS"">MhKdcDR</p>","","","","","","","",""
"html-keyboard-response","160","292008","0.0-9.0-0.72","59aaf4b1321f870001d16f6c","64b003020eef62ee308107cc","64b1152ad9071683d62814c0","null","null","<p style=""font-size: 60px; font-family: BACS"">CtmbYDE</p>","","","","","","","",""
"html-keyboard-response","161","293016","0.0-9.0-0.73","59aaf4b1321f870001d16f6c","64b003020eef62ee308107cc","64b1152ad9071683d62814c0","null","null","<p style=""font-size: 60px; font-family: BACS"">vYLUZAUu</p>","","","","","","","",""
"html-keyboard-response","162","294024","0.0-9.0-0.74","59aaf4b1321f870001d16f6c","64b003020eef62ee308107cc","64b1152ad9071683d62814c0","null","null","<p style=""font-size: 60px; font-family: BACS"">tKDmhOtM</p>","","","","","","","",""
"html-keyboard-response","163","295038","0.0-9.0-0.75","59aaf4b1321f870001d16f6c","64b003020eef62ee308107cc","64b1152ad9071683d62814c0","null","null","<p style=""font-size: 60px; font-family: BACS"">MhKdOdOP</p>","","","","","","","",""
"html-keyboard-response","164","296043","0.0-9.0-0.76","59aaf4b1321f870001d16f6c","64b003020eef62ee308107cc","64b1152ad9071683d62814c0","null","null","<p style=""font-size: 60px; font-family: BACS"">EYtYRYcM</p>","","","","","","","",""
"html-keyboard-response","165","297047","0.0-9.0-0.77","59aaf4b1321f870001d16f6c","64b003020eef62ee308107cc","64b1152ad9071683d62814c0","null","null","<p style=""font-size: 60px; font-family: BACS"">COTKYDE</p>","","","","","","","",""
"html-keyboard-response","166","298052","0.0-9.0-0.78","59aaf4b1321f870001d16f6c","64b003020eef62ee308107cc","64b1152ad9071683d62814c0","null","null","<p style=""font-size: 60px; font-family: BACS"">vYLUJUNa</p>","","","","","","","",""
"html-keyboard-response","167","299054","0.0-9.0-0.79","59aaf4b1321f870001d16f6c","64b003020eef62ee308107cc","64b1152ad9071683d62814c0","null","null","<p style=""font-size: 60px; font-family: BACS"">htmhCYDE</p>","","","","","","","",""
"html-keyboard-response","168","303046","0.0-10.0","59aaf4b1321f870001d16f6c","64b003020eef62ee308107cc","64b1152ad9071683d62814c0","3991"," ","<p>Ottimo, hai visto il secondo blocco di parole. Ora puoi prenderti una piccola pausa.</p>
      <p>Premi la barra quando sei pronta/o per riprendere.</p>","","","","","","","",""
"html-keyboard-response","169","304051","0.0-11.0-0.0","59aaf4b1321f870001d16f6c","64b003020eef62ee308107cc","64b1152ad9071683d62814c0","null","null","<p style=""font-size: 60px; font-family: BACS"">EYtYRYcM</p>","","","","","","","",""
"html-keyboard-response","170","305054","0.0-11.0-0.1","59aaf4b1321f870001d16f6c","64b003020eef62ee308107cc","64b1152ad9071683d62814c0","null","null","<p style=""font-size: 60px; font-family: BACS"">MkmEdYDE</p>","","","","","","","",""
"html-keyboard-response","171","306055","0.0-11.0-0.2","59aaf4b1321f870001d16f6c","64b003020eef62ee308107cc","64b1152ad9071683d62814c0","null","null","<p style=""font-size: 60px; font-family: BACS"">AdDbOdOP</p>","","","","","","","",""
"html-keyboard-response","172","307064","0.0-11.0-0.3","59aaf4b1321f870001d16f6c","64b003020eef62ee308107cc","64b1152ad9071683d62814c0","null","null","<p style=""font-size: 60px; font-family: BACS"">vYLUkJdr</p>","","","","","","","",""
"html-keyboard-response","173","308071","0.0-11.0-0.4","59aaf4b1321f870001d16f6c","64b003020eef62ee308107cc","64b1152ad9071683d62814c0","null","null","<p style=""font-size: 60px; font-family: BACS"">EYtYRYDE</p>","","","","","","","",""
"html-keyboard-response","174","309074","0.0-11.0-0.5","59aaf4b1321f870001d16f6c","64b003020eef62ee308107cc","64b1152ad9071683d62814c0","null","null","<p style=""font-size: 60px; font-family: BACS"">tKDmhOdOP</p>","","","","","","","",""
"html-keyboard-response","175","310084","0.0-11.0-0.6","59aaf4b1321f870001d16f6c","64b003020eef62ee308107cc","64b1152ad9071683d62814c0","null","null","<p style=""font-size: 60px; font-family: BACS"">bmbNcrdY</p>","","","","","","","",""
"html-keyboard-response","176","311088","0.0-11.0-0.7","59aaf4b1321f870001d16f6c","64b003020eef62ee308107cc","64b1152ad9071683d62814c0","null","null","<p style=""font-size: 60px; font-family: BACS"">PEkhAYDE</p>","","","","","","","",""
"html-keyboard-response","177","312089","0.0-11.0-0.8","59aaf4b1321f870001d16f6c","64b003020eef62ee308107cc","64b1152ad9071683d62814c0","null","null","<p style=""font-size: 60px; font-family: BACS"">LOLkUZAUu</p>","","","","","","","",""
"html-keyboard-response","178","313094","0.0-11.0-0.9","59aaf4b1321f870001d16f6c","64b003020eef62ee308107cc","64b1152ad9071683d62814c0","null","null","<p style=""font-size: 60px; font-family: BACS"">kPOtYcM</p>","","","","","","","",""
"html-keyboard-response","179","314097","0.0-11.0-0.10","59aaf4b1321f870001d16f6c","64b003020eef62ee308107cc","64b1152ad9071683d62814c0","null","null","<p style=""font-size: 60px; font-family: BACS"">bGuOcrdY</p>","","","","","","","",""
"html-keyboard-response","180","315099","0.0-11.0-0.11","59aaf4b1321f870001d16f6c","64b003020eef62ee308107cc","64b1152ad9071683d62814c0","null","null","<p style=""font-size: 60px; font-family: BACS"">MhKdYcM</p>","","","","","","","",""
"html-keyboard-response","181","316104","0.0-11.0-0.12","59aaf4b1321f870001d16f6c","64b003020eef62ee308107cc","64b1152ad9071683d62814c0","null","null","<p style=""font-size: 60px; font-family: BACS"">COTKYDE</p>","","","","","","","",""
"html-keyboard-response","182","317109","0.0-11.0-0.13","59aaf4b1321f870001d16f6c","64b003020eef62ee308107cc","64b1152ad9071683d62814c0","null","null","<p style=""font-size: 60px; font-family: BACS"">MhKdcDR</p>","","","","","","","",""
"html-keyboard-response","183","318116","0.0-11.0-0.14","59aaf4b1321f870001d16f6c","64b003020eef62ee308107cc","64b1152ad9071683d62814c0","null","null","<p style=""font-size: 60px; font-family: BACS"">htmhCYcM</p>","","","","","","","",""
"html-keyboard-response","184","319117","0.0-11.0-0.15","59aaf4b1321f870001d16f6c","64b003020eef62ee308107cc","64b1152ad9071683d62814c0","null","null","<p style=""font-size: 60px; font-family: BACS"">JdOAYJUNa</p>","","","","","","","",""
"html-keyboard-response","185","320119","0.0-11.0-0.16","59aaf4b1321f870001d16f6c","64b003020eef62ee308107cc","64b1152ad9071683d62814c0","null","null","<p style=""font-size: 60px; font-family: BACS"">COTKcDR</p>","","","","","","","",""
"html-keyboard-response","186","321129","0.0-11.0-0.17","59aaf4b1321f870001d16f6c","64b003020eef62ee308107cc","64b1152ad9071683d62814c0","null","null","<p style=""font-size: 60px; font-family: BACS"">ZYcQUQGb</p>","","","","","","","",""
"html-keyboard-response","187","322131","0.0-11.0-0.18","59aaf4b1321f870001d16f6c","64b003020eef62ee308107cc","64b1152ad9071683d62814c0","null","null","<p style=""font-size: 60px; font-family: BACS"">vYLUZAUu</p>","","","","","","","",""
"html-keyboard-response","188","323141","0.0-11.0-0.19","59aaf4b1321f870001d16f6c","64b003020eef62ee308107cc","64b1152ad9071683d62814c0","null","null","<p style=""font-size: 60px; font-family: BACS"">ZcGdNcrdY</p>","","","","","","","",""
"html-keyboard-response","189","324147","0.0-11.0-0.20","59aaf4b1321f870001d16f6c","64b003020eef62ee308107cc","64b1152ad9071683d62814c0","null","null","<p style=""font-size: 60px; font-family: BACS"">AdDbYDE</p>","","","","","","","",""
"html-keyboard-response","190","325152","0.0-11.0-0.21","59aaf4b1321f870001d16f6c","64b003020eef62ee308107cc","64b1152ad9071683d62814c0","null","null","<p style=""font-size: 60px; font-family: BACS"">MhKdOdOP</p>","","","","","","","",""
"html-keyboard-response","191","326153","0.0-11.0-0.22","59aaf4b1321f870001d16f6c","64b003020eef62ee308107cc","64b1152ad9071683d62814c0","null","null","<p style=""font-size: 60px; font-family: BACS"">bGuOZAUu</p>","","","","","","","",""
"html-keyboard-response","192","327158","0.0-11.0-0.23","59aaf4b1321f870001d16f6c","64b003020eef62ee308107cc","64b1152ad9071683d62814c0","null","null","<p style=""font-size: 60px; font-family: BACS"">AdDbOtM</p>","","","","","","","",""
"html-keyboard-response","193","328172","0.0-11.0-0.24","59aaf4b1321f870001d16f6c","64b003020eef62ee308107cc","64b1152ad9071683d62814c0","null","null","<p style=""font-size: 60px; font-family: BACS"">vQdOQGb</p>","","","","","","","",""
"html-keyboard-response","194","329173","0.0-11.0-0.25","59aaf4b1321f870001d16f6c","64b003020eef62ee308107cc","64b1152ad9071683d62814c0","null","null","<p style=""font-size: 60px; font-family: BACS"">MkmEdcDR</p>","","","","","","","",""
"html-keyboard-response","195","330184","0.0-11.0-0.26","59aaf4b1321f870001d16f6c","64b003020eef62ee308107cc","64b1152ad9071683d62814c0","null","null","<p style=""font-size: 60px; font-family: BACS"">vQdOZAUu</p>","","","","","","","",""
"html-keyboard-response","196","331190","0.0-11.0-0.27","59aaf4b1321f870001d16f6c","64b003020eef62ee308107cc","64b1152ad9071683d62814c0","null","null","<p style=""font-size: 60px; font-family: BACS"">LOLkUQGb</p>","","","","","","","",""
"html-keyboard-response","197","332194","0.0-11.0-0.28","59aaf4b1321f870001d16f6c","64b003020eef62ee308107cc","64b1152ad9071683d62814c0","null","null","<p style=""font-size: 60px; font-family: BACS"">COTKYcM</p>","","","","","","","",""
"html-keyboard-response","198","333194","0.0-11.0-0.29","59aaf4b1321f870001d16f6c","64b003020eef62ee308107cc","64b1152ad9071683d62814c0","null","null","<p style=""font-size: 60px; font-family: BACS"">LAclAcrdY</p>","","","","","","","",""
"html-keyboard-response","199","334195","0.0-11.0-0.30","59aaf4b1321f870001d16f6c","64b003020eef62ee308107cc","64b1152ad9071683d62814c0","null","null","<p style=""font-size: 60px; font-family: BACS"">ZYcQUkJdr</p>","","","","","","","",""
"html-keyboard-response","200","335195","0.0-11.0-0.31","59aaf4b1321f870001d16f6c","64b003020eef62ee308107cc","64b1152ad9071683d62814c0","null","null","<p style=""font-size: 60px; font-family: BACS"">EYtYRcDR</p>","","","","","","","",""
"html-keyboard-response","201","336208","0.0-11.0-0.32","59aaf4b1321f870001d16f6c","64b003020eef62ee308107cc","64b1152ad9071683d62814c0","null","null","<p style=""font-size: 60px; font-family: BACS"">ZYcQUcrdY</p>","","","","","","","",""
"html-keyboard-response","202","337216","0.0-11.0-0.33","59aaf4b1321f870001d16f6c","64b003020eef62ee308107cc","64b1152ad9071683d62814c0","null","null","<p style=""font-size: 60px; font-family: BACS"">PEkhAYcM</p>","","","","","","","",""
"html-keyboard-response","203","338232","0.0-11.0-0.34","59aaf4b1321f870001d16f6c","64b003020eef62ee308107cc","64b1152ad9071683d62814c0","null","null","<p style=""font-size: 60px; font-family: BACS"">CtmbcDR</p>","","","","","","","",""
"html-keyboard-response","204","339233","0.0-11.0-0.35","59aaf4b1321f870001d16f6c","64b003020eef62ee308107cc","64b1152ad9071683d62814c0","null","null","<p style=""font-size: 60px; font-family: BACS"">LOLkUkJdr</p>","","","","","","","",""
"html-keyboard-response","205","340238","0.0-11.0-0.36","59aaf4b1321f870001d16f6c","64b003020eef62ee308107cc","64b1152ad9071683d62814c0","null","null","<p style=""font-size: 60px; font-family: BACS"">htmhCOdOP</p>","","","","","","","",""
"html-keyboard-response","206","341238","0.0-11.0-0.37","59aaf4b1321f870001d16f6c","64b003020eef62ee308107cc","64b1152ad9071683d62814c0","null","null","<p style=""font-size: 60px; font-family: BACS"">ZcGdNJUNa</p>","","","","","","","",""
"html-keyboard-response","207","342254","0.0-11.0-0.38","59aaf4b1321f870001d16f6c","64b003020eef62ee308107cc","64b1152ad9071683d62814c0","null","null","<p style=""font-size: 60px; font-family: BACS"">tKDmhOtM</p>","","","","","","","",""
"html-keyboard-response","208","343261","0.0-11.0-0.39","59aaf4b1321f870001d16f6c","64b003020eef62ee308107cc","64b1152ad9071683d62814c0","null","null","<p style=""font-size: 60px; font-family: BACS"">CtmbOdOP</p>","","","","","","","",""
"html-keyboard-response","209","344268","0.0-11.0-0.40","59aaf4b1321f870001d16f6c","64b003020eef62ee308107cc","64b1152ad9071683d62814c0","null","null","<p style=""font-size: 60px; font-family: BACS"">LOLkUJUNa</p>","","","","","","","",""
"html-keyboard-response","210","345272","0.0-11.0-0.41","59aaf4b1321f870001d16f6c","64b003020eef62ee308107cc","64b1152ad9071683d62814c0","null","null","<p style=""font-size: 60px; font-family: BACS"">COTKOdOP</p>","","","","","","","",""
"html-keyboard-response","211","346279","0.0-11.0-0.42","59aaf4b1321f870001d16f6c","64b003020eef62ee308107cc","64b1152ad9071683d62814c0","null","null","<p style=""font-size: 60px; font-family: BACS"">bmbNZAUu</p>","","","","","","","",""
"html-keyboard-response","212","347286","0.0-11.0-0.43","59aaf4b1321f870001d16f6c","64b003020eef62ee308107cc","64b1152ad9071683d62814c0","null","null","<p style=""font-size: 60px; font-family: BACS"">MkmEdYcM</p>","","","","","","","",""
"html-keyboard-response","213","348289","0.0-11.0-0.44","59aaf4b1321f870001d16f6c","64b003020eef62ee308107cc","64b1152ad9071683d62814c0","null","null","<p style=""font-size: 60px; font-family: BACS"">LQurcrdY</p>","","","","","","","",""
"html-keyboard-response","214","349292","0.0-11.0-0.45","59aaf4b1321f870001d16f6c","64b003020eef62ee308107cc","64b1152ad9071683d62814c0","null","null","<p style=""font-size: 60px; font-family: BACS"">tKDmhcDR</p>","","","","","","","",""
"html-keyboard-response","215","350293","0.0-11.0-0.46","59aaf4b1321f870001d16f6c","64b003020eef62ee308107cc","64b1152ad9071683d62814c0","null","null","<p style=""font-size: 60px; font-family: BACS"">vQdOcrdY</p>","","","","","","","",""
"html-keyboard-response","216","351306","0.0-11.0-0.47","59aaf4b1321f870001d16f6c","64b003020eef62ee308107cc","64b1152ad9071683d62814c0","null","null","<p style=""font-size: 60px; font-family: BACS"">MhKdOtM</p>","","","","","","","",""
"html-keyboard-response","217","352322","0.0-11.0-0.48","59aaf4b1321f870001d16f6c","64b003020eef62ee308107cc","64b1152ad9071683d62814c0","null","null","<p style=""font-size: 60px; font-family: BACS"">ZYcQUJUNa</p>","","","","","","","",""
"html-keyboard-response","218","353322","0.0-11.0-0.49","59aaf4b1321f870001d16f6c","64b003020eef62ee308107cc","64b1152ad9071683d62814c0","null","null","<p style=""font-size: 60px; font-family: BACS"">PEkhAOdOP</p>","","","","","","","",""
"html-keyboard-response","219","354332","0.0-11.0-0.50","59aaf4b1321f870001d16f6c","64b003020eef62ee308107cc","64b1152ad9071683d62814c0","null","null","<p style=""font-size: 60px; font-family: BACS"">ZcGdNkJdr</p>","","","","","","","",""
"html-keyboard-response","220","355333","0.0-11.0-0.51","59aaf4b1321f870001d16f6c","64b003020eef62ee308107cc","64b1152ad9071683d62814c0","null","null","<p style=""font-size: 60px; font-family: BACS"">htmhCYDE</p>","","","","","","","",""
"html-keyboard-response","221","356336","0.0-11.0-0.52","59aaf4b1321f870001d16f6c","64b003020eef62ee308107cc","64b1152ad9071683d62814c0","null","null","<p style=""font-size: 60px; font-family: BACS"">LAclAkJdr</p>","","","","","","","",""
"html-keyboard-response","222","357337","0.0-11.0-0.53","59aaf4b1321f870001d16f6c","64b003020eef62ee308107cc","64b1152ad9071683d62814c0","null","null","<p style=""font-size: 60px; font-family: BACS"">LQurQGb</p>","","","","","","","",""
"html-keyboard-response","223","358338","0.0-11.0-0.54","59aaf4b1321f870001d16f6c","64b003020eef62ee308107cc","64b1152ad9071683d62814c0","null","null","<p style=""font-size: 60px; font-family: BACS"">kPOtcDR</p>","","","","","","","",""
"html-keyboard-response","224","359342","0.0-11.0-0.55","59aaf4b1321f870001d16f6c","64b003020eef62ee308107cc","64b1152ad9071683d62814c0","null","null","<p style=""font-size: 60px; font-family: BACS"">htmhCOtM</p>","","","","","","","",""
"html-keyboard-response","225","360347","0.0-11.0-0.56","59aaf4b1321f870001d16f6c","64b003020eef62ee308107cc","64b1152ad9071683d62814c0","null","null","<p style=""font-size: 60px; font-family: BACS"">LAclAJUNa</p>","","","","","","","",""
"html-keyboard-response","226","361348","0.0-11.0-0.57","59aaf4b1321f870001d16f6c","64b003020eef62ee308107cc","64b1152ad9071683d62814c0","null","null","<p style=""font-size: 60px; font-family: BACS"">vYLUQGb</p>","","","","","","","",""
"html-keyboard-response","227","362356","0.0-11.0-0.58","59aaf4b1321f870001d16f6c","64b003020eef62ee308107cc","64b1152ad9071683d62814c0","null","null","<p style=""font-size: 60px; font-family: BACS"">LQurZAUu</p>","","","","","","","",""
"html-keyboard-response","228","363359","0.0-11.0-0.59","59aaf4b1321f870001d16f6c","64b003020eef62ee308107cc","64b1152ad9071683d62814c0","null","null","<p style=""font-size: 60px; font-family: BACS"">bmbNJUNa</p>","","","","","","","",""
"html-keyboard-response","229","364374","0.0-11.0-0.60","59aaf4b1321f870001d16f6c","64b003020eef62ee308107cc","64b1152ad9071683d62814c0","null","null","<p style=""font-size: 60px; font-family: BACS"">PEkhAOtM</p>","","","","","","","",""
"html-keyboard-response","230","365374","0.0-11.0-0.61","59aaf4b1321f870001d16f6c","64b003020eef62ee308107cc","64b1152ad9071683d62814c0","null","null","<p style=""font-size: 60px; font-family: BACS"">MkmEdOdOP</p>","","","","","","","",""
"html-keyboard-response","231","366382","0.0-11.0-0.62","59aaf4b1321f870001d16f6c","64b003020eef62ee308107cc","64b1152ad9071683d62814c0","null","null","<p style=""font-size: 60px; font-family: BACS"">vYLUJUNa</p>","","","","","","","",""
"html-keyboard-response","232","367383","0.0-11.0-0.63","59aaf4b1321f870001d16f6c","64b003020eef62ee308107cc","64b1152ad9071683d62814c0","null","null","<p style=""font-size: 60px; font-family: BACS"">JdOAYQGb</p>","","","","","","","",""
"html-keyboard-response","233","368397","0.0-11.0-0.64","59aaf4b1321f870001d16f6c","64b003020eef62ee308107cc","64b1152ad9071683d62814c0","null","null","<p style=""font-size: 60px; font-family: BACS"">CtmbOtM</p>","","","","","","","",""
"html-keyboard-response","234","369412","0.0-11.0-0.65","59aaf4b1321f870001d16f6c","64b003020eef62ee308107cc","64b1152ad9071683d62814c0","null","null","<p style=""font-size: 60px; font-family: BACS"">ZcGdNZAUu</p>","","","","","","","",""
"html-keyboard-response","235","370424","0.0-11.0-0.66","59aaf4b1321f870001d16f6c","64b003020eef62ee308107cc","64b1152ad9071683d62814c0","null","null","<p style=""font-size: 60px; font-family: BACS"">JdOAYkJdr</p>","","","","","","","",""
"html-keyboard-response","236","371428","0.0-11.0-0.67","59aaf4b1321f870001d16f6c","64b003020eef62ee308107cc","64b1152ad9071683d62814c0","null","null","<p style=""font-size: 60px; font-family: BACS"">bGuOQGb</p>","","","","","","","",""
"html-keyboard-response","237","372435","0.0-11.0-0.68","59aaf4b1321f870001d16f6c","64b003020eef62ee308107cc","64b1152ad9071683d62814c0","null","null","<p style=""font-size: 60px; font-family: BACS"">vQdOkJdr</p>","","","","","","","",""
"html-keyboard-response","238","373437","0.0-11.0-0.69","59aaf4b1321f870001d16f6c","64b003020eef62ee308107cc","64b1152ad9071683d62814c0","null","null","<p style=""font-size: 60px; font-family: BACS"">bGuOJUNa</p>","","","","","","","",""
"html-keyboard-response","239","374452","0.0-11.0-0.70","59aaf4b1321f870001d16f6c","64b003020eef62ee308107cc","64b1152ad9071683d62814c0","null","null","<p style=""font-size: 60px; font-family: BACS"">EYtYROtM</p>","","","","","","","",""
"html-keyboard-response","240","375453","0.0-11.0-0.71","59aaf4b1321f870001d16f6c","64b003020eef62ee308107cc","64b1152ad9071683d62814c0","null","null","<p style=""font-size: 60px; font-family: BACS"">tKDmhYcM</p>","","","","","","","",""
"html-keyboard-response","241","376454","0.0-11.0-0.72","59aaf4b1321f870001d16f6c","64b003020eef62ee308107cc","64b1152ad9071683d62814c0","null","null","<p style=""font-size: 60px; font-family: BACS"">LAclAZAUu</p>","","","","","","","",""
"html-keyboard-response","242","377462","0.0-11.0-0.73","59aaf4b1321f870001d16f6c","64b003020eef62ee308107cc","64b1152ad9071683d62814c0","null","null","<p style=""font-size: 60px; font-family: BACS"">JdOAYcrdY</p>","","","","","","","",""
"html-keyboard-response","243","378468","0.0-11.0-0.74","59aaf4b1321f870001d16f6c","64b003020eef62ee308107cc","64b1152ad9071683d62814c0","null","null","<p style=""font-size: 60px; font-family: BACS"">CtmbYDE</p>","","","","","","","",""
"html-keyboard-response","244","379475","0.0-11.0-0.75","59aaf4b1321f870001d16f6c","64b003020eef62ee308107cc","64b1152ad9071683d62814c0","null","null","<p style=""font-size: 60px; font-family: BACS"">AdDbcDR</p>","","","","","","","",""
"html-keyboard-response","245","380482","0.0-11.0-0.76","59aaf4b1321f870001d16f6c","64b003020eef62ee308107cc","64b1152ad9071683d62814c0","null","null","<p style=""font-size: 60px; font-family: BACS"">kPOtOtM</p>","","","","","","","",""
"html-keyboard-response","246","381486","0.0-11.0-0.77","59aaf4b1321f870001d16f6c","64b003020eef62ee308107cc","64b1152ad9071683d62814c0","null","null","<p style=""font-size: 60px; font-family: BACS"">LQurkJdr</p>","","","","","","","",""
"html-keyboard-response","247","382495","0.0-11.0-0.78","59aaf4b1321f870001d16f6c","64b003020eef62ee308107cc","64b1152ad9071683d62814c0","null","null","<p style=""font-size: 60px; font-family: BACS"">kPOtYDE</p>","","","","","","","",""
"html-keyboard-response","248","383501","0.0-11.0-0.79","59aaf4b1321f870001d16f6c","64b003020eef62ee308107cc","64b1152ad9071683d62814c0","null","null","<p style=""font-size: 60px; font-family: BACS"">bmbNQGb</p>","","","","","","","",""
"html-keyboard-response","249","411185","0.0-12.0","59aaf4b1321f870001d16f6c","64b003020eef62ee308107cc","64b1152ad9071683d62814c0","27684"," ","<p>Ottimo, hai visto il terzo blocco di parole. Ora puoi prenderti una piccola pausa.</p>
      <p>Premi la barra quando sei pronta/o per riprendere.</p>","","","","","","","",""
"html-keyboard-response","250","412186","0.0-13.0-0.0","59aaf4b1321f870001d16f6c","64b003020eef62ee308107cc","64b1152ad9071683d62814c0","null","null","<p style=""font-size: 60px; font-family: BACS"">LOLkUQGb</p>","","","","","","","",""
"html-keyboard-response","251","413191","0.0-13.0-0.1","59aaf4b1321f870001d16f6c","64b003020eef62ee308107cc","64b1152ad9071683d62814c0","null","null","<p style=""font-size: 60px; font-family: BACS"">CtmbOdOP</p>","","","","","","","",""
"html-keyboard-response","252","414192","0.0-13.0-0.2","59aaf4b1321f870001d16f6c","64b003020eef62ee308107cc","64b1152ad9071683d62814c0","null","null","<p style=""font-size: 60px; font-family: BACS"">ZcGdNZAUu</p>","","","","","","","",""
"html-keyboard-response","253","415195","0.0-13.0-0.3","59aaf4b1321f870001d16f6c","64b003020eef62ee308107cc","64b1152ad9071683d62814c0","null","null","<p style=""font-size: 60px; font-family: BACS"">EYtYRcDR</p>","","","","","","","",""
"html-keyboard-response","254","416202","0.0-13.0-0.4","59aaf4b1321f870001d16f6c","64b003020eef62ee308107cc","64b1152ad9071683d62814c0","null","null","<p style=""font-size: 60px; font-family: BACS"">ZYcQUJUNa</p>","","","","","","","",""
"html-keyboard-response","255","417208","0.0-13.0-0.5","59aaf4b1321f870001d16f6c","64b003020eef62ee308107cc","64b1152ad9071683d62814c0","null","null","<p style=""font-size: 60px; font-family: BACS"">vQdOcrdY</p>","","","","","","","",""
"html-keyboard-response","256","418215","0.0-13.0-0.6","59aaf4b1321f870001d16f6c","64b003020eef62ee308107cc","64b1152ad9071683d62814c0","null","null","<p style=""font-size: 60px; font-family: BACS"">MkmEdOdOP</p>","","","","","","","",""
"html-keyboard-response","257","419226","0.0-13.0-0.7","59aaf4b1321f870001d16f6c","64b003020eef62ee308107cc","64b1152ad9071683d62814c0","null","null","<p style=""font-size: 60px; font-family: BACS"">JdOAYcrdY</p>","","","","","","","",""
"html-keyboard-response","258","420228","0.0-13.0-0.8","59aaf4b1321f870001d16f6c","64b003020eef62ee308107cc","64b1152ad9071683d62814c0","null","null","<p style=""font-size: 60px; font-family: BACS"">LOLkUJUNa</p>","","","","","","","",""
"html-keyboard-response","259","421235","0.0-13.0-0.9","59aaf4b1321f870001d16f6c","64b003020eef62ee308107cc","64b1152ad9071683d62814c0","null","null","<p style=""font-size: 60px; font-family: BACS"">AdDbOdOP</p>","","","","","","","",""
"html-keyboard-response","260","422244","0.0-13.0-0.10","59aaf4b1321f870001d16f6c","64b003020eef62ee308107cc","64b1152ad9071683d62814c0","null","null","<p style=""font-size: 60px; font-family: BACS"">bGuOJUNa</p>","","","","","","","",""
"html-keyboard-response","261","423256","0.0-13.0-0.11","59aaf4b1321f870001d16f6c","64b003020eef62ee308107cc","64b1152ad9071683d62814c0","null","null","<p style=""font-size: 60px; font-family: BACS"">tKDmhYcM</p>","","","","","","","",""
"html-keyboard-response","262","424257","0.0-13.0-0.12","59aaf4b1321f870001d16f6c","64b003020eef62ee308107cc","64b1152ad9071683d62814c0","null","null","<p style=""font-size: 60px; font-family: BACS"">vQdOQGb</p>","","","","","","","",""
"html-keyboard-response","263","425271","0.0-13.0-0.13","59aaf4b1321f870001d16f6c","64b003020eef62ee308107cc","64b1152ad9071683d62814c0","null","null","<p style=""font-size: 60px; font-family: BACS"">AdDbYDE</p>","","","","","","","",""
"html-keyboard-response","264","426278","0.0-13.0-0.14","59aaf4b1321f870001d16f6c","64b003020eef62ee308107cc","64b1152ad9071683d62814c0","null","null","<p style=""font-size: 60px; font-family: BACS"">bGuOQGb</p>","","","","","","","",""
"html-keyboard-response","265","427292","0.0-13.0-0.15","59aaf4b1321f870001d16f6c","64b003020eef62ee308107cc","64b1152ad9071683d62814c0","null","null","<p style=""font-size: 60px; font-family: BACS"">PEkhAOdOP</p>","","","","","","","",""
"html-keyboard-response","266","428300","0.0-13.0-0.16","59aaf4b1321f870001d16f6c","64b003020eef62ee308107cc","64b1152ad9071683d62814c0","null","null","<p style=""font-size: 60px; font-family: BACS"">kPOtcDR</p>","","","","","","","",""
"html-keyboard-response","267","429310","0.0-13.0-0.17","59aaf4b1321f870001d16f6c","64b003020eef62ee308107cc","64b1152ad9071683d62814c0","null","null","<p style=""font-size: 60px; font-family: BACS"">JdOAYJUNa</p>","","","","","","","",""
"html-keyboard-response","268","430323","0.0-13.0-0.18","59aaf4b1321f870001d16f6c","64b003020eef62ee308107cc","64b1152ad9071683d62814c0","null","null","<p style=""font-size: 60px; font-family: BACS"">MkmEdYDE</p>","","","","","","","",""
"html-keyboard-response","269","431332","0.0-13.0-0.19","59aaf4b1321f870001d16f6c","64b003020eef62ee308107cc","64b1152ad9071683d62814c0","null","null","<p style=""font-size: 60px; font-family: BACS"">MhKdYcM</p>","","","","","","","",""
"html-keyboard-response","270","432341","0.0-13.0-0.20","59aaf4b1321f870001d16f6c","64b003020eef62ee308107cc","64b1152ad9071683d62814c0","null","null","<p style=""font-size: 60px; font-family: BACS"">vYLUJUNa</p>","","","","","","","",""
"html-keyboard-response","271","433342","0.0-13.0-0.21","59aaf4b1321f870001d16f6c","64b003020eef62ee308107cc","64b1152ad9071683d62814c0","null","null","<p style=""font-size: 60px; font-family: BACS"">LAclAZAUu</p>","","","","","","","",""
"html-keyboard-response","272","434348","0.0-13.0-0.22","59aaf4b1321f870001d16f6c","64b003020eef62ee308107cc","64b1152ad9071683d62814c0","null","null","<p style=""font-size: 60px; font-family: BACS"">MkmEdcDR</p>","","","","","","","",""
"html-keyboard-response","273","435349","0.0-13.0-0.23","59aaf4b1321f870001d16f6c","64b003020eef62ee308107cc","64b1152ad9071683d62814c0","null","null","<p style=""font-size: 60px; font-family: BACS"">vYLUkJdr</p>","","","","","","","",""
"html-keyboard-response","274","436355","0.0-13.0-0.24","59aaf4b1321f870001d16f6c","64b003020eef62ee308107cc","64b1152ad9071683d62814c0","null","null","<p style=""font-size: 60px; font-family: BACS"">bmbNcrdY</p>","","","","","","","",""
"html-keyboard-response","275","437366","0.0-13.0-0.25","59aaf4b1321f870001d16f6c","64b003020eef62ee308107cc","64b1152ad9071683d62814c0","null","null","<p style=""font-size: 60px; font-family: BACS"">EYtYRYDE</p>","","","","","","","",""
"html-keyboard-response","276","438374","0.0-13.0-0.26","59aaf4b1321f870001d16f6c","64b003020eef62ee308107cc","64b1152ad9071683d62814c0","null","null","<p style=""font-size: 60px; font-family: BACS"">kPOtYcM</p>","","","","","","","",""
"html-keyboard-response","277","439378","0.0-13.0-0.27","59aaf4b1321f870001d16f6c","64b003020eef62ee308107cc","64b1152ad9071683d62814c0","null","null","<p style=""font-size: 60px; font-family: BACS"">AdDbOtM</p>","","","","","","","",""
"html-keyboard-response","278","440383","0.0-13.0-0.28","59aaf4b1321f870001d16f6c","64b003020eef62ee308107cc","64b1152ad9071683d62814c0","null","null","<p style=""font-size: 60px; font-family: BACS"">JdOAYkJdr</p>","","","","","","","",""
"html-keyboard-response","279","441394","0.0-13.0-0.29","59aaf4b1321f870001d16f6c","64b003020eef62ee308107cc","64b1152ad9071683d62814c0","null","null","<p style=""font-size: 60px; font-family: BACS"">LQurcrdY</p>","","","","","","","",""
"html-keyboard-response","280","442404","0.0-13.0-0.30","59aaf4b1321f870001d16f6c","64b003020eef62ee308107cc","64b1152ad9071683d62814c0","null","null","<p style=""font-size: 60px; font-family: BACS"">ZYcQUQGb</p>","","","","","","","",""
"html-keyboard-response","281","443412","0.0-13.0-0.31","59aaf4b1321f870001d16f6c","64b003020eef62ee308107cc","64b1152ad9071683d62814c0","null","null","<p style=""font-size: 60px; font-family: BACS"">bGuOcrdY</p>","","","","","","","",""
"html-keyboard-response","282","444415","0.0-13.0-0.32","59aaf4b1321f870001d16f6c","64b003020eef62ee308107cc","64b1152ad9071683d62814c0","null","null","<p style=""font-size: 60px; font-family: BACS"">tKDmhOtM</p>","","","","","","","",""
"html-keyboard-response","283","445425","0.0-13.0-0.33","59aaf4b1321f870001d16f6c","64b003020eef62ee308107cc","64b1152ad9071683d62814c0","null","null","<p style=""font-size: 60px; font-family: BACS"">JdOAYQGb</p>","","","","","","","",""
"html-keyboard-response","284","446429","0.0-13.0-0.34","59aaf4b1321f870001d16f6c","64b003020eef62ee308107cc","64b1152ad9071683d62814c0","null","null","<p style=""font-size: 60px; font-family: BACS"">LQurkJdr</p>","","","","","","","",""
"html-keyboard-response","285","447437","0.0-13.0-0.35","59aaf4b1321f870001d16f6c","64b003020eef62ee308107cc","64b1152ad9071683d62814c0","null","null","<p style=""font-size: 60px; font-family: BACS"">bmbNJUNa</p>","","","","","","","",""
"html-keyboard-response","286","448443","0.0-13.0-0.36","59aaf4b1321f870001d16f6c","64b003020eef62ee308107cc","64b1152ad9071683d62814c0","null","null","<p style=""font-size: 60px; font-family: BACS"">vQdOZAUu</p>","","","","","","","",""
"html-keyboard-response","287","449450","0.0-13.0-0.37","59aaf4b1321f870001d16f6c","64b003020eef62ee308107cc","64b1152ad9071683d62814c0","null","null","<p style=""font-size: 60px; font-family: BACS"">LQurQGb</p>","","","","","","","",""
"html-keyboard-response","288","450451","0.0-13.0-0.38","59aaf4b1321f870001d16f6c","64b003020eef62ee308107cc","64b1152ad9071683d62814c0","null","null","<p style=""font-size: 60px; font-family: BACS"">bGuOZAUu</p>","","","","","","","",""
"html-keyboard-response","289","451468","0.0-13.0-0.39","59aaf4b1321f870001d16f6c","64b003020eef62ee308107cc","64b1152ad9071683d62814c0","null","null","<p style=""font-size: 60px; font-family: BACS"">htmhCOtM</p>","","","","","","","",""
"html-keyboard-response","290","452478","0.0-13.0-0.40","59aaf4b1321f870001d16f6c","64b003020eef62ee308107cc","64b1152ad9071683d62814c0","null","null","<p style=""font-size: 60px; font-family: BACS"">COTKYDE</p>","","","","","","","",""
"html-keyboard-response","291","453490","0.0-13.0-0.41","59aaf4b1321f870001d16f6c","64b003020eef62ee308107cc","64b1152ad9071683d62814c0","null","null","<p style=""font-size: 60px; font-family: BACS"">ZcGdNJUNa</p>","","","","","","","",""
"html-keyboard-response","292","454500","0.0-13.0-0.42","59aaf4b1321f870001d16f6c","64b003020eef62ee308107cc","64b1152ad9071683d62814c0","null","null","<p style=""font-size: 60px; font-family: BACS"">MkmEdYcM</p>","","","","","","","",""
"html-keyboard-response","293","455510","0.0-13.0-0.43","59aaf4b1321f870001d16f6c","64b003020eef62ee308107cc","64b1152ad9071683d62814c0","null","null","<p style=""font-size: 60px; font-family: BACS"">PEkhAOtM</p>","","","","","","","",""
"html-keyboard-response","294","456511","0.0-13.0-0.44","59aaf4b1321f870001d16f6c","64b003020eef62ee308107cc","64b1152ad9071683d62814c0","null","null","<p style=""font-size: 60px; font-family: BACS"">LOLkUkJdr</p>","","","","","","","",""
"html-keyboard-response","295","457521","0.0-13.0-0.45","59aaf4b1321f870001d16f6c","64b003020eef62ee308107cc","64b1152ad9071683d62814c0","null","null","<p style=""font-size: 60px; font-family: BACS"">AdDbcDR</p>","","","","","","","",""
"html-keyboard-response","296","458528","0.0-13.0-0.46","59aaf4b1321f870001d16f6c","64b003020eef62ee308107cc","64b1152ad9071683d62814c0","null","null","<p style=""font-size: 60px; font-family: BACS"">ZYcQUkJdr</p>","","","","","","","",""
"html-keyboard-response","297","459532","0.0-13.0-0.47","59aaf4b1321f870001d16f6c","64b003020eef62ee308107cc","64b1152ad9071683d62814c0","null","null","<p style=""font-size: 60px; font-family: BACS"">COTKYcM</p>","","","","","","","",""
"html-keyboard-response","298","460542","0.0-13.0-0.48","59aaf4b1321f870001d16f6c","64b003020eef62ee308107cc","64b1152ad9071683d62814c0","null","null","<p style=""font-size: 60px; font-family: BACS"">CtmbYDE</p>","","","","","","","",""
"html-keyboard-response","299","461542","0.0-13.0-0.49","59aaf4b1321f870001d16f6c","64b003020eef62ee308107cc","64b1152ad9071683d62814c0","null","null","<p style=""font-size: 60px; font-family: BACS"">EYtYROtM</p>","","","","","","","",""
"html-keyboard-response","300","462556","0.0-13.0-0.50","59aaf4b1321f870001d16f6c","64b003020eef62ee308107cc","64b1152ad9071683d62814c0","null","null","<p style=""font-size: 60px; font-family: BACS"">htmhCYDE</p>","","","","","","","",""
"html-keyboard-response","301","463557","0.0-13.0-0.51","59aaf4b1321f870001d16f6c","64b003020eef62ee308107cc","64b1152ad9071683d62814c0","null","null","<p style=""font-size: 60px; font-family: BACS"">LQurZAUu</p>","","","","","","","",""
"html-keyboard-response","302","464572","0.0-13.0-0.52","59aaf4b1321f870001d16f6c","64b003020eef62ee308107cc","64b1152ad9071683d62814c0","null","null","<p style=""font-size: 60px; font-family: BACS"">vYLUQGb</p>","","","","","","","",""
"html-keyboard-response","303","465584","0.0-13.0-0.53","59aaf4b1321f870001d16f6c","64b003020eef62ee308107cc","64b1152ad9071683d62814c0","null","null","<p style=""font-size: 60px; font-family: BACS"">tKDmhOdOP</p>","","","","","","","",""
"html-keyboard-response","304","466588","0.0-13.0-0.54","59aaf4b1321f870001d16f6c","64b003020eef62ee308107cc","64b1152ad9071683d62814c0","null","null","<p style=""font-size: 60px; font-family: BACS"">vYLUZAUu</p>","","","","","","","",""
"html-keyboard-response","305","467599","0.0-13.0-0.55","59aaf4b1321f870001d16f6c","64b003020eef62ee308107cc","64b1152ad9071683d62814c0","null","null","<p style=""font-size: 60px; font-family: BACS"">MhKdOtM</p>","","","","","","","",""
"html-keyboard-response","306","468606","0.0-13.0-0.56","59aaf4b1321f870001d16f6c","64b003020eef62ee308107cc","64b1152ad9071683d62814c0","null","null","<p style=""font-size: 60px; font-family: BACS"">htmhCYcM</p>","","","","","","","",""
"html-keyboard-response","307","469612","0.0-13.0-0.57","59aaf4b1321f870001d16f6c","64b003020eef62ee308107cc","64b1152ad9071683d62814c0","null","null","<p style=""font-size: 60px; font-family: BACS"">LOLkUZAUu</p>","","","","","","","",""
"html-keyboard-response","308","470623","0.0-13.0-0.58","59aaf4b1321f870001d16f6c","64b003020eef62ee308107cc","64b1152ad9071683d62814c0","null","null","<p style=""font-size: 60px; font-family: BACS"">MhKdOdOP</p>","","","","","","","",""
"html-keyboard-response","309","471631","0.0-13.0-0.59","59aaf4b1321f870001d16f6c","64b003020eef62ee308107cc","64b1152ad9071683d62814c0","null","null","<p style=""font-size: 60px; font-family: BACS"">bmbNZAUu</p>","","","","","","","",""
"html-keyboard-response","310","472636","0.0-13.0-0.60","59aaf4b1321f870001d16f6c","64b003020eef62ee308107cc","64b1152ad9071683d62814c0","null","null","<p style=""font-size: 60px; font-family: BACS"">EYtYRYcM</p>","","","","","","","",""
"html-keyboard-response","311","473645","0.0-13.0-0.61","59aaf4b1321f870001d16f6c","64b003020eef62ee308107cc","64b1152ad9071683d62814c0","null","null","<p style=""font-size: 60px; font-family: BACS"">kPOtYDE</p>","","","","","","","",""
"html-keyboard-response","312","474652","0.0-13.0-0.62","59aaf4b1321f870001d16f6c","64b003020eef62ee308107cc","64b1152ad9071683d62814c0","null","null","<p style=""font-size: 60px; font-family: BACS"">CtmbOtM</p>","","","","","","","",""
"html-keyboard-response","313","475666","0.0-13.0-0.63","59aaf4b1321f870001d16f6c","64b003020eef62ee308107cc","64b1152ad9071683d62814c0","null","null","<p style=""font-size: 60px; font-family: BACS"">LAclAkJdr</p>","","","","","","","",""
"html-keyboard-response","314","476674","0.0-13.0-0.64","59aaf4b1321f870001d16f6c","64b003020eef62ee308107cc","64b1152ad9071683d62814c0","null","null","<p style=""font-size: 60px; font-family: BACS"">PEkhAYDE</p>","","","","","","","",""
"html-keyboard-response","315","477681","0.0-13.0-0.65","59aaf4b1321f870001d16f6c","64b003020eef62ee308107cc","64b1152ad9071683d62814c0","null","null","<p style=""font-size: 60px; font-family: BACS"">ZcGdNkJdr</p>","","","","","","","",""
"html-keyboard-response","316","478690","0.0-13.0-0.66","59aaf4b1321f870001d16f6c","64b003020eef62ee308107cc","64b1152ad9071683d62814c0","null","null","<p style=""font-size: 60px; font-family: BACS"">COTKcDR</p>","","","","","","","",""
"html-keyboard-response","317","479694","0.0-13.0-0.67","59aaf4b1321f870001d16f6c","64b003020eef62ee308107cc","64b1152ad9071683d62814c0","null","null","<p style=""font-size: 60px; font-family: BACS"">LAclAJUNa</p>","","","","","","","",""
"html-keyboard-response","318","480703","0.0-13.0-0.68","59aaf4b1321f870001d16f6c","64b003020eef62ee308107cc","64b1152ad9071683d62814c0","null","null","<p style=""font-size: 60px; font-family: BACS"">COTKOdOP</p>","","","","","","","",""
"html-keyboard-response","319","481712","0.0-13.0-0.69","59aaf4b1321f870001d16f6c","64b003020eef62ee308107cc","64b1152ad9071683d62814c0","null","null","<p style=""font-size: 60px; font-family: BACS"">MhKdcDR</p>","","","","","","","",""
"html-keyboard-response","320","482712","0.0-13.0-0.70","59aaf4b1321f870001d16f6c","64b003020eef62ee308107cc","64b1152ad9071683d62814c0","null","null","<p style=""font-size: 60px; font-family: BACS"">vQdOkJdr</p>","","","","","","","",""
"html-keyboard-response","321","483720","0.0-13.0-0.71","59aaf4b1321f870001d16f6c","64b003020eef62ee308107cc","64b1152ad9071683d62814c0","null","null","<p style=""font-size: 60px; font-family: BACS"">htmhCOdOP</p>","","","","","","","",""
"html-keyboard-response","322","484736","0.0-13.0-0.72","59aaf4b1321f870001d16f6c","64b003020eef62ee308107cc","64b1152ad9071683d62814c0","null","null","<p style=""font-size: 60px; font-family: BACS"">ZcGdNcrdY</p>","","","","","","","",""
"html-keyboard-response","323","485740","0.0-13.0-0.73","59aaf4b1321f870001d16f6c","64b003020eef62ee308107cc","64b1152ad9071683d62814c0","null","null","<p style=""font-size: 60px; font-family: BACS"">tKDmhcDR</p>","","","","","","","",""
"html-keyboard-response","324","486744","0.0-13.0-0.74","59aaf4b1321f870001d16f6c","64b003020eef62ee308107cc","64b1152ad9071683d62814c0","null","null","<p style=""font-size: 60px; font-family: BACS"">LAclAcrdY</p>","","","","","","","",""
"html-keyboard-response","325","487756","0.0-13.0-0.75","59aaf4b1321f870001d16f6c","64b003020eef62ee308107cc","64b1152ad9071683d62814c0","null","null","<p style=""font-size: 60px; font-family: BACS"">bmbNQGb</p>","","","","","","","",""
"html-keyboard-response","326","488758","0.0-13.0-0.76","59aaf4b1321f870001d16f6c","64b003020eef62ee308107cc","64b1152ad9071683d62814c0","null","null","<p style=""font-size: 60px; font-family: BACS"">ZYcQUcrdY</p>","","","","","","","",""
"html-keyboard-response","327","489760","0.0-13.0-0.77","59aaf4b1321f870001d16f6c","64b003020eef62ee308107cc","64b1152ad9071683d62814c0","null","null","<p style=""font-size: 60px; font-family: BACS"">PEkhAYcM</p>","","","","","","","",""
"html-keyboard-response","328","490760","0.0-13.0-0.78","59aaf4b1321f870001d16f6c","64b003020eef62ee308107cc","64b1152ad9071683d62814c0","null","null","<p style=""font-size: 60px; font-family: BACS"">kPOtOtM</p>","","","","","","","",""
"html-keyboard-response","329","491761","0.0-13.0-0.79","59aaf4b1321f870001d16f6c","64b003020eef62ee308107cc","64b1152ad9071683d62814c0","null","null","<p style=""font-size: 60px; font-family: BACS"">CtmbcDR</p>","","","","","","","",""
"html-keyboard-response","330","502230","0.0-14.0","59aaf4b1321f870001d16f6c","64b003020eef62ee308107cc","64b1152ad9071683d62814c0","10469"," ","<p>Ottimo, hai visto il quarto blocco di parole. Ora puoi prenderti una piccola pausa.</p>
      <p>Premi la barra quando sei pronta/o per riprendere.</p>","","","","","","","",""
"html-keyboard-response","331","503240","0.0-15.0-0.0","59aaf4b1321f870001d16f6c","64b003020eef62ee308107cc","64b1152ad9071683d62814c0","null","null","<p style=""font-size: 60px; font-family: BACS"">LOLkUZAUu</p>","","","","","","","",""
"html-keyboard-response","332","504242","0.0-15.0-0.1","59aaf4b1321f870001d16f6c","64b003020eef62ee308107cc","64b1152ad9071683d62814c0","null","null","<p style=""font-size: 60px; font-family: BACS"">LOLkUZAUu</p>","","","","","","","",""
"html-keyboard-response","333","505247","0.0-15.0-0.2","59aaf4b1321f870001d16f6c","64b003020eef62ee308107cc","64b1152ad9071683d62814c0","null","null","<p style=""font-size: 60px; font-family: BACS"">LOLkUZAUu</p>","","","","","","","",""
"html-keyboard-response","334","506257","0.0-15.0-0.3","59aaf4b1321f870001d16f6c","64b003020eef62ee308107cc","64b1152ad9071683d62814c0","null","null","<p style=""font-size: 60px; font-family: BACS"">LOLkUZAUu</p>","","","","","","","",""
"html-keyboard-response","335","507260","0.0-15.0-0.4","59aaf4b1321f870001d16f6c","64b003020eef62ee308107cc","64b1152ad9071683d62814c0","null","null","<p style=""font-size: 60px; font-family: BACS"">LOLkUZAUu</p>","","","","","","","",""
"html-keyboard-response","336","508262","0.0-15.0-0.5","59aaf4b1321f870001d16f6c","64b003020eef62ee308107cc","64b1152ad9071683d62814c0","null","null","<p style=""font-size: 60px; font-family: BACS"">LOLkUZAUu</p>","","","","","","","",""
"html-keyboard-response","337","509262","0.0-15.0-0.6","59aaf4b1321f870001d16f6c","64b003020eef62ee308107cc","64b1152ad9071683d62814c0","null","null","<p style=""font-size: 60px; font-family: BACS"">LOLkUZAUu</p>","","","","","","","",""
"html-keyboard-response","338","510271","0.0-15.0-0.7","59aaf4b1321f870001d16f6c","64b003020eef62ee308107cc","64b1152ad9071683d62814c0","null","null","<p style=""font-size: 60px; font-family: BACS"">LOLkUZAUu</p>","","","","","","","",""
"html-keyboard-response","339","511277","0.0-15.0-0.8","59aaf4b1321f870001d16f6c","64b003020eef62ee308107cc","64b1152ad9071683d62814c0","null","null","<p style=""font-size: 60px; font-family: BACS"">LOLkUZAUu</p>","","","","","","","",""
"html-keyboard-response","340","512279","0.0-15.0-0.9","59aaf4b1321f870001d16f6c","64b003020eef62ee308107cc","64b1152ad9071683d62814c0","null","null","<p style=""font-size: 60px; font-family: BACS"">LOLkUZAUu</p>","","","","","","","",""
"html-keyboard-response","341","513294","0.0-15.0-0.10","59aaf4b1321f870001d16f6c","64b003020eef62ee308107cc","64b1152ad9071683d62814c0","null","null","<p style=""font-size: 60px; font-family: BACS"">LOLkUZAUu</p>","","","","","","","",""
"html-keyboard-response","342","514295","0.0-15.0-0.11","59aaf4b1321f870001d16f6c","64b003020eef62ee308107cc","64b1152ad9071683d62814c0","null","null","<p style=""font-size: 60px; font-family: BACS"">LOLkUZAUu</p>","","","","","","","",""
"html-keyboard-response","343","515303","0.0-15.0-0.12","59aaf4b1321f870001d16f6c","64b003020eef62ee308107cc","64b1152ad9071683d62814c0","null","null","<p style=""font-size: 60px; font-family: BACS"">LOLkUZAUu</p>","","","","","","","",""
"html-keyboard-response","344","516310","0.0-15.0-0.13","59aaf4b1321f870001d16f6c","64b003020eef62ee308107cc","64b1152ad9071683d62814c0","null","null","<p style=""font-size: 60px; font-family: BACS"">LOLkUZAUu</p>","","","","","","","",""
"html-keyboard-response","345","517325","0.0-15.0-0.14","59aaf4b1321f870001d16f6c","64b003020eef62ee308107cc","64b1152ad9071683d62814c0","null","null","<p style=""font-size: 60px; font-family: BACS"">LOLkUZAUu</p>","","","","","","","",""
"html-keyboard-response","346","518326","0.0-15.0-0.15","59aaf4b1321f870001d16f6c","64b003020eef62ee308107cc","64b1152ad9071683d62814c0","null","null","<p style=""font-size: 60px; font-family: BACS"">LOLkUZAUu</p>","","","","","","","",""
"html-keyboard-response","347","519329","0.0-15.0-0.16","59aaf4b1321f870001d16f6c","64b003020eef62ee308107cc","64b1152ad9071683d62814c0","null","null","<p style=""font-size: 60px; font-family: BACS"">LOLkUZAUu</p>","","","","","","","",""
"html-keyboard-response","348","520334","0.0-15.0-0.17","59aaf4b1321f870001d16f6c","64b003020eef62ee308107cc","64b1152ad9071683d62814c0","null","null","<p style=""font-size: 60px; font-family: BACS"">LOLkUZAUu</p>","","","","","","","",""
"html-keyboard-response","349","521336","0.0-15.0-0.18","59aaf4b1321f870001d16f6c","64b003020eef62ee308107cc","64b1152ad9071683d62814c0","null","null","<p style=""font-size: 60px; font-family: BACS"">LOLkUZAUu</p>","","","","","","","",""
"html-keyboard-response","350","522336","0.0-15.0-0.19","59aaf4b1321f870001d16f6c","64b003020eef62ee308107cc","64b1152ad9071683d62814c0","null","null","<p style=""font-size: 60px; font-family: BACS"">LOLkUZAUu</p>","","","","","","","",""
"html-keyboard-response","351","523337","0.0-15.0-0.20","59aaf4b1321f870001d16f6c","64b003020eef62ee308107cc","64b1152ad9071683d62814c0","null","null","<p style=""font-size: 60px; font-family: BACS"">LOLkUZAUu</p>","","","","","","","",""
"html-keyboard-response","352","524343","0.0-15.0-0.21","59aaf4b1321f870001d16f6c","64b003020eef62ee308107cc","64b1152ad9071683d62814c0","null","null","<p style=""font-size: 60px; font-family: BACS"">LOLkUZAUu</p>","","","","","","","",""
"html-keyboard-response","353","525353","0.0-15.0-0.22","59aaf4b1321f870001d16f6c","64b003020eef62ee308107cc","64b1152ad9071683d62814c0","null","null","<p style=""font-size: 60px; font-family: BACS"">LOLkUZAUu</p>","","","","","","","",""
"html-keyboard-response","354","526362","0.0-15.0-0.23","59aaf4b1321f870001d16f6c","64b003020eef62ee308107cc","64b1152ad9071683d62814c0","null","null","<p style=""font-size: 60px; font-family: BACS"">LOLkUZAUu</p>","","","","","","","",""
"html-keyboard-response","355","527369","0.0-15.0-0.24","59aaf4b1321f870001d16f6c","64b003020eef62ee308107cc","64b1152ad9071683d62814c0","null","null","<p style=""font-size: 60px; font-family: BACS"">LOLkUZAUu</p>","","","","","","","",""
"html-keyboard-response","356","528372","0.0-15.0-0.25","59aaf4b1321f870001d16f6c","64b003020eef62ee308107cc","64b1152ad9071683d62814c0","null","null","<p style=""font-size: 60px; font-family: BACS"">LOLkUZAUu</p>","","","","","","","",""
"html-keyboard-response","357","529373","0.0-15.0-0.26","59aaf4b1321f870001d16f6c","64b003020eef62ee308107cc","64b1152ad9071683d62814c0","null","null","<p style=""font-size: 60px; font-family: BACS"">LOLkUZAUu</p>","","","","","","","",""
"html-keyboard-response","358","530374","0.0-15.0-0.27","59aaf4b1321f870001d16f6c","64b003020eef62ee308107cc","64b1152ad9071683d62814c0","null","null","<p style=""font-size: 60px; font-family: BACS"">LOLkUZAUu</p>","","","","","","","",""
"html-keyboard-response","359","531374","0.0-15.0-0.28","59aaf4b1321f870001d16f6c","64b003020eef62ee308107cc","64b1152ad9071683d62814c0","null","null","<p style=""font-size: 60px; font-family: BACS"">LOLkUZAUu</p>","","","","","","","",""
"html-keyboard-response","360","532380","0.0-15.0-0.29","59aaf4b1321f870001d16f6c","64b003020eef62ee308107cc","64b1152ad9071683d62814c0","null","null","<p style=""font-size: 60px; font-family: BACS"">LOLkUZAUu</p>","","","","","","","",""
"html-keyboard-response","361","533381","0.0-15.0-0.30","59aaf4b1321f870001d16f6c","64b003020eef62ee308107cc","64b1152ad9071683d62814c0","null","null","<p style=""font-size: 60px; font-family: BACS"">LOLkUZAUu</p>","","","","","","","",""
"html-keyboard-response","362","534396","0.0-15.0-0.31","59aaf4b1321f870001d16f6c","64b003020eef62ee308107cc","64b1152ad9071683d62814c0","null","null","<p style=""font-size: 60px; font-family: BACS"">LOLkUZAUu</p>","","","","","","","",""
"html-keyboard-response","363","535403","0.0-15.0-0.32","59aaf4b1321f870001d16f6c","64b003020eef62ee308107cc","64b1152ad9071683d62814c0","null","null","<p style=""font-size: 60px; font-family: BACS"">LOLkUZAUu</p>","","","","","","","",""
"html-keyboard-response","364","536405","0.0-15.0-0.33","59aaf4b1321f870001d16f6c","64b003020eef62ee308107cc","64b1152ad9071683d62814c0","null","null","<p style=""font-size: 60px; font-family: BACS"">LOLkUZAUu</p>","","","","","","","",""
"html-keyboard-response","365","537407","0.0-15.0-0.34","59aaf4b1321f870001d16f6c","64b003020eef62ee308107cc","64b1152ad9071683d62814c0","null","null","<p style=""font-size: 60px; font-family: BACS"">LOLkUZAUu</p>","","","","","","","",""
"html-keyboard-response","366","538930","0.0-15.0-0.35","59aaf4b1321f870001d16f6c","64b003020eef62ee308107cc","64b1152ad9071683d62814c0","null","null","<p style=""font-size: 60px; font-family: BACS"">LOLkUZAUu</p>","","","","","","","",""
"html-keyboard-response","367","539940","0.0-15.0-0.36","59aaf4b1321f870001d16f6c","64b003020eef62ee308107cc","64b1152ad9071683d62814c0","null","null","<p style=""font-size: 60px; font-family: BACS"">LOLkUZAUu</p>","","","","","","","",""
"html-keyboard-response","368","541928","0.0-15.0-0.37","59aaf4b1321f870001d16f6c","64b003020eef62ee308107cc","64b1152ad9071683d62814c0","null","null","<p style=""font-size: 60px; font-family: BACS"">LOLkUZAUu</p>","","","","","","","",""
"html-keyboard-response","369","542942","0.0-15.0-0.38","59aaf4b1321f870001d16f6c","64b003020eef62ee308107cc","64b1152ad9071683d62814c0","null","null","<p style=""font-size: 60px; font-family: BACS"">LOLkUZAUu</p>","","","","","","","",""
"html-keyboard-response","370","544936","0.0-15.0-0.39","59aaf4b1321f870001d16f6c","64b003020eef62ee308107cc","64b1152ad9071683d62814c0","null","null","<p style=""font-size: 60px; font-family: BACS"">LOLkUZAUu</p>","","","","","","","",""
"html-keyboard-response","371","545941","0.0-15.0-0.40","59aaf4b1321f870001d16f6c","64b003020eef62ee308107cc","64b1152ad9071683d62814c0","null","null","<p style=""font-size: 60px; font-family: BACS"">LOLkUZAUu</p>","","","","","","","",""
"html-keyboard-response","372","547928","0.0-15.0-0.41","59aaf4b1321f870001d16f6c","64b003020eef62ee308107cc","64b1152ad9071683d62814c0","null","null","<p style=""font-size: 60px; font-family: BACS"">LOLkUZAUu</p>","","","","","","","",""
"html-keyboard-response","373","548935","0.0-15.0-0.42","59aaf4b1321f870001d16f6c","64b003020eef62ee308107cc","64b1152ad9071683d62814c0","null","null","<p style=""font-size: 60px; font-family: BACS"">LOLkUZAUu</p>","","","","","","","",""
"html-keyboard-response","374","549951","0.0-15.0-0.43","59aaf4b1321f870001d16f6c","64b003020eef62ee308107cc","64b1152ad9071683d62814c0","null","null","<p style=""font-size: 60px; font-family: BACS"">LOLkUZAUu</p>","","","","","","","",""
"html-keyboard-response","375","550956","0.0-15.0-0.44","59aaf4b1321f870001d16f6c","64b003020eef62ee308107cc","64b1152ad9071683d62814c0","null","null","<p style=""font-size: 60px; font-family: BACS"">LOLkUZAUu</p>","","","","","","","",""
"html-keyboard-response","376","552936","0.0-15.0-0.45","59aaf4b1321f870001d16f6c","64b003020eef62ee308107cc","64b1152ad9071683d62814c0","null","null","<p style=""font-size: 60px; font-family: BACS"">LOLkUZAUu</p>","","","","","","","",""
"html-keyboard-response","377","553943","0.0-15.0-0.46","59aaf4b1321f870001d16f6c","64b003020eef62ee308107cc","64b1152ad9071683d62814c0","null","null","<p style=""font-size: 60px; font-family: BACS"">LOLkUZAUu</p>","","","","","","","",""
"html-keyboard-response","378","555942","0.0-15.0-0.47","59aaf4b1321f870001d16f6c","64b003020eef62ee308107cc","64b1152ad9071683d62814c0","null","null","<p style=""font-size: 60px; font-family: BACS"">LOLkUZAUu</p>","","","","","","","",""
"html-keyboard-response","379","557934","0.0-15.0-0.48","59aaf4b1321f870001d16f6c","64b003020eef62ee308107cc","64b1152ad9071683d62814c0","null","null","<p style=""font-size: 60px; font-family: BACS"">LOLkUZAUu</p>","","","","","","","",""
"html-keyboard-response","380","558935","0.0-15.0-0.49","59aaf4b1321f870001d16f6c","64b003020eef62ee308107cc","64b1152ad9071683d62814c0","null","null","<p style=""font-size: 60px; font-family: BACS"">LOLkUZAUu</p>","","","","","","","",""
"html-keyboard-response","381","559941","0.0-15.0-0.50","59aaf4b1321f870001d16f6c","64b003020eef62ee308107cc","64b1152ad9071683d62814c0","null","null","<p style=""font-size: 60px; font-family: BACS"">LOLkUZAUu</p>","","","","","","","",""
"html-keyboard-response","382","561938","0.0-15.0-0.51","59aaf4b1321f870001d16f6c","64b003020eef62ee308107cc","64b1152ad9071683d62814c0","null","null","<p style=""font-size: 60px; font-family: BACS"">LOLkUZAUu</p>","","","","","","","",""
"html-keyboard-response","383","563940","0.0-15.0-0.52","59aaf4b1321f870001d16f6c","64b003020eef62ee308107cc","64b1152ad9071683d62814c0","null","null","<p style=""font-size: 60px; font-family: BACS"">LOLkUZAUu</p>","","","","","","","",""
"html-keyboard-response","384","564951","0.0-15.0-0.53","59aaf4b1321f870001d16f6c","64b003020eef62ee308107cc","64b1152ad9071683d62814c0","null","null","<p style=""font-size: 60px; font-family: BACS"">LOLkUZAUu</p>","","","","","","","",""
"html-keyboard-response","385","565963","0.0-15.0-0.54","59aaf4b1321f870001d16f6c","64b003020eef62ee308107cc","64b1152ad9071683d62814c0","null","null","<p style=""font-size: 60px; font-family: BACS"">LOLkUZAUu</p>","","","","","","","",""
"html-keyboard-response","386","566964","0.0-15.0-0.55","59aaf4b1321f870001d16f6c","64b003020eef62ee308107cc","64b1152ad9071683d62814c0","null","null","<p style=""font-size: 60px; font-family: BACS"">LOLkUZAUu</p>","","","","","","","",""
"html-keyboard-response","387","567972","0.0-15.0-0.56","59aaf4b1321f870001d16f6c","64b003020eef62ee308107cc","64b1152ad9071683d62814c0","null","null","<p style=""font-size: 60px; font-family: BACS"">LOLkUZAUu</p>","","","","","","","",""
"html-keyboard-response","388","568973","0.0-15.0-0.57","59aaf4b1321f870001d16f6c","64b003020eef62ee308107cc","64b1152ad9071683d62814c0","null","null","<p style=""font-size: 60px; font-family: BACS"">LOLkUZAUu</p>","","","","","","","",""
"html-keyboard-response","389","569974","0.0-15.0-0.58","59aaf4b1321f870001d16f6c","64b003020eef62ee308107cc","64b1152ad9071683d62814c0","null","null","<p style=""font-size: 60px; font-family: BACS"">LOLkUZAUu</p>","","","","","","","",""
"html-keyboard-response","390","571931","0.0-15.0-0.59","59aaf4b1321f870001d16f6c","64b003020eef62ee308107cc","64b1152ad9071683d62814c0","null","null","<p style=""font-size: 60px; font-family: BACS"">LOLkUZAUu</p>","","","","","","","",""
"html-keyboard-response","391","572937","0.0-15.0-0.60","59aaf4b1321f870001d16f6c","64b003020eef62ee308107cc","64b1152ad9071683d62814c0","null","null","<p style=""font-size: 60px; font-family: BACS"">LOLkUZAUu</p>","","","","","","","",""
"html-keyboard-response","392","573938","0.0-15.0-0.61","59aaf4b1321f870001d16f6c","64b003020eef62ee308107cc","64b1152ad9071683d62814c0","null","null","<p style=""font-size: 60px; font-family: BACS"">LOLkUZAUu</p>","","","","","","","",""
"html-keyboard-response","393","574946","0.0-15.0-0.62","59aaf4b1321f870001d16f6c","64b003020eef62ee308107cc","64b1152ad9071683d62814c0","null","null","<p style=""font-size: 60px; font-family: BACS"">LOLkUZAUu</p>","","","","","","","",""
"html-keyboard-response","394","575961","0.0-15.0-0.63","59aaf4b1321f870001d16f6c","64b003020eef62ee308107cc","64b1152ad9071683d62814c0","null","null","<p style=""font-size: 60px; font-family: BACS"">LOLkUZAUu</p>","","","","","","","",""
"html-keyboard-response","395","576969","0.0-15.0-0.64","59aaf4b1321f870001d16f6c","64b003020eef62ee308107cc","64b1152ad9071683d62814c0","null","null","<p style=""font-size: 60px; font-family: BACS"">LOLkUZAUu</p>","","","","","","","",""
"html-keyboard-response","396","577977","0.0-15.0-0.65","59aaf4b1321f870001d16f6c","64b003020eef62ee308107cc","64b1152ad9071683d62814c0","null","null","<p style=""font-size: 60px; font-family: BACS"">LOLkUZAUu</p>","","","","","","","",""
"html-keyboard-response","397","578987","0.0-15.0-0.66","59aaf4b1321f870001d16f6c","64b003020eef62ee308107cc","64b1152ad9071683d62814c0","null","null","<p style=""font-size: 60px; font-family: BACS"">LOLkUZAUu</p>","","","","","","","",""
"html-keyboard-response","398","579988","0.0-15.0-0.67","59aaf4b1321f870001d16f6c","64b003020eef62ee308107cc","64b1152ad9071683d62814c0","null","null","<p style=""font-size: 60px; font-family: BACS"">LOLkUZAUu</p>","","","","","","","",""
"html-keyboard-response","399","580993","0.0-15.0-0.68","59aaf4b1321f870001d16f6c","64b003020eef62ee308107cc","64b1152ad9071683d62814c0","null","null","<p style=""font-size: 60px; font-family: BACS"">LOLkUZAUu</p>","","","","","","","",""
"html-keyboard-response","400","581996","0.0-15.0-0.69","59aaf4b1321f870001d16f6c","64b003020eef62ee308107cc","64b1152ad9071683d62814c0","null","null","<p style=""font-size: 60px; font-family: BACS"">LOLkUZAUu</p>","","","","","","","",""
"html-keyboard-response","401","582998","0.0-15.0-0.70","59aaf4b1321f870001d16f6c","64b003020eef62ee308107cc","64b1152ad9071683d62814c0","null","null","<p style=""font-size: 60px; font-family: BACS"">LOLkUZAUu</p>","","","","","","","",""
