"trial_type","trial_index","time_elapsed","internal_node_id","subject_id","study_id","session_id","rt","response","stimulus","success","item","task","correct_response","testing_condition","correct","target","confound","name"
"pavlovia","0","2069","0.0-0.0","5e42f03607b468000d8eb912","650c16f0f2faf8d7a0d14c09","651c1d045d995bbf6471efc3","","","","","","","","","","","",""
"survey-html-form","1","16240","0.0-1.0","5e42f03607b468000d8eb912","650c16f0f2faf8d7a0d14c09","651c1d045d995bbf6471efc3","14170","{""ID"":""5e42f03607b468000d8eb9125e42f03607b468000d8eb912""}","","","","","","","","","",""
"html-keyboard-response","2","181808","0.0-2.0","5e42f03607b468000d8eb912","650c16f0f2faf8d7a0d14c09","651c1d045d995bbf6471efc3","165566"," ","<p style=""font-size: 15px;"">Before beginning, we ask that you read the consent information and confirm your agreement to participate in the experiment.</p>
      <p style=""font-size: 15px;""> We ask that you remember that this is a research project and that your participation is entirely voluntary. You can stop your participation at any time, without needing to provide any explanation. The study we're asking you to participate in aims at examining how readers process written words. You will be engaged in a session of apprximately 20 minutes, followed by a brief questionnaire. You will have the opportunity to take a few breaks during the experiment. You will be paid £4 for your participation, corresponding to a rate of £8/hour. While this experiment looks at cognitive faculties, this experiment doesn't constitute clinical proof of eventual pathologies.</p>
      <p style=""font-size: 15px;"">All of the information collected thanks to yours and others' participation will be held in a secure password-protected server, and will not be shared with anyone not authorised to view it. Your personal information will be kept with an arbitrary participant ID. Thanks to this data anonymity process, any researcher analysing the data won't be able to track the information back to a specific participant. Therefore, this process will make identifying you impossibile, even when results from the study will be published in scientific reviews, presented at congresses, or at any other public forum. More generally, the collected data will be treated in accordance with the laws on privacy and conformity to the Legislative Degree n. 196 ""Code regarding the protection of personal data"" of the 30th of June 2003 and to the European Regulation 2016/670 (General Data Protection Regulation - GDPR). The Data Protection Officer is Avv. Valentina Carollo, who can be contacted at the following email addresses: <a href=""mailto:dpo@sissa.it"">dpo@sissa.it</a> or <a href=""mailto:rpd@sissa.it"">rpd@sissa.it</a> - PEC: <a href=""mailto:protocollo@pec.sissa.it"">protocollo@pec.sissa.it</a>.</p>
      <p style=""font-size: 15px;""> Before expressing your consent to participate, we would like to remind you again that in case you need explanations on any aspect of the experimental procedure, the researcher is at your disposition (<a href=""mailto:aliebelt@sissa.it"">aliebelt@sissa.it</a>, <a href=""mailto:davide.crepaldi@sissa.it"">davide.crepaldi@sissa.it</a>).</p>
      <p style=""font-size: 15px;"">If you would like to download the informed consent form, you can do so here: <a href=""BASL-Informed_Consent.pdf"" download>informed consent form</a>.</p>
      <p style=""font-size: 15px;"">We ask that you press the spacebar to proceed to the consent section.</p>","","","","","","","","",""
"survey-html-form","3","199734","0.0-3.0","5e42f03607b468000d8eb912","650c16f0f2faf8d7a0d14c09","651c1d045d995bbf6471efc3","17925","{""consent1"":""YES"",""consent2"":""YES"",""consent3"":""YES"",""consent4"":""YES"",""consent5"":""YES"",""consent6"":""YES""}","","","","","","","","","",""
"fullscreen","4","351372","0.0-4.0","5e42f03607b468000d8eb912","650c16f0f2faf8d7a0d14c09","651c1d045d995bbf6471efc3","","","","true","","","","","","","",""
"html-keyboard-response","5","397524","0.0-5.0","5e42f03607b468000d8eb912","650c16f0f2faf8d7a0d14c09","651c1d045d995bbf6471efc3","46151"," ","<p>Welcome, and thank you very much for your time!</p>
      <p>In this experiment, you'll be a language expert who's been asked to take a look at words that Earth has received in its first communication with aliens. Your task, in this first part of the experiment, is to pay close attention to the words you'll be shown; later, world leaders will ask you questions on what you saw. The words will be shown to you quite quickly; it seems that the aliens were in a hurry :-)</p>
      <p>Press the spacebar to continue.<p>","","","","","","","","",""
"html-keyboard-response","6","397575","0.0-6.0","5e42f03607b468000d8eb912","650c16f0f2faf8d7a0d14c09","651c1d045d995bbf6471efc3","null","null","<p style=""font-size: 120px; font-family: BACS""> </p>","","","","","","","","",""
"html-keyboard-response","7","407526","0.0-7.0","5e42f03607b468000d8eb912","650c16f0f2faf8d7a0d14c09","651c1d045d995bbf6471efc3","9950"," ","<p>Here is an example of the words you'll see:</p>
      <img src='esempio.png' height='400px'>
      <p>When you're ready to begin, press the spacebar.</p></div>","","","","","","","","",""
"html-keyboard-response","8","408529","0.0-8.0-0.0","5e42f03607b468000d8eb912","650c16f0f2faf8d7a0d14c09","651c1d045d995bbf6471efc3","null","null","<p style=""font-size: 60px; font-family: BACS"">ORbkCkbd</p>","","","","","","","","",""
"html-keyboard-response","9","409531","0.0-8.0-0.1","5e42f03607b468000d8eb912","650c16f0f2faf8d7a0d14c09","651c1d045d995bbf6471efc3","null","null","<p style=""font-size: 60px; font-family: BACS"">alJYrNlZ</p>","","","","","","","","",""
"html-keyboard-response","10","410534","0.0-8.0-0.2","5e42f03607b468000d8eb912","650c16f0f2faf8d7a0d14c09","651c1d045d995bbf6471efc3","null","null","<p style=""font-size: 60px; font-family: BACS"">GAcYGrbk</p>","","","","","","","","",""
"html-keyboard-response","11","411536","0.0-8.0-0.3","5e42f03607b468000d8eb912","650c16f0f2faf8d7a0d14c09","651c1d045d995bbf6471efc3","null","null","<p style=""font-size: 60px; font-family: BACS"">vkYGlAvdk</p>","","","","","","","","",""
"html-keyboard-response","12","412538","0.0-8.0-0.4","5e42f03607b468000d8eb912","650c16f0f2faf8d7a0d14c09","651c1d045d995bbf6471efc3","null","null","<p style=""font-size: 60px; font-family: BACS"">bdUNuUZu</p>","","","","","","","","",""
"html-keyboard-response","13","413540","0.0-8.0-0.5","5e42f03607b468000d8eb912","650c16f0f2faf8d7a0d14c09","651c1d045d995bbf6471efc3","null","null","<p style=""font-size: 60px; font-family: BACS"">EhRmdBC</p>","","","","","","","","",""
"html-keyboard-response","14","414542","0.0-8.0-0.6","5e42f03607b468000d8eb912","650c16f0f2faf8d7a0d14c09","651c1d045d995bbf6471efc3","null","null","<p style=""font-size: 60px; font-family: BACS"">GAcYrNlZ</p>","","","","","","","","",""
"html-keyboard-response","15","415544","0.0-8.0-0.7","5e42f03607b468000d8eb912","650c16f0f2faf8d7a0d14c09","651c1d045d995bbf6471efc3","null","null","<p style=""font-size: 60px; font-family: BACS"">kCRmdBC</p>","","","","","","","","",""
"html-keyboard-response","16","416545","0.0-8.0-0.8","5e42f03607b468000d8eb912","650c16f0f2faf8d7a0d14c09","651c1d045d995bbf6471efc3","null","null","<p style=""font-size: 60px; font-family: BACS"">UrOQGrbk</p>","","","","","","","","",""
"html-keyboard-response","17","417547","0.0-8.0-0.9","5e42f03607b468000d8eb912","650c16f0f2faf8d7a0d14c09","651c1d045d995bbf6471efc3","null","null","<p style=""font-size: 60px; font-family: BACS"">lGZvUZu</p>","","","","","","","","",""
"html-keyboard-response","18","418549","0.0-8.0-0.10","5e42f03607b468000d8eb912","650c16f0f2faf8d7a0d14c09","651c1d045d995bbf6471efc3","null","null","<p style=""font-size: 60px; font-family: BACS"">ORbkOtM</p>","","","","","","","","",""
"html-keyboard-response","19","419550","0.0-8.0-0.11","5e42f03607b468000d8eb912","650c16f0f2faf8d7a0d14c09","651c1d045d995bbf6471efc3","null","null","<p style=""font-size: 60px; font-family: BACS"">QcladrNlZ</p>","","","","","","","","",""
"html-keyboard-response","20","420552","0.0-8.0-0.12","5e42f03607b468000d8eb912","650c16f0f2faf8d7a0d14c09","651c1d045d995bbf6471efc3","null","null","<p style=""font-size: 60px; font-family: BACS"">lcOcAvdk</p>","","","","","","","","",""
"html-keyboard-response","21","421554","0.0-8.0-0.13","5e42f03607b468000d8eb912","650c16f0f2faf8d7a0d14c09","651c1d045d995bbf6471efc3","null","null","<p style=""font-size: 60px; font-family: BACS"">lGZvrZYd</p>","","","","","","","","",""
"html-keyboard-response","22","422555","0.0-8.0-0.14","5e42f03607b468000d8eb912","650c16f0f2faf8d7a0d14c09","651c1d045d995bbf6471efc3","null","null","<p style=""font-size: 60px; font-family: BACS"">TAdhMYht</p>","","","","","","","","",""
"html-keyboard-response","23","423557","0.0-8.0-0.15","5e42f03607b468000d8eb912","650c16f0f2faf8d7a0d14c09","651c1d045d995bbf6471efc3","null","null","<p style=""font-size: 60px; font-family: BACS"">QcladUZu</p>","","","","","","","","",""
"html-keyboard-response","24","424558","0.0-8.0-0.16","5e42f03607b468000d8eb912","650c16f0f2faf8d7a0d14c09","651c1d045d995bbf6471efc3","null","null","<p style=""font-size: 60px; font-family: BACS"">lRCBCkbd</p>","","","","","","","","",""
"html-keyboard-response","25","425560","0.0-8.0-0.17","5e42f03607b468000d8eb912","650c16f0f2faf8d7a0d14c09","651c1d045d995bbf6471efc3","null","null","<p style=""font-size: 60px; font-family: BACS"">kCRmABb</p>","","","","","","","","",""
"html-keyboard-response","26","426562","0.0-8.0-0.18","5e42f03607b468000d8eb912","650c16f0f2faf8d7a0d14c09","651c1d045d995bbf6471efc3","null","null","<p style=""font-size: 60px; font-family: BACS"">tRdMdBC</p>","","","","","","","","",""
"html-keyboard-response","27","427563","0.0-8.0-0.19","5e42f03607b468000d8eb912","650c16f0f2faf8d7a0d14c09","651c1d045d995bbf6471efc3","null","null","<p style=""font-size: 60px; font-family: BACS"">lcOcrNlZ</p>","","","","","","","","",""
"html-keyboard-response","28","428565","0.0-8.0-0.20","5e42f03607b468000d8eb912","650c16f0f2faf8d7a0d14c09","651c1d045d995bbf6471efc3","null","null","<p style=""font-size: 60px; font-family: BACS"">UrOQAvdk</p>","","","","","","","","",""
"html-keyboard-response","29","429566","0.0-8.0-0.21","5e42f03607b468000d8eb912","650c16f0f2faf8d7a0d14c09","651c1d045d995bbf6471efc3","null","null","<p style=""font-size: 60px; font-family: BACS"">lcOcUZu</p>","","","","","","","","",""
"html-keyboard-response","30","430568","0.0-8.0-0.22","5e42f03607b468000d8eb912","650c16f0f2faf8d7a0d14c09","651c1d045d995bbf6471efc3","null","null","<p style=""font-size: 60px; font-family: BACS"">bdUNurNlZ</p>","","","","","","","","",""
"html-keyboard-response","31","431569","0.0-8.0-0.23","5e42f03607b468000d8eb912","650c16f0f2faf8d7a0d14c09","651c1d045d995bbf6471efc3","null","null","<p style=""font-size: 60px; font-family: BACS"">kCRmYht</p>","","","","","","","","",""
"html-keyboard-response","32","432571","0.0-8.0-0.24","5e42f03607b468000d8eb912","650c16f0f2faf8d7a0d14c09","651c1d045d995bbf6471efc3","null","null","<p style=""font-size: 60px; font-family: BACS"">vkYGlUZu</p>","","","","","","","","",""
"html-keyboard-response","33","433573","0.0-8.0-0.25","5e42f03607b468000d8eb912","650c16f0f2faf8d7a0d14c09","651c1d045d995bbf6471efc3","null","null","<p style=""font-size: 60px; font-family: BACS"">mhtcYht</p>","","","","","","","","",""
"html-keyboard-response","34","434574","0.0-8.0-0.26","5e42f03607b468000d8eb912","650c16f0f2faf8d7a0d14c09","651c1d045d995bbf6471efc3","null","null","<p style=""font-size: 60px; font-family: BACS"">alJYAvdk</p>","","","","","","","","",""
"html-keyboard-response","35","435576","0.0-8.0-0.27","5e42f03607b468000d8eb912","650c16f0f2faf8d7a0d14c09","651c1d045d995bbf6471efc3","null","null","<p style=""font-size: 60px; font-family: BACS"">EhRmYht</p>","","","","","","","","",""
"html-keyboard-response","36","436578","0.0-8.0-0.28","5e42f03607b468000d8eb912","650c16f0f2faf8d7a0d14c09","651c1d045d995bbf6471efc3","null","null","<p style=""font-size: 60px; font-family: BACS"">mhtcCkbd</p>","","","","","","","","",""
"html-keyboard-response","37","437579","0.0-8.0-0.29","5e42f03607b468000d8eb912","650c16f0f2faf8d7a0d14c09","651c1d045d995bbf6471efc3","null","null","<p style=""font-size: 60px; font-family: BACS"">QbkAcUZu</p>","","","","","","","","",""
"html-keyboard-response","38","438581","0.0-8.0-0.30","5e42f03607b468000d8eb912","650c16f0f2faf8d7a0d14c09","651c1d045d995bbf6471efc3","null","null","<p style=""font-size: 60px; font-family: BACS"">DBlhCkbd</p>","","","","","","","","",""
"html-keyboard-response","39","439582","0.0-8.0-0.31","5e42f03607b468000d8eb912","650c16f0f2faf8d7a0d14c09","651c1d045d995bbf6471efc3","null","null","<p style=""font-size: 60px; font-family: BACS"">cDOEBOtM</p>","","","","","","","","",""
"html-keyboard-response","40","440584","0.0-8.0-0.32","5e42f03607b468000d8eb912","650c16f0f2faf8d7a0d14c09","651c1d045d995bbf6471efc3","null","null","<p style=""font-size: 60px; font-family: BACS"">QcladAvdk</p>","","","","","","","","",""
"html-keyboard-response","41","441585","0.0-8.0-0.33","5e42f03607b468000d8eb912","650c16f0f2faf8d7a0d14c09","651c1d045d995bbf6471efc3","null","null","<p style=""font-size: 60px; font-family: BACS"">vkYGlGrbk</p>","","","","","","","","",""
"html-keyboard-response","42","442586","0.0-8.0-0.34","5e42f03607b468000d8eb912","650c16f0f2faf8d7a0d14c09","651c1d045d995bbf6471efc3","null","null","<p style=""font-size: 60px; font-family: BACS"">JrGvrZYd</p>","","","","","","","","",""
"html-keyboard-response","43","443588","0.0-8.0-0.35","5e42f03607b468000d8eb912","650c16f0f2faf8d7a0d14c09","651c1d045d995bbf6471efc3","null","null","<p style=""font-size: 60px; font-family: BACS"">tRdMCkbd</p>","","","","","","","","",""
"html-keyboard-response","44","444590","0.0-8.0-0.36","5e42f03607b468000d8eb912","650c16f0f2faf8d7a0d14c09","651c1d045d995bbf6471efc3","null","null","<p style=""font-size: 60px; font-family: BACS"">lRCBABb</p>","","","","","","","","",""
"html-keyboard-response","45","445592","0.0-8.0-0.37","5e42f03607b468000d8eb912","650c16f0f2faf8d7a0d14c09","651c1d045d995bbf6471efc3","null","null","<p style=""font-size: 60px; font-family: BACS"">BOckPYht</p>","","","","","","","","",""
"html-keyboard-response","46","446593","0.0-8.0-0.38","5e42f03607b468000d8eb912","650c16f0f2faf8d7a0d14c09","651c1d045d995bbf6471efc3","null","null","<p style=""font-size: 60px; font-family: BACS"">mhtcABb</p>","","","","","","","","",""
"html-keyboard-response","47","447595","0.0-8.0-0.39","5e42f03607b468000d8eb912","650c16f0f2faf8d7a0d14c09","651c1d045d995bbf6471efc3","null","null","<p style=""font-size: 60px; font-family: BACS"">bdUNuGrbk</p>","","","","","","","","",""
"html-keyboard-response","48","448597","0.0-8.0-0.40","5e42f03607b468000d8eb912","650c16f0f2faf8d7a0d14c09","651c1d045d995bbf6471efc3","null","null","<p style=""font-size: 60px; font-family: BACS"">vkYGlrZYd</p>","","","","","","","","",""
"html-keyboard-response","49","449598","0.0-8.0-0.41","5e42f03607b468000d8eb912","650c16f0f2faf8d7a0d14c09","651c1d045d995bbf6471efc3","null","null","<p style=""font-size: 60px; font-family: BACS"">UrOQrNlZ</p>","","","","","","","","",""
"html-keyboard-response","50","450599","0.0-8.0-0.42","5e42f03607b468000d8eb912","650c16f0f2faf8d7a0d14c09","651c1d045d995bbf6471efc3","null","null","<p style=""font-size: 60px; font-family: BACS"">QbkAcGrbk</p>","","","","","","","","",""
"html-keyboard-response","51","451601","0.0-8.0-0.43","5e42f03607b468000d8eb912","650c16f0f2faf8d7a0d14c09","651c1d045d995bbf6471efc3","null","null","<p style=""font-size: 60px; font-family: BACS"">BOckPOtM</p>","","","","","","","","",""
"html-keyboard-response","52","452604","0.0-8.0-0.44","5e42f03607b468000d8eb912","650c16f0f2faf8d7a0d14c09","651c1d045d995bbf6471efc3","null","null","<p style=""font-size: 60px; font-family: BACS"">cDOEBdBC</p>","","","","","","","","",""
"html-keyboard-response","53","453605","0.0-8.0-0.45","5e42f03607b468000d8eb912","650c16f0f2faf8d7a0d14c09","651c1d045d995bbf6471efc3","null","null","<p style=""font-size: 60px; font-family: BACS"">UrOQrZYd</p>","","","","","","","","",""
"html-keyboard-response","54","454607","0.0-8.0-0.46","5e42f03607b468000d8eb912","650c16f0f2faf8d7a0d14c09","651c1d045d995bbf6471efc3","null","null","<p style=""font-size: 60px; font-family: BACS"">EhRmABb</p>","","","","","","","","",""
"html-keyboard-response","55","455608","0.0-8.0-0.47","5e42f03607b468000d8eb912","650c16f0f2faf8d7a0d14c09","651c1d045d995bbf6471efc3","null","null","<p style=""font-size: 60px; font-family: BACS"">cDOEBCkbd</p>","","","","","","","","",""
"html-keyboard-response","56","456610","0.0-8.0-0.48","5e42f03607b468000d8eb912","650c16f0f2faf8d7a0d14c09","651c1d045d995bbf6471efc3","null","null","<p style=""font-size: 60px; font-family: BACS"">DBlhOtM</p>","","","","","","","","",""
"html-keyboard-response","57","457612","0.0-8.0-0.49","5e42f03607b468000d8eb912","650c16f0f2faf8d7a0d14c09","651c1d045d995bbf6471efc3","null","null","<p style=""font-size: 60px; font-family: BACS"">JrGvAvdk</p>","","","","","","","","",""
"html-keyboard-response","58","458615","0.0-8.0-0.50","5e42f03607b468000d8eb912","650c16f0f2faf8d7a0d14c09","651c1d045d995bbf6471efc3","null","null","<p style=""font-size: 60px; font-family: BACS"">GAcYUZu</p>","","","","","","","","",""
"html-keyboard-response","59","459616","0.0-8.0-0.51","5e42f03607b468000d8eb912","650c16f0f2faf8d7a0d14c09","651c1d045d995bbf6471efc3","null","null","<p style=""font-size: 60px; font-family: BACS"">tRdMOtM</p>","","","","","","","","",""
"html-keyboard-response","60","460618","0.0-8.0-0.52","5e42f03607b468000d8eb912","650c16f0f2faf8d7a0d14c09","651c1d045d995bbf6471efc3","null","null","<p style=""font-size: 60px; font-family: BACS"">ORbkdBC</p>","","","","","","","","",""
"html-keyboard-response","61","461619","0.0-8.0-0.53","5e42f03607b468000d8eb912","650c16f0f2faf8d7a0d14c09","651c1d045d995bbf6471efc3","null","null","<p style=""font-size: 60px; font-family: BACS"">TAdhMABb</p>","","","","","","","","",""
"html-keyboard-response","62","462620","0.0-8.0-0.54","5e42f03607b468000d8eb912","650c16f0f2faf8d7a0d14c09","651c1d045d995bbf6471efc3","null","null","<p style=""font-size: 60px; font-family: BACS"">bdUNurZYd</p>","","","","","","","","",""
"html-keyboard-response","63","463622","0.0-8.0-0.55","5e42f03607b468000d8eb912","650c16f0f2faf8d7a0d14c09","651c1d045d995bbf6471efc3","null","null","<p style=""font-size: 60px; font-family: BACS"">lRCBYht</p>","","","","","","","","",""
"html-keyboard-response","64","464623","0.0-8.0-0.56","5e42f03607b468000d8eb912","650c16f0f2faf8d7a0d14c09","651c1d045d995bbf6471efc3","null","null","<p style=""font-size: 60px; font-family: BACS"">DBlhABb</p>","","","","","","","","",""
"html-keyboard-response","65","465624","0.0-8.0-0.57","5e42f03607b468000d8eb912","650c16f0f2faf8d7a0d14c09","651c1d045d995bbf6471efc3","null","null","<p style=""font-size: 60px; font-family: BACS"">GAcYAvdk</p>","","","","","","","","",""
"html-keyboard-response","66","466626","0.0-8.0-0.58","5e42f03607b468000d8eb912","650c16f0f2faf8d7a0d14c09","651c1d045d995bbf6471efc3","null","null","<p style=""font-size: 60px; font-family: BACS"">JrGvrNlZ</p>","","","","","","","","",""
"html-keyboard-response","67","467627","0.0-8.0-0.59","5e42f03607b468000d8eb912","650c16f0f2faf8d7a0d14c09","651c1d045d995bbf6471efc3","null","null","<p style=""font-size: 60px; font-family: BACS"">kCRmCkbd</p>","","","","","","","","",""
"html-keyboard-response","68","468629","0.0-8.0-0.60","5e42f03607b468000d8eb912","650c16f0f2faf8d7a0d14c09","651c1d045d995bbf6471efc3","null","null","<p style=""font-size: 60px; font-family: BACS"">cDOEBABb</p>","","","","","","","","",""
"html-keyboard-response","69","469630","0.0-8.0-0.61","5e42f03607b468000d8eb912","650c16f0f2faf8d7a0d14c09","651c1d045d995bbf6471efc3","null","null","<p style=""font-size: 60px; font-family: BACS"">alJYUZu</p>","","","","","","","","",""
"html-keyboard-response","70","470631","0.0-8.0-0.62","5e42f03607b468000d8eb912","650c16f0f2faf8d7a0d14c09","651c1d045d995bbf6471efc3","null","null","<p style=""font-size: 60px; font-family: BACS"">lGZvrNlZ</p>","","","","","","","","",""
"html-keyboard-response","71","471632","0.0-8.0-0.63","5e42f03607b468000d8eb912","650c16f0f2faf8d7a0d14c09","651c1d045d995bbf6471efc3","null","null","<p style=""font-size: 60px; font-family: BACS"">tRdMYht</p>","","","","","","","","",""
"html-keyboard-response","72","472633","0.0-8.0-0.64","5e42f03607b468000d8eb912","650c16f0f2faf8d7a0d14c09","651c1d045d995bbf6471efc3","null","null","<p style=""font-size: 60px; font-family: BACS"">TAdhMdBC</p>","","","","","","","","",""
"html-keyboard-response","73","473635","0.0-8.0-0.65","5e42f03607b468000d8eb912","650c16f0f2faf8d7a0d14c09","651c1d045d995bbf6471efc3","null","null","<p style=""font-size: 60px; font-family: BACS"">BOckPABb</p>","","","","","","","","",""
"html-keyboard-response","74","474637","0.0-8.0-0.66","5e42f03607b468000d8eb912","650c16f0f2faf8d7a0d14c09","651c1d045d995bbf6471efc3","null","null","<p style=""font-size: 60px; font-family: BACS"">EhRmOtM</p>","","","","","","","","",""
"html-keyboard-response","75","475639","0.0-8.0-0.67","5e42f03607b468000d8eb912","650c16f0f2faf8d7a0d14c09","651c1d045d995bbf6471efc3","null","null","<p style=""font-size: 60px; font-family: BACS"">mhtcdBC</p>","","","","","","","","",""
"html-keyboard-response","76","476640","0.0-8.0-0.68","5e42f03607b468000d8eb912","650c16f0f2faf8d7a0d14c09","651c1d045d995bbf6471efc3","null","null","<p style=""font-size: 60px; font-family: BACS"">ORbkYht</p>","","","","","","","","",""
"html-keyboard-response","77","477641","0.0-8.0-0.69","5e42f03607b468000d8eb912","650c16f0f2faf8d7a0d14c09","651c1d045d995bbf6471efc3","null","null","<p style=""font-size: 60px; font-family: BACS"">DBlhdBC</p>","","","","","","","","",""
"html-keyboard-response","78","478642","0.0-8.0-0.70","5e42f03607b468000d8eb912","650c16f0f2faf8d7a0d14c09","651c1d045d995bbf6471efc3","null","null","<p style=""font-size: 60px; font-family: BACS"">lGZvGrbk</p>","","","","","","","","",""
"html-keyboard-response","79","479643","0.0-8.0-0.71","5e42f03607b468000d8eb912","650c16f0f2faf8d7a0d14c09","651c1d045d995bbf6471efc3","null","null","<p style=""font-size: 60px; font-family: BACS"">QcladrZYd</p>","","","","","","","","",""
"html-keyboard-response","80","480644","0.0-8.0-0.72","5e42f03607b468000d8eb912","650c16f0f2faf8d7a0d14c09","651c1d045d995bbf6471efc3","null","null","<p style=""font-size: 60px; font-family: BACS"">JrGvGrbk</p>","","","","","","","","",""
"html-keyboard-response","81","481645","0.0-8.0-0.73","5e42f03607b468000d8eb912","650c16f0f2faf8d7a0d14c09","651c1d045d995bbf6471efc3","null","null","<p style=""font-size: 60px; font-family: BACS"">lcOcrZYd</p>","","","","","","","","",""
"html-keyboard-response","82","482646","0.0-8.0-0.74","5e42f03607b468000d8eb912","650c16f0f2faf8d7a0d14c09","651c1d045d995bbf6471efc3","null","null","<p style=""font-size: 60px; font-family: BACS"">QbkAcAvdk</p>","","","","","","","","",""
"html-keyboard-response","83","483647","0.0-8.0-0.75","5e42f03607b468000d8eb912","650c16f0f2faf8d7a0d14c09","651c1d045d995bbf6471efc3","null","null","<p style=""font-size: 60px; font-family: BACS"">BOckPCkbd</p>","","","","","","","","",""
"html-keyboard-response","84","484648","0.0-8.0-0.76","5e42f03607b468000d8eb912","650c16f0f2faf8d7a0d14c09","651c1d045d995bbf6471efc3","null","null","<p style=""font-size: 60px; font-family: BACS"">alJYGrbk</p>","","","","","","","","",""
"html-keyboard-response","85","485649","0.0-8.0-0.77","5e42f03607b468000d8eb912","650c16f0f2faf8d7a0d14c09","651c1d045d995bbf6471efc3","null","null","<p style=""font-size: 60px; font-family: BACS"">TAdhMOtM</p>","","","","","","","","",""
"html-keyboard-response","86","486650","0.0-8.0-0.78","5e42f03607b468000d8eb912","650c16f0f2faf8d7a0d14c09","651c1d045d995bbf6471efc3","null","null","<p style=""font-size: 60px; font-family: BACS"">QbkAcrZYd</p>","","","","","","","","",""
"html-keyboard-response","87","487651","0.0-8.0-0.79","5e42f03607b468000d8eb912","650c16f0f2faf8d7a0d14c09","651c1d045d995bbf6471efc3","null","null","<p style=""font-size: 60px; font-family: BACS"">lRCBOtM</p>","","","","","","","","",""
"html-keyboard-response","88","495645","0.0-9.0","5e42f03607b468000d8eb912","650c16f0f2faf8d7a0d14c09","651c1d045d995bbf6471efc3","7994"," ","<p>Great, you've seen the first block of words. You may now take a short break.</p>
      <p>Press the spacebar when you're ready to continue.</p>","","","","","","","","",""
"html-keyboard-response","89","496646","0.0-10.0-0.0","5e42f03607b468000d8eb912","650c16f0f2faf8d7a0d14c09","651c1d045d995bbf6471efc3","null","null","<p style=""font-size: 60px; font-family: BACS"">JrGvAvdk</p>","","","","","","","","",""
"html-keyboard-response","90","497648","0.0-10.0-0.1","5e42f03607b468000d8eb912","650c16f0f2faf8d7a0d14c09","651c1d045d995bbf6471efc3","null","null","<p style=""font-size: 60px; font-family: BACS"">QcladrNlZ</p>","","","","","","","","",""
"html-keyboard-response","91","498650","0.0-10.0-0.2","5e42f03607b468000d8eb912","650c16f0f2faf8d7a0d14c09","651c1d045d995bbf6471efc3","null","null","<p style=""font-size: 60px; font-family: BACS"">bdUNuUZu</p>","","","","","","","","",""
"html-keyboard-response","92","499651","0.0-10.0-0.3","5e42f03607b468000d8eb912","650c16f0f2faf8d7a0d14c09","651c1d045d995bbf6471efc3","null","null","<p style=""font-size: 60px; font-family: BACS"">TAdhMOtM</p>","","","","","","","","",""
"html-keyboard-response","93","500653","0.0-10.0-0.4","5e42f03607b468000d8eb912","650c16f0f2faf8d7a0d14c09","651c1d045d995bbf6471efc3","null","null","<p style=""font-size: 60px; font-family: BACS"">ORbkdBC</p>","","","","","","","","",""
"html-keyboard-response","94","501655","0.0-10.0-0.5","5e42f03607b468000d8eb912","650c16f0f2faf8d7a0d14c09","651c1d045d995bbf6471efc3","null","null","<p style=""font-size: 60px; font-family: BACS"">BOckPABb</p>","","","","","","","","",""
"html-keyboard-response","95","502657","0.0-10.0-0.6","5e42f03607b468000d8eb912","650c16f0f2faf8d7a0d14c09","651c1d045d995bbf6471efc3","null","null","<p style=""font-size: 60px; font-family: BACS"">EhRmYht</p>","","","","","","","","",""
"html-keyboard-response","96","503658","0.0-10.0-0.7","5e42f03607b468000d8eb912","650c16f0f2faf8d7a0d14c09","651c1d045d995bbf6471efc3","null","null","<p style=""font-size: 60px; font-family: BACS"">QbkAcGrbk</p>","","","","","","","","",""
"html-keyboard-response","97","504660","0.0-10.0-0.8","5e42f03607b468000d8eb912","650c16f0f2faf8d7a0d14c09","651c1d045d995bbf6471efc3","null","null","<p style=""font-size: 60px; font-family: BACS"">lcOcrZYd</p>","","","","","","","","",""
"html-keyboard-response","98","505661","0.0-10.0-0.9","5e42f03607b468000d8eb912","650c16f0f2faf8d7a0d14c09","651c1d045d995bbf6471efc3","null","null","<p style=""font-size: 60px; font-family: BACS"">tRdMdBC</p>","","","","","","","","",""
"html-keyboard-response","99","506662","0.0-10.0-0.10","5e42f03607b468000d8eb912","650c16f0f2faf8d7a0d14c09","651c1d045d995bbf6471efc3","null","null","<p style=""font-size: 60px; font-family: BACS"">BOckPOtM</p>","","","","","","","","",""
"html-keyboard-response","100","507663","0.0-10.0-0.11","5e42f03607b468000d8eb912","650c16f0f2faf8d7a0d14c09","651c1d045d995bbf6471efc3","null","null","<p style=""font-size: 60px; font-family: BACS"">lGZvGrbk</p>","","","","","","","","",""
"html-keyboard-response","101","508664","0.0-10.0-0.12","5e42f03607b468000d8eb912","650c16f0f2faf8d7a0d14c09","651c1d045d995bbf6471efc3","null","null","<p style=""font-size: 60px; font-family: BACS"">cDOEBOtM</p>","","","","","","","","",""
"html-keyboard-response","102","509665","0.0-10.0-0.13","5e42f03607b468000d8eb912","650c16f0f2faf8d7a0d14c09","651c1d045d995bbf6471efc3","null","null","<p style=""font-size: 60px; font-family: BACS"">lcOcrNlZ</p>","","","","","","","","",""
"html-keyboard-response","103","510666","0.0-10.0-0.14","5e42f03607b468000d8eb912","650c16f0f2faf8d7a0d14c09","651c1d045d995bbf6471efc3","null","null","<p style=""font-size: 60px; font-family: BACS"">cDOEBABb</p>","","","","","","","","",""
"html-keyboard-response","104","511667","0.0-10.0-0.15","5e42f03607b468000d8eb912","650c16f0f2faf8d7a0d14c09","651c1d045d995bbf6471efc3","null","null","<p style=""font-size: 60px; font-family: BACS"">GAcYUZu</p>","","","","","","","","",""
"html-keyboard-response","105","512669","0.0-10.0-0.16","5e42f03607b468000d8eb912","650c16f0f2faf8d7a0d14c09","651c1d045d995bbf6471efc3","null","null","<p style=""font-size: 60px; font-family: BACS"">kCRmdBC</p>","","","","","","","","",""
"html-keyboard-response","106","513670","0.0-10.0-0.17","5e42f03607b468000d8eb912","650c16f0f2faf8d7a0d14c09","651c1d045d995bbf6471efc3","null","null","<p style=""font-size: 60px; font-family: BACS"">bdUNurZYd</p>","","","","","","","","",""
"html-keyboard-response","107","514672","0.0-10.0-0.18","5e42f03607b468000d8eb912","650c16f0f2faf8d7a0d14c09","651c1d045d995bbf6471efc3","null","null","<p style=""font-size: 60px; font-family: BACS"">QcladAvdk</p>","","","","","","","","",""
"html-keyboard-response","108","515673","0.0-10.0-0.19","5e42f03607b468000d8eb912","650c16f0f2faf8d7a0d14c09","651c1d045d995bbf6471efc3","null","null","<p style=""font-size: 60px; font-family: BACS"">GAcYrNlZ</p>","","","","","","","","",""
"html-keyboard-response","109","516674","0.0-10.0-0.20","5e42f03607b468000d8eb912","650c16f0f2faf8d7a0d14c09","651c1d045d995bbf6471efc3","null","null","<p style=""font-size: 60px; font-family: BACS"">alJYUZu</p>","","","","","","","","",""
"html-keyboard-response","110","517676","0.0-10.0-0.21","5e42f03607b468000d8eb912","650c16f0f2faf8d7a0d14c09","651c1d045d995bbf6471efc3","null","null","<p style=""font-size: 60px; font-family: BACS"">vkYGlGrbk</p>","","","","","","","","",""
"html-keyboard-response","111","518677","0.0-10.0-0.22","5e42f03607b468000d8eb912","650c16f0f2faf8d7a0d14c09","651c1d045d995bbf6471efc3","null","null","<p style=""font-size: 60px; font-family: BACS"">lRCBYht</p>","","","","","","","","",""
"html-keyboard-response","112","519679","0.0-10.0-0.23","5e42f03607b468000d8eb912","650c16f0f2faf8d7a0d14c09","651c1d045d995bbf6471efc3","null","null","<p style=""font-size: 60px; font-family: BACS"">EhRmABb</p>","","","","","","","","",""
"html-keyboard-response","113","520681","0.0-10.0-0.24","5e42f03607b468000d8eb912","650c16f0f2faf8d7a0d14c09","651c1d045d995bbf6471efc3","null","null","<p style=""font-size: 60px; font-family: BACS"">QbkAcUZu</p>","","","","","","","","",""
"html-keyboard-response","114","521682","0.0-10.0-0.25","5e42f03607b468000d8eb912","650c16f0f2faf8d7a0d14c09","651c1d045d995bbf6471efc3","null","null","<p style=""font-size: 60px; font-family: BACS"">alJYrNlZ</p>","","","","","","","","",""
"html-keyboard-response","115","522683","0.0-10.0-0.26","5e42f03607b468000d8eb912","650c16f0f2faf8d7a0d14c09","651c1d045d995bbf6471efc3","null","null","<p style=""font-size: 60px; font-family: BACS"">vkYGlUZu</p>","","","","","","","","",""
"html-keyboard-response","116","523684","0.0-10.0-0.27","5e42f03607b468000d8eb912","650c16f0f2faf8d7a0d14c09","651c1d045d995bbf6471efc3","null","null","<p style=""font-size: 60px; font-family: BACS"">JrGvrZYd</p>","","","","","","","","",""
"html-keyboard-response","117","524686","0.0-10.0-0.28","5e42f03607b468000d8eb912","650c16f0f2faf8d7a0d14c09","651c1d045d995bbf6471efc3","null","null","<p style=""font-size: 60px; font-family: BACS"">DBlhdBC</p>","","","","","","","","",""
"html-keyboard-response","118","525688","0.0-10.0-0.29","5e42f03607b468000d8eb912","650c16f0f2faf8d7a0d14c09","651c1d045d995bbf6471efc3","null","null","<p style=""font-size: 60px; font-family: BACS"">lGZvrZYd</p>","","","","","","","","",""
"html-keyboard-response","119","526690","0.0-10.0-0.30","5e42f03607b468000d8eb912","650c16f0f2faf8d7a0d14c09","651c1d045d995bbf6471efc3","null","null","<p style=""font-size: 60px; font-family: BACS"">tRdMYht</p>","","","","","","","","",""
"html-keyboard-response","120","527691","0.0-10.0-0.31","5e42f03607b468000d8eb912","650c16f0f2faf8d7a0d14c09","651c1d045d995bbf6471efc3","null","null","<p style=""font-size: 60px; font-family: BACS"">lcOcUZu</p>","","","","","","","","",""
"html-keyboard-response","121","528693","0.0-10.0-0.32","5e42f03607b468000d8eb912","650c16f0f2faf8d7a0d14c09","651c1d045d995bbf6471efc3","null","null","<p style=""font-size: 60px; font-family: BACS"">lRCBCkbd</p>","","","","","","","","",""
"html-keyboard-response","122","529694","0.0-10.0-0.33","5e42f03607b468000d8eb912","650c16f0f2faf8d7a0d14c09","651c1d045d995bbf6471efc3","null","null","<p style=""font-size: 60px; font-family: BACS"">UrOQGrbk</p>","","","","","","","","",""
"html-keyboard-response","123","530695","0.0-10.0-0.34","5e42f03607b468000d8eb912","650c16f0f2faf8d7a0d14c09","651c1d045d995bbf6471efc3","null","null","<p style=""font-size: 60px; font-family: BACS"">lRCBABb</p>","","","","","","","","",""
"html-keyboard-response","124","531697","0.0-10.0-0.35","5e42f03607b468000d8eb912","650c16f0f2faf8d7a0d14c09","651c1d045d995bbf6471efc3","null","null","<p style=""font-size: 60px; font-family: BACS"">cDOEBCkbd</p>","","","","","","","","",""
"html-keyboard-response","125","532698","0.0-10.0-0.36","5e42f03607b468000d8eb912","650c16f0f2faf8d7a0d14c09","651c1d045d995bbf6471efc3","null","null","<p style=""font-size: 60px; font-family: BACS"">UrOQAvdk</p>","","","","","","","","",""
"html-keyboard-response","126","533699","0.0-10.0-0.37","5e42f03607b468000d8eb912","650c16f0f2faf8d7a0d14c09","651c1d045d995bbf6471efc3","null","null","<p style=""font-size: 60px; font-family: BACS"">ORbkCkbd</p>","","","","","","","","",""
"html-keyboard-response","127","534701","0.0-10.0-0.38","5e42f03607b468000d8eb912","650c16f0f2faf8d7a0d14c09","651c1d045d995bbf6471efc3","null","null","<p style=""font-size: 60px; font-family: BACS"">TAdhMABb</p>","","","","","","","","",""
"html-keyboard-response","128","535702","0.0-10.0-0.39","5e42f03607b468000d8eb912","650c16f0f2faf8d7a0d14c09","651c1d045d995bbf6471efc3","null","null","<p style=""font-size: 60px; font-family: BACS"">alJYGrbk</p>","","","","","","","","",""
"html-keyboard-response","129","536704","0.0-10.0-0.40","5e42f03607b468000d8eb912","650c16f0f2faf8d7a0d14c09","651c1d045d995bbf6471efc3","null","null","<p style=""font-size: 60px; font-family: BACS"">QbkAcAvdk</p>","","","","","","","","",""
"html-keyboard-response","130","537706","0.0-10.0-0.41","5e42f03607b468000d8eb912","650c16f0f2faf8d7a0d14c09","651c1d045d995bbf6471efc3","null","null","<p style=""font-size: 60px; font-family: BACS"">BOckPCkbd</p>","","","","","","","","",""
"html-keyboard-response","131","538707","0.0-10.0-0.42","5e42f03607b468000d8eb912","650c16f0f2faf8d7a0d14c09","651c1d045d995bbf6471efc3","null","null","<p style=""font-size: 60px; font-family: BACS"">QbkAcrZYd</p>","","","","","","","","",""
"html-keyboard-response","132","539709","0.0-10.0-0.43","5e42f03607b468000d8eb912","650c16f0f2faf8d7a0d14c09","651c1d045d995bbf6471efc3","null","null","<p style=""font-size: 60px; font-family: BACS"">lGZvrNlZ</p>","","","","","","","","",""
"html-keyboard-response","133","540710","0.0-10.0-0.44","5e42f03607b468000d8eb912","650c16f0f2faf8d7a0d14c09","651c1d045d995bbf6471efc3","null","null","<p style=""font-size: 60px; font-family: BACS"">mhtcCkbd</p>","","","","","","","","",""
"html-keyboard-response","134","541712","0.0-10.0-0.45","5e42f03607b468000d8eb912","650c16f0f2faf8d7a0d14c09","651c1d045d995bbf6471efc3","null","null","<p style=""font-size: 60px; font-family: BACS"">DBlhOtM</p>","","","","","","","","",""
"html-keyboard-response","135","542714","0.0-10.0-0.46","5e42f03607b468000d8eb912","650c16f0f2faf8d7a0d14c09","651c1d045d995bbf6471efc3","null","null","<p style=""font-size: 60px; font-family: BACS"">lGZvUZu</p>","","","","","","","","",""
"html-keyboard-response","136","543716","0.0-10.0-0.47","5e42f03607b468000d8eb912","650c16f0f2faf8d7a0d14c09","651c1d045d995bbf6471efc3","null","null","<p style=""font-size: 60px; font-family: BACS"">JrGvGrbk</p>","","","","","","","","",""
"html-keyboard-response","137","544717","0.0-10.0-0.48","5e42f03607b468000d8eb912","650c16f0f2faf8d7a0d14c09","651c1d045d995bbf6471efc3","null","null","<p style=""font-size: 60px; font-family: BACS"">tRdMCkbd</p>","","","","","","","","",""
"html-keyboard-response","138","545719","0.0-10.0-0.49","5e42f03607b468000d8eb912","650c16f0f2faf8d7a0d14c09","651c1d045d995bbf6471efc3","null","null","<p style=""font-size: 60px; font-family: BACS"">bdUNuGrbk</p>","","","","","","","","",""
"html-keyboard-response","139","546721","0.0-10.0-0.50","5e42f03607b468000d8eb912","650c16f0f2faf8d7a0d14c09","651c1d045d995bbf6471efc3","null","null","<p style=""font-size: 60px; font-family: BACS"">mhtcYht</p>","","","","","","","","",""
"html-keyboard-response","140","547722","0.0-10.0-0.51","5e42f03607b468000d8eb912","650c16f0f2faf8d7a0d14c09","651c1d045d995bbf6471efc3","null","null","<p style=""font-size: 60px; font-family: BACS"">UrOQrNlZ</p>","","","","","","","","",""
"html-keyboard-response","141","548723","0.0-10.0-0.52","5e42f03607b468000d8eb912","650c16f0f2faf8d7a0d14c09","651c1d045d995bbf6471efc3","null","null","<p style=""font-size: 60px; font-family: BACS"">TAdhMdBC</p>","","","","","","","","",""
"html-keyboard-response","142","549725","0.0-10.0-0.53","5e42f03607b468000d8eb912","650c16f0f2faf8d7a0d14c09","651c1d045d995bbf6471efc3","null","null","<p style=""font-size: 60px; font-family: BACS"">lcOcAvdk</p>","","","","","","","","",""
"html-keyboard-response","143","550727","0.0-10.0-0.54","5e42f03607b468000d8eb912","650c16f0f2faf8d7a0d14c09","651c1d045d995bbf6471efc3","null","null","<p style=""font-size: 60px; font-family: BACS"">ORbkYht</p>","","","","","","","","",""
"html-keyboard-response","144","551729","0.0-10.0-0.55","5e42f03607b468000d8eb912","650c16f0f2faf8d7a0d14c09","651c1d045d995bbf6471efc3","null","null","<p style=""font-size: 60px; font-family: BACS"">GAcYAvdk</p>","","","","","","","","",""
"html-keyboard-response","145","552731","0.0-10.0-0.56","5e42f03607b468000d8eb912","650c16f0f2faf8d7a0d14c09","651c1d045d995bbf6471efc3","null","null","<p style=""font-size: 60px; font-family: BACS"">bdUNurNlZ</p>","","","","","","","","",""
"html-keyboard-response","146","553733","0.0-10.0-0.57","5e42f03607b468000d8eb912","650c16f0f2faf8d7a0d14c09","651c1d045d995bbf6471efc3","null","null","<p style=""font-size: 60px; font-family: BACS"">kCRmABb</p>","","","","","","","","",""
"html-keyboard-response","147","554735","0.0-10.0-0.58","5e42f03607b468000d8eb912","650c16f0f2faf8d7a0d14c09","651c1d045d995bbf6471efc3","null","null","<p style=""font-size: 60px; font-family: BACS"">QcladUZu</p>","","","","","","","","",""
"html-keyboard-response","148","555736","0.0-10.0-0.59","5e42f03607b468000d8eb912","650c16f0f2faf8d7a0d14c09","651c1d045d995bbf6471efc3","null","null","<p style=""font-size: 60px; font-family: BACS"">alJYAvdk</p>","","","","","","","","",""
"html-keyboard-response","149","556738","0.0-10.0-0.60","5e42f03607b468000d8eb912","650c16f0f2faf8d7a0d14c09","651c1d045d995bbf6471efc3","null","null","<p style=""font-size: 60px; font-family: BACS"">DBlhCkbd</p>","","","","","","","","",""
"html-keyboard-response","150","557739","0.0-10.0-0.61","5e42f03607b468000d8eb912","650c16f0f2faf8d7a0d14c09","651c1d045d995bbf6471efc3","null","null","<p style=""font-size: 60px; font-family: BACS"">cDOEBdBC</p>","","","","","","","","",""
"html-keyboard-response","151","558741","0.0-10.0-0.62","5e42f03607b468000d8eb912","650c16f0f2faf8d7a0d14c09","651c1d045d995bbf6471efc3","null","null","<p style=""font-size: 60px; font-family: BACS"">UrOQrZYd</p>","","","","","","","","",""
"html-keyboard-response","152","559743","0.0-10.0-0.63","5e42f03607b468000d8eb912","650c16f0f2faf8d7a0d14c09","651c1d045d995bbf6471efc3","null","null","<p style=""font-size: 60px; font-family: BACS"">EhRmdBC</p>","","","","","","","","",""
"html-keyboard-response","153","560745","0.0-10.0-0.64","5e42f03607b468000d8eb912","650c16f0f2faf8d7a0d14c09","651c1d045d995bbf6471efc3","null","null","<p style=""font-size: 60px; font-family: BACS"">tRdMOtM</p>","","","","","","","","",""
"html-keyboard-response","154","561746","0.0-10.0-0.65","5e42f03607b468000d8eb912","650c16f0f2faf8d7a0d14c09","651c1d045d995bbf6471efc3","null","null","<p style=""font-size: 60px; font-family: BACS"">mhtcdBC</p>","","","","","","","","",""
"html-keyboard-response","155","562748","0.0-10.0-0.66","5e42f03607b468000d8eb912","650c16f0f2faf8d7a0d14c09","651c1d045d995bbf6471efc3","null","null","<p style=""font-size: 60px; font-family: BACS"">vkYGlrZYd</p>","","","","","","","","",""
"html-keyboard-response","156","563749","0.0-10.0-0.67","5e42f03607b468000d8eb912","650c16f0f2faf8d7a0d14c09","651c1d045d995bbf6471efc3","null","null","<p style=""font-size: 60px; font-family: BACS"">EhRmOtM</p>","","","","","","","","",""
"html-keyboard-response","157","564750","0.0-10.0-0.68","5e42f03607b468000d8eb912","650c16f0f2faf8d7a0d14c09","651c1d045d995bbf6471efc3","null","null","<p style=""font-size: 60px; font-family: BACS"">DBlhABb</p>","","","","","","","","",""
"html-keyboard-response","158","565751","0.0-10.0-0.69","5e42f03607b468000d8eb912","650c16f0f2faf8d7a0d14c09","651c1d045d995bbf6471efc3","null","null","<p style=""font-size: 60px; font-family: BACS"">ORbkOtM</p>","","","","","","","","",""
"html-keyboard-response","159","566753","0.0-10.0-0.70","5e42f03607b468000d8eb912","650c16f0f2faf8d7a0d14c09","651c1d045d995bbf6471efc3","null","null","<p style=""font-size: 60px; font-family: BACS"">mhtcABb</p>","","","","","","","","",""
"html-keyboard-response","160","567755","0.0-10.0-0.71","5e42f03607b468000d8eb912","650c16f0f2faf8d7a0d14c09","651c1d045d995bbf6471efc3","null","null","<p style=""font-size: 60px; font-family: BACS"">lRCBOtM</p>","","","","","","","","",""
"html-keyboard-response","161","568756","0.0-10.0-0.72","5e42f03607b468000d8eb912","650c16f0f2faf8d7a0d14c09","651c1d045d995bbf6471efc3","null","null","<p style=""font-size: 60px; font-family: BACS"">kCRmYht</p>","","","","","","","","",""
"html-keyboard-response","162","569757","0.0-10.0-0.73","5e42f03607b468000d8eb912","650c16f0f2faf8d7a0d14c09","651c1d045d995bbf6471efc3","null","null","<p style=""font-size: 60px; font-family: BACS"">QcladrZYd</p>","","","","","","","","",""
"html-keyboard-response","163","570758","0.0-10.0-0.74","5e42f03607b468000d8eb912","650c16f0f2faf8d7a0d14c09","651c1d045d995bbf6471efc3","null","null","<p style=""font-size: 60px; font-family: BACS"">GAcYGrbk</p>","","","","","","","","",""
"html-keyboard-response","164","571759","0.0-10.0-0.75","5e42f03607b468000d8eb912","650c16f0f2faf8d7a0d14c09","651c1d045d995bbf6471efc3","null","null","<p style=""font-size: 60px; font-family: BACS"">TAdhMYht</p>","","","","","","","","",""
"html-keyboard-response","165","572760","0.0-10.0-0.76","5e42f03607b468000d8eb912","650c16f0f2faf8d7a0d14c09","651c1d045d995bbf6471efc3","null","null","<p style=""font-size: 60px; font-family: BACS"">vkYGlAvdk</p>","","","","","","","","",""
"html-keyboard-response","166","573761","0.0-10.0-0.77","5e42f03607b468000d8eb912","650c16f0f2faf8d7a0d14c09","651c1d045d995bbf6471efc3","null","null","<p style=""font-size: 60px; font-family: BACS"">JrGvrNlZ</p>","","","","","","","","",""
"html-keyboard-response","167","574762","0.0-10.0-0.78","5e42f03607b468000d8eb912","650c16f0f2faf8d7a0d14c09","651c1d045d995bbf6471efc3","null","null","<p style=""font-size: 60px; font-family: BACS"">BOckPYht</p>","","","","","","","","",""
"html-keyboard-response","168","575763","0.0-10.0-0.79","5e42f03607b468000d8eb912","650c16f0f2faf8d7a0d14c09","651c1d045d995bbf6471efc3","null","null","<p style=""font-size: 60px; font-family: BACS"">kCRmCkbd</p>","","","","","","","","",""
"html-keyboard-response","169","582458","0.0-11.0","5e42f03607b468000d8eb912","650c16f0f2faf8d7a0d14c09","651c1d045d995bbf6471efc3","6695"," ","<p>Great, you've seen the second block of words. You may now take a short break.</p>
      <p>Press the spacebar when you're ready to continue.</p>","","","","","","","","",""
"html-keyboard-response","170","583460","0.0-12.0-0.0","5e42f03607b468000d8eb912","650c16f0f2faf8d7a0d14c09","651c1d045d995bbf6471efc3","null","null","<p style=""font-size: 60px; font-family: BACS"">lRCBOtM</p>","","","","","","","","",""
"html-keyboard-response","171","584461","0.0-12.0-0.1","5e42f03607b468000d8eb912","650c16f0f2faf8d7a0d14c09","651c1d045d995bbf6471efc3","null","null","<p style=""font-size: 60px; font-family: BACS"">QcladAvdk</p>","","","","","","","","",""
"html-keyboard-response","172","585463","0.0-12.0-0.2","5e42f03607b468000d8eb912","650c16f0f2faf8d7a0d14c09","651c1d045d995bbf6471efc3","null","null","<p style=""font-size: 60px; font-family: BACS"">cDOEBCkbd</p>","","","","","","","","",""
"html-keyboard-response","173","586465","0.0-12.0-0.3","5e42f03607b468000d8eb912","650c16f0f2faf8d7a0d14c09","651c1d045d995bbf6471efc3","null","null","<p style=""font-size: 60px; font-family: BACS"">lGZvrNlZ</p>","","","","","","","","",""
"html-keyboard-response","174","587467","0.0-12.0-0.4","5e42f03607b468000d8eb912","650c16f0f2faf8d7a0d14c09","651c1d045d995bbf6471efc3","null","null","<p style=""font-size: 60px; font-family: BACS"">UrOQrZYd</p>","","","","","","","","",""
"html-keyboard-response","175","588468","0.0-12.0-0.5","5e42f03607b468000d8eb912","650c16f0f2faf8d7a0d14c09","651c1d045d995bbf6471efc3","null","null","<p style=""font-size: 60px; font-family: BACS"">JrGvAvdk</p>","","","","","","","","",""
"html-keyboard-response","176","589469","0.0-12.0-0.6","5e42f03607b468000d8eb912","650c16f0f2faf8d7a0d14c09","651c1d045d995bbf6471efc3","null","null","<p style=""font-size: 60px; font-family: BACS"">ORbkCkbd</p>","","","","","","","","",""
"html-keyboard-response","177","590471","0.0-12.0-0.7","5e42f03607b468000d8eb912","650c16f0f2faf8d7a0d14c09","651c1d045d995bbf6471efc3","null","null","<p style=""font-size: 60px; font-family: BACS"">lcOcAvdk</p>","","","","","","","","",""
"html-keyboard-response","178","591472","0.0-12.0-0.8","5e42f03607b468000d8eb912","650c16f0f2faf8d7a0d14c09","651c1d045d995bbf6471efc3","null","null","<p style=""font-size: 60px; font-family: BACS"">cDOEBABb</p>","","","","","","","","",""
"html-keyboard-response","179","592474","0.0-12.0-0.9","5e42f03607b468000d8eb912","650c16f0f2faf8d7a0d14c09","651c1d045d995bbf6471efc3","null","null","<p style=""font-size: 60px; font-family: BACS"">mhtcdBC</p>","","","","","","","","",""
"html-keyboard-response","180","593475","0.0-12.0-0.10","5e42f03607b468000d8eb912","650c16f0f2faf8d7a0d14c09","651c1d045d995bbf6471efc3","null","null","<p style=""font-size: 60px; font-family: BACS"">DBlhABb</p>","","","","","","","","",""
"html-keyboard-response","181","594476","0.0-12.0-0.11","5e42f03607b468000d8eb912","650c16f0f2faf8d7a0d14c09","651c1d045d995bbf6471efc3","null","null","<p style=""font-size: 60px; font-family: BACS"">JrGvGrbk</p>","","","","","","","","",""
"html-keyboard-response","182","595479","0.0-12.0-0.12","5e42f03607b468000d8eb912","650c16f0f2faf8d7a0d14c09","651c1d045d995bbf6471efc3","null","null","<p style=""font-size: 60px; font-family: BACS"">mhtcYht</p>","","","","","","","","",""
"html-keyboard-response","183","596480","0.0-12.0-0.13","5e42f03607b468000d8eb912","650c16f0f2faf8d7a0d14c09","651c1d045d995bbf6471efc3","null","null","<p style=""font-size: 60px; font-family: BACS"">alJYrNlZ</p>","","","","","","","","",""
"html-keyboard-response","184","597481","0.0-12.0-0.14","5e42f03607b468000d8eb912","650c16f0f2faf8d7a0d14c09","651c1d045d995bbf6471efc3","null","null","<p style=""font-size: 60px; font-family: BACS"">GAcYUZu</p>","","","","","","","","",""
"html-keyboard-response","185","598482","0.0-12.0-0.15","5e42f03607b468000d8eb912","650c16f0f2faf8d7a0d14c09","651c1d045d995bbf6471efc3","null","null","<p style=""font-size: 60px; font-family: BACS"">EhRmYht</p>","","","","","","","","",""
"html-keyboard-response","186","599484","0.0-12.0-0.16","5e42f03607b468000d8eb912","650c16f0f2faf8d7a0d14c09","651c1d045d995bbf6471efc3","null","null","<p style=""font-size: 60px; font-family: BACS"">tRdMdBC</p>","","","","","","","","",""
"html-keyboard-response","187","600486","0.0-12.0-0.17","5e42f03607b468000d8eb912","650c16f0f2faf8d7a0d14c09","651c1d045d995bbf6471efc3","null","null","<p style=""font-size: 60px; font-family: BACS"">alJYUZu</p>","","","","","","","","",""
"html-keyboard-response","188","601488","0.0-12.0-0.18","5e42f03607b468000d8eb912","650c16f0f2faf8d7a0d14c09","651c1d045d995bbf6471efc3","null","null","<p style=""font-size: 60px; font-family: BACS"">DBlhdBC</p>","","","","","","","","",""
"html-keyboard-response","189","602489","0.0-12.0-0.19","5e42f03607b468000d8eb912","650c16f0f2faf8d7a0d14c09","651c1d045d995bbf6471efc3","null","null","<p style=""font-size: 60px; font-family: BACS"">vkYGlrZYd</p>","","","","","","","","",""
"html-keyboard-response","190","603491","0.0-12.0-0.20","5e42f03607b468000d8eb912","650c16f0f2faf8d7a0d14c09","651c1d045d995bbf6471efc3","null","null","<p style=""font-size: 60px; font-family: BACS"">tRdMOtM</p>","","","","","","","","",""
"html-keyboard-response","191","604492","0.0-12.0-0.21","5e42f03607b468000d8eb912","650c16f0f2faf8d7a0d14c09","651c1d045d995bbf6471efc3","null","null","<p style=""font-size: 60px; font-family: BACS"">GAcYAvdk</p>","","","","","","","","",""
"html-keyboard-response","192","605493","0.0-12.0-0.22","5e42f03607b468000d8eb912","650c16f0f2faf8d7a0d14c09","651c1d045d995bbf6471efc3","null","null","<p style=""font-size: 60px; font-family: BACS"">BOckPABb</p>","","","","","","","","",""
"html-keyboard-response","193","606495","0.0-12.0-0.23","5e42f03607b468000d8eb912","650c16f0f2faf8d7a0d14c09","651c1d045d995bbf6471efc3","null","null","<p style=""font-size: 60px; font-family: BACS"">vkYGlGrbk</p>","","","","","","","","",""
"html-keyboard-response","194","607496","0.0-12.0-0.24","5e42f03607b468000d8eb912","650c16f0f2faf8d7a0d14c09","651c1d045d995bbf6471efc3","null","null","<p style=""font-size: 60px; font-family: BACS"">mhtcCkbd</p>","","","","","","","","",""
"html-keyboard-response","195","608498","0.0-12.0-0.25","5e42f03607b468000d8eb912","650c16f0f2faf8d7a0d14c09","651c1d045d995bbf6471efc3","null","null","<p style=""font-size: 60px; font-family: BACS"">QcladUZu</p>","","","","","","","","",""
"html-keyboard-response","196","609499","0.0-12.0-0.26","5e42f03607b468000d8eb912","650c16f0f2faf8d7a0d14c09","651c1d045d995bbf6471efc3","null","null","<p style=""font-size: 60px; font-family: BACS"">UrOQGrbk</p>","","","","","","","","",""
"html-keyboard-response","197","610501","0.0-12.0-0.27","5e42f03607b468000d8eb912","650c16f0f2faf8d7a0d14c09","651c1d045d995bbf6471efc3","null","null","<p style=""font-size: 60px; font-family: BACS"">ORbkOtM</p>","","","","","","","","",""
"html-keyboard-response","198","611502","0.0-12.0-0.28","5e42f03607b468000d8eb912","650c16f0f2faf8d7a0d14c09","651c1d045d995bbf6471efc3","null","null","<p style=""font-size: 60px; font-family: BACS"">lGZvrZYd</p>","","","","","","","","",""
"html-keyboard-response","199","612504","0.0-12.0-0.29","5e42f03607b468000d8eb912","650c16f0f2faf8d7a0d14c09","651c1d045d995bbf6471efc3","null","null","<p style=""font-size: 60px; font-family: BACS"">lcOcUZu</p>","","","","","","","","",""
"html-keyboard-response","200","613506","0.0-12.0-0.30","5e42f03607b468000d8eb912","650c16f0f2faf8d7a0d14c09","651c1d045d995bbf6471efc3","null","null","<p style=""font-size: 60px; font-family: BACS"">lGZvGrbk</p>","","","","","","","","",""
"html-keyboard-response","201","614508","0.0-12.0-0.31","5e42f03607b468000d8eb912","650c16f0f2faf8d7a0d14c09","651c1d045d995bbf6471efc3","null","null","<p style=""font-size: 60px; font-family: BACS"">JrGvrZYd</p>","","","","","","","","",""
"html-keyboard-response","202","615511","0.0-12.0-0.32","5e42f03607b468000d8eb912","650c16f0f2faf8d7a0d14c09","651c1d045d995bbf6471efc3","null","null","<p style=""font-size: 60px; font-family: BACS"">TAdhMdBC</p>","","","","","","","","",""
"html-keyboard-response","203","616513","0.0-12.0-0.33","5e42f03607b468000d8eb912","650c16f0f2faf8d7a0d14c09","651c1d045d995bbf6471efc3","null","null","<p style=""font-size: 60px; font-family: BACS"">QbkAcrZYd</p>","","","","","","","","",""
"html-keyboard-response","204","617514","0.0-12.0-0.34","5e42f03607b468000d8eb912","650c16f0f2faf8d7a0d14c09","651c1d045d995bbf6471efc3","null","null","<p style=""font-size: 60px; font-family: BACS"">alJYGrbk</p>","","","","","","","","",""
"html-keyboard-response","205","618515","0.0-12.0-0.35","5e42f03607b468000d8eb912","650c16f0f2faf8d7a0d14c09","651c1d045d995bbf6471efc3","null","null","<p style=""font-size: 60px; font-family: BACS"">TAdhMYht</p>","","","","","","","","",""
"html-keyboard-response","206","619517","0.0-12.0-0.36","5e42f03607b468000d8eb912","650c16f0f2faf8d7a0d14c09","651c1d045d995bbf6471efc3","null","null","<p style=""font-size: 60px; font-family: BACS"">QbkAcAvdk</p>","","","","","","","","",""
"html-keyboard-response","207","620518","0.0-12.0-0.37","5e42f03607b468000d8eb912","650c16f0f2faf8d7a0d14c09","651c1d045d995bbf6471efc3","null","null","<p style=""font-size: 60px; font-family: BACS"">GAcYrNlZ</p>","","","","","","","","",""
"html-keyboard-response","208","621519","0.0-12.0-0.38","5e42f03607b468000d8eb912","650c16f0f2faf8d7a0d14c09","651c1d045d995bbf6471efc3","null","null","<p style=""font-size: 60px; font-family: BACS"">kCRmCkbd</p>","","","","","","","","",""
"html-keyboard-response","209","622521","0.0-12.0-0.39","5e42f03607b468000d8eb912","650c16f0f2faf8d7a0d14c09","651c1d045d995bbf6471efc3","null","null","<p style=""font-size: 60px; font-family: BACS"">tRdMYht</p>","","","","","","","","",""
"html-keyboard-response","210","623523","0.0-12.0-0.40","5e42f03607b468000d8eb912","650c16f0f2faf8d7a0d14c09","651c1d045d995bbf6471efc3","null","null","<p style=""font-size: 60px; font-family: BACS"">UrOQrNlZ</p>","","","","","","","","",""
"html-keyboard-response","211","624524","0.0-12.0-0.41","5e42f03607b468000d8eb912","650c16f0f2faf8d7a0d14c09","651c1d045d995bbf6471efc3","null","null","<p style=""font-size: 60px; font-family: BACS"">cDOEBOtM</p>","","","","","","","","",""
"html-keyboard-response","212","625526","0.0-12.0-0.42","5e42f03607b468000d8eb912","650c16f0f2faf8d7a0d14c09","651c1d045d995bbf6471efc3","null","null","<p style=""font-size: 60px; font-family: BACS"">lcOcrNlZ</p>","","","","","","","","",""
"html-keyboard-response","213","626527","0.0-12.0-0.43","5e42f03607b468000d8eb912","650c16f0f2faf8d7a0d14c09","651c1d045d995bbf6471efc3","null","null","<p style=""font-size: 60px; font-family: BACS"">GAcYGrbk</p>","","","","","","","","",""
"html-keyboard-response","214","627528","0.0-12.0-0.44","5e42f03607b468000d8eb912","650c16f0f2faf8d7a0d14c09","651c1d045d995bbf6471efc3","null","null","<p style=""font-size: 60px; font-family: BACS"">JrGvrNlZ</p>","","","","","","","","",""
"html-keyboard-response","215","628529","0.0-12.0-0.45","5e42f03607b468000d8eb912","650c16f0f2faf8d7a0d14c09","651c1d045d995bbf6471efc3","null","null","<p style=""font-size: 60px; font-family: BACS"">BOckPCkbd</p>","","","","","","","","",""
"html-keyboard-response","216","629531","0.0-12.0-0.46","5e42f03607b468000d8eb912","650c16f0f2faf8d7a0d14c09","651c1d045d995bbf6471efc3","null","null","<p style=""font-size: 60px; font-family: BACS"">bdUNurNlZ</p>","","","","","","","","",""
"html-keyboard-response","217","630533","0.0-12.0-0.47","5e42f03607b468000d8eb912","650c16f0f2faf8d7a0d14c09","651c1d045d995bbf6471efc3","null","null","<p style=""font-size: 60px; font-family: BACS"">vkYGlUZu</p>","","","","","","","","",""
"html-keyboard-response","218","631536","0.0-12.0-0.48","5e42f03607b468000d8eb912","650c16f0f2faf8d7a0d14c09","651c1d045d995bbf6471efc3","null","null","<p style=""font-size: 60px; font-family: BACS"">kCRmYht</p>","","","","","","","","",""
"html-keyboard-response","219","632537","0.0-12.0-0.49","5e42f03607b468000d8eb912","650c16f0f2faf8d7a0d14c09","651c1d045d995bbf6471efc3","null","null","<p style=""font-size: 60px; font-family: BACS"">QbkAcUZu</p>","","","","","","","","",""
"html-keyboard-response","220","633539","0.0-12.0-0.50","5e42f03607b468000d8eb912","650c16f0f2faf8d7a0d14c09","651c1d045d995bbf6471efc3","null","null","<p style=""font-size: 60px; font-family: BACS"">ORbkdBC</p>","","","","","","","","",""
"html-keyboard-response","221","634540","0.0-12.0-0.51","5e42f03607b468000d8eb912","650c16f0f2faf8d7a0d14c09","651c1d045d995bbf6471efc3","null","null","<p style=""font-size: 60px; font-family: BACS"">bdUNuGrbk</p>","","","","","","","","",""
"html-keyboard-response","222","635542","0.0-12.0-0.52","5e42f03607b468000d8eb912","650c16f0f2faf8d7a0d14c09","651c1d045d995bbf6471efc3","null","null","<p style=""font-size: 60px; font-family: BACS"">lRCBCkbd</p>","","","","","","","","",""
"html-keyboard-response","223","636543","0.0-12.0-0.53","5e42f03607b468000d8eb912","650c16f0f2faf8d7a0d14c09","651c1d045d995bbf6471efc3","null","null","<p style=""font-size: 60px; font-family: BACS"">QbkAcGrbk</p>","","","","","","","","",""
"html-keyboard-response","224","637544","0.0-12.0-0.54","5e42f03607b468000d8eb912","650c16f0f2faf8d7a0d14c09","651c1d045d995bbf6471efc3","null","null","<p style=""font-size: 60px; font-family: BACS"">bdUNurZYd</p>","","","","","","","","",""
"html-keyboard-response","225","638546","0.0-12.0-0.55","5e42f03607b468000d8eb912","650c16f0f2faf8d7a0d14c09","651c1d045d995bbf6471efc3","null","null","<p style=""font-size: 60px; font-family: BACS"">TAdhMABb</p>","","","","","","","","",""
"html-keyboard-response","226","639549","0.0-12.0-0.56","5e42f03607b468000d8eb912","650c16f0f2faf8d7a0d14c09","651c1d045d995bbf6471efc3","null","null","<p style=""font-size: 60px; font-family: BACS"">bdUNuUZu</p>","","","","","","","","",""
"html-keyboard-response","227","640550","0.0-12.0-0.57","5e42f03607b468000d8eb912","650c16f0f2faf8d7a0d14c09","651c1d045d995bbf6471efc3","null","null","<p style=""font-size: 60px; font-family: BACS"">BOckPYht</p>","","","","","","","","",""
"html-keyboard-response","228","641553","0.0-12.0-0.58","5e42f03607b468000d8eb912","650c16f0f2faf8d7a0d14c09","651c1d045d995bbf6471efc3","null","null","<p style=""font-size: 60px; font-family: BACS"">TAdhMOtM</p>","","","","","","","","",""
"html-keyboard-response","229","642555","0.0-12.0-0.59","5e42f03607b468000d8eb912","650c16f0f2faf8d7a0d14c09","651c1d045d995bbf6471efc3","null","null","<p style=""font-size: 60px; font-family: BACS"">lRCBABb</p>","","","","","","","","",""
"html-keyboard-response","230","643556","0.0-12.0-0.60","5e42f03607b468000d8eb912","650c16f0f2faf8d7a0d14c09","651c1d045d995bbf6471efc3","null","null","<p style=""font-size: 60px; font-family: BACS"">EhRmOtM</p>","","","","","","","","",""
"html-keyboard-response","231","644558","0.0-12.0-0.61","5e42f03607b468000d8eb912","650c16f0f2faf8d7a0d14c09","651c1d045d995bbf6471efc3","null","null","<p style=""font-size: 60px; font-family: BACS"">QcladrZYd</p>","","","","","","","","",""
"html-keyboard-response","232","645560","0.0-12.0-0.62","5e42f03607b468000d8eb912","650c16f0f2faf8d7a0d14c09","651c1d045d995bbf6471efc3","null","null","<p style=""font-size: 60px; font-family: BACS"">UrOQAvdk</p>","","","","","","","","",""
"html-keyboard-response","233","646561","0.0-12.0-0.63","5e42f03607b468000d8eb912","650c16f0f2faf8d7a0d14c09","651c1d045d995bbf6471efc3","null","null","<p style=""font-size: 60px; font-family: BACS"">cDOEBdBC</p>","","","","","","","","",""
"html-keyboard-response","234","647563","0.0-12.0-0.64","5e42f03607b468000d8eb912","650c16f0f2faf8d7a0d14c09","651c1d045d995bbf6471efc3","null","null","<p style=""font-size: 60px; font-family: BACS"">lGZvUZu</p>","","","","","","","","",""
"html-keyboard-response","235","648564","0.0-12.0-0.65","5e42f03607b468000d8eb912","650c16f0f2faf8d7a0d14c09","651c1d045d995bbf6471efc3","null","null","<p style=""font-size: 60px; font-family: BACS"">lRCBYht</p>","","","","","","","","",""
"html-keyboard-response","236","649566","0.0-12.0-0.66","5e42f03607b468000d8eb912","650c16f0f2faf8d7a0d14c09","651c1d045d995bbf6471efc3","null","null","<p style=""font-size: 60px; font-family: BACS"">EhRmdBC</p>","","","","","","","","",""
"html-keyboard-response","237","650567","0.0-12.0-0.67","5e42f03607b468000d8eb912","650c16f0f2faf8d7a0d14c09","651c1d045d995bbf6471efc3","null","null","<p style=""font-size: 60px; font-family: BACS"">kCRmABb</p>","","","","","","","","",""
"html-keyboard-response","238","651569","0.0-12.0-0.68","5e42f03607b468000d8eb912","650c16f0f2faf8d7a0d14c09","651c1d045d995bbf6471efc3","null","null","<p style=""font-size: 60px; font-family: BACS"">alJYAvdk</p>","","","","","","","","",""
"html-keyboard-response","239","652570","0.0-12.0-0.69","5e42f03607b468000d8eb912","650c16f0f2faf8d7a0d14c09","651c1d045d995bbf6471efc3","null","null","<p style=""font-size: 60px; font-family: BACS"">BOckPOtM</p>","","","","","","","","",""
"html-keyboard-response","240","653572","0.0-12.0-0.70","5e42f03607b468000d8eb912","650c16f0f2faf8d7a0d14c09","651c1d045d995bbf6471efc3","null","null","<p style=""font-size: 60px; font-family: BACS"">DBlhCkbd</p>","","","","","","","","",""
"html-keyboard-response","241","654574","0.0-12.0-0.71","5e42f03607b468000d8eb912","650c16f0f2faf8d7a0d14c09","651c1d045d995bbf6471efc3","null","null","<p style=""font-size: 60px; font-family: BACS"">QcladrNlZ</p>","","","","","","","","",""
"html-keyboard-response","242","655576","0.0-12.0-0.72","5e42f03607b468000d8eb912","650c16f0f2faf8d7a0d14c09","651c1d045d995bbf6471efc3","null","null","<p style=""font-size: 60px; font-family: BACS"">kCRmdBC</p>","","","","","","","","",""
"html-keyboard-response","243","656578","0.0-12.0-0.73","5e42f03607b468000d8eb912","650c16f0f2faf8d7a0d14c09","651c1d045d995bbf6471efc3","null","null","<p style=""font-size: 60px; font-family: BACS"">EhRmABb</p>","","","","","","","","",""
"html-keyboard-response","244","657579","0.0-12.0-0.74","5e42f03607b468000d8eb912","650c16f0f2faf8d7a0d14c09","651c1d045d995bbf6471efc3","null","null","<p style=""font-size: 60px; font-family: BACS"">ORbkYht</p>","","","","","","","","",""
"html-keyboard-response","245","658581","0.0-12.0-0.75","5e42f03607b468000d8eb912","650c16f0f2faf8d7a0d14c09","651c1d045d995bbf6471efc3","null","null","<p style=""font-size: 60px; font-family: BACS"">DBlhOtM</p>","","","","","","","","",""
"html-keyboard-response","246","659582","0.0-12.0-0.76","5e42f03607b468000d8eb912","650c16f0f2faf8d7a0d14c09","651c1d045d995bbf6471efc3","null","null","<p style=""font-size: 60px; font-family: BACS"">tRdMCkbd</p>","","","","","","","","",""
"html-keyboard-response","247","660583","0.0-12.0-0.77","5e42f03607b468000d8eb912","650c16f0f2faf8d7a0d14c09","651c1d045d995bbf6471efc3","null","null","<p style=""font-size: 60px; font-family: BACS"">vkYGlAvdk</p>","","","","","","","","",""
"html-keyboard-response","248","661585","0.0-12.0-0.78","5e42f03607b468000d8eb912","650c16f0f2faf8d7a0d14c09","651c1d045d995bbf6471efc3","null","null","<p style=""font-size: 60px; font-family: BACS"">lcOcrZYd</p>","","","","","","","","",""
"html-keyboard-response","249","662586","0.0-12.0-0.79","5e42f03607b468000d8eb912","650c16f0f2faf8d7a0d14c09","651c1d045d995bbf6471efc3","null","null","<p style=""font-size: 60px; font-family: BACS"">mhtcABb</p>","","","","","","","","",""
"html-keyboard-response","250","665593","0.0-13.0","5e42f03607b468000d8eb912","650c16f0f2faf8d7a0d14c09","651c1d045d995bbf6471efc3","3005"," ","<p>Great, you've seen the third block of words. You may now take a short break.</p>
      <p>Press the spacebar when you're ready to continue.</p>","","","","","","","","",""
"html-keyboard-response","251","666594","0.0-14.0-0.0","5e42f03607b468000d8eb912","650c16f0f2faf8d7a0d14c09","651c1d045d995bbf6471efc3","null","null","<p style=""font-size: 60px; font-family: BACS"">QcladrNlZ</p>","","","","","","","","",""
"html-keyboard-response","252","667595","0.0-14.0-0.1","5e42f03607b468000d8eb912","650c16f0f2faf8d7a0d14c09","651c1d045d995bbf6471efc3","null","null","<p style=""font-size: 60px; font-family: BACS"">lRCBYht</p>","","","","","","","","",""
"html-keyboard-response","253","668597","0.0-14.0-0.2","5e42f03607b468000d8eb912","650c16f0f2faf8d7a0d14c09","651c1d045d995bbf6471efc3","null","null","<p style=""font-size: 60px; font-family: BACS"">GAcYGrbk</p>","","","","","","","","",""
"html-keyboard-response","254","669599","0.0-14.0-0.3","5e42f03607b468000d8eb912","650c16f0f2faf8d7a0d14c09","651c1d045d995bbf6471efc3","null","null","<p style=""font-size: 60px; font-family: BACS"">mhtcCkbd</p>","","","","","","","","",""
"html-keyboard-response","255","670600","0.0-14.0-0.4","5e42f03607b468000d8eb912","650c16f0f2faf8d7a0d14c09","651c1d045d995bbf6471efc3","null","null","<p style=""font-size: 60px; font-family: BACS"">ORbkYht</p>","","","","","","","","",""
"html-keyboard-response","256","671602","0.0-14.0-0.5","5e42f03607b468000d8eb912","650c16f0f2faf8d7a0d14c09","651c1d045d995bbf6471efc3","null","null","<p style=""font-size: 60px; font-family: BACS"">vkYGlGrbk</p>","","","","","","","","",""
"html-keyboard-response","257","672604","0.0-14.0-0.6","5e42f03607b468000d8eb912","650c16f0f2faf8d7a0d14c09","651c1d045d995bbf6471efc3","null","null","<p style=""font-size: 60px; font-family: BACS"">bdUNurNlZ</p>","","","","","","","","",""
"html-keyboard-response","258","673606","0.0-14.0-0.7","5e42f03607b468000d8eb912","650c16f0f2faf8d7a0d14c09","651c1d045d995bbf6471efc3","null","null","<p style=""font-size: 60px; font-family: BACS"">ORbkdBC</p>","","","","","","","","",""
"html-keyboard-response","259","674607","0.0-14.0-0.8","5e42f03607b468000d8eb912","650c16f0f2faf8d7a0d14c09","651c1d045d995bbf6471efc3","null","null","<p style=""font-size: 60px; font-family: BACS"">GAcYUZu</p>","","","","","","","","",""
"html-keyboard-response","260","675609","0.0-14.0-0.9","5e42f03607b468000d8eb912","650c16f0f2faf8d7a0d14c09","651c1d045d995bbf6471efc3","null","null","<p style=""font-size: 60px; font-family: BACS"">ORbkCkbd</p>","","","","","","","","",""
"html-keyboard-response","261","676610","0.0-14.0-0.10","5e42f03607b468000d8eb912","650c16f0f2faf8d7a0d14c09","651c1d045d995bbf6471efc3","null","null","<p style=""font-size: 60px; font-family: BACS"">cDOEBdBC</p>","","","","","","","","",""
"html-keyboard-response","262","677612","0.0-14.0-0.11","5e42f03607b468000d8eb912","650c16f0f2faf8d7a0d14c09","651c1d045d995bbf6471efc3","null","null","<p style=""font-size: 60px; font-family: BACS"">lGZvUZu</p>","","","","","","","","",""
"html-keyboard-response","263","678614","0.0-14.0-0.12","5e42f03607b468000d8eb912","650c16f0f2faf8d7a0d14c09","651c1d045d995bbf6471efc3","null","null","<p style=""font-size: 60px; font-family: BACS"">EhRmABb</p>","","","","","","","","",""
"html-keyboard-response","264","679616","0.0-14.0-0.13","5e42f03607b468000d8eb912","650c16f0f2faf8d7a0d14c09","651c1d045d995bbf6471efc3","null","null","<p style=""font-size: 60px; font-family: BACS"">ORbkOtM</p>","","","","","","","","",""
"html-keyboard-response","265","680617","0.0-14.0-0.14","5e42f03607b468000d8eb912","650c16f0f2faf8d7a0d14c09","651c1d045d995bbf6471efc3","null","null","<p style=""font-size: 60px; font-family: BACS"">BOckPABb</p>","","","","","","","","",""
"html-keyboard-response","266","681619","0.0-14.0-0.15","5e42f03607b468000d8eb912","650c16f0f2faf8d7a0d14c09","651c1d045d995bbf6471efc3","null","null","<p style=""font-size: 60px; font-family: BACS"">TAdhMYht</p>","","","","","","","","",""
"html-keyboard-response","267","682620","0.0-14.0-0.16","5e42f03607b468000d8eb912","650c16f0f2faf8d7a0d14c09","651c1d045d995bbf6471efc3","null","null","<p style=""font-size: 60px; font-family: BACS"">tRdMOtM</p>","","","","","","","","",""
"html-keyboard-response","268","683621","0.0-14.0-0.17","5e42f03607b468000d8eb912","650c16f0f2faf8d7a0d14c09","651c1d045d995bbf6471efc3","null","null","<p style=""font-size: 60px; font-family: BACS"">QcladUZu</p>","","","","","","","","",""
"html-keyboard-response","269","684622","0.0-14.0-0.18","5e42f03607b468000d8eb912","650c16f0f2faf8d7a0d14c09","651c1d045d995bbf6471efc3","null","null","<p style=""font-size: 60px; font-family: BACS"">alJYAvdk</p>","","","","","","","","",""
"html-keyboard-response","270","685625","0.0-14.0-0.19","5e42f03607b468000d8eb912","650c16f0f2faf8d7a0d14c09","651c1d045d995bbf6471efc3","null","null","<p style=""font-size: 60px; font-family: BACS"">UrOQrZYd</p>","","","","","","","","",""
"html-keyboard-response","271","686626","0.0-14.0-0.20","5e42f03607b468000d8eb912","650c16f0f2faf8d7a0d14c09","651c1d045d995bbf6471efc3","null","null","<p style=""font-size: 60px; font-family: BACS"">BOckPOtM</p>","","","","","","","","",""
"html-keyboard-response","272","687627","0.0-14.0-0.21","5e42f03607b468000d8eb912","650c16f0f2faf8d7a0d14c09","651c1d045d995bbf6471efc3","null","null","<p style=""font-size: 60px; font-family: BACS"">lGZvGrbk</p>","","","","","","","","",""
"html-keyboard-response","273","688629","0.0-14.0-0.22","5e42f03607b468000d8eb912","650c16f0f2faf8d7a0d14c09","651c1d045d995bbf6471efc3","null","null","<p style=""font-size: 60px; font-family: BACS"">mhtcdBC</p>","","","","","","","","",""
"html-keyboard-response","274","689631","0.0-14.0-0.23","5e42f03607b468000d8eb912","650c16f0f2faf8d7a0d14c09","651c1d045d995bbf6471efc3","null","null","<p style=""font-size: 60px; font-family: BACS"">bdUNuUZu</p>","","","","","","","","",""
"html-keyboard-response","275","690633","0.0-14.0-0.24","5e42f03607b468000d8eb912","650c16f0f2faf8d7a0d14c09","651c1d045d995bbf6471efc3","null","null","<p style=""font-size: 60px; font-family: BACS"">kCRmdBC</p>","","","","","","","","",""
"html-keyboard-response","276","691635","0.0-14.0-0.25","5e42f03607b468000d8eb912","650c16f0f2faf8d7a0d14c09","651c1d045d995bbf6471efc3","null","null","<p style=""font-size: 60px; font-family: BACS"">JrGvrZYd</p>","","","","","","","","",""
"html-keyboard-response","277","692636","0.0-14.0-0.26","5e42f03607b468000d8eb912","650c16f0f2faf8d7a0d14c09","651c1d045d995bbf6471efc3","null","null","<p style=""font-size: 60px; font-family: BACS"">alJYrNlZ</p>","","","","","","","","",""
"html-keyboard-response","278","693638","0.0-14.0-0.27","5e42f03607b468000d8eb912","650c16f0f2faf8d7a0d14c09","651c1d045d995bbf6471efc3","null","null","<p style=""font-size: 60px; font-family: BACS"">EhRmYht</p>","","","","","","","","",""
"html-keyboard-response","279","694639","0.0-14.0-0.28","5e42f03607b468000d8eb912","650c16f0f2faf8d7a0d14c09","651c1d045d995bbf6471efc3","null","null","<p style=""font-size: 60px; font-family: BACS"">lRCBOtM</p>","","","","","","","","",""
"html-keyboard-response","280","695641","0.0-14.0-0.29","5e42f03607b468000d8eb912","650c16f0f2faf8d7a0d14c09","651c1d045d995bbf6471efc3","null","null","<p style=""font-size: 60px; font-family: BACS"">kCRmABb</p>","","","","","","","","",""
"html-keyboard-response","281","696643","0.0-14.0-0.30","5e42f03607b468000d8eb912","650c16f0f2faf8d7a0d14c09","651c1d045d995bbf6471efc3","null","null","<p style=""font-size: 60px; font-family: BACS"">alJYUZu</p>","","","","","","","","",""
"html-keyboard-response","282","697645","0.0-14.0-0.31","5e42f03607b468000d8eb912","650c16f0f2faf8d7a0d14c09","651c1d045d995bbf6471efc3","null","null","<p style=""font-size: 60px; font-family: BACS"">QbkAcrZYd</p>","","","","","","","","",""
"html-keyboard-response","283","698647","0.0-14.0-0.32","5e42f03607b468000d8eb912","650c16f0f2faf8d7a0d14c09","651c1d045d995bbf6471efc3","null","null","<p style=""font-size: 60px; font-family: BACS"">EhRmdBC</p>","","","","","","","","",""
"html-keyboard-response","284","699648","0.0-14.0-0.33","5e42f03607b468000d8eb912","650c16f0f2faf8d7a0d14c09","651c1d045d995bbf6471efc3","null","null","<p style=""font-size: 60px; font-family: BACS"">kCRmYht</p>","","","","","","","","",""
"html-keyboard-response","285","700650","0.0-14.0-0.34","5e42f03607b468000d8eb912","650c16f0f2faf8d7a0d14c09","651c1d045d995bbf6471efc3","null","null","<p style=""font-size: 60px; font-family: BACS"">cDOEBABb</p>","","","","","","","","",""
"html-keyboard-response","286","701651","0.0-14.0-0.35","5e42f03607b468000d8eb912","650c16f0f2faf8d7a0d14c09","651c1d045d995bbf6471efc3","null","null","<p style=""font-size: 60px; font-family: BACS"">JrGvGrbk</p>","","","","","","","","",""
"html-keyboard-response","287","702653","0.0-14.0-0.36","5e42f03607b468000d8eb912","650c16f0f2faf8d7a0d14c09","651c1d045d995bbf6471efc3","null","null","<p style=""font-size: 60px; font-family: BACS"">QbkAcAvdk</p>","","","","","","","","",""
"html-keyboard-response","288","703654","0.0-14.0-0.37","5e42f03607b468000d8eb912","650c16f0f2faf8d7a0d14c09","651c1d045d995bbf6471efc3","null","null","<p style=""font-size: 60px; font-family: BACS"">DBlhABb</p>","","","","","","","","",""
"html-keyboard-response","289","704655","0.0-14.0-0.38","5e42f03607b468000d8eb912","650c16f0f2faf8d7a0d14c09","651c1d045d995bbf6471efc3","null","null","<p style=""font-size: 60px; font-family: BACS"">tRdMCkbd</p>","","","","","","","","",""
"html-keyboard-response","290","705657","0.0-14.0-0.39","5e42f03607b468000d8eb912","650c16f0f2faf8d7a0d14c09","651c1d045d995bbf6471efc3","null","null","<p style=""font-size: 60px; font-family: BACS"">vkYGlAvdk</p>","","","","","","","","",""
"html-keyboard-response","291","706659","0.0-14.0-0.40","5e42f03607b468000d8eb912","650c16f0f2faf8d7a0d14c09","651c1d045d995bbf6471efc3","null","null","<p style=""font-size: 60px; font-family: BACS"">mhtcYht</p>","","","","","","","","",""
"html-keyboard-response","292","707661","0.0-14.0-0.41","5e42f03607b468000d8eb912","650c16f0f2faf8d7a0d14c09","651c1d045d995bbf6471efc3","null","null","<p style=""font-size: 60px; font-family: BACS"">EhRmOtM</p>","","","","","","","","",""
"html-keyboard-response","293","708662","0.0-14.0-0.42","5e42f03607b468000d8eb912","650c16f0f2faf8d7a0d14c09","651c1d045d995bbf6471efc3","null","null","<p style=""font-size: 60px; font-family: BACS"">BOckPYht</p>","","","","","","","","",""
"html-keyboard-response","294","709664","0.0-14.0-0.43","5e42f03607b468000d8eb912","650c16f0f2faf8d7a0d14c09","651c1d045d995bbf6471efc3","null","null","<p style=""font-size: 60px; font-family: BACS"">cDOEBOtM</p>","","","","","","","","",""
"html-keyboard-response","295","710666","0.0-14.0-0.44","5e42f03607b468000d8eb912","650c16f0f2faf8d7a0d14c09","651c1d045d995bbf6471efc3","null","null","<p style=""font-size: 60px; font-family: BACS"">lRCBCkbd</p>","","","","","","","","",""
"html-keyboard-response","296","711667","0.0-14.0-0.45","5e42f03607b468000d8eb912","650c16f0f2faf8d7a0d14c09","651c1d045d995bbf6471efc3","null","null","<p style=""font-size: 60px; font-family: BACS"">GAcYrNlZ</p>","","","","","","","","",""
"html-keyboard-response","297","712669","0.0-14.0-0.46","5e42f03607b468000d8eb912","650c16f0f2faf8d7a0d14c09","651c1d045d995bbf6471efc3","null","null","<p style=""font-size: 60px; font-family: BACS"">lcOcAvdk</p>","","","","","","","","",""
"html-keyboard-response","298","713670","0.0-14.0-0.47","5e42f03607b468000d8eb912","650c16f0f2faf8d7a0d14c09","651c1d045d995bbf6471efc3","null","null","<p style=""font-size: 60px; font-family: BACS"">tRdMYht</p>","","","","","","","","",""
"html-keyboard-response","299","714673","0.0-14.0-0.48","5e42f03607b468000d8eb912","650c16f0f2faf8d7a0d14c09","651c1d045d995bbf6471efc3","null","null","<p style=""font-size: 60px; font-family: BACS"">mhtcABb</p>","","","","","","","","",""
"html-keyboard-response","300","715674","0.0-14.0-0.49","5e42f03607b468000d8eb912","650c16f0f2faf8d7a0d14c09","651c1d045d995bbf6471efc3","null","null","<p style=""font-size: 60px; font-family: BACS"">JrGvrNlZ</p>","","","","","","","","",""
"html-keyboard-response","301","716675","0.0-14.0-0.50","5e42f03607b468000d8eb912","650c16f0f2faf8d7a0d14c09","651c1d045d995bbf6471efc3","null","null","<p style=""font-size: 60px; font-family: BACS"">UrOQGrbk</p>","","","","","","","","",""
"html-keyboard-response","302","717677","0.0-14.0-0.51","5e42f03607b468000d8eb912","650c16f0f2faf8d7a0d14c09","651c1d045d995bbf6471efc3","null","null","<p style=""font-size: 60px; font-family: BACS"">lRCBABb</p>","","","","","","","","",""
"html-keyboard-response","303","718679","0.0-14.0-0.52","5e42f03607b468000d8eb912","650c16f0f2faf8d7a0d14c09","651c1d045d995bbf6471efc3","null","null","<p style=""font-size: 60px; font-family: BACS"">bdUNuGrbk</p>","","","","","","","","",""
"html-keyboard-response","304","719682","0.0-14.0-0.53","5e42f03607b468000d8eb912","650c16f0f2faf8d7a0d14c09","651c1d045d995bbf6471efc3","null","null","<p style=""font-size: 60px; font-family: BACS"">lcOcrZYd</p>","","","","","","","","",""
"html-keyboard-response","305","720683","0.0-14.0-0.54","5e42f03607b468000d8eb912","650c16f0f2faf8d7a0d14c09","651c1d045d995bbf6471efc3","null","null","<p style=""font-size: 60px; font-family: BACS"">DBlhdBC</p>","","","","","","","","",""
"html-keyboard-response","306","721685","0.0-14.0-0.55","5e42f03607b468000d8eb912","650c16f0f2faf8d7a0d14c09","651c1d045d995bbf6471efc3","null","null","<p style=""font-size: 60px; font-family: BACS"">kCRmCkbd</p>","","","","","","","","",""
"html-keyboard-response","307","722687","0.0-14.0-0.56","5e42f03607b468000d8eb912","650c16f0f2faf8d7a0d14c09","651c1d045d995bbf6471efc3","null","null","<p style=""font-size: 60px; font-family: BACS"">DBlhOtM</p>","","","","","","","","",""
"html-keyboard-response","308","723689","0.0-14.0-0.57","5e42f03607b468000d8eb912","650c16f0f2faf8d7a0d14c09","651c1d045d995bbf6471efc3","null","null","<p style=""font-size: 60px; font-family: BACS"">alJYGrbk</p>","","","","","","","","",""
"html-keyboard-response","309","724690","0.0-14.0-0.58","5e42f03607b468000d8eb912","650c16f0f2faf8d7a0d14c09","651c1d045d995bbf6471efc3","null","null","<p style=""font-size: 60px; font-family: BACS"">cDOEBCkbd</p>","","","","","","","","",""
"html-keyboard-response","310","725691","0.0-14.0-0.59","5e42f03607b468000d8eb912","650c16f0f2faf8d7a0d14c09","651c1d045d995bbf6471efc3","null","null","<p style=""font-size: 60px; font-family: BACS"">bdUNurZYd</p>","","","","","","","","",""
"html-keyboard-response","311","726693","0.0-14.0-0.60","5e42f03607b468000d8eb912","650c16f0f2faf8d7a0d14c09","651c1d045d995bbf6471efc3","null","null","<p style=""font-size: 60px; font-family: BACS"">lGZvrNlZ</p>","","","","","","","","",""
"html-keyboard-response","312","727695","0.0-14.0-0.61","5e42f03607b468000d8eb912","650c16f0f2faf8d7a0d14c09","651c1d045d995bbf6471efc3","null","null","<p style=""font-size: 60px; font-family: BACS"">QcladrZYd</p>","","","","","","","","",""
"html-keyboard-response","313","728697","0.0-14.0-0.62","5e42f03607b468000d8eb912","650c16f0f2faf8d7a0d14c09","651c1d045d995bbf6471efc3","null","null","<p style=""font-size: 60px; font-family: BACS"">DBlhCkbd</p>","","","","","","","","",""
"html-keyboard-response","314","729698","0.0-14.0-0.63","5e42f03607b468000d8eb912","650c16f0f2faf8d7a0d14c09","651c1d045d995bbf6471efc3","null","null","<p style=""font-size: 60px; font-family: BACS"">vkYGlUZu</p>","","","","","","","","",""
"html-keyboard-response","315","730700","0.0-14.0-0.64","5e42f03607b468000d8eb912","650c16f0f2faf8d7a0d14c09","651c1d045d995bbf6471efc3","null","null","<p style=""font-size: 60px; font-family: BACS"">lcOcrNlZ</p>","","","","","","","","",""
"html-keyboard-response","316","731701","0.0-14.0-0.65","5e42f03607b468000d8eb912","650c16f0f2faf8d7a0d14c09","651c1d045d995bbf6471efc3","null","null","<p style=""font-size: 60px; font-family: BACS"">TAdhMdBC</p>","","","","","","","","",""
"html-keyboard-response","317","732703","0.0-14.0-0.66","5e42f03607b468000d8eb912","650c16f0f2faf8d7a0d14c09","651c1d045d995bbf6471efc3","null","null","<p style=""font-size: 60px; font-family: BACS"">GAcYAvdk</p>","","","","","","","","",""
"html-keyboard-response","318","733704","0.0-14.0-0.67","5e42f03607b468000d8eb912","650c16f0f2faf8d7a0d14c09","651c1d045d995bbf6471efc3","null","null","<p style=""font-size: 60px; font-family: BACS"">QbkAcGrbk</p>","","","","","","","","",""
"html-keyboard-response","319","734706","0.0-14.0-0.68","5e42f03607b468000d8eb912","650c16f0f2faf8d7a0d14c09","651c1d045d995bbf6471efc3","null","null","<p style=""font-size: 60px; font-family: BACS"">QcladAvdk</p>","","","","","","","","",""
"html-keyboard-response","320","735708","0.0-14.0-0.69","5e42f03607b468000d8eb912","650c16f0f2faf8d7a0d14c09","651c1d045d995bbf6471efc3","null","null","<p style=""font-size: 60px; font-family: BACS"">TAdhMOtM</p>","","","","","","","","",""
"html-keyboard-response","321","736709","0.0-14.0-0.70","5e42f03607b468000d8eb912","650c16f0f2faf8d7a0d14c09","651c1d045d995bbf6471efc3","null","null","<p style=""font-size: 60px; font-family: BACS"">vkYGlrZYd</p>","","","","","","","","",""
"html-keyboard-response","322","737710","0.0-14.0-0.71","5e42f03607b468000d8eb912","650c16f0f2faf8d7a0d14c09","651c1d045d995bbf6471efc3","null","null","<p style=""font-size: 60px; font-family: BACS"">JrGvAvdk</p>","","","","","","","","",""
"html-keyboard-response","323","738711","0.0-14.0-0.72","5e42f03607b468000d8eb912","650c16f0f2faf8d7a0d14c09","651c1d045d995bbf6471efc3","null","null","<p style=""font-size: 60px; font-family: BACS"">lcOcUZu</p>","","","","","","","","",""
"html-keyboard-response","324","739713","0.0-14.0-0.73","5e42f03607b468000d8eb912","650c16f0f2faf8d7a0d14c09","651c1d045d995bbf6471efc3","null","null","<p style=""font-size: 60px; font-family: BACS"">UrOQAvdk</p>","","","","","","","","",""
"html-keyboard-response","325","740715","0.0-14.0-0.74","5e42f03607b468000d8eb912","650c16f0f2faf8d7a0d14c09","651c1d045d995bbf6471efc3","null","null","<p style=""font-size: 60px; font-family: BACS"">tRdMdBC</p>","","","","","","","","",""
"html-keyboard-response","326","741716","0.0-14.0-0.75","5e42f03607b468000d8eb912","650c16f0f2faf8d7a0d14c09","651c1d045d995bbf6471efc3","null","null","<p style=""font-size: 60px; font-family: BACS"">QbkAcUZu</p>","","","","","","","","",""
"html-keyboard-response","327","742718","0.0-14.0-0.76","5e42f03607b468000d8eb912","650c16f0f2faf8d7a0d14c09","651c1d045d995bbf6471efc3","null","null","<p style=""font-size: 60px; font-family: BACS"">TAdhMABb</p>","","","","","","","","",""
"html-keyboard-response","328","743720","0.0-14.0-0.77","5e42f03607b468000d8eb912","650c16f0f2faf8d7a0d14c09","651c1d045d995bbf6471efc3","null","null","<p style=""font-size: 60px; font-family: BACS"">BOckPCkbd</p>","","","","","","","","",""
"html-keyboard-response","329","744721","0.0-14.0-0.78","5e42f03607b468000d8eb912","650c16f0f2faf8d7a0d14c09","651c1d045d995bbf6471efc3","null","null","<p style=""font-size: 60px; font-family: BACS"">lGZvrZYd</p>","","","","","","","","",""
"html-keyboard-response","330","745723","0.0-14.0-0.79","5e42f03607b468000d8eb912","650c16f0f2faf8d7a0d14c09","651c1d045d995bbf6471efc3","null","null","<p style=""font-size: 60px; font-family: BACS"">UrOQrNlZ</p>","","","","","","","","",""
"html-keyboard-response","331","758524","0.0-15.0","5e42f03607b468000d8eb912","650c16f0f2faf8d7a0d14c09","651c1d045d995bbf6471efc3","12800"," ","<p>Great, you've seen the fourth block of words. You may now take a short break.</p>
      <p>Press the spacebar when you're ready to continue.</p>","","","","","","","","",""
"html-keyboard-response","332","759526","0.0-16.0-0.0","5e42f03607b468000d8eb912","650c16f0f2faf8d7a0d14c09","651c1d045d995bbf6471efc3","null","null","<p style=""font-size: 60px; font-family: BACS"">lRCBOtM</p>","","","","","","","","",""
"html-keyboard-response","333","760527","0.0-16.0-0.1","5e42f03607b468000d8eb912","650c16f0f2faf8d7a0d14c09","651c1d045d995bbf6471efc3","null","null","<p style=""font-size: 60px; font-family: BACS"">lRCBOtM</p>","","","","","","","","",""
"html-keyboard-response","334","761529","0.0-16.0-0.2","5e42f03607b468000d8eb912","650c16f0f2faf8d7a0d14c09","651c1d045d995bbf6471efc3","null","null","<p style=""font-size: 60px; font-family: BACS"">lRCBOtM</p>","","","","","","","","",""
"html-keyboard-response","335","762530","0.0-16.0-0.3","5e42f03607b468000d8eb912","650c16f0f2faf8d7a0d14c09","651c1d045d995bbf6471efc3","null","null","<p style=""font-size: 60px; font-family: BACS"">lRCBOtM</p>","","","","","","","","",""
"html-keyboard-response","336","763532","0.0-16.0-0.4","5e42f03607b468000d8eb912","650c16f0f2faf8d7a0d14c09","651c1d045d995bbf6471efc3","null","null","<p style=""font-size: 60px; font-family: BACS"">lRCBOtM</p>","","","","","","","","",""
"html-keyboard-response","337","764533","0.0-16.0-0.5","5e42f03607b468000d8eb912","650c16f0f2faf8d7a0d14c09","651c1d045d995bbf6471efc3","null","null","<p style=""font-size: 60px; font-family: BACS"">lRCBOtM</p>","","","","","","","","",""
"html-keyboard-response","338","765534","0.0-16.0-0.6","5e42f03607b468000d8eb912","650c16f0f2faf8d7a0d14c09","651c1d045d995bbf6471efc3","null","null","<p style=""font-size: 60px; font-family: BACS"">lRCBOtM</p>","","","","","","","","",""
"html-keyboard-response","339","766536","0.0-16.0-0.7","5e42f03607b468000d8eb912","650c16f0f2faf8d7a0d14c09","651c1d045d995bbf6471efc3","null","null","<p style=""font-size: 60px; font-family: BACS"">lRCBOtM</p>","","","","","","","","",""
"html-keyboard-response","340","767538","0.0-16.0-0.8","5e42f03607b468000d8eb912","650c16f0f2faf8d7a0d14c09","651c1d045d995bbf6471efc3","null","null","<p style=""font-size: 60px; font-family: BACS"">lRCBOtM</p>","","","","","","","","",""
"html-keyboard-response","341","768540","0.0-16.0-0.9","5e42f03607b468000d8eb912","650c16f0f2faf8d7a0d14c09","651c1d045d995bbf6471efc3","null","null","<p style=""font-size: 60px; font-family: BACS"">lRCBOtM</p>","","","","","","","","",""
"html-keyboard-response","342","769541","0.0-16.0-0.10","5e42f03607b468000d8eb912","650c16f0f2faf8d7a0d14c09","651c1d045d995bbf6471efc3","null","null","<p style=""font-size: 60px; font-family: BACS"">lRCBOtM</p>","","","","","","","","",""
"html-keyboard-response","343","770542","0.0-16.0-0.11","5e42f03607b468000d8eb912","650c16f0f2faf8d7a0d14c09","651c1d045d995bbf6471efc3","null","null","<p style=""font-size: 60px; font-family: BACS"">lRCBOtM</p>","","","","","","","","",""
"html-keyboard-response","344","771544","0.0-16.0-0.12","5e42f03607b468000d8eb912","650c16f0f2faf8d7a0d14c09","651c1d045d995bbf6471efc3","null","null","<p style=""font-size: 60px; font-family: BACS"">lRCBOtM</p>","","","","","","","","",""
"html-keyboard-response","345","772545","0.0-16.0-0.13","5e42f03607b468000d8eb912","650c16f0f2faf8d7a0d14c09","651c1d045d995bbf6471efc3","null","null","<p style=""font-size: 60px; font-family: BACS"">lRCBOtM</p>","","","","","","","","",""
"html-keyboard-response","346","773546","0.0-16.0-0.14","5e42f03607b468000d8eb912","650c16f0f2faf8d7a0d14c09","651c1d045d995bbf6471efc3","null","null","<p style=""font-size: 60px; font-family: BACS"">lRCBOtM</p>","","","","","","","","",""
"html-keyboard-response","347","774548","0.0-16.0-0.15","5e42f03607b468000d8eb912","650c16f0f2faf8d7a0d14c09","651c1d045d995bbf6471efc3","null","null","<p style=""font-size: 60px; font-family: BACS"">lRCBOtM</p>","","","","","","","","",""
"html-keyboard-response","348","775549","0.0-16.0-0.16","5e42f03607b468000d8eb912","650c16f0f2faf8d7a0d14c09","651c1d045d995bbf6471efc3","null","null","<p style=""font-size: 60px; font-family: BACS"">lRCBOtM</p>","","","","","","","","",""
"html-keyboard-response","349","776550","0.0-16.0-0.17","5e42f03607b468000d8eb912","650c16f0f2faf8d7a0d14c09","651c1d045d995bbf6471efc3","null","null","<p style=""font-size: 60px; font-family: BACS"">lRCBOtM</p>","","","","","","","","",""
"html-keyboard-response","350","777552","0.0-16.0-0.18","5e42f03607b468000d8eb912","650c16f0f2faf8d7a0d14c09","651c1d045d995bbf6471efc3","null","null","<p style=""font-size: 60px; font-family: BACS"">lRCBOtM</p>","","","","","","","","",""
"html-keyboard-response","351","778553","0.0-16.0-0.19","5e42f03607b468000d8eb912","650c16f0f2faf8d7a0d14c09","651c1d045d995bbf6471efc3","null","null","<p style=""font-size: 60px; font-family: BACS"">lRCBOtM</p>","","","","","","","","",""
"html-keyboard-response","352","779554","0.0-16.0-0.20","5e42f03607b468000d8eb912","650c16f0f2faf8d7a0d14c09","651c1d045d995bbf6471efc3","null","null","<p style=""font-size: 60px; font-family: BACS"">lRCBOtM</p>","","","","","","","","",""
"html-keyboard-response","353","780556","0.0-16.0-0.21","5e42f03607b468000d8eb912","650c16f0f2faf8d7a0d14c09","651c1d045d995bbf6471efc3","null","null","<p style=""font-size: 60px; font-family: BACS"">lRCBOtM</p>","","","","","","","","",""
"html-keyboard-response","354","781557","0.0-16.0-0.22","5e42f03607b468000d8eb912","650c16f0f2faf8d7a0d14c09","651c1d045d995bbf6471efc3","null","null","<p style=""font-size: 60px; font-family: BACS"">lRCBOtM</p>","","","","","","","","",""
"html-keyboard-response","355","782558","0.0-16.0-0.23","5e42f03607b468000d8eb912","650c16f0f2faf8d7a0d14c09","651c1d045d995bbf6471efc3","null","null","<p style=""font-size: 60px; font-family: BACS"">lRCBOtM</p>","","","","","","","","",""
"html-keyboard-response","356","783559","0.0-16.0-0.24","5e42f03607b468000d8eb912","650c16f0f2faf8d7a0d14c09","651c1d045d995bbf6471efc3","null","null","<p style=""font-size: 60px; font-family: BACS"">lRCBOtM</p>","","","","","","","","",""
"html-keyboard-response","357","784561","0.0-16.0-0.25","5e42f03607b468000d8eb912","650c16f0f2faf8d7a0d14c09","651c1d045d995bbf6471efc3","null","null","<p style=""font-size: 60px; font-family: BACS"">lRCBOtM</p>","","","","","","","","",""
"html-keyboard-response","358","785563","0.0-16.0-0.26","5e42f03607b468000d8eb912","650c16f0f2faf8d7a0d14c09","651c1d045d995bbf6471efc3","null","null","<p style=""font-size: 60px; font-family: BACS"">lRCBOtM</p>","","","","","","","","",""
"html-keyboard-response","359","786564","0.0-16.0-0.27","5e42f03607b468000d8eb912","650c16f0f2faf8d7a0d14c09","651c1d045d995bbf6471efc3","null","null","<p style=""font-size: 60px; font-family: BACS"">lRCBOtM</p>","","","","","","","","",""
"html-keyboard-response","360","787565","0.0-16.0-0.28","5e42f03607b468000d8eb912","650c16f0f2faf8d7a0d14c09","651c1d045d995bbf6471efc3","null","null","<p style=""font-size: 60px; font-family: BACS"">lRCBOtM</p>","","","","","","","","",""
"html-keyboard-response","361","788567","0.0-16.0-0.29","5e42f03607b468000d8eb912","650c16f0f2faf8d7a0d14c09","651c1d045d995bbf6471efc3","null","null","<p style=""font-size: 60px; font-family: BACS"">lRCBOtM</p>","","","","","","","","",""
"html-keyboard-response","362","789569","0.0-16.0-0.30","5e42f03607b468000d8eb912","650c16f0f2faf8d7a0d14c09","651c1d045d995bbf6471efc3","null","null","<p style=""font-size: 60px; font-family: BACS"">lRCBOtM</p>","","","","","","","","",""
"html-keyboard-response","363","790570","0.0-16.0-0.31","5e42f03607b468000d8eb912","650c16f0f2faf8d7a0d14c09","651c1d045d995bbf6471efc3","null","null","<p style=""font-size: 60px; font-family: BACS"">lRCBOtM</p>","","","","","","","","",""
"html-keyboard-response","364","791571","0.0-16.0-0.32","5e42f03607b468000d8eb912","650c16f0f2faf8d7a0d14c09","651c1d045d995bbf6471efc3","null","null","<p style=""font-size: 60px; font-family: BACS"">lRCBOtM</p>","","","","","","","","",""
"html-keyboard-response","365","792574","0.0-16.0-0.33","5e42f03607b468000d8eb912","650c16f0f2faf8d7a0d14c09","651c1d045d995bbf6471efc3","null","null","<p style=""font-size: 60px; font-family: BACS"">lRCBOtM</p>","","","","","","","","",""
"html-keyboard-response","366","793575","0.0-16.0-0.34","5e42f03607b468000d8eb912","650c16f0f2faf8d7a0d14c09","651c1d045d995bbf6471efc3","null","null","<p style=""font-size: 60px; font-family: BACS"">lRCBOtM</p>","","","","","","","","",""
"html-keyboard-response","367","794576","0.0-16.0-0.35","5e42f03607b468000d8eb912","650c16f0f2faf8d7a0d14c09","651c1d045d995bbf6471efc3","null","null","<p style=""font-size: 60px; font-family: BACS"">lRCBOtM</p>","","","","","","","","",""
"html-keyboard-response","368","795578","0.0-16.0-0.36","5e42f03607b468000d8eb912","650c16f0f2faf8d7a0d14c09","651c1d045d995bbf6471efc3","null","null","<p style=""font-size: 60px; font-family: BACS"">lRCBOtM</p>","","","","","","","","",""
"html-keyboard-response","369","796579","0.0-16.0-0.37","5e42f03607b468000d8eb912","650c16f0f2faf8d7a0d14c09","651c1d045d995bbf6471efc3","null","null","<p style=""font-size: 60px; font-family: BACS"">lRCBOtM</p>","","","","","","","","",""
"html-keyboard-response","370","797580","0.0-16.0-0.38","5e42f03607b468000d8eb912","650c16f0f2faf8d7a0d14c09","651c1d045d995bbf6471efc3","null","null","<p style=""font-size: 60px; font-family: BACS"">lRCBOtM</p>","","","","","","","","",""
"html-keyboard-response","371","798582","0.0-16.0-0.39","5e42f03607b468000d8eb912","650c16f0f2faf8d7a0d14c09","651c1d045d995bbf6471efc3","null","null","<p style=""font-size: 60px; font-family: BACS"">lRCBOtM</p>","","","","","","","","",""
"html-keyboard-response","372","799584","0.0-16.0-0.40","5e42f03607b468000d8eb912","650c16f0f2faf8d7a0d14c09","651c1d045d995bbf6471efc3","null","null","<p style=""font-size: 60px; font-family: BACS"">lRCBOtM</p>","","","","","","","","",""
"html-keyboard-response","373","800585","0.0-16.0-0.41","5e42f03607b468000d8eb912","650c16f0f2faf8d7a0d14c09","651c1d045d995bbf6471efc3","null","null","<p style=""font-size: 60px; font-family: BACS"">lRCBOtM</p>","","","","","","","","",""
"html-keyboard-response","374","801587","0.0-16.0-0.42","5e42f03607b468000d8eb912","650c16f0f2faf8d7a0d14c09","651c1d045d995bbf6471efc3","null","null","<p style=""font-size: 60px; font-family: BACS"">lRCBOtM</p>","","","","","","","","",""
"html-keyboard-response","375","802588","0.0-16.0-0.43","5e42f03607b468000d8eb912","650c16f0f2faf8d7a0d14c09","651c1d045d995bbf6471efc3","null","null","<p style=""font-size: 60px; font-family: BACS"">lRCBOtM</p>","","","","","","","","",""
"html-keyboard-response","376","803590","0.0-16.0-0.44","5e42f03607b468000d8eb912","650c16f0f2faf8d7a0d14c09","651c1d045d995bbf6471efc3","null","null","<p style=""font-size: 60px; font-family: BACS"">lRCBOtM</p>","","","","","","","","",""
"html-keyboard-response","377","804591","0.0-16.0-0.45","5e42f03607b468000d8eb912","650c16f0f2faf8d7a0d14c09","651c1d045d995bbf6471efc3","null","null","<p style=""font-size: 60px; font-family: BACS"">lRCBOtM</p>","","","","","","","","",""
"html-keyboard-response","378","805592","0.0-16.0-0.46","5e42f03607b468000d8eb912","650c16f0f2faf8d7a0d14c09","651c1d045d995bbf6471efc3","null","null","<p style=""font-size: 60px; font-family: BACS"">lRCBOtM</p>","","","","","","","","",""
"html-keyboard-response","379","806594","0.0-16.0-0.47","5e42f03607b468000d8eb912","650c16f0f2faf8d7a0d14c09","651c1d045d995bbf6471efc3","null","null","<p style=""font-size: 60px; font-family: BACS"">lRCBOtM</p>","","","","","","","","",""
"html-keyboard-response","380","807596","0.0-16.0-0.48","5e42f03607b468000d8eb912","650c16f0f2faf8d7a0d14c09","651c1d045d995bbf6471efc3","null","null","<p style=""font-size: 60px; font-family: BACS"">lRCBOtM</p>","","","","","","","","",""
"html-keyboard-response","381","808597","0.0-16.0-0.49","5e42f03607b468000d8eb912","650c16f0f2faf8d7a0d14c09","651c1d045d995bbf6471efc3","null","null","<p style=""font-size: 60px; font-family: BACS"">lRCBOtM</p>","","","","","","","","",""
"html-keyboard-response","382","809598","0.0-16.0-0.50","5e42f03607b468000d8eb912","650c16f0f2faf8d7a0d14c09","651c1d045d995bbf6471efc3","null","null","<p style=""font-size: 60px; font-family: BACS"">lRCBOtM</p>","","","","","","","","",""
"html-keyboard-response","383","810600","0.0-16.0-0.51","5e42f03607b468000d8eb912","650c16f0f2faf8d7a0d14c09","651c1d045d995bbf6471efc3","null","null","<p style=""font-size: 60px; font-family: BACS"">lRCBOtM</p>","","","","","","","","",""
"html-keyboard-response","384","811602","0.0-16.0-0.52","5e42f03607b468000d8eb912","650c16f0f2faf8d7a0d14c09","651c1d045d995bbf6471efc3","null","null","<p style=""font-size: 60px; font-family: BACS"">lRCBOtM</p>","","","","","","","","",""
"html-keyboard-response","385","812603","0.0-16.0-0.53","5e42f03607b468000d8eb912","650c16f0f2faf8d7a0d14c09","651c1d045d995bbf6471efc3","null","null","<p style=""font-size: 60px; font-family: BACS"">lRCBOtM</p>","","","","","","","","",""
"html-keyboard-response","386","813604","0.0-16.0-0.54","5e42f03607b468000d8eb912","650c16f0f2faf8d7a0d14c09","651c1d045d995bbf6471efc3","null","null","<p style=""font-size: 60px; font-family: BACS"">lRCBOtM</p>","","","","","","","","",""
"html-keyboard-response","387","814605","0.0-16.0-0.55","5e42f03607b468000d8eb912","650c16f0f2faf8d7a0d14c09","651c1d045d995bbf6471efc3","null","null","<p style=""font-size: 60px; font-family: BACS"">lRCBOtM</p>","","","","","","","","",""
"html-keyboard-response","388","815606","0.0-16.0-0.56","5e42f03607b468000d8eb912","650c16f0f2faf8d7a0d14c09","651c1d045d995bbf6471efc3","null","null","<p style=""font-size: 60px; font-family: BACS"">lRCBOtM</p>","","","","","","","","",""
"html-keyboard-response","389","816608","0.0-16.0-0.57","5e42f03607b468000d8eb912","650c16f0f2faf8d7a0d14c09","651c1d045d995bbf6471efc3","null","null","<p style=""font-size: 60px; font-family: BACS"">lRCBOtM</p>","","","","","","","","",""
"html-keyboard-response","390","817610","0.0-16.0-0.58","5e42f03607b468000d8eb912","650c16f0f2faf8d7a0d14c09","651c1d045d995bbf6471efc3","null","null","<p style=""font-size: 60px; font-family: BACS"">lRCBOtM</p>","","","","","","","","",""
"html-keyboard-response","391","818611","0.0-16.0-0.59","5e42f03607b468000d8eb912","650c16f0f2faf8d7a0d14c09","651c1d045d995bbf6471efc3","null","null","<p style=""font-size: 60px; font-family: BACS"">lRCBOtM</p>","","","","","","","","",""
"html-keyboard-response","392","819612","0.0-16.0-0.60","5e42f03607b468000d8eb912","650c16f0f2faf8d7a0d14c09","651c1d045d995bbf6471efc3","null","null","<p style=""font-size: 60px; font-family: BACS"">lRCBOtM</p>","","","","","","","","",""
"html-keyboard-response","393","820614","0.0-16.0-0.61","5e42f03607b468000d8eb912","650c16f0f2faf8d7a0d14c09","651c1d045d995bbf6471efc3","null","null","<p style=""font-size: 60px; font-family: BACS"">lRCBOtM</p>","","","","","","","","",""
"html-keyboard-response","394","821616","0.0-16.0-0.62","5e42f03607b468000d8eb912","650c16f0f2faf8d7a0d14c09","651c1d045d995bbf6471efc3","null","null","<p style=""font-size: 60px; font-family: BACS"">lRCBOtM</p>","","","","","","","","",""
"html-keyboard-response","395","822618","0.0-16.0-0.63","5e42f03607b468000d8eb912","650c16f0f2faf8d7a0d14c09","651c1d045d995bbf6471efc3","null","null","<p style=""font-size: 60px; font-family: BACS"">lRCBOtM</p>","","","","","","","","",""
"html-keyboard-response","396","823620","0.0-16.0-0.64","5e42f03607b468000d8eb912","650c16f0f2faf8d7a0d14c09","651c1d045d995bbf6471efc3","null","null","<p style=""font-size: 60px; font-family: BACS"">lRCBOtM</p>","","","","","","","","",""
"html-keyboard-response","397","824621","0.0-16.0-0.65","5e42f03607b468000d8eb912","650c16f0f2faf8d7a0d14c09","651c1d045d995bbf6471efc3","null","null","<p style=""font-size: 60px; font-family: BACS"">lRCBOtM</p>","","","","","","","","",""
"html-keyboard-response","398","825623","0.0-16.0-0.66","5e42f03607b468000d8eb912","650c16f0f2faf8d7a0d14c09","651c1d045d995bbf6471efc3","null","null","<p style=""font-size: 60px; font-family: BACS"">lRCBOtM</p>","","","","","","","","",""
"html-keyboard-response","399","826624","0.0-16.0-0.67","5e42f03607b468000d8eb912","650c16f0f2faf8d7a0d14c09","651c1d045d995bbf6471efc3","null","null","<p style=""font-size: 60px; font-family: BACS"">lRCBOtM</p>","","","","","","","","",""
"html-keyboard-response","400","827626","0.0-16.0-0.68","5e42f03607b468000d8eb912","650c16f0f2faf8d7a0d14c09","651c1d045d995bbf6471efc3","null","null","<p style=""font-size: 60px; font-family: BACS"">lRCBOtM</p>","","","","","","","","",""
