"trial_type","trial_index","time_elapsed","internal_node_id","subject_id","study_id","session_id","rt","response","stimulus","success","item","task","correct_response","testing_condition","correct","target","confound","name"
"pavlovia","0","740","0.0-0.0","5f47e34858dd331165bf9f00","650c16f0f2faf8d7a0d14c09","651c1c30e3f827a6d91a61ee","","","","","","","","","","","",""
"survey-html-form","1","6468","0.0-1.0","5f47e34858dd331165bf9f00","650c16f0f2faf8d7a0d14c09","651c1c30e3f827a6d91a61ee","5726","{""ID"":""5f47e34858dd331165bf9f00""}","","","","","","","","","",""
"html-keyboard-response","2","11760","0.0-2.0","5f47e34858dd331165bf9f00","650c16f0f2faf8d7a0d14c09","651c1c30e3f827a6d91a61ee","5291"," ","<p style=""font-size: 15px;"">Before beginning, we ask that you read the consent information and confirm your agreement to participate in the experiment.</p>
      <p style=""font-size: 15px;""> We ask that you remember that this is a research project and that your participation is entirely voluntary. You can stop your participation at any time, without needing to provide any explanation. The study we're asking you to participate in aims at examining how readers process written words. You will be engaged in a session of apprximately 20 minutes, followed by a brief questionnaire. You will have the opportunity to take a few breaks during the experiment. You will be paid £4 for your participation, corresponding to a rate of £8/hour. While this experiment looks at cognitive faculties, this experiment doesn't constitute clinical proof of eventual pathologies.</p>
      <p style=""font-size: 15px;"">All of the information collected thanks to yours and others' participation will be held in a secure password-protected server, and will not be shared with anyone not authorised to view it. Your personal information will be kept with an arbitrary participant ID. Thanks to this data anonymity process, any researcher analysing the data won't be able to track the information back to a specific participant. Therefore, this process will make identifying you impossibile, even when results from the study will be published in scientific reviews, presented at congresses, or at any other public forum. More generally, the collected data will be treated in accordance with the laws on privacy and conformity to the Legislative Degree n. 196 ""Code regarding the protection of personal data"" of the 30th of June 2003 and to the European Regulation 2016/670 (General Data Protection Regulation - GDPR). The Data Protection Officer is Avv. Valentina Carollo, who can be contacted at the following email addresses: <a href=""mailto:dpo@sissa.it"">dpo@sissa.it</a> or <a href=""mailto:rpd@sissa.it"">rpd@sissa.it</a> - PEC: <a href=""mailto:protocollo@pec.sissa.it"">protocollo@pec.sissa.it</a>.</p>
      <p style=""font-size: 15px;""> Before expressing your consent to participate, we would like to remind you again that in case you need explanations on any aspect of the experimental procedure, the researcher is at your disposition (<a href=""mailto:aliebelt@sissa.it"">aliebelt@sissa.it</a>, <a href=""mailto:davide.crepaldi@sissa.it"">davide.crepaldi@sissa.it</a>).</p>
      <p style=""font-size: 15px;"">If you would like to download the informed consent form, you can do so here: <a href=""BASL-Informed_Consent.pdf"" download>informed consent form</a>.</p>
      <p style=""font-size: 15px;"">We ask that you press the spacebar to proceed to the consent section.</p>","","","","","","","","",""
"survey-html-form","3","24845","0.0-3.0","5f47e34858dd331165bf9f00","650c16f0f2faf8d7a0d14c09","651c1c30e3f827a6d91a61ee","13084","{""consent1"":""YES"",""consent2"":""YES"",""consent3"":""YES"",""consent4"":""YES"",""consent5"":""YES"",""consent6"":""YES""}","","","","","","","","","",""
"fullscreen","4","32136","0.0-4.0","5f47e34858dd331165bf9f00","650c16f0f2faf8d7a0d14c09","651c1c30e3f827a6d91a61ee","","","","true","","","","","","","",""
"html-keyboard-response","5","40130","0.0-5.0","5f47e34858dd331165bf9f00","650c16f0f2faf8d7a0d14c09","651c1c30e3f827a6d91a61ee","7994"," ","<p>Welcome, and thank you very much for your time!</p>
      <p>In this experiment, you'll be a language expert who's been asked to take a look at words that Earth has received in its first communication with aliens. Your task, in this first part of the experiment, is to pay close attention to the words you'll be shown; later, world leaders will ask you questions on what you saw. The words will be shown to you quite quickly; it seems that the aliens were in a hurry :-)</p>
      <p>Press the spacebar to continue.<p>","","","","","","","","",""
"html-keyboard-response","6","40181","0.0-6.0","5f47e34858dd331165bf9f00","650c16f0f2faf8d7a0d14c09","651c1c30e3f827a6d91a61ee","null","null","<p style=""font-size: 120px; font-family: BACS""> </p>","","","","","","","","",""
"html-keyboard-response","7","43378","0.0-7.0","5f47e34858dd331165bf9f00","650c16f0f2faf8d7a0d14c09","651c1c30e3f827a6d91a61ee","3196"," ","<p>Here is an example of the words you'll see:</p>
      <img src='esempio.png' height='400px'>
      <p>When you're ready to begin, press the spacebar.</p></div>","","","","","","","","",""
"html-keyboard-response","8","44388","0.0-8.0-0.0","5f47e34858dd331165bf9f00","650c16f0f2faf8d7a0d14c09","651c1c30e3f827a6d91a61ee","null","null","<p style=""font-size: 60px; font-family: BACS"">amJmravu</p>","","","","","","","","",""
"html-keyboard-response","9","45402","0.0-8.0-0.1","5f47e34858dd331165bf9f00","650c16f0f2faf8d7a0d14c09","651c1c30e3f827a6d91a61ee","null","null","<p style=""font-size: 60px; font-family: BACS"">dCtMAdTAh</p>","","","","","","","","",""
"html-keyboard-response","10","46404","0.0-8.0-0.2","5f47e34858dd331165bf9f00","650c16f0f2faf8d7a0d14c09","651c1c30e3f827a6d91a61ee","null","null","<p style=""font-size: 60px; font-family: BACS"">bmdABRdCc</p>","","","","","","","","",""
"html-keyboard-response","11","47405","0.0-8.0-0.3","5f47e34858dd331165bf9f00","650c16f0f2faf8d7a0d14c09","651c1c30e3f827a6d91a61ee","null","null","<p style=""font-size: 60px; font-family: BACS"">dCtMAOYK</p>","","","","","","","","",""
"html-keyboard-response","12","48410","0.0-8.0-0.4","5f47e34858dd331165bf9f00","650c16f0f2faf8d7a0d14c09","651c1c30e3f827a6d91a61ee","null","null","<p style=""font-size: 60px; font-family: BACS"">OAblcYUYa</p>","","","","","","","","",""
"html-keyboard-response","13","49415","0.0-8.0-0.5","5f47e34858dd331165bf9f00","650c16f0f2faf8d7a0d14c09","651c1c30e3f827a6d91a61ee","null","null","<p style=""font-size: 60px; font-family: BACS"">AlQaQYZUZ</p>","","","","","","","","",""
"html-keyboard-response","14","50418","0.0-8.0-0.6","5f47e34858dd331165bf9f00","650c16f0f2faf8d7a0d14c09","651c1c30e3f827a6d91a61ee","null","null","<p style=""font-size: 60px; font-family: BACS"">dMThkRdCc</p>","","","","","","","","",""
"html-keyboard-response","15","51425","0.0-8.0-0.7","5f47e34858dd331165bf9f00","650c16f0f2faf8d7a0d14c09","651c1c30e3f827a6d91a61ee","null","null","<p style=""font-size: 60px; font-family: BACS"">CkBOPCPMl</p>","","","","","","","","",""
"html-keyboard-response","16","52426","0.0-8.0-0.8","5f47e34858dd331165bf9f00","650c16f0f2faf8d7a0d14c09","651c1c30e3f827a6d91a61ee","null","null","<p style=""font-size: 60px; font-family: BACS"">amJmYUYa</p>","","","","","","","","",""
"html-keyboard-response","17","53434","0.0-8.0-0.9","5f47e34858dd331165bf9f00","650c16f0f2faf8d7a0d14c09","651c1c30e3f827a6d91a61ee","null","null","<p style=""font-size: 60px; font-family: BACS"">PEkhARdCc</p>","","","","","","","","",""
"html-keyboard-response","18","54441","0.0-8.0-0.10","5f47e34858dd331165bf9f00","650c16f0f2faf8d7a0d14c09","651c1c30e3f827a6d91a61ee","null","null","<p style=""font-size: 60px; font-family: BACS"">dCtMACPMl</p>","","","","","","","","",""
"html-keyboard-response","19","55447","0.0-8.0-0.11","5f47e34858dd331165bf9f00","650c16f0f2faf8d7a0d14c09","651c1c30e3f827a6d91a61ee","null","null","<p style=""font-size: 60px; font-family: BACS"">vkYGlYUYa</p>","","","","","","","","",""
"html-keyboard-response","20","56451","0.0-8.0-0.12","5f47e34858dd331165bf9f00","650c16f0f2faf8d7a0d14c09","651c1c30e3f827a6d91a61ee","null","null","<p style=""font-size: 60px; font-family: BACS"">OAblcrZYd</p>","","","","","","","","",""
"html-keyboard-response","21","57455","0.0-8.0-0.13","5f47e34858dd331165bf9f00","650c16f0f2faf8d7a0d14c09","651c1c30e3f827a6d91a61ee","null","null","<p style=""font-size: 60px; font-family: BACS"">dCtMADOk</p>","","","","","","","","",""
"html-keyboard-response","22","58457","0.0-8.0-0.14","5f47e34858dd331165bf9f00","650c16f0f2faf8d7a0d14c09","651c1c30e3f827a6d91a61ee","null","null","<p style=""font-size: 60px; font-family: BACS"">ABPRBdTAh</p>","","","","","","","","",""
"html-keyboard-response","23","59460","0.0-8.0-0.15","5f47e34858dd331165bf9f00","650c16f0f2faf8d7a0d14c09","651c1c30e3f827a6d91a61ee","null","null","<p style=""font-size: 60px; font-family: BACS"">amJmrZYd</p>","","","","","","","","",""
"html-keyboard-response","24","60461","0.0-8.0-0.16","5f47e34858dd331165bf9f00","650c16f0f2faf8d7a0d14c09","651c1c30e3f827a6d91a61ee","null","null","<p style=""font-size: 60px; font-family: BACS"">ABPRBRdCc</p>","","","","","","","","",""
"html-keyboard-response","25","61467","0.0-8.0-0.17","5f47e34858dd331165bf9f00","650c16f0f2faf8d7a0d14c09","651c1c30e3f827a6d91a61ee","null","null","<p style=""font-size: 60px; font-family: BACS"">PEkhADOk</p>","","","","","","","","",""
"html-keyboard-response","26","62469","0.0-8.0-0.18","5f47e34858dd331165bf9f00","650c16f0f2faf8d7a0d14c09","651c1c30e3f827a6d91a61ee","null","null","<p style=""font-size: 60px; font-family: BACS"">GQrcYUYa</p>","","","","","","","","",""
"html-keyboard-response","27","63474","0.0-8.0-0.19","5f47e34858dd331165bf9f00","650c16f0f2faf8d7a0d14c09","651c1c30e3f827a6d91a61ee","null","null","<p style=""font-size: 60px; font-family: BACS"">dMThkOYK</p>","","","","","","","","",""
"html-keyboard-response","28","64476","0.0-8.0-0.20","5f47e34858dd331165bf9f00","650c16f0f2faf8d7a0d14c09","651c1c30e3f827a6d91a61ee","null","null","<p style=""font-size: 60px; font-family: BACS"">CkBOPRdCc</p>","","","","","","","","",""
"html-keyboard-response","29","65477","0.0-8.0-0.21","5f47e34858dd331165bf9f00","650c16f0f2faf8d7a0d14c09","651c1c30e3f827a6d91a61ee","null","null","<p style=""font-size: 60px; font-family: BACS"">GQrcravu</p>","","","","","","","","",""
"html-keyboard-response","30","66485","0.0-8.0-0.22","5f47e34858dd331165bf9f00","650c16f0f2faf8d7a0d14c09","651c1c30e3f827a6d91a61ee","null","null","<p style=""font-size: 60px; font-family: BACS"">ABPRBOYK</p>","","","","","","","","",""
"html-keyboard-response","31","67492","0.0-8.0-0.23","5f47e34858dd331165bf9f00","650c16f0f2faf8d7a0d14c09","651c1c30e3f827a6d91a61ee","null","null","<p style=""font-size: 60px; font-family: BACS"">GQrcrZYd</p>","","","","","","","","",""
"html-keyboard-response","32","68495","0.0-8.0-0.24","5f47e34858dd331165bf9f00","650c16f0f2faf8d7a0d14c09","651c1c30e3f827a6d91a61ee","null","null","<p style=""font-size: 60px; font-family: BACS"">GabkYbN</p>","","","","","","","","",""
"html-keyboard-response","33","69506","0.0-8.0-0.25","5f47e34858dd331165bf9f00","650c16f0f2faf8d7a0d14c09","651c1c30e3f827a6d91a61ee","null","null","<p style=""font-size: 60px; font-family: BACS"">mbZlYZUZ</p>","","","","","","","","",""
"html-keyboard-response","34","70520","0.0-8.0-0.26","5f47e34858dd331165bf9f00","650c16f0f2faf8d7a0d14c09","651c1c30e3f827a6d91a61ee","null","null","<p style=""font-size: 60px; font-family: BACS"">BlmclRdCc</p>","","","","","","","","",""
"html-keyboard-response","35","71536","0.0-8.0-0.27","5f47e34858dd331165bf9f00","650c16f0f2faf8d7a0d14c09","651c1c30e3f827a6d91a61ee","null","null","<p style=""font-size: 60px; font-family: BACS"">GabkYUYa</p>","","","","","","","","",""
"html-keyboard-response","36","72539","0.0-8.0-0.28","5f47e34858dd331165bf9f00","650c16f0f2faf8d7a0d14c09","651c1c30e3f827a6d91a61ee","null","null","<p style=""font-size: 60px; font-family: BACS"">vkYGlYZUZ</p>","","","","","","","","",""
"html-keyboard-response","37","73542","0.0-8.0-0.29","5f47e34858dd331165bf9f00","650c16f0f2faf8d7a0d14c09","651c1c30e3f827a6d91a61ee","null","null","<p style=""font-size: 60px; font-family: BACS"">chAhCPMl</p>","","","","","","","","",""
"html-keyboard-response","38","74548","0.0-8.0-0.30","5f47e34858dd331165bf9f00","650c16f0f2faf8d7a0d14c09","651c1c30e3f827a6d91a61ee","null","null","<p style=""font-size: 60px; font-family: BACS"">rvUbYUYa</p>","","","","","","","","",""
"html-keyboard-response","39","75554","0.0-8.0-0.31","5f47e34858dd331165bf9f00","650c16f0f2faf8d7a0d14c09","651c1c30e3f827a6d91a61ee","null","null","<p style=""font-size: 60px; font-family: BACS"">mbZlYbN</p>","","","","","","","","",""
"html-keyboard-response","40","76557","0.0-8.0-0.32","5f47e34858dd331165bf9f00","650c16f0f2faf8d7a0d14c09","651c1c30e3f827a6d91a61ee","null","null","<p style=""font-size: 60px; font-family: BACS"">BlmcldTAh</p>","","","","","","","","",""
"html-keyboard-response","41","77563","0.0-8.0-0.33","5f47e34858dd331165bf9f00","650c16f0f2faf8d7a0d14c09","651c1c30e3f827a6d91a61ee","null","null","<p style=""font-size: 60px; font-family: BACS"">OdlNmYZUZ</p>","","","","","","","","",""
"html-keyboard-response","42","78568","0.0-8.0-0.34","5f47e34858dd331165bf9f00","650c16f0f2faf8d7a0d14c09","651c1c30e3f827a6d91a61ee","null","null","<p style=""font-size: 60px; font-family: BACS"">DcPTcCPMl</p>","","","","","","","","",""
"html-keyboard-response","43","79572","0.0-8.0-0.35","5f47e34858dd331165bf9f00","650c16f0f2faf8d7a0d14c09","651c1c30e3f827a6d91a61ee","null","null","<p style=""font-size: 60px; font-family: BACS"">ABPRBDOk</p>","","","","","","","","",""
"html-keyboard-response","44","80578","0.0-8.0-0.36","5f47e34858dd331165bf9f00","650c16f0f2faf8d7a0d14c09","651c1c30e3f827a6d91a61ee","null","null","<p style=""font-size: 60px; font-family: BACS"">OdlNmravu</p>","","","","","","","","",""
"html-keyboard-response","45","81586","0.0-8.0-0.37","5f47e34858dd331165bf9f00","650c16f0f2faf8d7a0d14c09","651c1c30e3f827a6d91a61ee","null","null","<p style=""font-size: 60px; font-family: BACS"">bmdABdTAh</p>","","","","","","","","",""
"html-keyboard-response","46","82591","0.0-8.0-0.38","5f47e34858dd331165bf9f00","650c16f0f2faf8d7a0d14c09","651c1c30e3f827a6d91a61ee","null","null","<p style=""font-size: 60px; font-family: BACS"">OdlNmYbN</p>","","","","","","","","",""
"html-keyboard-response","47","83596","0.0-8.0-0.39","5f47e34858dd331165bf9f00","650c16f0f2faf8d7a0d14c09","651c1c30e3f827a6d91a61ee","null","null","<p style=""font-size: 60px; font-family: BACS"">NvYJYUYa</p>","","","","","","","","",""
"html-keyboard-response","48","84600","0.0-8.0-0.40","5f47e34858dd331165bf9f00","650c16f0f2faf8d7a0d14c09","651c1c30e3f827a6d91a61ee","null","null","<p style=""font-size: 60px; font-family: BACS"">bmdABDOk</p>","","","","","","","","",""
"html-keyboard-response","49","85605","0.0-8.0-0.41","5f47e34858dd331165bf9f00","650c16f0f2faf8d7a0d14c09","651c1c30e3f827a6d91a61ee","null","null","<p style=""font-size: 60px; font-family: BACS"">DcPTcRdCc</p>","","","","","","","","",""
"html-keyboard-response","50","86621","0.0-8.0-0.42","5f47e34858dd331165bf9f00","650c16f0f2faf8d7a0d14c09","651c1c30e3f827a6d91a61ee","null","null","<p style=""font-size: 60px; font-family: BACS"">MBmEdTAh</p>","","","","","","","","",""
"html-keyboard-response","51","87630","0.0-8.0-0.43","5f47e34858dd331165bf9f00","650c16f0f2faf8d7a0d14c09","651c1c30e3f827a6d91a61ee","null","null","<p style=""font-size: 60px; font-family: BACS"">NvYJravu</p>","","","","","","","","",""
"html-keyboard-response","52","88631","0.0-8.0-0.44","5f47e34858dd331165bf9f00","650c16f0f2faf8d7a0d14c09","651c1c30e3f827a6d91a61ee","null","null","<p style=""font-size: 60px; font-family: BACS"">MBmEDOk</p>","","","","","","","","",""
"html-keyboard-response","53","89633","0.0-8.0-0.45","5f47e34858dd331165bf9f00","650c16f0f2faf8d7a0d14c09","651c1c30e3f827a6d91a61ee","null","null","<p style=""font-size: 60px; font-family: BACS"">AlQaQYbN</p>","","","","","","","","",""
"html-keyboard-response","54","90648","0.0-8.0-0.46","5f47e34858dd331165bf9f00","650c16f0f2faf8d7a0d14c09","651c1c30e3f827a6d91a61ee","null","null","<p style=""font-size: 60px; font-family: BACS"">chAhOYK</p>","","","","","","","","",""
"html-keyboard-response","55","91661","0.0-8.0-0.47","5f47e34858dd331165bf9f00","650c16f0f2faf8d7a0d14c09","651c1c30e3f827a6d91a61ee","null","null","<p style=""font-size: 60px; font-family: BACS"">mbZlrZYd</p>","","","","","","","","",""
"html-keyboard-response","56","92677","0.0-8.0-0.48","5f47e34858dd331165bf9f00","650c16f0f2faf8d7a0d14c09","651c1c30e3f827a6d91a61ee","null","null","<p style=""font-size: 60px; font-family: BACS"">chAhRdCc</p>","","","","","","","","",""
"html-keyboard-response","57","93681","0.0-8.0-0.49","5f47e34858dd331165bf9f00","650c16f0f2faf8d7a0d14c09","651c1c30e3f827a6d91a61ee","null","null","<p style=""font-size: 60px; font-family: BACS"">AlQaQYUYa</p>","","","","","","","","",""
"html-keyboard-response","58","94682","0.0-8.0-0.50","5f47e34858dd331165bf9f00","650c16f0f2faf8d7a0d14c09","651c1c30e3f827a6d91a61ee","null","null","<p style=""font-size: 60px; font-family: BACS"">CkBOPdTAh</p>","","","","","","","","",""
"html-keyboard-response","59","95685","0.0-8.0-0.51","5f47e34858dd331165bf9f00","650c16f0f2faf8d7a0d14c09","651c1c30e3f827a6d91a61ee","null","null","<p style=""font-size: 60px; font-family: BACS"">BlmclCPMl</p>","","","","","","","","",""
"html-keyboard-response","60","96690","0.0-8.0-0.52","5f47e34858dd331165bf9f00","650c16f0f2faf8d7a0d14c09","651c1c30e3f827a6d91a61ee","null","null","<p style=""font-size: 60px; font-family: BACS"">GabkYZUZ</p>","","","","","","","","",""
"html-keyboard-response","61","97694","0.0-8.0-0.53","5f47e34858dd331165bf9f00","650c16f0f2faf8d7a0d14c09","651c1c30e3f827a6d91a61ee","null","null","<p style=""font-size: 60px; font-family: BACS"">rvUbrZYd</p>","","","","","","","","",""
"html-keyboard-response","62","98699","0.0-8.0-0.54","5f47e34858dd331165bf9f00","650c16f0f2faf8d7a0d14c09","651c1c30e3f827a6d91a61ee","null","null","<p style=""font-size: 60px; font-family: BACS"">MBmECPMl</p>","","","","","","","","",""
"html-keyboard-response","63","99706","0.0-8.0-0.55","5f47e34858dd331165bf9f00","650c16f0f2faf8d7a0d14c09","651c1c30e3f827a6d91a61ee","null","null","<p style=""font-size: 60px; font-family: BACS"">GQrcYbN</p>","","","","","","","","",""
"html-keyboard-response","64","100710","0.0-8.0-0.56","5f47e34858dd331165bf9f00","650c16f0f2faf8d7a0d14c09","651c1c30e3f827a6d91a61ee","null","null","<p style=""font-size: 60px; font-family: BACS"">AlQaQrZYd</p>","","","","","","","","",""
"html-keyboard-response","65","101715","0.0-8.0-0.57","5f47e34858dd331165bf9f00","650c16f0f2faf8d7a0d14c09","651c1c30e3f827a6d91a61ee","null","null","<p style=""font-size: 60px; font-family: BACS"">OAblcYZUZ</p>","","","","","","","","",""
"html-keyboard-response","66","102718","0.0-8.0-0.58","5f47e34858dd331165bf9f00","650c16f0f2faf8d7a0d14c09","651c1c30e3f827a6d91a61ee","null","null","<p style=""font-size: 60px; font-family: BACS"">vkYGlravu</p>","","","","","","","","",""
"html-keyboard-response","67","103720","0.0-8.0-0.59","5f47e34858dd331165bf9f00","650c16f0f2faf8d7a0d14c09","651c1c30e3f827a6d91a61ee","null","null","<p style=""font-size: 60px; font-family: BACS"">PEkhACPMl</p>","","","","","","","","",""
"html-keyboard-response","68","104724","0.0-8.0-0.60","5f47e34858dd331165bf9f00","650c16f0f2faf8d7a0d14c09","651c1c30e3f827a6d91a61ee","null","null","<p style=""font-size: 60px; font-family: BACS"">NvYJYbN</p>","","","","","","","","",""
"html-keyboard-response","69","105728","0.0-8.0-0.61","5f47e34858dd331165bf9f00","650c16f0f2faf8d7a0d14c09","651c1c30e3f827a6d91a61ee","null","null","<p style=""font-size: 60px; font-family: BACS"">DcPTcOYK</p>","","","","","","","","",""
"html-keyboard-response","70","106744","0.0-8.0-0.62","5f47e34858dd331165bf9f00","650c16f0f2faf8d7a0d14c09","651c1c30e3f827a6d91a61ee","null","null","<p style=""font-size: 60px; font-family: BACS"">OAblcravu</p>","","","","","","","","",""
"html-keyboard-response","71","107752","0.0-8.0-0.63","5f47e34858dd331165bf9f00","650c16f0f2faf8d7a0d14c09","651c1c30e3f827a6d91a61ee","null","null","<p style=""font-size: 60px; font-family: BACS"">dMThkCPMl</p>","","","","","","","","",""
"html-keyboard-response","72","108755","0.0-8.0-0.64","5f47e34858dd331165bf9f00","650c16f0f2faf8d7a0d14c09","651c1c30e3f827a6d91a61ee","null","null","<p style=""font-size: 60px; font-family: BACS"">BlmclDOk</p>","","","","","","","","",""
"html-keyboard-response","73","109759","0.0-8.0-0.65","5f47e34858dd331165bf9f00","650c16f0f2faf8d7a0d14c09","651c1c30e3f827a6d91a61ee","null","null","<p style=""font-size: 60px; font-family: BACS"">GabkrZYd</p>","","","","","","","","",""
"html-keyboard-response","74","110765","0.0-8.0-0.66","5f47e34858dd331165bf9f00","650c16f0f2faf8d7a0d14c09","651c1c30e3f827a6d91a61ee","null","null","<p style=""font-size: 60px; font-family: BACS"">NvYJYZUZ</p>","","","","","","","","",""
"html-keyboard-response","75","111768","0.0-8.0-0.67","5f47e34858dd331165bf9f00","650c16f0f2faf8d7a0d14c09","651c1c30e3f827a6d91a61ee","null","null","<p style=""font-size: 60px; font-family: BACS"">OdlNmrZYd</p>","","","","","","","","",""
"html-keyboard-response","76","112770","0.0-8.0-0.68","5f47e34858dd331165bf9f00","650c16f0f2faf8d7a0d14c09","651c1c30e3f827a6d91a61ee","null","null","<p style=""font-size: 60px; font-family: BACS"">MBmEOYK</p>","","","","","","","","",""
"html-keyboard-response","77","113771","0.0-8.0-0.69","5f47e34858dd331165bf9f00","650c16f0f2faf8d7a0d14c09","651c1c30e3f827a6d91a61ee","null","null","<p style=""font-size: 60px; font-family: BACS"">chAhDOk</p>","","","","","","","","",""
"html-keyboard-response","78","114774","0.0-8.0-0.70","5f47e34858dd331165bf9f00","650c16f0f2faf8d7a0d14c09","651c1c30e3f827a6d91a61ee","null","null","<p style=""font-size: 60px; font-family: BACS"">rvUbYbN</p>","","","","","","","","",""
"html-keyboard-response","79","115785","0.0-8.0-0.71","5f47e34858dd331165bf9f00","650c16f0f2faf8d7a0d14c09","651c1c30e3f827a6d91a61ee","null","null","<p style=""font-size: 60px; font-family: BACS"">DcPTcdTAh</p>","","","","","","","","",""
"html-keyboard-response","80","116799","0.0-8.0-0.72","5f47e34858dd331165bf9f00","650c16f0f2faf8d7a0d14c09","651c1c30e3f827a6d91a61ee","null","null","<p style=""font-size: 60px; font-family: BACS"">amJmYZUZ</p>","","","","","","","","",""
"html-keyboard-response","81","117801","0.0-8.0-0.73","5f47e34858dd331165bf9f00","650c16f0f2faf8d7a0d14c09","651c1c30e3f827a6d91a61ee","null","null","<p style=""font-size: 60px; font-family: BACS"">CkBOPOYK</p>","","","","","","","","",""
"html-keyboard-response","82","118802","0.0-8.0-0.74","5f47e34858dd331165bf9f00","650c16f0f2faf8d7a0d14c09","651c1c30e3f827a6d91a61ee","null","null","<p style=""font-size: 60px; font-family: BACS"">PEkhAdTAh</p>","","","","","","","","",""
"html-keyboard-response","83","119806","0.0-8.0-0.75","5f47e34858dd331165bf9f00","650c16f0f2faf8d7a0d14c09","651c1c30e3f827a6d91a61ee","null","null","<p style=""font-size: 60px; font-family: BACS"">mbZlravu</p>","","","","","","","","",""
"html-keyboard-response","84","120821","0.0-8.0-0.76","5f47e34858dd331165bf9f00","650c16f0f2faf8d7a0d14c09","651c1c30e3f827a6d91a61ee","null","null","<p style=""font-size: 60px; font-family: BACS"">vkYGlYbN</p>","","","","","","","","",""
"html-keyboard-response","85","121827","0.0-8.0-0.77","5f47e34858dd331165bf9f00","650c16f0f2faf8d7a0d14c09","651c1c30e3f827a6d91a61ee","null","null","<p style=""font-size: 60px; font-family: BACS"">rvUbravu</p>","","","","","","","","",""
"html-keyboard-response","86","122832","0.0-8.0-0.78","5f47e34858dd331165bf9f00","650c16f0f2faf8d7a0d14c09","651c1c30e3f827a6d91a61ee","null","null","<p style=""font-size: 60px; font-family: BACS"">dMThkDOk</p>","","","","","","","","",""
"html-keyboard-response","87","123839","0.0-8.0-0.79","5f47e34858dd331165bf9f00","650c16f0f2faf8d7a0d14c09","651c1c30e3f827a6d91a61ee","null","null","<p style=""font-size: 60px; font-family: BACS"">bmdABOYK</p>","","","","","","","","",""
"html-keyboard-response","88","153288","0.0-9.0","5f47e34858dd331165bf9f00","650c16f0f2faf8d7a0d14c09","651c1c30e3f827a6d91a61ee","29448"," ","<p>Great, you've seen the first block of words. You may now take a short break.</p>
      <p>Press the spacebar when you're ready to continue.</p>","","","","","","","","",""
"html-keyboard-response","89","154295","0.0-10.0-0.0","5f47e34858dd331165bf9f00","650c16f0f2faf8d7a0d14c09","651c1c30e3f827a6d91a61ee","null","null","<p style=""font-size: 60px; font-family: BACS"">mbZlYZUZ</p>","","","","","","","","",""
"html-keyboard-response","90","155299","0.0-10.0-0.1","5f47e34858dd331165bf9f00","650c16f0f2faf8d7a0d14c09","651c1c30e3f827a6d91a61ee","null","null","<p style=""font-size: 60px; font-family: BACS"">MBmEDOk</p>","","","","","","","","",""
"html-keyboard-response","91","156304","0.0-10.0-0.2","5f47e34858dd331165bf9f00","650c16f0f2faf8d7a0d14c09","651c1c30e3f827a6d91a61ee","null","null","<p style=""font-size: 60px; font-family: BACS"">OdlNmYZUZ</p>","","","","","","","","",""
"html-keyboard-response","92","157307","0.0-10.0-0.3","5f47e34858dd331165bf9f00","650c16f0f2faf8d7a0d14c09","651c1c30e3f827a6d91a61ee","null","null","<p style=""font-size: 60px; font-family: BACS"">ABPRBOYK</p>","","","","","","","","",""
"html-keyboard-response","93","158313","0.0-10.0-0.4","5f47e34858dd331165bf9f00","650c16f0f2faf8d7a0d14c09","651c1c30e3f827a6d91a61ee","null","null","<p style=""font-size: 60px; font-family: BACS"">MBmECPMl</p>","","","","","","","","",""
"html-keyboard-response","94","159319","0.0-10.0-0.5","5f47e34858dd331165bf9f00","650c16f0f2faf8d7a0d14c09","651c1c30e3f827a6d91a61ee","null","null","<p style=""font-size: 60px; font-family: BACS"">BlmcldTAh</p>","","","","","","","","",""
"html-keyboard-response","95","160320","0.0-10.0-0.6","5f47e34858dd331165bf9f00","650c16f0f2faf8d7a0d14c09","651c1c30e3f827a6d91a61ee","null","null","<p style=""font-size: 60px; font-family: BACS"">GQrcravu</p>","","","","","","","","",""
"html-keyboard-response","96","161333","0.0-10.0-0.7","5f47e34858dd331165bf9f00","650c16f0f2faf8d7a0d14c09","651c1c30e3f827a6d91a61ee","null","null","<p style=""font-size: 60px; font-family: BACS"">amJmrZYd</p>","","","","","","","","",""
"html-keyboard-response","97","162345","0.0-10.0-0.8","5f47e34858dd331165bf9f00","650c16f0f2faf8d7a0d14c09","651c1c30e3f827a6d91a61ee","null","null","<p style=""font-size: 60px; font-family: BACS"">OAblcYZUZ</p>","","","","","","","","",""
"html-keyboard-response","98","163347","0.0-10.0-0.9","5f47e34858dd331165bf9f00","650c16f0f2faf8d7a0d14c09","651c1c30e3f827a6d91a61ee","null","null","<p style=""font-size: 60px; font-family: BACS"">bmdABDOk</p>","","","","","","","","",""
"html-keyboard-response","99","164351","0.0-10.0-0.10","5f47e34858dd331165bf9f00","650c16f0f2faf8d7a0d14c09","651c1c30e3f827a6d91a61ee","null","null","<p style=""font-size: 60px; font-family: BACS"">chAhOYK</p>","","","","","","","","",""
"html-keyboard-response","100","165356","0.0-10.0-0.11","5f47e34858dd331165bf9f00","650c16f0f2faf8d7a0d14c09","651c1c30e3f827a6d91a61ee","null","null","<p style=""font-size: 60px; font-family: BACS"">vkYGlravu</p>","","","","","","","","",""
"html-keyboard-response","101","166361","0.0-10.0-0.12","5f47e34858dd331165bf9f00","650c16f0f2faf8d7a0d14c09","651c1c30e3f827a6d91a61ee","null","null","<p style=""font-size: 60px; font-family: BACS"">BlmclDOk</p>","","","","","","","","",""
"html-keyboard-response","102","167376","0.0-10.0-0.13","5f47e34858dd331165bf9f00","650c16f0f2faf8d7a0d14c09","651c1c30e3f827a6d91a61ee","null","null","<p style=""font-size: 60px; font-family: BACS"">OAblcrZYd</p>","","","","","","","","",""
"html-keyboard-response","103","168382","0.0-10.0-0.14","5f47e34858dd331165bf9f00","650c16f0f2faf8d7a0d14c09","651c1c30e3f827a6d91a61ee","null","null","<p style=""font-size: 60px; font-family: BACS"">CkBOPRdCc</p>","","","","","","","","",""
"html-keyboard-response","104","169386","0.0-10.0-0.15","5f47e34858dd331165bf9f00","650c16f0f2faf8d7a0d14c09","651c1c30e3f827a6d91a61ee","null","null","<p style=""font-size: 60px; font-family: BACS"">bmdABdTAh</p>","","","","","","","","",""
"html-keyboard-response","105","170392","0.0-10.0-0.16","5f47e34858dd331165bf9f00","650c16f0f2faf8d7a0d14c09","651c1c30e3f827a6d91a61ee","null","null","<p style=""font-size: 60px; font-family: BACS"">GabkrZYd</p>","","","","","","","","",""
"html-keyboard-response","106","171395","0.0-10.0-0.17","5f47e34858dd331165bf9f00","650c16f0f2faf8d7a0d14c09","651c1c30e3f827a6d91a61ee","null","null","<p style=""font-size: 60px; font-family: BACS"">dCtMAdTAh</p>","","","","","","","","",""
"html-keyboard-response","107","172399","0.0-10.0-0.18","5f47e34858dd331165bf9f00","650c16f0f2faf8d7a0d14c09","651c1c30e3f827a6d91a61ee","null","null","<p style=""font-size: 60px; font-family: BACS"">vkYGlYZUZ</p>","","","","","","","","",""
"html-keyboard-response","108","173403","0.0-10.0-0.19","5f47e34858dd331165bf9f00","650c16f0f2faf8d7a0d14c09","651c1c30e3f827a6d91a61ee","null","null","<p style=""font-size: 60px; font-family: BACS"">PEkhARdCc</p>","","","","","","","","",""
"html-keyboard-response","109","174419","0.0-10.0-0.20","5f47e34858dd331165bf9f00","650c16f0f2faf8d7a0d14c09","651c1c30e3f827a6d91a61ee","null","null","<p style=""font-size: 60px; font-family: BACS"">GQrcYUYa</p>","","","","","","","","",""
"html-keyboard-response","110","175434","0.0-10.0-0.21","5f47e34858dd331165bf9f00","650c16f0f2faf8d7a0d14c09","651c1c30e3f827a6d91a61ee","null","null","<p style=""font-size: 60px; font-family: BACS"">rvUbrZYd</p>","","","","","","","","",""
"html-keyboard-response","111","176449","0.0-10.0-0.22","5f47e34858dd331165bf9f00","650c16f0f2faf8d7a0d14c09","651c1c30e3f827a6d91a61ee","null","null","<p style=""font-size: 60px; font-family: BACS"">amJmYUYa</p>","","","","","","","","",""
"html-keyboard-response","112","177451","0.0-10.0-0.23","5f47e34858dd331165bf9f00","650c16f0f2faf8d7a0d14c09","651c1c30e3f827a6d91a61ee","null","null","<p style=""font-size: 60px; font-family: BACS"">dMThkCPMl</p>","","","","","","","","",""
"html-keyboard-response","113","178455","0.0-10.0-0.24","5f47e34858dd331165bf9f00","650c16f0f2faf8d7a0d14c09","651c1c30e3f827a6d91a61ee","null","null","<p style=""font-size: 60px; font-family: BACS"">vkYGlYbN</p>","","","","","","","","",""
"html-keyboard-response","114","179457","0.0-10.0-0.25","5f47e34858dd331165bf9f00","650c16f0f2faf8d7a0d14c09","651c1c30e3f827a6d91a61ee","null","null","<p style=""font-size: 60px; font-family: BACS"">ABPRBdTAh</p>","","","","","","","","",""
"html-keyboard-response","115","180458","0.0-10.0-0.26","5f47e34858dd331165bf9f00","650c16f0f2faf8d7a0d14c09","651c1c30e3f827a6d91a61ee","null","null","<p style=""font-size: 60px; font-family: BACS"">MBmEOYK</p>","","","","","","","","",""
"html-keyboard-response","116","181473","0.0-10.0-0.27","5f47e34858dd331165bf9f00","650c16f0f2faf8d7a0d14c09","651c1c30e3f827a6d91a61ee","null","null","<p style=""font-size: 60px; font-family: BACS"">OdlNmrZYd</p>","","","","","","","","",""
"html-keyboard-response","117","182477","0.0-10.0-0.28","5f47e34858dd331165bf9f00","650c16f0f2faf8d7a0d14c09","651c1c30e3f827a6d91a61ee","null","null","<p style=""font-size: 60px; font-family: BACS"">mbZlravu</p>","","","","","","","","",""
"html-keyboard-response","118","183481","0.0-10.0-0.29","5f47e34858dd331165bf9f00","650c16f0f2faf8d7a0d14c09","651c1c30e3f827a6d91a61ee","null","null","<p style=""font-size: 60px; font-family: BACS"">CkBOPdTAh</p>","","","","","","","","",""
"html-keyboard-response","119","184483","0.0-10.0-0.30","5f47e34858dd331165bf9f00","650c16f0f2faf8d7a0d14c09","651c1c30e3f827a6d91a61ee","null","null","<p style=""font-size: 60px; font-family: BACS"">dCtMAOYK</p>","","","","","","","","",""
"html-keyboard-response","120","185485","0.0-10.0-0.31","5f47e34858dd331165bf9f00","650c16f0f2faf8d7a0d14c09","651c1c30e3f827a6d91a61ee","null","null","<p style=""font-size: 60px; font-family: BACS"">NvYJravu</p>","","","","","","","","",""
"html-keyboard-response","121","186491","0.0-10.0-0.32","5f47e34858dd331165bf9f00","650c16f0f2faf8d7a0d14c09","651c1c30e3f827a6d91a61ee","null","null","<p style=""font-size: 60px; font-family: BACS"">GabkYUYa</p>","","","","","","","","",""
"html-keyboard-response","122","187495","0.0-10.0-0.33","5f47e34858dd331165bf9f00","650c16f0f2faf8d7a0d14c09","651c1c30e3f827a6d91a61ee","null","null","<p style=""font-size: 60px; font-family: BACS"">OdlNmYbN</p>","","","","","","","","",""
"html-keyboard-response","123","188499","0.0-10.0-0.34","5f47e34858dd331165bf9f00","650c16f0f2faf8d7a0d14c09","651c1c30e3f827a6d91a61ee","null","null","<p style=""font-size: 60px; font-family: BACS"">DcPTcdTAh</p>","","","","","","","","",""
"html-keyboard-response","124","189503","0.0-10.0-0.35","5f47e34858dd331165bf9f00","650c16f0f2faf8d7a0d14c09","651c1c30e3f827a6d91a61ee","null","null","<p style=""font-size: 60px; font-family: BACS"">mbZlrZYd</p>","","","","","","","","",""
"html-keyboard-response","125","190508","0.0-10.0-0.36","5f47e34858dd331165bf9f00","650c16f0f2faf8d7a0d14c09","651c1c30e3f827a6d91a61ee","null","null","<p style=""font-size: 60px; font-family: BACS"">PEkhAdTAh</p>","","","","","","","","",""
"html-keyboard-response","126","191511","0.0-10.0-0.37","5f47e34858dd331165bf9f00","650c16f0f2faf8d7a0d14c09","651c1c30e3f827a6d91a61ee","null","null","<p style=""font-size: 60px; font-family: BACS"">amJmYZUZ</p>","","","","","","","","",""
"html-keyboard-response","127","192515","0.0-10.0-0.38","5f47e34858dd331165bf9f00","650c16f0f2faf8d7a0d14c09","651c1c30e3f827a6d91a61ee","null","null","<p style=""font-size: 60px; font-family: BACS"">ABPRBRdCc</p>","","","","","","","","",""
"html-keyboard-response","128","193519","0.0-10.0-0.39","5f47e34858dd331165bf9f00","650c16f0f2faf8d7a0d14c09","651c1c30e3f827a6d91a61ee","null","null","<p style=""font-size: 60px; font-family: BACS"">CkBOPOYK</p>","","","","","","","","",""
"html-keyboard-response","129","194523","0.0-10.0-0.40","5f47e34858dd331165bf9f00","650c16f0f2faf8d7a0d14c09","651c1c30e3f827a6d91a61ee","null","null","<p style=""font-size: 60px; font-family: BACS"">GQrcrZYd</p>","","","","","","","","",""
"html-keyboard-response","130","195532","0.0-10.0-0.41","5f47e34858dd331165bf9f00","650c16f0f2faf8d7a0d14c09","651c1c30e3f827a6d91a61ee","null","null","<p style=""font-size: 60px; font-family: BACS"">chAhRdCc</p>","","","","","","","","",""
"html-keyboard-response","131","196536","0.0-10.0-0.42","5f47e34858dd331165bf9f00","650c16f0f2faf8d7a0d14c09","651c1c30e3f827a6d91a61ee","null","null","<p style=""font-size: 60px; font-family: BACS"">MBmEdTAh</p>","","","","","","","","",""
"html-keyboard-response","132","197541","0.0-10.0-0.43","5f47e34858dd331165bf9f00","650c16f0f2faf8d7a0d14c09","651c1c30e3f827a6d91a61ee","null","null","<p style=""font-size: 60px; font-family: BACS"">AlQaQYUYa</p>","","","","","","","","",""
"html-keyboard-response","133","198548","0.0-10.0-0.44","5f47e34858dd331165bf9f00","650c16f0f2faf8d7a0d14c09","651c1c30e3f827a6d91a61ee","null","null","<p style=""font-size: 60px; font-family: BACS"">DcPTcRdCc</p>","","","","","","","","",""
"html-keyboard-response","134","199553","0.0-10.0-0.45","5f47e34858dd331165bf9f00","650c16f0f2faf8d7a0d14c09","651c1c30e3f827a6d91a61ee","null","null","<p style=""font-size: 60px; font-family: BACS"">CkBOPCPMl</p>","","","","","","","","",""
"html-keyboard-response","135","200558","0.0-10.0-0.46","5f47e34858dd331165bf9f00","650c16f0f2faf8d7a0d14c09","651c1c30e3f827a6d91a61ee","null","null","<p style=""font-size: 60px; font-family: BACS"">PEkhADOk</p>","","","","","","","","",""
"html-keyboard-response","136","201562","0.0-10.0-0.47","5f47e34858dd331165bf9f00","650c16f0f2faf8d7a0d14c09","651c1c30e3f827a6d91a61ee","null","null","<p style=""font-size: 60px; font-family: BACS"">NvYJYbN</p>","","","","","","","","",""
"html-keyboard-response","137","202578","0.0-10.0-0.48","5f47e34858dd331165bf9f00","650c16f0f2faf8d7a0d14c09","651c1c30e3f827a6d91a61ee","null","null","<p style=""font-size: 60px; font-family: BACS"">dMThkRdCc</p>","","","","","","","","",""
"html-keyboard-response","138","203579","0.0-10.0-0.49","5f47e34858dd331165bf9f00","650c16f0f2faf8d7a0d14c09","651c1c30e3f827a6d91a61ee","null","null","<p style=""font-size: 60px; font-family: BACS"">bmdABOYK</p>","","","","","","","","",""
"html-keyboard-response","139","204581","0.0-10.0-0.50","5f47e34858dd331165bf9f00","650c16f0f2faf8d7a0d14c09","651c1c30e3f827a6d91a61ee","null","null","<p style=""font-size: 60px; font-family: BACS"">BlmclCPMl</p>","","","","","","","","",""
"html-keyboard-response","140","205586","0.0-10.0-0.51","5f47e34858dd331165bf9f00","650c16f0f2faf8d7a0d14c09","651c1c30e3f827a6d91a61ee","null","null","<p style=""font-size: 60px; font-family: BACS"">bmdABRdCc</p>","","","","","","","","",""
"html-keyboard-response","141","206597","0.0-10.0-0.52","5f47e34858dd331165bf9f00","650c16f0f2faf8d7a0d14c09","651c1c30e3f827a6d91a61ee","null","null","<p style=""font-size: 60px; font-family: BACS"">NvYJYUYa</p>","","","","","","","","",""
"html-keyboard-response","142","207613","0.0-10.0-0.53","5f47e34858dd331165bf9f00","650c16f0f2faf8d7a0d14c09","651c1c30e3f827a6d91a61ee","null","null","<p style=""font-size: 60px; font-family: BACS"">GabkYbN</p>","","","","","","","","",""
"html-keyboard-response","143","208627","0.0-10.0-0.54","5f47e34858dd331165bf9f00","650c16f0f2faf8d7a0d14c09","651c1c30e3f827a6d91a61ee","null","null","<p style=""font-size: 60px; font-family: BACS"">DcPTcOYK</p>","","","","","","","","",""
"html-keyboard-response","144","209643","0.0-10.0-0.55","5f47e34858dd331165bf9f00","650c16f0f2faf8d7a0d14c09","651c1c30e3f827a6d91a61ee","null","null","<p style=""font-size: 60px; font-family: BACS"">PEkhACPMl</p>","","","","","","","","",""
"html-keyboard-response","145","210658","0.0-10.0-0.56","5f47e34858dd331165bf9f00","650c16f0f2faf8d7a0d14c09","651c1c30e3f827a6d91a61ee","null","null","<p style=""font-size: 60px; font-family: BACS"">AlQaQYbN</p>","","","","","","","","",""
"html-keyboard-response","146","211660","0.0-10.0-0.57","5f47e34858dd331165bf9f00","650c16f0f2faf8d7a0d14c09","651c1c30e3f827a6d91a61ee","null","null","<p style=""font-size: 60px; font-family: BACS"">vkYGlYUYa</p>","","","","","","","","",""
"html-keyboard-response","147","212674","0.0-10.0-0.58","5f47e34858dd331165bf9f00","650c16f0f2faf8d7a0d14c09","651c1c30e3f827a6d91a61ee","null","null","<p style=""font-size: 60px; font-family: BACS"">dMThkDOk</p>","","","","","","","","",""
"html-keyboard-response","148","213690","0.0-10.0-0.59","5f47e34858dd331165bf9f00","650c16f0f2faf8d7a0d14c09","651c1c30e3f827a6d91a61ee","null","null","<p style=""font-size: 60px; font-family: BACS"">DcPTcCPMl</p>","","","","","","","","",""
"html-keyboard-response","149","214691","0.0-10.0-0.60","5f47e34858dd331165bf9f00","650c16f0f2faf8d7a0d14c09","651c1c30e3f827a6d91a61ee","null","null","<p style=""font-size: 60px; font-family: BACS"">chAhDOk</p>","","","","","","","","",""
"html-keyboard-response","150","215696","0.0-10.0-0.61","5f47e34858dd331165bf9f00","650c16f0f2faf8d7a0d14c09","651c1c30e3f827a6d91a61ee","null","null","<p style=""font-size: 60px; font-family: BACS"">AlQaQrZYd</p>","","","","","","","","",""
"html-keyboard-response","151","216712","0.0-10.0-0.62","5f47e34858dd331165bf9f00","650c16f0f2faf8d7a0d14c09","651c1c30e3f827a6d91a61ee","null","null","<p style=""font-size: 60px; font-family: BACS"">dCtMADOk</p>","","","","","","","","",""
"html-keyboard-response","152","217715","0.0-10.0-0.63","5f47e34858dd331165bf9f00","650c16f0f2faf8d7a0d14c09","651c1c30e3f827a6d91a61ee","null","null","<p style=""font-size: 60px; font-family: BACS"">chAhCPMl</p>","","","","","","","","",""
"html-keyboard-response","153","218730","0.0-10.0-0.64","5f47e34858dd331165bf9f00","650c16f0f2faf8d7a0d14c09","651c1c30e3f827a6d91a61ee","null","null","<p style=""font-size: 60px; font-family: BACS"">BlmclRdCc</p>","","","","","","","","",""
"html-keyboard-response","154","219739","0.0-10.0-0.65","5f47e34858dd331165bf9f00","650c16f0f2faf8d7a0d14c09","651c1c30e3f827a6d91a61ee","null","null","<p style=""font-size: 60px; font-family: BACS"">NvYJYZUZ</p>","","","","","","","","",""
"html-keyboard-response","155","220753","0.0-10.0-0.66","5f47e34858dd331165bf9f00","650c16f0f2faf8d7a0d14c09","651c1c30e3f827a6d91a61ee","null","null","<p style=""font-size: 60px; font-family: BACS"">mbZlYbN</p>","","","","","","","","",""
"html-keyboard-response","156","221769","0.0-10.0-0.67","5f47e34858dd331165bf9f00","650c16f0f2faf8d7a0d14c09","651c1c30e3f827a6d91a61ee","null","null","<p style=""font-size: 60px; font-family: BACS"">GabkYZUZ</p>","","","","","","","","",""
"html-keyboard-response","157","222782","0.0-10.0-0.68","5f47e34858dd331165bf9f00","650c16f0f2faf8d7a0d14c09","651c1c30e3f827a6d91a61ee","null","null","<p style=""font-size: 60px; font-family: BACS"">rvUbYUYa</p>","","","","","","","","",""
"html-keyboard-response","158","223785","0.0-10.0-0.69","5f47e34858dd331165bf9f00","650c16f0f2faf8d7a0d14c09","651c1c30e3f827a6d91a61ee","null","null","<p style=""font-size: 60px; font-family: BACS"">OdlNmravu</p>","","","","","","","","",""
"html-keyboard-response","159","224792","0.0-10.0-0.70","5f47e34858dd331165bf9f00","650c16f0f2faf8d7a0d14c09","651c1c30e3f827a6d91a61ee","null","null","<p style=""font-size: 60px; font-family: BACS"">GQrcYbN</p>","","","","","","","","",""
"html-keyboard-response","160","225800","0.0-10.0-0.71","5f47e34858dd331165bf9f00","650c16f0f2faf8d7a0d14c09","651c1c30e3f827a6d91a61ee","null","null","<p style=""font-size: 60px; font-family: BACS"">ABPRBDOk</p>","","","","","","","","",""
"html-keyboard-response","161","226814","0.0-10.0-0.72","5f47e34858dd331165bf9f00","650c16f0f2faf8d7a0d14c09","651c1c30e3f827a6d91a61ee","null","null","<p style=""font-size: 60px; font-family: BACS"">rvUbravu</p>","","","","","","","","",""
"html-keyboard-response","162","227822","0.0-10.0-0.73","5f47e34858dd331165bf9f00","650c16f0f2faf8d7a0d14c09","651c1c30e3f827a6d91a61ee","null","null","<p style=""font-size: 60px; font-family: BACS"">AlQaQYZUZ</p>","","","","","","","","",""
"html-keyboard-response","163","228826","0.0-10.0-0.74","5f47e34858dd331165bf9f00","650c16f0f2faf8d7a0d14c09","651c1c30e3f827a6d91a61ee","null","null","<p style=""font-size: 60px; font-family: BACS"">dMThkOYK</p>","","","","","","","","",""
"html-keyboard-response","164","229838","0.0-10.0-0.75","5f47e34858dd331165bf9f00","650c16f0f2faf8d7a0d14c09","651c1c30e3f827a6d91a61ee","null","null","<p style=""font-size: 60px; font-family: BACS"">dCtMACPMl</p>","","","","","","","","",""
"html-keyboard-response","165","230852","0.0-10.0-0.76","5f47e34858dd331165bf9f00","650c16f0f2faf8d7a0d14c09","651c1c30e3f827a6d91a61ee","null","null","<p style=""font-size: 60px; font-family: BACS"">OAblcravu</p>","","","","","","","","",""
"html-keyboard-response","166","231857","0.0-10.0-0.77","5f47e34858dd331165bf9f00","650c16f0f2faf8d7a0d14c09","651c1c30e3f827a6d91a61ee","null","null","<p style=""font-size: 60px; font-family: BACS"">rvUbYbN</p>","","","","","","","","",""
"html-keyboard-response","167","232861","0.0-10.0-0.78","5f47e34858dd331165bf9f00","650c16f0f2faf8d7a0d14c09","651c1c30e3f827a6d91a61ee","null","null","<p style=""font-size: 60px; font-family: BACS"">OAblcYUYa</p>","","","","","","","","",""
"html-keyboard-response","168","233863","0.0-10.0-0.79","5f47e34858dd331165bf9f00","650c16f0f2faf8d7a0d14c09","651c1c30e3f827a6d91a61ee","null","null","<p style=""font-size: 60px; font-family: BACS"">amJmravu</p>","","","","","","","","",""
"html-keyboard-response","169","404335","0.0-11.0","5f47e34858dd331165bf9f00","650c16f0f2faf8d7a0d14c09","651c1c30e3f827a6d91a61ee","170472"," ","<p>Great, you've seen the second block of words. You may now take a short break.</p>
      <p>Press the spacebar when you're ready to continue.</p>","","","","","","","","",""
"html-keyboard-response","170","405350","0.0-12.0-0.0","5f47e34858dd331165bf9f00","650c16f0f2faf8d7a0d14c09","651c1c30e3f827a6d91a61ee","null","null","<p style=""font-size: 60px; font-family: BACS"">OdlNmYbN</p>","","","","","","","","",""
"html-keyboard-response","171","406352","0.0-12.0-0.1","5f47e34858dd331165bf9f00","650c16f0f2faf8d7a0d14c09","651c1c30e3f827a6d91a61ee","null","null","<p style=""font-size: 60px; font-family: BACS"">MBmEDOk</p>","","","","","","","","",""
"html-keyboard-response","172","407361","0.0-12.0-0.2","5f47e34858dd331165bf9f00","650c16f0f2faf8d7a0d14c09","651c1c30e3f827a6d91a61ee","null","null","<p style=""font-size: 60px; font-family: BACS"">amJmrZYd</p>","","","","","","","","",""
"html-keyboard-response","173","408362","0.0-12.0-0.3","5f47e34858dd331165bf9f00","650c16f0f2faf8d7a0d14c09","651c1c30e3f827a6d91a61ee","null","null","<p style=""font-size: 60px; font-family: BACS"">PEkhADOk</p>","","","","","","","","",""
"html-keyboard-response","174","409379","0.0-12.0-0.4","5f47e34858dd331165bf9f00","650c16f0f2faf8d7a0d14c09","651c1c30e3f827a6d91a61ee","null","null","<p style=""font-size: 60px; font-family: BACS"">mbZlYbN</p>","","","","","","","","",""
"html-keyboard-response","175","410383","0.0-12.0-0.5","5f47e34858dd331165bf9f00","650c16f0f2faf8d7a0d14c09","651c1c30e3f827a6d91a61ee","null","null","<p style=""font-size: 60px; font-family: BACS"">amJmYZUZ</p>","","","","","","","","",""
"html-keyboard-response","176","411386","0.0-12.0-0.6","5f47e34858dd331165bf9f00","650c16f0f2faf8d7a0d14c09","651c1c30e3f827a6d91a61ee","null","null","<p style=""font-size: 60px; font-family: BACS"">PEkhARdCc</p>","","","","","","","","",""
"html-keyboard-response","177","412390","0.0-12.0-0.7","5f47e34858dd331165bf9f00","650c16f0f2faf8d7a0d14c09","651c1c30e3f827a6d91a61ee","null","null","<p style=""font-size: 60px; font-family: BACS"">dCtMAOYK</p>","","","","","","","","",""
"html-keyboard-response","178","413393","0.0-12.0-0.8","5f47e34858dd331165bf9f00","650c16f0f2faf8d7a0d14c09","651c1c30e3f827a6d91a61ee","null","null","<p style=""font-size: 60px; font-family: BACS"">vkYGlYbN</p>","","","","","","","","",""
"html-keyboard-response","179","414409","0.0-12.0-0.9","5f47e34858dd331165bf9f00","650c16f0f2faf8d7a0d14c09","651c1c30e3f827a6d91a61ee","null","null","<p style=""font-size: 60px; font-family: BACS"">DcPTcdTAh</p>","","","","","","","","",""
"html-keyboard-response","180","415413","0.0-12.0-0.10","5f47e34858dd331165bf9f00","650c16f0f2faf8d7a0d14c09","651c1c30e3f827a6d91a61ee","null","null","<p style=""font-size: 60px; font-family: BACS"">vkYGlravu</p>","","","","","","","","",""
"html-keyboard-response","181","416419","0.0-12.0-0.11","5f47e34858dd331165bf9f00","650c16f0f2faf8d7a0d14c09","651c1c30e3f827a6d91a61ee","null","null","<p style=""font-size: 60px; font-family: BACS"">BlmclRdCc</p>","","","","","","","","",""
"html-keyboard-response","182","417424","0.0-12.0-0.12","5f47e34858dd331165bf9f00","650c16f0f2faf8d7a0d14c09","651c1c30e3f827a6d91a61ee","null","null","<p style=""font-size: 60px; font-family: BACS"">CkBOPdTAh</p>","","","","","","","","",""
"html-keyboard-response","183","418425","0.0-12.0-0.13","5f47e34858dd331165bf9f00","650c16f0f2faf8d7a0d14c09","651c1c30e3f827a6d91a61ee","null","null","<p style=""font-size: 60px; font-family: BACS"">NvYJYbN</p>","","","","","","","","",""
"html-keyboard-response","184","419441","0.0-12.0-0.14","5f47e34858dd331165bf9f00","650c16f0f2faf8d7a0d14c09","651c1c30e3f827a6d91a61ee","null","null","<p style=""font-size: 60px; font-family: BACS"">bmdABdTAh</p>","","","","","","","","",""
"html-keyboard-response","185","420442","0.0-12.0-0.15","5f47e34858dd331165bf9f00","650c16f0f2faf8d7a0d14c09","651c1c30e3f827a6d91a61ee","null","null","<p style=""font-size: 60px; font-family: BACS"">DcPTcRdCc</p>","","","","","","","","",""
"html-keyboard-response","186","421445","0.0-12.0-0.16","5f47e34858dd331165bf9f00","650c16f0f2faf8d7a0d14c09","651c1c30e3f827a6d91a61ee","null","null","<p style=""font-size: 60px; font-family: BACS"">ABPRBdTAh</p>","","","","","","","","",""
"html-keyboard-response","187","422449","0.0-12.0-0.17","5f47e34858dd331165bf9f00","650c16f0f2faf8d7a0d14c09","651c1c30e3f827a6d91a61ee","null","null","<p style=""font-size: 60px; font-family: BACS"">GabkYZUZ</p>","","","","","","","","",""
"html-keyboard-response","188","423454","0.0-12.0-0.18","5f47e34858dd331165bf9f00","650c16f0f2faf8d7a0d14c09","651c1c30e3f827a6d91a61ee","null","null","<p style=""font-size: 60px; font-family: BACS"">bmdABRdCc</p>","","","","","","","","",""
"html-keyboard-response","189","424459","0.0-12.0-0.19","5f47e34858dd331165bf9f00","650c16f0f2faf8d7a0d14c09","651c1c30e3f827a6d91a61ee","null","null","<p style=""font-size: 60px; font-family: BACS"">OdlNmrZYd</p>","","","","","","","","",""
"html-keyboard-response","190","425464","0.0-12.0-0.20","5f47e34858dd331165bf9f00","650c16f0f2faf8d7a0d14c09","651c1c30e3f827a6d91a61ee","null","null","<p style=""font-size: 60px; font-family: BACS"">AlQaQYZUZ</p>","","","","","","","","",""
"html-keyboard-response","191","426469","0.0-12.0-0.21","5f47e34858dd331165bf9f00","650c16f0f2faf8d7a0d14c09","651c1c30e3f827a6d91a61ee","null","null","<p style=""font-size: 60px; font-family: BACS"">chAhRdCc</p>","","","","","","","","",""
"html-keyboard-response","192","427474","0.0-12.0-0.22","5f47e34858dd331165bf9f00","650c16f0f2faf8d7a0d14c09","651c1c30e3f827a6d91a61ee","null","null","<p style=""font-size: 60px; font-family: BACS"">bmdABOYK</p>","","","","","","","","",""
"html-keyboard-response","193","428478","0.0-12.0-0.23","5f47e34858dd331165bf9f00","650c16f0f2faf8d7a0d14c09","651c1c30e3f827a6d91a61ee","null","null","<p style=""font-size: 60px; font-family: BACS"">amJmravu</p>","","","","","","","","",""
"html-keyboard-response","194","429484","0.0-12.0-0.24","5f47e34858dd331165bf9f00","650c16f0f2faf8d7a0d14c09","651c1c30e3f827a6d91a61ee","null","null","<p style=""font-size: 60px; font-family: BACS"">AlQaQrZYd</p>","","","","","","","","",""
"html-keyboard-response","195","430488","0.0-12.0-0.25","5f47e34858dd331165bf9f00","650c16f0f2faf8d7a0d14c09","651c1c30e3f827a6d91a61ee","null","null","<p style=""font-size: 60px; font-family: BACS"">DcPTcCPMl</p>","","","","","","","","",""
"html-keyboard-response","196","431505","0.0-12.0-0.26","5f47e34858dd331165bf9f00","650c16f0f2faf8d7a0d14c09","651c1c30e3f827a6d91a61ee","null","null","<p style=""font-size: 60px; font-family: BACS"">chAhDOk</p>","","","","","","","","",""
"html-keyboard-response","197","432520","0.0-12.0-0.27","5f47e34858dd331165bf9f00","650c16f0f2faf8d7a0d14c09","651c1c30e3f827a6d91a61ee","null","null","<p style=""font-size: 60px; font-family: BACS"">GabkrZYd</p>","","","","","","","","",""
"html-keyboard-response","198","433527","0.0-12.0-0.28","5f47e34858dd331165bf9f00","650c16f0f2faf8d7a0d14c09","651c1c30e3f827a6d91a61ee","null","null","<p style=""font-size: 60px; font-family: BACS"">GQrcYUYa</p>","","","","","","","","",""
"html-keyboard-response","199","434535","0.0-12.0-0.29","5f47e34858dd331165bf9f00","650c16f0f2faf8d7a0d14c09","651c1c30e3f827a6d91a61ee","null","null","<p style=""font-size: 60px; font-family: BACS"">MBmECPMl</p>","","","","","","","","",""
"html-keyboard-response","200","435540","0.0-12.0-0.30","5f47e34858dd331165bf9f00","650c16f0f2faf8d7a0d14c09","651c1c30e3f827a6d91a61ee","null","null","<p style=""font-size: 60px; font-family: BACS"">GabkYbN</p>","","","","","","","","",""
"html-keyboard-response","201","436553","0.0-12.0-0.31","5f47e34858dd331165bf9f00","650c16f0f2faf8d7a0d14c09","651c1c30e3f827a6d91a61ee","null","null","<p style=""font-size: 60px; font-family: BACS"">NvYJravu</p>","","","","","","","","",""
"html-keyboard-response","202","437557","0.0-12.0-0.32","5f47e34858dd331165bf9f00","650c16f0f2faf8d7a0d14c09","651c1c30e3f827a6d91a61ee","null","null","<p style=""font-size: 60px; font-family: BACS"">amJmYUYa</p>","","","","","","","","",""
"html-keyboard-response","203","438561","0.0-12.0-0.33","5f47e34858dd331165bf9f00","650c16f0f2faf8d7a0d14c09","651c1c30e3f827a6d91a61ee","null","null","<p style=""font-size: 60px; font-family: BACS"">DcPTcOYK</p>","","","","","","","","",""
"html-keyboard-response","204","439563","0.0-12.0-0.34","5f47e34858dd331165bf9f00","650c16f0f2faf8d7a0d14c09","651c1c30e3f827a6d91a61ee","null","null","<p style=""font-size: 60px; font-family: BACS"">BlmclCPMl</p>","","","","","","","","",""
"html-keyboard-response","205","440572","0.0-12.0-0.35","5f47e34858dd331165bf9f00","650c16f0f2faf8d7a0d14c09","651c1c30e3f827a6d91a61ee","null","null","<p style=""font-size: 60px; font-family: BACS"">GabkYUYa</p>","","","","","","","","",""
"html-keyboard-response","206","441576","0.0-12.0-0.36","5f47e34858dd331165bf9f00","650c16f0f2faf8d7a0d14c09","651c1c30e3f827a6d91a61ee","null","null","<p style=""font-size: 60px; font-family: BACS"">mbZlravu</p>","","","","","","","","",""
"html-keyboard-response","207","442579","0.0-12.0-0.37","5f47e34858dd331165bf9f00","650c16f0f2faf8d7a0d14c09","651c1c30e3f827a6d91a61ee","null","null","<p style=""font-size: 60px; font-family: BACS"">PEkhACPMl</p>","","","","","","","","",""
"html-keyboard-response","208","443585","0.0-12.0-0.38","5f47e34858dd331165bf9f00","650c16f0f2faf8d7a0d14c09","651c1c30e3f827a6d91a61ee","null","null","<p style=""font-size: 60px; font-family: BACS"">bmdABDOk</p>","","","","","","","","",""
"html-keyboard-response","209","444589","0.0-12.0-0.39","5f47e34858dd331165bf9f00","650c16f0f2faf8d7a0d14c09","651c1c30e3f827a6d91a61ee","null","null","<p style=""font-size: 60px; font-family: BACS"">vkYGlYUYa</p>","","","","","","","","",""
"html-keyboard-response","210","445596","0.0-12.0-0.40","5f47e34858dd331165bf9f00","650c16f0f2faf8d7a0d14c09","651c1c30e3f827a6d91a61ee","null","null","<p style=""font-size: 60px; font-family: BACS"">dCtMAdTAh</p>","","","","","","","","",""
"html-keyboard-response","211","446611","0.0-12.0-0.41","5f47e34858dd331165bf9f00","650c16f0f2faf8d7a0d14c09","651c1c30e3f827a6d91a61ee","null","null","<p style=""font-size: 60px; font-family: BACS"">dMThkRdCc</p>","","","","","","","","",""
"html-keyboard-response","212","447621","0.0-12.0-0.42","5f47e34858dd331165bf9f00","650c16f0f2faf8d7a0d14c09","651c1c30e3f827a6d91a61ee","null","null","<p style=""font-size: 60px; font-family: BACS"">rvUbYbN</p>","","","","","","","","",""
"html-keyboard-response","213","448623","0.0-12.0-0.43","5f47e34858dd331165bf9f00","650c16f0f2faf8d7a0d14c09","651c1c30e3f827a6d91a61ee","null","null","<p style=""font-size: 60px; font-family: BACS"">CkBOPCPMl</p>","","","","","","","","",""
"html-keyboard-response","214","449627","0.0-12.0-0.44","5f47e34858dd331165bf9f00","650c16f0f2faf8d7a0d14c09","651c1c30e3f827a6d91a61ee","null","null","<p style=""font-size: 60px; font-family: BACS"">NvYJYZUZ</p>","","","","","","","","",""
"html-keyboard-response","215","450641","0.0-12.0-0.45","5f47e34858dd331165bf9f00","650c16f0f2faf8d7a0d14c09","651c1c30e3f827a6d91a61ee","null","null","<p style=""font-size: 60px; font-family: BACS"">PEkhAdTAh</p>","","","","","","","","",""
"html-keyboard-response","216","451646","0.0-12.0-0.46","5f47e34858dd331165bf9f00","650c16f0f2faf8d7a0d14c09","651c1c30e3f827a6d91a61ee","null","null","<p style=""font-size: 60px; font-family: BACS"">dMThkDOk</p>","","","","","","","","",""
"html-keyboard-response","217","452653","0.0-12.0-0.47","5f47e34858dd331165bf9f00","650c16f0f2faf8d7a0d14c09","651c1c30e3f827a6d91a61ee","null","null","<p style=""font-size: 60px; font-family: BACS"">OAblcrZYd</p>","","","","","","","","",""
"html-keyboard-response","218","453659","0.0-12.0-0.48","5f47e34858dd331165bf9f00","650c16f0f2faf8d7a0d14c09","651c1c30e3f827a6d91a61ee","null","null","<p style=""font-size: 60px; font-family: BACS"">BlmclDOk</p>","","","","","","","","",""
"html-keyboard-response","219","454663","0.0-12.0-0.49","5f47e34858dd331165bf9f00","650c16f0f2faf8d7a0d14c09","651c1c30e3f827a6d91a61ee","null","null","<p style=""font-size: 60px; font-family: BACS"">dMThkOYK</p>","","","","","","","","",""
"html-keyboard-response","220","455678","0.0-12.0-0.50","5f47e34858dd331165bf9f00","650c16f0f2faf8d7a0d14c09","651c1c30e3f827a6d91a61ee","null","null","<p style=""font-size: 60px; font-family: BACS"">OAblcYUYa</p>","","","","","","","","",""
"html-keyboard-response","221","456681","0.0-12.0-0.51","5f47e34858dd331165bf9f00","650c16f0f2faf8d7a0d14c09","651c1c30e3f827a6d91a61ee","null","null","<p style=""font-size: 60px; font-family: BACS"">mbZlYZUZ</p>","","","","","","","","",""
"html-keyboard-response","222","457686","0.0-12.0-0.52","5f47e34858dd331165bf9f00","650c16f0f2faf8d7a0d14c09","651c1c30e3f827a6d91a61ee","null","null","<p style=""font-size: 60px; font-family: BACS"">dCtMACPMl</p>","","","","","","","","",""
"html-keyboard-response","223","458691","0.0-12.0-0.53","5f47e34858dd331165bf9f00","650c16f0f2faf8d7a0d14c09","651c1c30e3f827a6d91a61ee","null","null","<p style=""font-size: 60px; font-family: BACS"">MBmEdTAh</p>","","","","","","","","",""
"html-keyboard-response","224","459693","0.0-12.0-0.54","5f47e34858dd331165bf9f00","650c16f0f2faf8d7a0d14c09","651c1c30e3f827a6d91a61ee","null","null","<p style=""font-size: 60px; font-family: BACS"">GQrcYbN</p>","","","","","","","","",""
"html-keyboard-response","225","460701","0.0-12.0-0.55","5f47e34858dd331165bf9f00","650c16f0f2faf8d7a0d14c09","651c1c30e3f827a6d91a61ee","null","null","<p style=""font-size: 60px; font-family: BACS"">dCtMADOk</p>","","","","","","","","",""
"html-keyboard-response","226","461709","0.0-12.0-0.56","5f47e34858dd331165bf9f00","650c16f0f2faf8d7a0d14c09","651c1c30e3f827a6d91a61ee","null","null","<p style=""font-size: 60px; font-family: BACS"">OAblcravu</p>","","","","","","","","",""
"html-keyboard-response","227","462715","0.0-12.0-0.57","5f47e34858dd331165bf9f00","650c16f0f2faf8d7a0d14c09","651c1c30e3f827a6d91a61ee","null","null","<p style=""font-size: 60px; font-family: BACS"">MBmEOYK</p>","","","","","","","","",""
"html-keyboard-response","228","463718","0.0-12.0-0.58","5f47e34858dd331165bf9f00","650c16f0f2faf8d7a0d14c09","651c1c30e3f827a6d91a61ee","null","null","<p style=""font-size: 60px; font-family: BACS"">rvUbYUYa</p>","","","","","","","","",""
"html-keyboard-response","229","464730","0.0-12.0-0.59","5f47e34858dd331165bf9f00","650c16f0f2faf8d7a0d14c09","651c1c30e3f827a6d91a61ee","null","null","<p style=""font-size: 60px; font-family: BACS"">ABPRBRdCc</p>","","","","","","","","",""
"html-keyboard-response","230","465732","0.0-12.0-0.60","5f47e34858dd331165bf9f00","650c16f0f2faf8d7a0d14c09","651c1c30e3f827a6d91a61ee","null","null","<p style=""font-size: 60px; font-family: BACS"">rvUbrZYd</p>","","","","","","","","",""
"html-keyboard-response","231","466736","0.0-12.0-0.61","5f47e34858dd331165bf9f00","650c16f0f2faf8d7a0d14c09","651c1c30e3f827a6d91a61ee","null","null","<p style=""font-size: 60px; font-family: BACS"">dMThkCPMl</p>","","","","","","","","",""
"html-keyboard-response","232","467742","0.0-12.0-0.62","5f47e34858dd331165bf9f00","650c16f0f2faf8d7a0d14c09","651c1c30e3f827a6d91a61ee","null","null","<p style=""font-size: 60px; font-family: BACS"">GQrcrZYd</p>","","","","","","","","",""
"html-keyboard-response","233","468748","0.0-12.0-0.63","5f47e34858dd331165bf9f00","650c16f0f2faf8d7a0d14c09","651c1c30e3f827a6d91a61ee","null","null","<p style=""font-size: 60px; font-family: BACS"">OdlNmravu</p>","","","","","","","","",""
"html-keyboard-response","234","469752","0.0-12.0-0.64","5f47e34858dd331165bf9f00","650c16f0f2faf8d7a0d14c09","651c1c30e3f827a6d91a61ee","null","null","<p style=""font-size: 60px; font-family: BACS"">chAhCPMl</p>","","","","","","","","",""
"html-keyboard-response","235","470767","0.0-12.0-0.65","5f47e34858dd331165bf9f00","650c16f0f2faf8d7a0d14c09","651c1c30e3f827a6d91a61ee","null","null","<p style=""font-size: 60px; font-family: BACS"">AlQaQYbN</p>","","","","","","","","",""
"html-keyboard-response","236","471769","0.0-12.0-0.66","5f47e34858dd331165bf9f00","650c16f0f2faf8d7a0d14c09","651c1c30e3f827a6d91a61ee","null","null","<p style=""font-size: 60px; font-family: BACS"">rvUbravu</p>","","","","","","","","",""
"html-keyboard-response","237","472773","0.0-12.0-0.67","5f47e34858dd331165bf9f00","650c16f0f2faf8d7a0d14c09","651c1c30e3f827a6d91a61ee","null","null","<p style=""font-size: 60px; font-family: BACS"">AlQaQYUYa</p>","","","","","","","","",""
"html-keyboard-response","238","473780","0.0-12.0-0.68","5f47e34858dd331165bf9f00","650c16f0f2faf8d7a0d14c09","651c1c30e3f827a6d91a61ee","null","null","<p style=""font-size: 60px; font-family: BACS"">ABPRBDOk</p>","","","","","","","","",""
"html-keyboard-response","239","474787","0.0-12.0-0.69","5f47e34858dd331165bf9f00","650c16f0f2faf8d7a0d14c09","651c1c30e3f827a6d91a61ee","null","null","<p style=""font-size: 60px; font-family: BACS"">OdlNmYZUZ</p>","","","","","","","","",""
"html-keyboard-response","240","475791","0.0-12.0-0.70","5f47e34858dd331165bf9f00","650c16f0f2faf8d7a0d14c09","651c1c30e3f827a6d91a61ee","null","null","<p style=""font-size: 60px; font-family: BACS"">BlmcldTAh</p>","","","","","","","","",""
"html-keyboard-response","241","476795","0.0-12.0-0.71","5f47e34858dd331165bf9f00","650c16f0f2faf8d7a0d14c09","651c1c30e3f827a6d91a61ee","null","null","<p style=""font-size: 60px; font-family: BACS"">vkYGlYZUZ</p>","","","","","","","","",""
"html-keyboard-response","242","477811","0.0-12.0-0.72","5f47e34858dd331165bf9f00","650c16f0f2faf8d7a0d14c09","651c1c30e3f827a6d91a61ee","null","null","<p style=""font-size: 60px; font-family: BACS"">CkBOPRdCc</p>","","","","","","","","",""
"html-keyboard-response","243","478813","0.0-12.0-0.73","5f47e34858dd331165bf9f00","650c16f0f2faf8d7a0d14c09","651c1c30e3f827a6d91a61ee","null","null","<p style=""font-size: 60px; font-family: BACS"">OAblcYZUZ</p>","","","","","","","","",""
"html-keyboard-response","244","479815","0.0-12.0-0.74","5f47e34858dd331165bf9f00","650c16f0f2faf8d7a0d14c09","651c1c30e3f827a6d91a61ee","null","null","<p style=""font-size: 60px; font-family: BACS"">ABPRBOYK</p>","","","","","","","","",""
"html-keyboard-response","245","480829","0.0-12.0-0.75","5f47e34858dd331165bf9f00","650c16f0f2faf8d7a0d14c09","651c1c30e3f827a6d91a61ee","null","null","<p style=""font-size: 60px; font-family: BACS"">NvYJYUYa</p>","","","","","","","","",""
"html-keyboard-response","246","481830","0.0-12.0-0.76","5f47e34858dd331165bf9f00","650c16f0f2faf8d7a0d14c09","651c1c30e3f827a6d91a61ee","null","null","<p style=""font-size: 60px; font-family: BACS"">CkBOPOYK</p>","","","","","","","","",""
"html-keyboard-response","247","482845","0.0-12.0-0.77","5f47e34858dd331165bf9f00","650c16f0f2faf8d7a0d14c09","651c1c30e3f827a6d91a61ee","null","null","<p style=""font-size: 60px; font-family: BACS"">GQrcravu</p>","","","","","","","","",""
"html-keyboard-response","248","483849","0.0-12.0-0.78","5f47e34858dd331165bf9f00","650c16f0f2faf8d7a0d14c09","651c1c30e3f827a6d91a61ee","null","null","<p style=""font-size: 60px; font-family: BACS"">mbZlrZYd</p>","","","","","","","","",""
"html-keyboard-response","249","484854","0.0-12.0-0.79","5f47e34858dd331165bf9f00","650c16f0f2faf8d7a0d14c09","651c1c30e3f827a6d91a61ee","null","null","<p style=""font-size: 60px; font-family: BACS"">chAhOYK</p>","","","","","","","","",""
"html-keyboard-response","250","541223","0.0-13.0","5f47e34858dd331165bf9f00","650c16f0f2faf8d7a0d14c09","651c1c30e3f827a6d91a61ee","56369"," ","<p>Great, you've seen the third block of words. You may now take a short break.</p>
      <p>Press the spacebar when you're ready to continue.</p>","","","","","","","","",""
"html-keyboard-response","251","542232","0.0-14.0-0.0","5f47e34858dd331165bf9f00","650c16f0f2faf8d7a0d14c09","651c1c30e3f827a6d91a61ee","null","null","<p style=""font-size: 60px; font-family: BACS"">NvYJravu</p>","","","","","","","","",""
"html-keyboard-response","252","543243","0.0-14.0-0.1","5f47e34858dd331165bf9f00","650c16f0f2faf8d7a0d14c09","651c1c30e3f827a6d91a61ee","null","null","<p style=""font-size: 60px; font-family: BACS"">AlQaQYbN</p>","","","","","","","","",""
"html-keyboard-response","253","544246","0.0-14.0-0.2","5f47e34858dd331165bf9f00","650c16f0f2faf8d7a0d14c09","651c1c30e3f827a6d91a61ee","null","null","<p style=""font-size: 60px; font-family: BACS"">dCtMAOYK</p>","","","","","","","","",""
"html-keyboard-response","254","545257","0.0-14.0-0.3","5f47e34858dd331165bf9f00","650c16f0f2faf8d7a0d14c09","651c1c30e3f827a6d91a61ee","null","null","<p style=""font-size: 60px; font-family: BACS"">rvUbrZYd</p>","","","","","","","","",""
"html-keyboard-response","255","546260","0.0-14.0-0.4","5f47e34858dd331165bf9f00","650c16f0f2faf8d7a0d14c09","651c1c30e3f827a6d91a61ee","null","null","<p style=""font-size: 60px; font-family: BACS"">mbZlYZUZ</p>","","","","","","","","",""
"html-keyboard-response","256","547266","0.0-14.0-0.5","5f47e34858dd331165bf9f00","650c16f0f2faf8d7a0d14c09","651c1c30e3f827a6d91a61ee","null","null","<p style=""font-size: 60px; font-family: BACS"">OdlNmravu</p>","","","","","","","","",""
"html-keyboard-response","257","548270","0.0-14.0-0.6","5f47e34858dd331165bf9f00","650c16f0f2faf8d7a0d14c09","651c1c30e3f827a6d91a61ee","null","null","<p style=""font-size: 60px; font-family: BACS"">chAhOYK</p>","","","","","","","","",""
"html-keyboard-response","258","549274","0.0-14.0-0.7","5f47e34858dd331165bf9f00","650c16f0f2faf8d7a0d14c09","651c1c30e3f827a6d91a61ee","null","null","<p style=""font-size: 60px; font-family: BACS"">dCtMADOk</p>","","","","","","","","",""
"html-keyboard-response","259","550276","0.0-14.0-0.8","5f47e34858dd331165bf9f00","650c16f0f2faf8d7a0d14c09","651c1c30e3f827a6d91a61ee","null","null","<p style=""font-size: 60px; font-family: BACS"">vkYGlYbN</p>","","","","","","","","",""
"html-keyboard-response","260","551280","0.0-14.0-0.9","5f47e34858dd331165bf9f00","650c16f0f2faf8d7a0d14c09","651c1c30e3f827a6d91a61ee","null","null","<p style=""font-size: 60px; font-family: BACS"">amJmYUYa</p>","","","","","","","","",""
"html-keyboard-response","261","552284","0.0-14.0-0.10","5f47e34858dd331165bf9f00","650c16f0f2faf8d7a0d14c09","651c1c30e3f827a6d91a61ee","null","null","<p style=""font-size: 60px; font-family: BACS"">MBmEOYK</p>","","","","","","","","",""
"html-keyboard-response","262","553291","0.0-14.0-0.11","5f47e34858dd331165bf9f00","650c16f0f2faf8d7a0d14c09","651c1c30e3f827a6d91a61ee","null","null","<p style=""font-size: 60px; font-family: BACS"">BlmclRdCc</p>","","","","","","","","",""
"html-keyboard-response","263","554292","0.0-14.0-0.12","5f47e34858dd331165bf9f00","650c16f0f2faf8d7a0d14c09","651c1c30e3f827a6d91a61ee","null","null","<p style=""font-size: 60px; font-family: BACS"">amJmravu</p>","","","","","","","","",""
"html-keyboard-response","264","555298","0.0-14.0-0.13","5f47e34858dd331165bf9f00","650c16f0f2faf8d7a0d14c09","651c1c30e3f827a6d91a61ee","null","null","<p style=""font-size: 60px; font-family: BACS"">bmdABOYK</p>","","","","","","","","",""
"html-keyboard-response","265","556300","0.0-14.0-0.14","5f47e34858dd331165bf9f00","650c16f0f2faf8d7a0d14c09","651c1c30e3f827a6d91a61ee","null","null","<p style=""font-size: 60px; font-family: BACS"">MBmECPMl</p>","","","","","","","","",""
"html-keyboard-response","266","557305","0.0-14.0-0.15","5f47e34858dd331165bf9f00","650c16f0f2faf8d7a0d14c09","651c1c30e3f827a6d91a61ee","null","null","<p style=""font-size: 60px; font-family: BACS"">GabkYUYa</p>","","","","","","","","",""
"html-keyboard-response","267","558308","0.0-14.0-0.16","5f47e34858dd331165bf9f00","650c16f0f2faf8d7a0d14c09","651c1c30e3f827a6d91a61ee","null","null","<p style=""font-size: 60px; font-family: BACS"">dCtMAdTAh</p>","","","","","","","","",""
"html-keyboard-response","268","559316","0.0-14.0-0.17","5f47e34858dd331165bf9f00","650c16f0f2faf8d7a0d14c09","651c1c30e3f827a6d91a61ee","null","null","<p style=""font-size: 60px; font-family: BACS"">AlQaQrZYd</p>","","","","","","","","",""
"html-keyboard-response","269","560322","0.0-14.0-0.18","5f47e34858dd331165bf9f00","650c16f0f2faf8d7a0d14c09","651c1c30e3f827a6d91a61ee","null","null","<p style=""font-size: 60px; font-family: BACS"">rvUbYbN</p>","","","","","","","","",""
"html-keyboard-response","270","561328","0.0-14.0-0.19","5f47e34858dd331165bf9f00","650c16f0f2faf8d7a0d14c09","651c1c30e3f827a6d91a61ee","null","null","<p style=""font-size: 60px; font-family: BACS"">vkYGlravu</p>","","","","","","","","",""
"html-keyboard-response","271","562335","0.0-14.0-0.20","5f47e34858dd331165bf9f00","650c16f0f2faf8d7a0d14c09","651c1c30e3f827a6d91a61ee","null","null","<p style=""font-size: 60px; font-family: BACS"">OAblcYZUZ</p>","","","","","","","","",""
"html-keyboard-response","272","563338","0.0-14.0-0.21","5f47e34858dd331165bf9f00","650c16f0f2faf8d7a0d14c09","651c1c30e3f827a6d91a61ee","null","null","<p style=""font-size: 60px; font-family: BACS"">bmdABRdCc</p>","","","","","","","","",""
"html-keyboard-response","273","564343","0.0-14.0-0.22","5f47e34858dd331165bf9f00","650c16f0f2faf8d7a0d14c09","651c1c30e3f827a6d91a61ee","null","null","<p style=""font-size: 60px; font-family: BACS"">vkYGlYZUZ</p>","","","","","","","","",""
"html-keyboard-response","274","565358","0.0-14.0-0.23","5f47e34858dd331165bf9f00","650c16f0f2faf8d7a0d14c09","651c1c30e3f827a6d91a61ee","null","null","<p style=""font-size: 60px; font-family: BACS"">DcPTcCPMl</p>","","","","","","","","",""
"html-keyboard-response","275","566369","0.0-14.0-0.24","5f47e34858dd331165bf9f00","650c16f0f2faf8d7a0d14c09","651c1c30e3f827a6d91a61ee","null","null","<p style=""font-size: 60px; font-family: BACS"">MBmEdTAh</p>","","","","","","","","",""
"html-keyboard-response","276","567372","0.0-14.0-0.25","5f47e34858dd331165bf9f00","650c16f0f2faf8d7a0d14c09","651c1c30e3f827a6d91a61ee","null","null","<p style=""font-size: 60px; font-family: BACS"">chAhRdCc</p>","","","","","","","","",""
"html-keyboard-response","277","568389","0.0-14.0-0.26","5f47e34858dd331165bf9f00","650c16f0f2faf8d7a0d14c09","651c1c30e3f827a6d91a61ee","null","null","<p style=""font-size: 60px; font-family: BACS"">ABPRBdTAh</p>","","","","","","","","",""
"html-keyboard-response","278","569393","0.0-14.0-0.27","5f47e34858dd331165bf9f00","650c16f0f2faf8d7a0d14c09","651c1c30e3f827a6d91a61ee","null","null","<p style=""font-size: 60px; font-family: BACS"">GQrcYUYa</p>","","","","","","","","",""
"html-keyboard-response","279","570398","0.0-14.0-0.28","5f47e34858dd331165bf9f00","650c16f0f2faf8d7a0d14c09","651c1c30e3f827a6d91a61ee","null","null","<p style=""font-size: 60px; font-family: BACS"">CkBOPOYK</p>","","","","","","","","",""
"html-keyboard-response","280","571411","0.0-14.0-0.29","5f47e34858dd331165bf9f00","650c16f0f2faf8d7a0d14c09","651c1c30e3f827a6d91a61ee","null","null","<p style=""font-size: 60px; font-family: BACS"">OdlNmYZUZ</p>","","","","","","","","",""
"html-keyboard-response","281","572420","0.0-14.0-0.30","5f47e34858dd331165bf9f00","650c16f0f2faf8d7a0d14c09","651c1c30e3f827a6d91a61ee","null","null","<p style=""font-size: 60px; font-family: BACS"">MBmEDOk</p>","","","","","","","","",""
"html-keyboard-response","282","573433","0.0-14.0-0.31","5f47e34858dd331165bf9f00","650c16f0f2faf8d7a0d14c09","651c1c30e3f827a6d91a61ee","null","null","<p style=""font-size: 60px; font-family: BACS"">GabkYZUZ</p>","","","","","","","","",""
"html-keyboard-response","283","574439","0.0-14.0-0.32","5f47e34858dd331165bf9f00","650c16f0f2faf8d7a0d14c09","651c1c30e3f827a6d91a61ee","null","null","<p style=""font-size: 60px; font-family: BACS"">GQrcrZYd</p>","","","","","","","","",""
"html-keyboard-response","284","575443","0.0-14.0-0.33","5f47e34858dd331165bf9f00","650c16f0f2faf8d7a0d14c09","651c1c30e3f827a6d91a61ee","null","null","<p style=""font-size: 60px; font-family: BACS"">BlmclCPMl</p>","","","","","","","","",""
"html-keyboard-response","285","576450","0.0-14.0-0.34","5f47e34858dd331165bf9f00","650c16f0f2faf8d7a0d14c09","651c1c30e3f827a6d91a61ee","null","null","<p style=""font-size: 60px; font-family: BACS"">amJmYZUZ</p>","","","","","","","","",""
"html-keyboard-response","286","577455","0.0-14.0-0.35","5f47e34858dd331165bf9f00","650c16f0f2faf8d7a0d14c09","651c1c30e3f827a6d91a61ee","null","null","<p style=""font-size: 60px; font-family: BACS"">PEkhACPMl</p>","","","","","","","","",""
"html-keyboard-response","287","578462","0.0-14.0-0.36","5f47e34858dd331165bf9f00","650c16f0f2faf8d7a0d14c09","651c1c30e3f827a6d91a61ee","null","null","<p style=""font-size: 60px; font-family: BACS"">NvYJYbN</p>","","","","","","","","",""
"html-keyboard-response","288","579465","0.0-14.0-0.37","5f47e34858dd331165bf9f00","650c16f0f2faf8d7a0d14c09","651c1c30e3f827a6d91a61ee","null","null","<p style=""font-size: 60px; font-family: BACS"">DcPTcdTAh</p>","","","","","","","","",""
"html-keyboard-response","289","580481","0.0-14.0-0.38","5f47e34858dd331165bf9f00","650c16f0f2faf8d7a0d14c09","651c1c30e3f827a6d91a61ee","null","null","<p style=""font-size: 60px; font-family: BACS"">GabkYbN</p>","","","","","","","","",""
"html-keyboard-response","290","581495","0.0-14.0-0.39","5f47e34858dd331165bf9f00","650c16f0f2faf8d7a0d14c09","651c1c30e3f827a6d91a61ee","null","null","<p style=""font-size: 60px; font-family: BACS"">OAblcYUYa</p>","","","","","","","","",""
"html-keyboard-response","291","582511","0.0-14.0-0.40","5f47e34858dd331165bf9f00","650c16f0f2faf8d7a0d14c09","651c1c30e3f827a6d91a61ee","null","null","<p style=""font-size: 60px; font-family: BACS"">DcPTcOYK</p>","","","","","","","","",""
"html-keyboard-response","292","583514","0.0-14.0-0.41","5f47e34858dd331165bf9f00","650c16f0f2faf8d7a0d14c09","651c1c30e3f827a6d91a61ee","null","null","<p style=""font-size: 60px; font-family: BACS"">mbZlravu</p>","","","","","","","","",""
"html-keyboard-response","293","584517","0.0-14.0-0.42","5f47e34858dd331165bf9f00","650c16f0f2faf8d7a0d14c09","651c1c30e3f827a6d91a61ee","null","null","<p style=""font-size: 60px; font-family: BACS"">rvUbYUYa</p>","","","","","","","","",""
"html-keyboard-response","294","585531","0.0-14.0-0.43","5f47e34858dd331165bf9f00","650c16f0f2faf8d7a0d14c09","651c1c30e3f827a6d91a61ee","null","null","<p style=""font-size: 60px; font-family: BACS"">CkBOPCPMl</p>","","","","","","","","",""
"html-keyboard-response","295","586537","0.0-14.0-0.44","5f47e34858dd331165bf9f00","650c16f0f2faf8d7a0d14c09","651c1c30e3f827a6d91a61ee","null","null","<p style=""font-size: 60px; font-family: BACS"">OdlNmYbN</p>","","","","","","","","",""
"html-keyboard-response","296","587542","0.0-14.0-0.45","5f47e34858dd331165bf9f00","650c16f0f2faf8d7a0d14c09","651c1c30e3f827a6d91a61ee","null","null","<p style=""font-size: 60px; font-family: BACS"">CkBOPRdCc</p>","","","","","","","","",""
"html-keyboard-response","297","588548","0.0-14.0-0.46","5f47e34858dd331165bf9f00","650c16f0f2faf8d7a0d14c09","651c1c30e3f827a6d91a61ee","null","null","<p style=""font-size: 60px; font-family: BACS"">vkYGlYUYa</p>","","","","","","","","",""
"html-keyboard-response","298","589549","0.0-14.0-0.47","5f47e34858dd331165bf9f00","650c16f0f2faf8d7a0d14c09","651c1c30e3f827a6d91a61ee","null","null","<p style=""font-size: 60px; font-family: BACS"">GabkrZYd</p>","","","","","","","","",""
"html-keyboard-response","299","590557","0.0-14.0-0.48","5f47e34858dd331165bf9f00","650c16f0f2faf8d7a0d14c09","651c1c30e3f827a6d91a61ee","null","null","<p style=""font-size: 60px; font-family: BACS"">PEkhAdTAh</p>","","","","","","","","",""
"html-keyboard-response","300","591570","0.0-14.0-0.49","5f47e34858dd331165bf9f00","650c16f0f2faf8d7a0d14c09","651c1c30e3f827a6d91a61ee","null","null","<p style=""font-size: 60px; font-family: BACS"">chAhCPMl</p>","","","","","","","","",""
"html-keyboard-response","301","592577","0.0-14.0-0.50","5f47e34858dd331165bf9f00","650c16f0f2faf8d7a0d14c09","651c1c30e3f827a6d91a61ee","null","null","<p style=""font-size: 60px; font-family: BACS"">ABPRBDOk</p>","","","","","","","","",""
"html-keyboard-response","302","593580","0.0-14.0-0.51","5f47e34858dd331165bf9f00","650c16f0f2faf8d7a0d14c09","651c1c30e3f827a6d91a61ee","null","null","<p style=""font-size: 60px; font-family: BACS"">dMThkCPMl</p>","","","","","","","","",""
"html-keyboard-response","303","594583","0.0-14.0-0.52","5f47e34858dd331165bf9f00","650c16f0f2faf8d7a0d14c09","651c1c30e3f827a6d91a61ee","null","null","<p style=""font-size: 60px; font-family: BACS"">GQrcYbN</p>","","","","","","","","",""
"html-keyboard-response","304","595586","0.0-14.0-0.53","5f47e34858dd331165bf9f00","650c16f0f2faf8d7a0d14c09","651c1c30e3f827a6d91a61ee","null","null","<p style=""font-size: 60px; font-family: BACS"">PEkhADOk</p>","","","","","","","","",""
"html-keyboard-response","305","596591","0.0-14.0-0.54","5f47e34858dd331165bf9f00","650c16f0f2faf8d7a0d14c09","651c1c30e3f827a6d91a61ee","null","null","<p style=""font-size: 60px; font-family: BACS"">NvYJYZUZ</p>","","","","","","","","",""
"html-keyboard-response","306","597597","0.0-14.0-0.55","5f47e34858dd331165bf9f00","650c16f0f2faf8d7a0d14c09","651c1c30e3f827a6d91a61ee","null","null","<p style=""font-size: 60px; font-family: BACS"">chAhDOk</p>","","","","","","","","",""
"html-keyboard-response","307","598600","0.0-14.0-0.56","5f47e34858dd331165bf9f00","650c16f0f2faf8d7a0d14c09","651c1c30e3f827a6d91a61ee","null","null","<p style=""font-size: 60px; font-family: BACS"">dMThkOYK</p>","","","","","","","","",""
"html-keyboard-response","308","599608","0.0-14.0-0.57","5f47e34858dd331165bf9f00","650c16f0f2faf8d7a0d14c09","651c1c30e3f827a6d91a61ee","null","null","<p style=""font-size: 60px; font-family: BACS"">bmdABDOk</p>","","","","","","","","",""
"html-keyboard-response","309","600610","0.0-14.0-0.58","5f47e34858dd331165bf9f00","650c16f0f2faf8d7a0d14c09","651c1c30e3f827a6d91a61ee","null","null","<p style=""font-size: 60px; font-family: BACS"">OAblcravu</p>","","","","","","","","",""
"html-keyboard-response","310","601611","0.0-14.0-0.59","5f47e34858dd331165bf9f00","650c16f0f2faf8d7a0d14c09","651c1c30e3f827a6d91a61ee","null","null","<p style=""font-size: 60px; font-family: BACS"">mbZlrZYd</p>","","","","","","","","",""
"html-keyboard-response","311","602616","0.0-14.0-0.60","5f47e34858dd331165bf9f00","650c16f0f2faf8d7a0d14c09","651c1c30e3f827a6d91a61ee","null","null","<p style=""font-size: 60px; font-family: BACS"">GQrcravu</p>","","","","","","","","",""
"html-keyboard-response","312","603623","0.0-14.0-0.61","5f47e34858dd331165bf9f00","650c16f0f2faf8d7a0d14c09","651c1c30e3f827a6d91a61ee","null","null","<p style=""font-size: 60px; font-family: BACS"">DcPTcRdCc</p>","","","","","","","","",""
"html-keyboard-response","313","604624","0.0-14.0-0.62","5f47e34858dd331165bf9f00","650c16f0f2faf8d7a0d14c09","651c1c30e3f827a6d91a61ee","null","null","<p style=""font-size: 60px; font-family: BACS"">CkBOPdTAh</p>","","","","","","","","",""
"html-keyboard-response","314","605627","0.0-14.0-0.63","5f47e34858dd331165bf9f00","650c16f0f2faf8d7a0d14c09","651c1c30e3f827a6d91a61ee","null","null","<p style=""font-size: 60px; font-family: BACS"">OdlNmrZYd</p>","","","","","","","","",""
"html-keyboard-response","315","606632","0.0-14.0-0.64","5f47e34858dd331165bf9f00","650c16f0f2faf8d7a0d14c09","651c1c30e3f827a6d91a61ee","null","null","<p style=""font-size: 60px; font-family: BACS"">BlmclDOk</p>","","","","","","","","",""
"html-keyboard-response","316","607637","0.0-14.0-0.65","5f47e34858dd331165bf9f00","650c16f0f2faf8d7a0d14c09","651c1c30e3f827a6d91a61ee","null","null","<p style=""font-size: 60px; font-family: BACS"">amJmrZYd</p>","","","","","","","","",""
"html-keyboard-response","317","608640","0.0-14.0-0.66","5f47e34858dd331165bf9f00","650c16f0f2faf8d7a0d14c09","651c1c30e3f827a6d91a61ee","null","null","<p style=""font-size: 60px; font-family: BACS"">NvYJYUYa</p>","","","","","","","","",""
"html-keyboard-response","318","609644","0.0-14.0-0.67","5f47e34858dd331165bf9f00","650c16f0f2faf8d7a0d14c09","651c1c30e3f827a6d91a61ee","null","null","<p style=""font-size: 60px; font-family: BACS"">bmdABdTAh</p>","","","","","","","","",""
"html-keyboard-response","319","610650","0.0-14.0-0.68","5f47e34858dd331165bf9f00","650c16f0f2faf8d7a0d14c09","651c1c30e3f827a6d91a61ee","null","null","<p style=""font-size: 60px; font-family: BACS"">AlQaQYUYa</p>","","","","","","","","",""
"html-keyboard-response","320","611664","0.0-14.0-0.69","5f47e34858dd331165bf9f00","650c16f0f2faf8d7a0d14c09","651c1c30e3f827a6d91a61ee","null","null","<p style=""font-size: 60px; font-family: BACS"">ABPRBOYK</p>","","","","","","","","",""
"html-keyboard-response","321","612668","0.0-14.0-0.70","5f47e34858dd331165bf9f00","650c16f0f2faf8d7a0d14c09","651c1c30e3f827a6d91a61ee","null","null","<p style=""font-size: 60px; font-family: BACS"">dMThkRdCc</p>","","","","","","","","",""
"html-keyboard-response","322","613684","0.0-14.0-0.71","5f47e34858dd331165bf9f00","650c16f0f2faf8d7a0d14c09","651c1c30e3f827a6d91a61ee","null","null","<p style=""font-size: 60px; font-family: BACS"">rvUbravu</p>","","","","","","","","",""
"html-keyboard-response","323","614690","0.0-14.0-0.72","5f47e34858dd331165bf9f00","650c16f0f2faf8d7a0d14c09","651c1c30e3f827a6d91a61ee","null","null","<p style=""font-size: 60px; font-family: BACS"">AlQaQYZUZ</p>","","","","","","","","",""
"html-keyboard-response","324","615695","0.0-14.0-0.73","5f47e34858dd331165bf9f00","650c16f0f2faf8d7a0d14c09","651c1c30e3f827a6d91a61ee","null","null","<p style=""font-size: 60px; font-family: BACS"">dMThkDOk</p>","","","","","","","","",""
"html-keyboard-response","325","616695","0.0-14.0-0.74","5f47e34858dd331165bf9f00","650c16f0f2faf8d7a0d14c09","651c1c30e3f827a6d91a61ee","null","null","<p style=""font-size: 60px; font-family: BACS"">mbZlYbN</p>","","","","","","","","",""
"html-keyboard-response","326","617703","0.0-14.0-0.75","5f47e34858dd331165bf9f00","650c16f0f2faf8d7a0d14c09","651c1c30e3f827a6d91a61ee","null","null","<p style=""font-size: 60px; font-family: BACS"">PEkhARdCc</p>","","","","","","","","",""
"html-keyboard-response","327","618706","0.0-14.0-0.76","5f47e34858dd331165bf9f00","650c16f0f2faf8d7a0d14c09","651c1c30e3f827a6d91a61ee","null","null","<p style=""font-size: 60px; font-family: BACS"">dCtMACPMl</p>","","","","","","","","",""
"html-keyboard-response","328","619707","0.0-14.0-0.77","5f47e34858dd331165bf9f00","650c16f0f2faf8d7a0d14c09","651c1c30e3f827a6d91a61ee","null","null","<p style=""font-size: 60px; font-family: BACS"">BlmcldTAh</p>","","","","","","","","",""
"html-keyboard-response","329","620712","0.0-14.0-0.78","5f47e34858dd331165bf9f00","650c16f0f2faf8d7a0d14c09","651c1c30e3f827a6d91a61ee","null","null","<p style=""font-size: 60px; font-family: BACS"">OAblcrZYd</p>","","","","","","","","",""
"html-keyboard-response","330","621717","0.0-14.0-0.79","5f47e34858dd331165bf9f00","650c16f0f2faf8d7a0d14c09","651c1c30e3f827a6d91a61ee","null","null","<p style=""font-size: 60px; font-family: BACS"">ABPRBRdCc</p>","","","","","","","","",""
"html-keyboard-response","331","737851","0.0-15.0","5f47e34858dd331165bf9f00","650c16f0f2faf8d7a0d14c09","651c1c30e3f827a6d91a61ee","116134"," ","<p>Great, you've seen the fourth block of words. You may now take a short break.</p>
      <p>Press the spacebar when you're ready to continue.</p>","","","","","","","","",""
"html-keyboard-response","332","738861","0.0-16.0-0.0","5f47e34858dd331165bf9f00","650c16f0f2faf8d7a0d14c09","651c1c30e3f827a6d91a61ee","null","null","<p style=""font-size: 60px; font-family: BACS"">bmdABOYK</p>","","","","","","","","",""
"html-keyboard-response","333","739876","0.0-16.0-0.1","5f47e34858dd331165bf9f00","650c16f0f2faf8d7a0d14c09","651c1c30e3f827a6d91a61ee","null","null","<p style=""font-size: 60px; font-family: BACS"">bmdABOYK</p>","","","","","","","","",""
"html-keyboard-response","334","740880","0.0-16.0-0.2","5f47e34858dd331165bf9f00","650c16f0f2faf8d7a0d14c09","651c1c30e3f827a6d91a61ee","null","null","<p style=""font-size: 60px; font-family: BACS"">bmdABOYK</p>","","","","","","","","",""
"html-keyboard-response","335","741886","0.0-16.0-0.3","5f47e34858dd331165bf9f00","650c16f0f2faf8d7a0d14c09","651c1c30e3f827a6d91a61ee","null","null","<p style=""font-size: 60px; font-family: BACS"">bmdABOYK</p>","","","","","","","","",""
"html-keyboard-response","336","742892","0.0-16.0-0.4","5f47e34858dd331165bf9f00","650c16f0f2faf8d7a0d14c09","651c1c30e3f827a6d91a61ee","null","null","<p style=""font-size: 60px; font-family: BACS"">bmdABOYK</p>","","","","","","","","",""
"html-keyboard-response","337","743898","0.0-16.0-0.5","5f47e34858dd331165bf9f00","650c16f0f2faf8d7a0d14c09","651c1c30e3f827a6d91a61ee","null","null","<p style=""font-size: 60px; font-family: BACS"">bmdABOYK</p>","","","","","","","","",""
"html-keyboard-response","338","744913","0.0-16.0-0.6","5f47e34858dd331165bf9f00","650c16f0f2faf8d7a0d14c09","651c1c30e3f827a6d91a61ee","null","null","<p style=""font-size: 60px; font-family: BACS"">bmdABOYK</p>","","","","","","","","",""
"html-keyboard-response","339","745917","0.0-16.0-0.7","5f47e34858dd331165bf9f00","650c16f0f2faf8d7a0d14c09","651c1c30e3f827a6d91a61ee","null","null","<p style=""font-size: 60px; font-family: BACS"">bmdABOYK</p>","","","","","","","","",""
"html-keyboard-response","340","746932","0.0-16.0-0.8","5f47e34858dd331165bf9f00","650c16f0f2faf8d7a0d14c09","651c1c30e3f827a6d91a61ee","null","null","<p style=""font-size: 60px; font-family: BACS"">bmdABOYK</p>","","","","","","","","",""
"html-keyboard-response","341","747948","0.0-16.0-0.9","5f47e34858dd331165bf9f00","650c16f0f2faf8d7a0d14c09","651c1c30e3f827a6d91a61ee","null","null","<p style=""font-size: 60px; font-family: BACS"">bmdABOYK</p>","","","","","","","","",""
"html-keyboard-response","342","748963","0.0-16.0-0.10","5f47e34858dd331165bf9f00","650c16f0f2faf8d7a0d14c09","651c1c30e3f827a6d91a61ee","null","null","<p style=""font-size: 60px; font-family: BACS"">bmdABOYK</p>","","","","","","","","",""
"html-keyboard-response","343","749966","0.0-16.0-0.11","5f47e34858dd331165bf9f00","650c16f0f2faf8d7a0d14c09","651c1c30e3f827a6d91a61ee","null","null","<p style=""font-size: 60px; font-family: BACS"">bmdABOYK</p>","","","","","","","","",""
"html-keyboard-response","344","750970","0.0-16.0-0.12","5f47e34858dd331165bf9f00","650c16f0f2faf8d7a0d14c09","651c1c30e3f827a6d91a61ee","null","null","<p style=""font-size: 60px; font-family: BACS"">bmdABOYK</p>","","","","","","","","",""
"html-keyboard-response","345","751975","0.0-16.0-0.13","5f47e34858dd331165bf9f00","650c16f0f2faf8d7a0d14c09","651c1c30e3f827a6d91a61ee","null","null","<p style=""font-size: 60px; font-family: BACS"">bmdABOYK</p>","","","","","","","","",""
"html-keyboard-response","346","752984","0.0-16.0-0.14","5f47e34858dd331165bf9f00","650c16f0f2faf8d7a0d14c09","651c1c30e3f827a6d91a61ee","null","null","<p style=""font-size: 60px; font-family: BACS"">bmdABOYK</p>","","","","","","","","",""
"html-keyboard-response","347","753987","0.0-16.0-0.15","5f47e34858dd331165bf9f00","650c16f0f2faf8d7a0d14c09","651c1c30e3f827a6d91a61ee","null","null","<p style=""font-size: 60px; font-family: BACS"">bmdABOYK</p>","","","","","","","","",""
"html-keyboard-response","348","754995","0.0-16.0-0.16","5f47e34858dd331165bf9f00","650c16f0f2faf8d7a0d14c09","651c1c30e3f827a6d91a61ee","null","null","<p style=""font-size: 60px; font-family: BACS"">bmdABOYK</p>","","","","","","","","",""
"html-keyboard-response","349","756003","0.0-16.0-0.17","5f47e34858dd331165bf9f00","650c16f0f2faf8d7a0d14c09","651c1c30e3f827a6d91a61ee","null","null","<p style=""font-size: 60px; font-family: BACS"">bmdABOYK</p>","","","","","","","","",""
"html-keyboard-response","350","757016","0.0-16.0-0.18","5f47e34858dd331165bf9f00","650c16f0f2faf8d7a0d14c09","651c1c30e3f827a6d91a61ee","null","null","<p style=""font-size: 60px; font-family: BACS"">bmdABOYK</p>","","","","","","","","",""
"html-keyboard-response","351","758023","0.0-16.0-0.19","5f47e34858dd331165bf9f00","650c16f0f2faf8d7a0d14c09","651c1c30e3f827a6d91a61ee","null","null","<p style=""font-size: 60px; font-family: BACS"">bmdABOYK</p>","","","","","","","","",""
"html-keyboard-response","352","759029","0.0-16.0-0.20","5f47e34858dd331165bf9f00","650c16f0f2faf8d7a0d14c09","651c1c30e3f827a6d91a61ee","null","null","<p style=""font-size: 60px; font-family: BACS"">bmdABOYK</p>","","","","","","","","",""
"html-keyboard-response","353","760030","0.0-16.0-0.21","5f47e34858dd331165bf9f00","650c16f0f2faf8d7a0d14c09","651c1c30e3f827a6d91a61ee","null","null","<p style=""font-size: 60px; font-family: BACS"">bmdABOYK</p>","","","","","","","","",""
"html-keyboard-response","354","761033","0.0-16.0-0.22","5f47e34858dd331165bf9f00","650c16f0f2faf8d7a0d14c09","651c1c30e3f827a6d91a61ee","null","null","<p style=""font-size: 60px; font-family: BACS"">bmdABOYK</p>","","","","","","","","",""
"html-keyboard-response","355","762046","0.0-16.0-0.23","5f47e34858dd331165bf9f00","650c16f0f2faf8d7a0d14c09","651c1c30e3f827a6d91a61ee","null","null","<p style=""font-size: 60px; font-family: BACS"">bmdABOYK</p>","","","","","","","","",""
"html-keyboard-response","356","763048","0.0-16.0-0.24","5f47e34858dd331165bf9f00","650c16f0f2faf8d7a0d14c09","651c1c30e3f827a6d91a61ee","null","null","<p style=""font-size: 60px; font-family: BACS"">bmdABOYK</p>","","","","","","","","",""
"html-keyboard-response","357","764054","0.0-16.0-0.25","5f47e34858dd331165bf9f00","650c16f0f2faf8d7a0d14c09","651c1c30e3f827a6d91a61ee","null","null","<p style=""font-size: 60px; font-family: BACS"">bmdABOYK</p>","","","","","","","","",""
"html-keyboard-response","358","765059","0.0-16.0-0.26","5f47e34858dd331165bf9f00","650c16f0f2faf8d7a0d14c09","651c1c30e3f827a6d91a61ee","null","null","<p style=""font-size: 60px; font-family: BACS"">bmdABOYK</p>","","","","","","","","",""
"html-keyboard-response","359","766061","0.0-16.0-0.27","5f47e34858dd331165bf9f00","650c16f0f2faf8d7a0d14c09","651c1c30e3f827a6d91a61ee","null","null","<p style=""font-size: 60px; font-family: BACS"">bmdABOYK</p>","","","","","","","","",""
"html-keyboard-response","360","767063","0.0-16.0-0.28","5f47e34858dd331165bf9f00","650c16f0f2faf8d7a0d14c09","651c1c30e3f827a6d91a61ee","null","null","<p style=""font-size: 60px; font-family: BACS"">bmdABOYK</p>","","","","","","","","",""
"html-keyboard-response","361","768067","0.0-16.0-0.29","5f47e34858dd331165bf9f00","650c16f0f2faf8d7a0d14c09","651c1c30e3f827a6d91a61ee","null","null","<p style=""font-size: 60px; font-family: BACS"">bmdABOYK</p>","","","","","","","","",""
"html-keyboard-response","362","769069","0.0-16.0-0.30","5f47e34858dd331165bf9f00","650c16f0f2faf8d7a0d14c09","651c1c30e3f827a6d91a61ee","null","null","<p style=""font-size: 60px; font-family: BACS"">bmdABOYK</p>","","","","","","","","",""
"html-keyboard-response","363","770072","0.0-16.0-0.31","5f47e34858dd331165bf9f00","650c16f0f2faf8d7a0d14c09","651c1c30e3f827a6d91a61ee","null","null","<p style=""font-size: 60px; font-family: BACS"">bmdABOYK</p>","","","","","","","","",""
"html-keyboard-response","364","771080","0.0-16.0-0.32","5f47e34858dd331165bf9f00","650c16f0f2faf8d7a0d14c09","651c1c30e3f827a6d91a61ee","null","null","<p style=""font-size: 60px; font-family: BACS"">bmdABOYK</p>","","","","","","","","",""
"html-keyboard-response","365","772084","0.0-16.0-0.33","5f47e34858dd331165bf9f00","650c16f0f2faf8d7a0d14c09","651c1c30e3f827a6d91a61ee","null","null","<p style=""font-size: 60px; font-family: BACS"">bmdABOYK</p>","","","","","","","","",""
"html-keyboard-response","366","773087","0.0-16.0-0.34","5f47e34858dd331165bf9f00","650c16f0f2faf8d7a0d14c09","651c1c30e3f827a6d91a61ee","null","null","<p style=""font-size: 60px; font-family: BACS"">bmdABOYK</p>","","","","","","","","",""
"html-keyboard-response","367","774095","0.0-16.0-0.35","5f47e34858dd331165bf9f00","650c16f0f2faf8d7a0d14c09","651c1c30e3f827a6d91a61ee","null","null","<p style=""font-size: 60px; font-family: BACS"">bmdABOYK</p>","","","","","","","","",""
"html-keyboard-response","368","775100","0.0-16.0-0.36","5f47e34858dd331165bf9f00","650c16f0f2faf8d7a0d14c09","651c1c30e3f827a6d91a61ee","null","null","<p style=""font-size: 60px; font-family: BACS"">bmdABOYK</p>","","","","","","","","",""
"html-keyboard-response","369","776106","0.0-16.0-0.37","5f47e34858dd331165bf9f00","650c16f0f2faf8d7a0d14c09","651c1c30e3f827a6d91a61ee","null","null","<p style=""font-size: 60px; font-family: BACS"">bmdABOYK</p>","","","","","","","","",""
"html-keyboard-response","370","777109","0.0-16.0-0.38","5f47e34858dd331165bf9f00","650c16f0f2faf8d7a0d14c09","651c1c30e3f827a6d91a61ee","null","null","<p style=""font-size: 60px; font-family: BACS"">bmdABOYK</p>","","","","","","","","",""
"html-keyboard-response","371","778115","0.0-16.0-0.39","5f47e34858dd331165bf9f00","650c16f0f2faf8d7a0d14c09","651c1c30e3f827a6d91a61ee","null","null","<p style=""font-size: 60px; font-family: BACS"">bmdABOYK</p>","","","","","","","","",""
"html-keyboard-response","372","779120","0.0-16.0-0.40","5f47e34858dd331165bf9f00","650c16f0f2faf8d7a0d14c09","651c1c30e3f827a6d91a61ee","null","null","<p style=""font-size: 60px; font-family: BACS"">bmdABOYK</p>","","","","","","","","",""
"html-keyboard-response","373","780127","0.0-16.0-0.41","5f47e34858dd331165bf9f00","650c16f0f2faf8d7a0d14c09","651c1c30e3f827a6d91a61ee","null","null","<p style=""font-size: 60px; font-family: BACS"">bmdABOYK</p>","","","","","","","","",""
"html-keyboard-response","374","781132","0.0-16.0-0.42","5f47e34858dd331165bf9f00","650c16f0f2faf8d7a0d14c09","651c1c30e3f827a6d91a61ee","null","null","<p style=""font-size: 60px; font-family: BACS"">bmdABOYK</p>","","","","","","","","",""
"html-keyboard-response","375","782137","0.0-16.0-0.43","5f47e34858dd331165bf9f00","650c16f0f2faf8d7a0d14c09","651c1c30e3f827a6d91a61ee","null","null","<p style=""font-size: 60px; font-family: BACS"">bmdABOYK</p>","","","","","","","","",""
"html-keyboard-response","376","783142","0.0-16.0-0.44","5f47e34858dd331165bf9f00","650c16f0f2faf8d7a0d14c09","651c1c30e3f827a6d91a61ee","null","null","<p style=""font-size: 60px; font-family: BACS"">bmdABOYK</p>","","","","","","","","",""
"html-keyboard-response","377","784150","0.0-16.0-0.45","5f47e34858dd331165bf9f00","650c16f0f2faf8d7a0d14c09","651c1c30e3f827a6d91a61ee","null","null","<p style=""font-size: 60px; font-family: BACS"">bmdABOYK</p>","","","","","","","","",""
"html-keyboard-response","378","785156","0.0-16.0-0.46","5f47e34858dd331165bf9f00","650c16f0f2faf8d7a0d14c09","651c1c30e3f827a6d91a61ee","null","null","<p style=""font-size: 60px; font-family: BACS"">bmdABOYK</p>","","","","","","","","",""
"html-keyboard-response","379","786172","0.0-16.0-0.47","5f47e34858dd331165bf9f00","650c16f0f2faf8d7a0d14c09","651c1c30e3f827a6d91a61ee","null","null","<p style=""font-size: 60px; font-family: BACS"">bmdABOYK</p>","","","","","","","","",""
"html-keyboard-response","380","787175","0.0-16.0-0.48","5f47e34858dd331165bf9f00","650c16f0f2faf8d7a0d14c09","651c1c30e3f827a6d91a61ee","null","null","<p style=""font-size: 60px; font-family: BACS"">bmdABOYK</p>","","","","","","","","",""
"html-keyboard-response","381","788181","0.0-16.0-0.49","5f47e34858dd331165bf9f00","650c16f0f2faf8d7a0d14c09","651c1c30e3f827a6d91a61ee","null","null","<p style=""font-size: 60px; font-family: BACS"">bmdABOYK</p>","","","","","","","","",""
"html-keyboard-response","382","789183","0.0-16.0-0.50","5f47e34858dd331165bf9f00","650c16f0f2faf8d7a0d14c09","651c1c30e3f827a6d91a61ee","null","null","<p style=""font-size: 60px; font-family: BACS"">bmdABOYK</p>","","","","","","","","",""
"html-keyboard-response","383","790190","0.0-16.0-0.51","5f47e34858dd331165bf9f00","650c16f0f2faf8d7a0d14c09","651c1c30e3f827a6d91a61ee","null","null","<p style=""font-size: 60px; font-family: BACS"">bmdABOYK</p>","","","","","","","","",""
"html-keyboard-response","384","791192","0.0-16.0-0.52","5f47e34858dd331165bf9f00","650c16f0f2faf8d7a0d14c09","651c1c30e3f827a6d91a61ee","null","null","<p style=""font-size: 60px; font-family: BACS"">bmdABOYK</p>","","","","","","","","",""
"html-keyboard-response","385","792208","0.0-16.0-0.53","5f47e34858dd331165bf9f00","650c16f0f2faf8d7a0d14c09","651c1c30e3f827a6d91a61ee","null","null","<p style=""font-size: 60px; font-family: BACS"">bmdABOYK</p>","","","","","","","","",""
"html-keyboard-response","386","793213","0.0-16.0-0.54","5f47e34858dd331165bf9f00","650c16f0f2faf8d7a0d14c09","651c1c30e3f827a6d91a61ee","null","null","<p style=""font-size: 60px; font-family: BACS"">bmdABOYK</p>","","","","","","","","",""
"html-keyboard-response","387","794216","0.0-16.0-0.55","5f47e34858dd331165bf9f00","650c16f0f2faf8d7a0d14c09","651c1c30e3f827a6d91a61ee","null","null","<p style=""font-size: 60px; font-family: BACS"">bmdABOYK</p>","","","","","","","","",""
"html-keyboard-response","388","795217","0.0-16.0-0.56","5f47e34858dd331165bf9f00","650c16f0f2faf8d7a0d14c09","651c1c30e3f827a6d91a61ee","null","null","<p style=""font-size: 60px; font-family: BACS"">bmdABOYK</p>","","","","","","","","",""
"html-keyboard-response","389","796220","0.0-16.0-0.57","5f47e34858dd331165bf9f00","650c16f0f2faf8d7a0d14c09","651c1c30e3f827a6d91a61ee","null","null","<p style=""font-size: 60px; font-family: BACS"">bmdABOYK</p>","","","","","","","","",""
"html-keyboard-response","390","797223","0.0-16.0-0.58","5f47e34858dd331165bf9f00","650c16f0f2faf8d7a0d14c09","651c1c30e3f827a6d91a61ee","null","null","<p style=""font-size: 60px; font-family: BACS"">bmdABOYK</p>","","","","","","","","",""
"html-keyboard-response","391","798225","0.0-16.0-0.59","5f47e34858dd331165bf9f00","650c16f0f2faf8d7a0d14c09","651c1c30e3f827a6d91a61ee","null","null","<p style=""font-size: 60px; font-family: BACS"">bmdABOYK</p>","","","","","","","","",""
"html-keyboard-response","392","799232","0.0-16.0-0.60","5f47e34858dd331165bf9f00","650c16f0f2faf8d7a0d14c09","651c1c30e3f827a6d91a61ee","null","null","<p style=""font-size: 60px; font-family: BACS"">bmdABOYK</p>","","","","","","","","",""
"html-keyboard-response","393","800236","0.0-16.0-0.61","5f47e34858dd331165bf9f00","650c16f0f2faf8d7a0d14c09","651c1c30e3f827a6d91a61ee","null","null","<p style=""font-size: 60px; font-family: BACS"">bmdABOYK</p>","","","","","","","","",""
"html-keyboard-response","394","801243","0.0-16.0-0.62","5f47e34858dd331165bf9f00","650c16f0f2faf8d7a0d14c09","651c1c30e3f827a6d91a61ee","null","null","<p style=""font-size: 60px; font-family: BACS"">bmdABOYK</p>","","","","","","","","",""
"html-keyboard-response","395","802248","0.0-16.0-0.63","5f47e34858dd331165bf9f00","650c16f0f2faf8d7a0d14c09","651c1c30e3f827a6d91a61ee","null","null","<p style=""font-size: 60px; font-family: BACS"">bmdABOYK</p>","","","","","","","","",""
"html-keyboard-response","396","803254","0.0-16.0-0.64","5f47e34858dd331165bf9f00","650c16f0f2faf8d7a0d14c09","651c1c30e3f827a6d91a61ee","null","null","<p style=""font-size: 60px; font-family: BACS"">bmdABOYK</p>","","","","","","","","",""
"html-keyboard-response","397","804260","0.0-16.0-0.65","5f47e34858dd331165bf9f00","650c16f0f2faf8d7a0d14c09","651c1c30e3f827a6d91a61ee","null","null","<p style=""font-size: 60px; font-family: BACS"">bmdABOYK</p>","","","","","","","","",""
"html-keyboard-response","398","805263","0.0-16.0-0.66","5f47e34858dd331165bf9f00","650c16f0f2faf8d7a0d14c09","651c1c30e3f827a6d91a61ee","null","null","<p style=""font-size: 60px; font-family: BACS"">bmdABOYK</p>","","","","","","","","",""
"html-keyboard-response","399","806268","0.0-16.0-0.67","5f47e34858dd331165bf9f00","650c16f0f2faf8d7a0d14c09","651c1c30e3f827a6d91a61ee","null","null","<p style=""font-size: 60px; font-family: BACS"">bmdABOYK</p>","","","","","","","","",""
