trial_type,trial_index,time_elapsed,internal_node_id,subject_id,study_id,session_id,rt,response,stimulus,success,item,task,correct_response,testing_condition,correct,target,confound,name,view_history
pavlovia,0,2013,0.0-0.0,61001b6892ebd05a24fe82e1,650c16f0f2faf8d7a0d14c09,651c1acef4c0a1103a4eb272,,,,,,,,,,,,,
survey-html-form,1,7089,0.0-1.0,61001b6892ebd05a24fe82e1,650c16f0f2faf8d7a0d14c09,651c1acef4c0a1103a4eb272,5073,"{""ID"":""61001b6892ebd05a24fe82e1""}",,,,,,,,,,,
html-keyboard-response,2,9322,0.0-2.0,61001b6892ebd05a24fe82e1,650c16f0f2faf8d7a0d14c09,651c1acef4c0a1103a4eb272,2228, ,"<p style=""font-size: 15px;"">Before beginning, we ask that you read the consent information and confirm your agreement to participate in the experiment.</p>
      <p style=""font-size: 15px;""> We ask that you remember that this is a research project and that your participation is entirely voluntary. You can stop your participation at any time, without needing to provide any explanation. The study we're asking you to participate in aims at examining how readers process written words. You will be engaged in a session of apprximately 20 minutes, followed by a brief questionnaire. You will have the opportunity to take a few breaks during the experiment. You will be paid £4 for your participation, corresponding to a rate of £8/hour. While this experiment looks at cognitive faculties, this experiment doesn't constitute clinical proof of eventual pathologies.</p>
      <p style=""font-size: 15px;"">All of the information collected thanks to yours and others' participation will be held in a secure password-protected server, and will not be shared with anyone not authorised to view it. Your personal information will be kept with an arbitrary participant ID. Thanks to this data anonymity process, any researcher analysing the data won't be able to track the information back to a specific participant. Therefore, this process will make identifying you impossibile, even when results from the study will be published in scientific reviews, presented at congresses, or at any other public forum. More generally, the collected data will be treated in accordance with the laws on privacy and conformity to the Legislative Degree n. 196 ""Code regarding the protection of personal data"" of the 30th of June 2003 and to the European Regulation 2016/670 (General Data Protection Regulation - GDPR). The Data Protection Officer is Avv. Valentina Carollo, who can be contacted at the following email addresses: <a href=""mailto:dpo@sissa.it"">dpo@sissa.it</a> or <a href=""mailto:rpd@sissa.it"">rpd@sissa.it</a> - PEC: <a href=""mailto:protocollo@pec.sissa.it"">protocollo@pec.sissa.it</a>.</p>
      <p style=""font-size: 15px;""> Before expressing your consent to participate, we would like to remind you again that in case you need explanations on any aspect of the experimental procedure, the researcher is at your disposition (<a href=""mailto:aliebelt@sissa.it"">aliebelt@sissa.it</a>, <a href=""mailto:davide.crepaldi@sissa.it"">davide.crepaldi@sissa.it</a>).</p>
      <p style=""font-size: 15px;"">If you would like to download the informed consent form, you can do so here: <a href=""BASL-Informed_Consent.pdf"" download>informed consent form</a>.</p>
      <p style=""font-size: 15px;"">We ask that you press the spacebar to proceed to the consent section.</p>",,,,,,,,,,
survey-html-form,3,38002,0.0-3.0,61001b6892ebd05a24fe82e1,650c16f0f2faf8d7a0d14c09,651c1acef4c0a1103a4eb272,28680,"{""consent1"":""YES"",""consent2"":""YES"",""consent3"":""YES"",""consent4"":""YES"",""consent5"":""YES"",""consent6"":""YES""}",,,,,,,,,,,
fullscreen,4,44715,0.0-4.0,61001b6892ebd05a24fe82e1,650c16f0f2faf8d7a0d14c09,651c1acef4c0a1103a4eb272,,,,TRUE,,,,,,,,,
html-keyboard-response,5,61708,0.0-5.0,61001b6892ebd05a24fe82e1,650c16f0f2faf8d7a0d14c09,651c1acef4c0a1103a4eb272,16971, ,"<p>Welcome, and thank you very much for your time!</p>
      <p>In this experiment, you'll be a language expert who's been asked to take a look at words that Earth has received in its first communication with aliens. Your task, in this first part of the experiment, is to pay close attention to the words you'll be shown; later, world leaders will ask you questions on what you saw. The words will be shown to you quite quickly; it seems that the aliens were in a hurry :-)</p>
      <p>Press the spacebar to continue.<p>",,,,,,,,,,
html-keyboard-response,6,61762,0.0-6.0,61001b6892ebd05a24fe82e1,650c16f0f2faf8d7a0d14c09,651c1acef4c0a1103a4eb272,null,null,"<p style=""font-size: 120px; font-family: BACS""> </p>",,,,,,,,,,
html-keyboard-response,7,69458,0.0-7.0,61001b6892ebd05a24fe82e1,650c16f0f2faf8d7a0d14c09,651c1acef4c0a1103a4eb272,7695, ,"<p>Here is an example of the words you'll see:</p>
      <img src='esempio.png' height='400px'>
      <p>When you're ready to begin, press the spacebar.</p></div>",,,,,,,,,,
html-keyboard-response,8,70552,0.0-8.0-0.0,61001b6892ebd05a24fe82e1,650c16f0f2faf8d7a0d14c09,651c1acef4c0a1103a4eb272,null,null,"<p style=""font-size: 60px; font-family: BACS"">aNYmbvcb</p>",,,,,,,,,,
html-keyboard-response,9,71557,0.0-8.0-0.1,61001b6892ebd05a24fe82e1,650c16f0f2faf8d7a0d14c09,651c1acef4c0a1103a4eb272,null,null,"<p style=""font-size: 60px; font-family: BACS"">CRdBdRDM</p>",,,,,,,,,,
html-keyboard-response,10,72567,0.0-8.0-0.2,61001b6892ebd05a24fe82e1,650c16f0f2faf8d7a0d14c09,651c1acef4c0a1103a4eb272,null,null,"<p style=""font-size: 60px; font-family: BACS"">aNYmbrGl</p>",,,,,,,,,,
html-keyboard-response,11,73572,0.0-8.0-0.3,61001b6892ebd05a24fe82e1,650c16f0f2faf8d7a0d14c09,651c1acef4c0a1103a4eb272,null,null,"<p style=""font-size: 60px; font-family: BACS"">vuJZuOJlN</p>",,,,,,,,,,
html-keyboard-response,12,74578,0.0-8.0-0.4,61001b6892ebd05a24fe82e1,650c16f0f2faf8d7a0d14c09,651c1acef4c0a1103a4eb272,null,null,"<p style=""font-size: 60px; font-family: BACS"">ctktPED</p>",,,,,,,,,,
html-keyboard-response,13,75588,0.0-8.0-0.5,61001b6892ebd05a24fe82e1,650c16f0f2faf8d7a0d14c09,651c1acef4c0a1103a4eb272,null,null,"<p style=""font-size: 60px; font-family: BACS"">EdBbDlDT</p>",,,,,,,,,,
html-keyboard-response,14,76597,0.0-8.0-0.6,61001b6892ebd05a24fe82e1,650c16f0f2faf8d7a0d14c09,651c1acef4c0a1103a4eb272,null,null,"<p style=""font-size: 60px; font-family: BACS"">ODBDARDM</p>",,,,,,,,,,
html-keyboard-response,15,77610,0.0-8.0-0.7,61001b6892ebd05a24fe82e1,650c16f0f2faf8d7a0d14c09,651c1acef4c0a1103a4eb272,null,null,"<p style=""font-size: 60px; font-family: BACS"">hlbtbPED</p>",,,,,,,,,,
html-keyboard-response,16,78619,0.0-8.0-0.8,61001b6892ebd05a24fe82e1,650c16f0f2faf8d7a0d14c09,651c1acef4c0a1103a4eb272,null,null,"<p style=""font-size: 60px; font-family: BACS"">AlQaQvcb</p>",,,,,,,,,,
html-keyboard-response,17,79638,0.0-8.0-0.9,61001b6892ebd05a24fe82e1,650c16f0f2faf8d7a0d14c09,651c1acef4c0a1103a4eb272,null,null,"<p style=""font-size: 60px; font-family: BACS"">aUZAOJlN</p>",,,,,,,,,,
html-keyboard-response,18,80646,0.0-8.0-0.10,61001b6892ebd05a24fe82e1,650c16f0f2faf8d7a0d14c09,651c1acef4c0a1103a4eb272,null,null,"<p style=""font-size: 60px; font-family: BACS"">hlbtbPEdK</p>",,,,,,,,,,
html-keyboard-response,19,81657,0.0-8.0-0.11,61001b6892ebd05a24fe82e1,650c16f0f2faf8d7a0d14c09,651c1acef4c0a1103a4eb272,null,null,"<p style=""font-size: 60px; font-family: BACS"">ODBDAPED</p>",,,,,,,,,,
html-keyboard-response,20,82662,0.0-8.0-0.12,61001b6892ebd05a24fe82e1,650c16f0f2faf8d7a0d14c09,651c1acef4c0a1103a4eb272,null,null,"<p style=""font-size: 60px; font-family: BACS"">dCtMARDM</p>",,,,,,,,,,
html-keyboard-response,21,83677,0.0-8.0-0.13,61001b6892ebd05a24fe82e1,650c16f0f2faf8d7a0d14c09,651c1acef4c0a1103a4eb272,null,null,"<p style=""font-size: 60px; font-family: BACS"">EdBbPEdK</p>",,,,,,,,,,
html-keyboard-response,22,84687,0.0-8.0-0.14,61001b6892ebd05a24fe82e1,650c16f0f2faf8d7a0d14c09,651c1acef4c0a1103a4eb272,null,null,"<p style=""font-size: 60px; font-family: BACS"">YJkbNUZ</p>",,,,,,,,,,
html-keyboard-response,23,85697,0.0-8.0-0.15,61001b6892ebd05a24fe82e1,650c16f0f2faf8d7a0d14c09,651c1acef4c0a1103a4eb272,null,null,"<p style=""font-size: 60px; font-family: BACS"">vuJZurGl</p>",,,,,,,,,,
html-keyboard-response,24,86703,0.0-8.0-0.16,61001b6892ebd05a24fe82e1,650c16f0f2faf8d7a0d14c09,651c1acef4c0a1103a4eb272,null,null,"<p style=""font-size: 60px; font-family: BACS"">hlbtbRdCc</p>",,,,,,,,,,
html-keyboard-response,25,87708,0.0-8.0-0.17,61001b6892ebd05a24fe82e1,650c16f0f2faf8d7a0d14c09,651c1acef4c0a1103a4eb272,null,null,"<p style=""font-size: 60px; font-family: BACS"">aUZANUZ</p>",,,,,,,,,,
html-keyboard-response,26,88712,0.0-8.0-0.18,61001b6892ebd05a24fe82e1,650c16f0f2faf8d7a0d14c09,651c1acef4c0a1103a4eb272,null,null,"<p style=""font-size: 60px; font-family: BACS"">CRdBdPEdK</p>",,,,,,,,,,
html-keyboard-response,27,89721,0.0-8.0-0.19,61001b6892ebd05a24fe82e1,650c16f0f2faf8d7a0d14c09,651c1acef4c0a1103a4eb272,null,null,"<p style=""font-size: 60px; font-family: BACS"">KAERMRDM</p>",,,,,,,,,,
html-keyboard-response,28,90725,0.0-8.0-0.20,61001b6892ebd05a24fe82e1,650c16f0f2faf8d7a0d14c09,651c1acef4c0a1103a4eb272,null,null,"<p style=""font-size: 60px; font-family: BACS"">aNYmbNUZ</p>",,,,,,,,,,
html-keyboard-response,29,91731,0.0-8.0-0.21,61001b6892ebd05a24fe82e1,650c16f0f2faf8d7a0d14c09,651c1acef4c0a1103a4eb272,null,null,"<p style=""font-size: 60px; font-family: BACS"">ctktDlDT</p>",,,,,,,,,,
html-keyboard-response,30,92733,0.0-8.0-0.22,61001b6892ebd05a24fe82e1,650c16f0f2faf8d7a0d14c09,651c1acef4c0a1103a4eb272,null,null,"<p style=""font-size: 60px; font-family: BACS"">Amaclvcb</p>",,,,,,,,,,
html-keyboard-response,31,93739,0.0-8.0-0.23,61001b6892ebd05a24fe82e1,650c16f0f2faf8d7a0d14c09,651c1acef4c0a1103a4eb272,null,null,"<p style=""font-size: 60px; font-family: BACS"">ctktRDM</p>",,,,,,,,,,
html-keyboard-response,32,94747,0.0-8.0-0.24,61001b6892ebd05a24fe82e1,650c16f0f2faf8d7a0d14c09,651c1acef4c0a1103a4eb272,null,null,"<p style=""font-size: 60px; font-family: BACS"">CRdBdRdCc</p>",,,,,,,,,,
html-keyboard-response,33,95753,0.0-8.0-0.25,61001b6892ebd05a24fe82e1,650c16f0f2faf8d7a0d14c09,651c1acef4c0a1103a4eb272,null,null,"<p style=""font-size: 60px; font-family: BACS"">UmNJrGl</p>",,,,,,,,,,
html-keyboard-response,34,96756,0.0-8.0-0.26,61001b6892ebd05a24fe82e1,650c16f0f2faf8d7a0d14c09,651c1acef4c0a1103a4eb272,null,null,"<p style=""font-size: 60px; font-family: BACS"">mbZlOJlN</p>",,,,,,,,,,
html-keyboard-response,35,97765,0.0-8.0-0.27,61001b6892ebd05a24fe82e1,650c16f0f2faf8d7a0d14c09,651c1acef4c0a1103a4eb272,null,null,"<p style=""font-size: 60px; font-family: BACS"">dCtMAPED</p>",,,,,,,,,,
html-keyboard-response,36,98776,0.0-8.0-0.28,61001b6892ebd05a24fe82e1,650c16f0f2faf8d7a0d14c09,651c1acef4c0a1103a4eb272,null,null,"<p style=""font-size: 60px; font-family: BACS"">bvuZOJlN</p>",,,,,,,,,,
html-keyboard-response,37,99778,0.0-8.0-0.29,61001b6892ebd05a24fe82e1,650c16f0f2faf8d7a0d14c09,651c1acef4c0a1103a4eb272,null,null,"<p style=""font-size: 60px; font-family: BACS"">hlbtbDlDT</p>",,,,,,,,,,
html-keyboard-response,38,100789,0.0-8.0-0.30,61001b6892ebd05a24fe82e1,650c16f0f2faf8d7a0d14c09,651c1acef4c0a1103a4eb272,null,null,"<p style=""font-size: 60px; font-family: BACS"">ctktRdCc</p>",,,,,,,,,,
html-keyboard-response,39,101803,0.0-8.0-0.31,61001b6892ebd05a24fe82e1,650c16f0f2faf8d7a0d14c09,651c1acef4c0a1103a4eb272,null,null,"<p style=""font-size: 60px; font-family: BACS"">AmaclYUYa</p>",,,,,,,,,,
html-keyboard-response,40,102806,0.0-8.0-0.32,61001b6892ebd05a24fe82e1,650c16f0f2faf8d7a0d14c09,651c1acef4c0a1103a4eb272,null,null,"<p style=""font-size: 60px; font-family: BACS"">KAERMRdCc</p>",,,,,,,,,,
html-keyboard-response,41,103814,0.0-8.0-0.33,61001b6892ebd05a24fe82e1,650c16f0f2faf8d7a0d14c09,651c1acef4c0a1103a4eb272,null,null,"<p style=""font-size: 60px; font-family: BACS"">TbKMEDlDT</p>",,,,,,,,,,
html-keyboard-response,42,104829,0.0-8.0-0.34,61001b6892ebd05a24fe82e1,650c16f0f2faf8d7a0d14c09,651c1acef4c0a1103a4eb272,null,null,"<p style=""font-size: 60px; font-family: BACS"">ckdAmRdCc</p>",,,,,,,,,,
html-keyboard-response,43,105846,0.0-8.0-0.35,61001b6892ebd05a24fe82e1,650c16f0f2faf8d7a0d14c09,651c1acef4c0a1103a4eb272,null,null,"<p style=""font-size: 60px; font-family: BACS"">TbKMERDM</p>",,,,,,,,,,
html-keyboard-response,44,106852,0.0-8.0-0.36,61001b6892ebd05a24fe82e1,650c16f0f2faf8d7a0d14c09,651c1acef4c0a1103a4eb272,null,null,"<p style=""font-size: 60px; font-family: BACS"">bvuZYUYa</p>",,,,,,,,,,
html-keyboard-response,45,107857,0.0-8.0-0.37,61001b6892ebd05a24fe82e1,650c16f0f2faf8d7a0d14c09,651c1acef4c0a1103a4eb272,null,null,"<p style=""font-size: 60px; font-family: BACS"">YJkbrGl</p>",,,,,,,,,,
html-keyboard-response,46,108869,0.0-8.0-0.38,61001b6892ebd05a24fe82e1,650c16f0f2faf8d7a0d14c09,651c1acef4c0a1103a4eb272,null,null,"<p style=""font-size: 60px; font-family: BACS"">aUZAYUYa</p>",,,,,,,,,,
html-keyboard-response,47,109881,0.0-8.0-0.39,61001b6892ebd05a24fe82e1,650c16f0f2faf8d7a0d14c09,651c1acef4c0a1103a4eb272,null,null,"<p style=""font-size: 60px; font-family: BACS"">UmNJvcb</p>",,,,,,,,,,
html-keyboard-response,48,110899,0.0-8.0-0.40,61001b6892ebd05a24fe82e1,650c16f0f2faf8d7a0d14c09,651c1acef4c0a1103a4eb272,null,null,"<p style=""font-size: 60px; font-family: BACS"">ODBDAPEdK</p>",,,,,,,,,,
html-keyboard-response,49,111909,0.0-8.0-0.41,61001b6892ebd05a24fe82e1,650c16f0f2faf8d7a0d14c09,651c1acef4c0a1103a4eb272,null,null,"<p style=""font-size: 60px; font-family: BACS"">AlQaQNUZ</p>",,,,,,,,,,
html-keyboard-response,50,112919,0.0-8.0-0.42,61001b6892ebd05a24fe82e1,650c16f0f2faf8d7a0d14c09,651c1acef4c0a1103a4eb272,null,null,"<p style=""font-size: 60px; font-family: BACS"">OdlNmOJlN</p>",,,,,,,,,,
html-keyboard-response,51,113924,0.0-8.0-0.43,61001b6892ebd05a24fe82e1,650c16f0f2faf8d7a0d14c09,651c1acef4c0a1103a4eb272,null,null,"<p style=""font-size: 60px; font-family: BACS"">AlQaQrGl</p>",,,,,,,,,,
html-keyboard-response,52,114930,0.0-8.0-0.44,61001b6892ebd05a24fe82e1,650c16f0f2faf8d7a0d14c09,651c1acef4c0a1103a4eb272,null,null,"<p style=""font-size: 60px; font-family: BACS"">bvuZvcb</p>",,,,,,,,,,
html-keyboard-response,53,115941,0.0-8.0-0.45,61001b6892ebd05a24fe82e1,650c16f0f2faf8d7a0d14c09,651c1acef4c0a1103a4eb272,null,null,"<p style=""font-size: 60px; font-family: BACS"">AmaclOJlN</p>",,,,,,,,,,
html-keyboard-response,54,116960,0.0-8.0-0.46,61001b6892ebd05a24fe82e1,650c16f0f2faf8d7a0d14c09,651c1acef4c0a1103a4eb272,null,null,"<p style=""font-size: 60px; font-family: BACS"">mbZlvcb</p>",,,,,,,,,,
html-keyboard-response,55,117972,0.0-8.0-0.47,61001b6892ebd05a24fe82e1,650c16f0f2faf8d7a0d14c09,651c1acef4c0a1103a4eb272,null,null,"<p style=""font-size: 60px; font-family: BACS"">YJkbYUYa</p>",,,,,,,,,,
html-keyboard-response,56,119007,0.0-8.0-0.48,61001b6892ebd05a24fe82e1,650c16f0f2faf8d7a0d14c09,651c1acef4c0a1103a4eb272,null,null,"<p style=""font-size: 60px; font-family: BACS"">dCtMADlDT</p>",,,,,,,,,,
html-keyboard-response,57,120011,0.0-8.0-0.49,61001b6892ebd05a24fe82e1,650c16f0f2faf8d7a0d14c09,651c1acef4c0a1103a4eb272,null,null,"<p style=""font-size: 60px; font-family: BACS"">OdlNmrGl</p>",,,,,,,,,,
html-keyboard-response,58,121026,0.0-8.0-0.50,61001b6892ebd05a24fe82e1,650c16f0f2faf8d7a0d14c09,651c1acef4c0a1103a4eb272,null,null,"<p style=""font-size: 60px; font-family: BACS"">ckdAmRDM</p>",,,,,,,,,,
html-keyboard-response,59,122035,0.0-8.0-0.51,61001b6892ebd05a24fe82e1,650c16f0f2faf8d7a0d14c09,651c1acef4c0a1103a4eb272,null,null,"<p style=""font-size: 60px; font-family: BACS"">KAERMPED</p>",,,,,,,,,,
html-keyboard-response,60,123039,0.0-8.0-0.52,61001b6892ebd05a24fe82e1,650c16f0f2faf8d7a0d14c09,651c1acef4c0a1103a4eb272,null,null,"<p style=""font-size: 60px; font-family: BACS"">ckdAmPEdK</p>",,,,,,,,,,
html-keyboard-response,61,124046,0.0-8.0-0.53,61001b6892ebd05a24fe82e1,650c16f0f2faf8d7a0d14c09,651c1acef4c0a1103a4eb272,null,null,"<p style=""font-size: 60px; font-family: BACS"">YJkbOJlN</p>",,,,,,,,,,
html-keyboard-response,62,125056,0.0-8.0-0.54,61001b6892ebd05a24fe82e1,650c16f0f2faf8d7a0d14c09,651c1acef4c0a1103a4eb272,null,null,"<p style=""font-size: 60px; font-family: BACS"">KAERMPEdK</p>",,,,,,,,,,
html-keyboard-response,63,126069,0.0-8.0-0.55,61001b6892ebd05a24fe82e1,650c16f0f2faf8d7a0d14c09,651c1acef4c0a1103a4eb272,null,null,"<p style=""font-size: 60px; font-family: BACS"">AlQaQYUYa</p>",,,,,,,,,,
html-keyboard-response,64,127072,0.0-8.0-0.56,61001b6892ebd05a24fe82e1,650c16f0f2faf8d7a0d14c09,651c1acef4c0a1103a4eb272,null,null,"<p style=""font-size: 60px; font-family: BACS"">UmNJNUZ</p>",,,,,,,,,,
html-keyboard-response,65,128087,0.0-8.0-0.57,61001b6892ebd05a24fe82e1,650c16f0f2faf8d7a0d14c09,651c1acef4c0a1103a4eb272,null,null,"<p style=""font-size: 60px; font-family: BACS"">EdBbRDM</p>",,,,,,,,,,
html-keyboard-response,66,129098,0.0-8.0-0.58,61001b6892ebd05a24fe82e1,650c16f0f2faf8d7a0d14c09,651c1acef4c0a1103a4eb272,null,null,"<p style=""font-size: 60px; font-family: BACS"">TbKMEPEdK</p>",,,,,,,,,,
html-keyboard-response,67,130108,0.0-8.0-0.59,61001b6892ebd05a24fe82e1,650c16f0f2faf8d7a0d14c09,651c1acef4c0a1103a4eb272,null,null,"<p style=""font-size: 60px; font-family: BACS"">bvuZrGl</p>",,,,,,,,,,
html-keyboard-response,68,131121,0.0-8.0-0.60,61001b6892ebd05a24fe82e1,650c16f0f2faf8d7a0d14c09,651c1acef4c0a1103a4eb272,null,null,"<p style=""font-size: 60px; font-family: BACS"">UmNJYUYa</p>",,,,,,,,,,
html-keyboard-response,69,132128,0.0-8.0-0.61,61001b6892ebd05a24fe82e1,650c16f0f2faf8d7a0d14c09,651c1acef4c0a1103a4eb272,null,null,"<p style=""font-size: 60px; font-family: BACS"">ckdAmDlDT</p>",,,,,,,,,,
html-keyboard-response,70,133132,0.0-8.0-0.62,61001b6892ebd05a24fe82e1,650c16f0f2faf8d7a0d14c09,651c1acef4c0a1103a4eb272,null,null,"<p style=""font-size: 60px; font-family: BACS"">AmaclNUZ</p>",,,,,,,,,,
html-keyboard-response,71,134139,0.0-8.0-0.63,61001b6892ebd05a24fe82e1,650c16f0f2faf8d7a0d14c09,651c1acef4c0a1103a4eb272,null,null,"<p style=""font-size: 60px; font-family: BACS"">CRdBdDlDT</p>",,,,,,,,,,
html-keyboard-response,72,135147,0.0-8.0-0.64,61001b6892ebd05a24fe82e1,650c16f0f2faf8d7a0d14c09,651c1acef4c0a1103a4eb272,null,null,"<p style=""font-size: 60px; font-family: BACS"">OdlNmvcb</p>",,,,,,,,,,
html-keyboard-response,73,136160,0.0-8.0-0.65,61001b6892ebd05a24fe82e1,650c16f0f2faf8d7a0d14c09,651c1acef4c0a1103a4eb272,null,null,"<p style=""font-size: 60px; font-family: BACS"">mbZlNUZ</p>",,,,,,,,,,
html-keyboard-response,74,137177,0.0-8.0-0.66,61001b6892ebd05a24fe82e1,650c16f0f2faf8d7a0d14c09,651c1acef4c0a1103a4eb272,null,null,"<p style=""font-size: 60px; font-family: BACS"">bRABtRdCc</p>",,,,,,,,,,
html-keyboard-response,75,138187,0.0-8.0-0.67,61001b6892ebd05a24fe82e1,650c16f0f2faf8d7a0d14c09,651c1acef4c0a1103a4eb272,null,null,"<p style=""font-size: 60px; font-family: BACS"">aUZArGl</p>",,,,,,,,,,
html-keyboard-response,76,139195,0.0-8.0-0.68,61001b6892ebd05a24fe82e1,650c16f0f2faf8d7a0d14c09,651c1acef4c0a1103a4eb272,null,null,"<p style=""font-size: 60px; font-family: BACS"">OdlNmNUZ</p>",,,,,,,,,,
html-keyboard-response,77,140205,0.0-8.0-0.69,61001b6892ebd05a24fe82e1,650c16f0f2faf8d7a0d14c09,651c1acef4c0a1103a4eb272,null,null,"<p style=""font-size: 60px; font-family: BACS"">bRABtDlDT</p>",,,,,,,,,,
html-keyboard-response,78,141219,0.0-8.0-0.70,61001b6892ebd05a24fe82e1,650c16f0f2faf8d7a0d14c09,651c1acef4c0a1103a4eb272,null,null,"<p style=""font-size: 60px; font-family: BACS"">TbKMEPED</p>",,,,,,,,,,
html-keyboard-response,79,142228,0.0-8.0-0.71,61001b6892ebd05a24fe82e1,650c16f0f2faf8d7a0d14c09,651c1acef4c0a1103a4eb272,null,null,"<p style=""font-size: 60px; font-family: BACS"">bRABtPEdK</p>",,,,,,,,,,
html-keyboard-response,80,143235,0.0-8.0-0.72,61001b6892ebd05a24fe82e1,650c16f0f2faf8d7a0d14c09,651c1acef4c0a1103a4eb272,null,null,"<p style=""font-size: 60px; font-family: BACS"">dCtMARdCc</p>",,,,,,,,,,
html-keyboard-response,81,144239,0.0-8.0-0.73,61001b6892ebd05a24fe82e1,650c16f0f2faf8d7a0d14c09,651c1acef4c0a1103a4eb272,null,null,"<p style=""font-size: 60px; font-family: BACS"">vuJZuYUYa</p>",,,,,,,,,,
html-keyboard-response,82,145258,0.0-8.0-0.74,61001b6892ebd05a24fe82e1,650c16f0f2faf8d7a0d14c09,651c1acef4c0a1103a4eb272,null,null,"<p style=""font-size: 60px; font-family: BACS"">EdBbPED</p>",,,,,,,,,,
html-keyboard-response,83,146267,0.0-8.0-0.75,61001b6892ebd05a24fe82e1,650c16f0f2faf8d7a0d14c09,651c1acef4c0a1103a4eb272,null,null,"<p style=""font-size: 60px; font-family: BACS"">vuJZuvcb</p>",,,,,,,,,,
html-keyboard-response,84,147276,0.0-8.0-0.76,61001b6892ebd05a24fe82e1,650c16f0f2faf8d7a0d14c09,651c1acef4c0a1103a4eb272,null,null,"<p style=""font-size: 60px; font-family: BACS"">mbZlYUYa</p>",,,,,,,,,,
html-keyboard-response,85,148288,0.0-8.0-0.77,61001b6892ebd05a24fe82e1,650c16f0f2faf8d7a0d14c09,651c1acef4c0a1103a4eb272,null,null,"<p style=""font-size: 60px; font-family: BACS"">ODBDARdCc</p>",,,,,,,,,,
html-keyboard-response,86,149308,0.0-8.0-0.78,61001b6892ebd05a24fe82e1,650c16f0f2faf8d7a0d14c09,651c1acef4c0a1103a4eb272,null,null,"<p style=""font-size: 60px; font-family: BACS"">bRABtPED</p>",,,,,,,,,,
html-keyboard-response,87,150315,0.0-8.0-0.79,61001b6892ebd05a24fe82e1,650c16f0f2faf8d7a0d14c09,651c1acef4c0a1103a4eb272,null,null,"<p style=""font-size: 60px; font-family: BACS"">aNYmbOJlN</p>",,,,,,,,,,
html-keyboard-response,88,160565,0.0-9.0,61001b6892ebd05a24fe82e1,650c16f0f2faf8d7a0d14c09,651c1acef4c0a1103a4eb272,10246, ,"<p>Great, you've seen the first block of words. You may now take a short break.</p>
      <p>Press the spacebar when you're ready to continue.</p>",,,,,,,,,,
html-keyboard-response,89,161576,0.0-10.0-0.0,61001b6892ebd05a24fe82e1,650c16f0f2faf8d7a0d14c09,651c1acef4c0a1103a4eb272,null,null,"<p style=""font-size: 60px; font-family: BACS"">aUZAYUYa</p>",,,,,,,,,,
html-keyboard-response,90,162591,0.0-10.0-0.1,61001b6892ebd05a24fe82e1,650c16f0f2faf8d7a0d14c09,651c1acef4c0a1103a4eb272,null,null,"<p style=""font-size: 60px; font-family: BACS"">OdlNmvcb</p>",,,,,,,,,,
html-keyboard-response,91,163599,0.0-10.0-0.2,61001b6892ebd05a24fe82e1,650c16f0f2faf8d7a0d14c09,651c1acef4c0a1103a4eb272,null,null,"<p style=""font-size: 60px; font-family: BACS"">ctktPED</p>",,,,,,,,,,
html-keyboard-response,92,164610,0.0-10.0-0.3,61001b6892ebd05a24fe82e1,650c16f0f2faf8d7a0d14c09,651c1acef4c0a1103a4eb272,null,null,"<p style=""font-size: 60px; font-family: BACS"">ckdAmRDM</p>",,,,,,,,,,
html-keyboard-response,93,165616,0.0-10.0-0.4,61001b6892ebd05a24fe82e1,650c16f0f2faf8d7a0d14c09,651c1acef4c0a1103a4eb272,null,null,"<p style=""font-size: 60px; font-family: BACS"">aNYmbvcb</p>",,,,,,,,,,
html-keyboard-response,94,166624,0.0-10.0-0.5,61001b6892ebd05a24fe82e1,650c16f0f2faf8d7a0d14c09,651c1acef4c0a1103a4eb272,null,null,"<p style=""font-size: 60px; font-family: BACS"">YJkbNUZ</p>",,,,,,,,,,
html-keyboard-response,95,167643,0.0-10.0-0.6,61001b6892ebd05a24fe82e1,650c16f0f2faf8d7a0d14c09,651c1acef4c0a1103a4eb272,null,null,"<p style=""font-size: 60px; font-family: BACS"">vuJZuYUYa</p>",,,,,,,,,,
html-keyboard-response,96,168655,0.0-10.0-0.7,61001b6892ebd05a24fe82e1,650c16f0f2faf8d7a0d14c09,651c1acef4c0a1103a4eb272,null,null,"<p style=""font-size: 60px; font-family: BACS"">CRdBdRdCc</p>",,,,,,,,,,
html-keyboard-response,97,169658,0.0-10.0-0.8,61001b6892ebd05a24fe82e1,650c16f0f2faf8d7a0d14c09,651c1acef4c0a1103a4eb272,null,null,"<p style=""font-size: 60px; font-family: BACS"">dCtMADlDT</p>",,,,,,,,,,
html-keyboard-response,98,170670,0.0-10.0-0.9,61001b6892ebd05a24fe82e1,650c16f0f2faf8d7a0d14c09,651c1acef4c0a1103a4eb272,null,null,"<p style=""font-size: 60px; font-family: BACS"">hlbtbRdCc</p>",,,,,,,,,,
html-keyboard-response,99,171677,0.0-10.0-0.10,61001b6892ebd05a24fe82e1,650c16f0f2faf8d7a0d14c09,651c1acef4c0a1103a4eb272,null,null,"<p style=""font-size: 60px; font-family: BACS"">KAERMRDM</p>",,,,,,,,,,
html-keyboard-response,100,172689,0.0-10.0-0.11,61001b6892ebd05a24fe82e1,650c16f0f2faf8d7a0d14c09,651c1acef4c0a1103a4eb272,null,null,"<p style=""font-size: 60px; font-family: BACS"">AmaclNUZ</p>",,,,,,,,,,
html-keyboard-response,101,173699,0.0-10.0-0.12,61001b6892ebd05a24fe82e1,650c16f0f2faf8d7a0d14c09,651c1acef4c0a1103a4eb272,null,null,"<p style=""font-size: 60px; font-family: BACS"">mbZlOJlN</p>",,,,,,,,,,
html-keyboard-response,102,174710,0.0-10.0-0.13,61001b6892ebd05a24fe82e1,650c16f0f2faf8d7a0d14c09,651c1acef4c0a1103a4eb272,null,null,"<p style=""font-size: 60px; font-family: BACS"">dCtMARdCc</p>",,,,,,,,,,
html-keyboard-response,103,175731,0.0-10.0-0.14,61001b6892ebd05a24fe82e1,650c16f0f2faf8d7a0d14c09,651c1acef4c0a1103a4eb272,null,null,"<p style=""font-size: 60px; font-family: BACS"">EdBbPED</p>",,,,,,,,,,
html-keyboard-response,104,176741,0.0-10.0-0.15,61001b6892ebd05a24fe82e1,650c16f0f2faf8d7a0d14c09,651c1acef4c0a1103a4eb272,null,null,"<p style=""font-size: 60px; font-family: BACS"">YJkbYUYa</p>",,,,,,,,,,
html-keyboard-response,105,177747,0.0-10.0-0.16,61001b6892ebd05a24fe82e1,650c16f0f2faf8d7a0d14c09,651c1acef4c0a1103a4eb272,null,null,"<p style=""font-size: 60px; font-family: BACS"">OdlNmrGl</p>",,,,,,,,,,
html-keyboard-response,106,178754,0.0-10.0-0.17,61001b6892ebd05a24fe82e1,650c16f0f2faf8d7a0d14c09,651c1acef4c0a1103a4eb272,null,null,"<p style=""font-size: 60px; font-family: BACS"">AmaclYUYa</p>",,,,,,,,,,
html-keyboard-response,107,179773,0.0-10.0-0.18,61001b6892ebd05a24fe82e1,650c16f0f2faf8d7a0d14c09,651c1acef4c0a1103a4eb272,null,null,"<p style=""font-size: 60px; font-family: BACS"">OdlNmOJlN</p>",,,,,,,,,,
html-keyboard-response,108,180780,0.0-10.0-0.19,61001b6892ebd05a24fe82e1,650c16f0f2faf8d7a0d14c09,651c1acef4c0a1103a4eb272,null,null,"<p style=""font-size: 60px; font-family: BACS"">ODBDAPEdK</p>",,,,,,,,,,
html-keyboard-response,109,181787,0.0-10.0-0.20,61001b6892ebd05a24fe82e1,650c16f0f2faf8d7a0d14c09,651c1acef4c0a1103a4eb272,null,null,"<p style=""font-size: 60px; font-family: BACS"">ckdAmDlDT</p>",,,,,,,,,,
html-keyboard-response,110,182791,0.0-10.0-0.21,61001b6892ebd05a24fe82e1,650c16f0f2faf8d7a0d14c09,651c1acef4c0a1103a4eb272,null,null,"<p style=""font-size: 60px; font-family: BACS"">OdlNmNUZ</p>",,,,,,,,,,
html-keyboard-response,111,183810,0.0-10.0-0.22,61001b6892ebd05a24fe82e1,650c16f0f2faf8d7a0d14c09,651c1acef4c0a1103a4eb272,null,null,"<p style=""font-size: 60px; font-family: BACS"">ctktRDM</p>",,,,,,,,,,
html-keyboard-response,112,184818,0.0-10.0-0.23,61001b6892ebd05a24fe82e1,650c16f0f2faf8d7a0d14c09,651c1acef4c0a1103a4eb272,null,null,"<p style=""font-size: 60px; font-family: BACS"">Amaclvcb</p>",,,,,,,,,,
html-keyboard-response,113,185823,0.0-10.0-0.24,61001b6892ebd05a24fe82e1,650c16f0f2faf8d7a0d14c09,651c1acef4c0a1103a4eb272,null,null,"<p style=""font-size: 60px; font-family: BACS"">bvuZYUYa</p>",,,,,,,,,,
html-keyboard-response,114,186830,0.0-10.0-0.25,61001b6892ebd05a24fe82e1,650c16f0f2faf8d7a0d14c09,651c1acef4c0a1103a4eb272,null,null,"<p style=""font-size: 60px; font-family: BACS"">aUZArGl</p>",,,,,,,,,,
html-keyboard-response,115,187841,0.0-10.0-0.26,61001b6892ebd05a24fe82e1,650c16f0f2faf8d7a0d14c09,651c1acef4c0a1103a4eb272,null,null,"<p style=""font-size: 60px; font-family: BACS"">ctktRdCc</p>",,,,,,,,,,
html-keyboard-response,116,188861,0.0-10.0-0.27,61001b6892ebd05a24fe82e1,650c16f0f2faf8d7a0d14c09,651c1acef4c0a1103a4eb272,null,null,"<p style=""font-size: 60px; font-family: BACS"">vuJZuvcb</p>",,,,,,,,,,
html-keyboard-response,117,189870,0.0-10.0-0.28,61001b6892ebd05a24fe82e1,650c16f0f2faf8d7a0d14c09,651c1acef4c0a1103a4eb272,null,null,"<p style=""font-size: 60px; font-family: BACS"">YJkbrGl</p>",,,,,,,,,,
html-keyboard-response,118,190877,0.0-10.0-0.29,61001b6892ebd05a24fe82e1,650c16f0f2faf8d7a0d14c09,651c1acef4c0a1103a4eb272,null,null,"<p style=""font-size: 60px; font-family: BACS"">mbZlvcb</p>",,,,,,,,,,
html-keyboard-response,119,191890,0.0-10.0-0.30,61001b6892ebd05a24fe82e1,650c16f0f2faf8d7a0d14c09,651c1acef4c0a1103a4eb272,null,null,"<p style=""font-size: 60px; font-family: BACS"">KAERMPED</p>",,,,,,,,,,
html-keyboard-response,120,192899,0.0-10.0-0.31,61001b6892ebd05a24fe82e1,650c16f0f2faf8d7a0d14c09,651c1acef4c0a1103a4eb272,null,null,"<p style=""font-size: 60px; font-family: BACS"">EdBbPEdK</p>",,,,,,,,,,
html-keyboard-response,121,193907,0.0-10.0-0.32,61001b6892ebd05a24fe82e1,650c16f0f2faf8d7a0d14c09,651c1acef4c0a1103a4eb272,null,null,"<p style=""font-size: 60px; font-family: BACS"">aNYmbNUZ</p>",,,,,,,,,,
html-keyboard-response,122,194918,0.0-10.0-0.33,61001b6892ebd05a24fe82e1,650c16f0f2faf8d7a0d14c09,651c1acef4c0a1103a4eb272,null,null,"<p style=""font-size: 60px; font-family: BACS"">AmaclOJlN</p>",,,,,,,,,,
html-keyboard-response,123,195928,0.0-10.0-0.34,61001b6892ebd05a24fe82e1,650c16f0f2faf8d7a0d14c09,651c1acef4c0a1103a4eb272,null,null,"<p style=""font-size: 60px; font-family: BACS"">UmNJNUZ</p>",,,,,,,,,,
html-keyboard-response,124,196935,0.0-10.0-0.35,61001b6892ebd05a24fe82e1,650c16f0f2faf8d7a0d14c09,651c1acef4c0a1103a4eb272,null,null,"<p style=""font-size: 60px; font-family: BACS"">YJkbOJlN</p>",,,,,,,,,,
html-keyboard-response,125,197950,0.0-10.0-0.36,61001b6892ebd05a24fe82e1,650c16f0f2faf8d7a0d14c09,651c1acef4c0a1103a4eb272,null,null,"<p style=""font-size: 60px; font-family: BACS"">hlbtbDlDT</p>",,,,,,,,,,
html-keyboard-response,126,198959,0.0-10.0-0.37,61001b6892ebd05a24fe82e1,650c16f0f2faf8d7a0d14c09,651c1acef4c0a1103a4eb272,null,null,"<p style=""font-size: 60px; font-family: BACS"">AlQaQNUZ</p>",,,,,,,,,,
html-keyboard-response,127,199966,0.0-10.0-0.38,61001b6892ebd05a24fe82e1,650c16f0f2faf8d7a0d14c09,651c1acef4c0a1103a4eb272,null,null,"<p style=""font-size: 60px; font-family: BACS"">KAERMPEdK</p>",,,,,,,,,,
html-keyboard-response,128,200970,0.0-10.0-0.39,61001b6892ebd05a24fe82e1,650c16f0f2faf8d7a0d14c09,651c1acef4c0a1103a4eb272,null,null,"<p style=""font-size: 60px; font-family: BACS"">bvuZrGl</p>",,,,,,,,,,
html-keyboard-response,129,201983,0.0-10.0-0.40,61001b6892ebd05a24fe82e1,650c16f0f2faf8d7a0d14c09,651c1acef4c0a1103a4eb272,null,null,"<p style=""font-size: 60px; font-family: BACS"">EdBbRDM</p>",,,,,,,,,,
html-keyboard-response,130,202991,0.0-10.0-0.41,61001b6892ebd05a24fe82e1,650c16f0f2faf8d7a0d14c09,651c1acef4c0a1103a4eb272,null,null,"<p style=""font-size: 60px; font-family: BACS"">bRABtPED</p>",,,,,,,,,,
html-keyboard-response,131,203999,0.0-10.0-0.42,61001b6892ebd05a24fe82e1,650c16f0f2faf8d7a0d14c09,651c1acef4c0a1103a4eb272,null,null,"<p style=""font-size: 60px; font-family: BACS"">UmNJYUYa</p>",,,,,,,,,,
html-keyboard-response,132,205005,0.0-10.0-0.43,61001b6892ebd05a24fe82e1,650c16f0f2faf8d7a0d14c09,651c1acef4c0a1103a4eb272,null,null,"<p style=""font-size: 60px; font-family: BACS"">ODBDARdCc</p>",,,,,,,,,,
html-keyboard-response,133,206008,0.0-10.0-0.44,61001b6892ebd05a24fe82e1,650c16f0f2faf8d7a0d14c09,651c1acef4c0a1103a4eb272,null,null,"<p style=""font-size: 60px; font-family: BACS"">aUZAOJlN</p>",,,,,,,,,,
html-keyboard-response,134,207018,0.0-10.0-0.45,61001b6892ebd05a24fe82e1,650c16f0f2faf8d7a0d14c09,651c1acef4c0a1103a4eb272,null,null,"<p style=""font-size: 60px; font-family: BACS"">mbZlNUZ</p>",,,,,,,,,,
html-keyboard-response,135,208036,0.0-10.0-0.46,61001b6892ebd05a24fe82e1,650c16f0f2faf8d7a0d14c09,651c1acef4c0a1103a4eb272,null,null,"<p style=""font-size: 60px; font-family: BACS"">KAERMRdCc</p>",,,,,,,,,,
html-keyboard-response,136,209041,0.0-10.0-0.47,61001b6892ebd05a24fe82e1,650c16f0f2faf8d7a0d14c09,651c1acef4c0a1103a4eb272,null,null,"<p style=""font-size: 60px; font-family: BACS"">ODBDARDM</p>",,,,,,,,,,
html-keyboard-response,137,210059,0.0-10.0-0.48,61001b6892ebd05a24fe82e1,650c16f0f2faf8d7a0d14c09,651c1acef4c0a1103a4eb272,null,null,"<p style=""font-size: 60px; font-family: BACS"">bvuZOJlN</p>",,,,,,,,,,
html-keyboard-response,138,211063,0.0-10.0-0.49,61001b6892ebd05a24fe82e1,650c16f0f2faf8d7a0d14c09,651c1acef4c0a1103a4eb272,null,null,"<p style=""font-size: 60px; font-family: BACS"">UmNJrGl</p>",,,,,,,,,,
html-keyboard-response,139,212072,0.0-10.0-0.50,61001b6892ebd05a24fe82e1,650c16f0f2faf8d7a0d14c09,651c1acef4c0a1103a4eb272,null,null,"<p style=""font-size: 60px; font-family: BACS"">hlbtbPED</p>",,,,,,,,,,
html-keyboard-response,140,213080,0.0-10.0-0.51,61001b6892ebd05a24fe82e1,650c16f0f2faf8d7a0d14c09,651c1acef4c0a1103a4eb272,null,null,"<p style=""font-size: 60px; font-family: BACS"">TbKMEPEdK</p>",,,,,,,,,,
html-keyboard-response,141,214089,0.0-10.0-0.52,61001b6892ebd05a24fe82e1,650c16f0f2faf8d7a0d14c09,651c1acef4c0a1103a4eb272,null,null,"<p style=""font-size: 60px; font-family: BACS"">mbZlYUYa</p>",,,,,,,,,,
html-keyboard-response,142,215102,0.0-10.0-0.53,61001b6892ebd05a24fe82e1,650c16f0f2faf8d7a0d14c09,651c1acef4c0a1103a4eb272,null,null,"<p style=""font-size: 60px; font-family: BACS"">dCtMARDM</p>",,,,,,,,,,
html-keyboard-response,143,216111,0.0-10.0-0.54,61001b6892ebd05a24fe82e1,650c16f0f2faf8d7a0d14c09,651c1acef4c0a1103a4eb272,null,null,"<p style=""font-size: 60px; font-family: BACS"">ckdAmRdCc</p>",,,,,,,,,,
html-keyboard-response,144,217118,0.0-10.0-0.55,61001b6892ebd05a24fe82e1,650c16f0f2faf8d7a0d14c09,651c1acef4c0a1103a4eb272,null,null,"<p style=""font-size: 60px; font-family: BACS"">TbKMEPED</p>",,,,,,,,,,
html-keyboard-response,145,218136,0.0-10.0-0.56,61001b6892ebd05a24fe82e1,650c16f0f2faf8d7a0d14c09,651c1acef4c0a1103a4eb272,null,null,"<p style=""font-size: 60px; font-family: BACS"">CRdBdDlDT</p>",,,,,,,,,,
html-keyboard-response,146,219139,0.0-10.0-0.57,61001b6892ebd05a24fe82e1,650c16f0f2faf8d7a0d14c09,651c1acef4c0a1103a4eb272,null,null,"<p style=""font-size: 60px; font-family: BACS"">ckdAmPEdK</p>",,,,,,,,,,
html-keyboard-response,147,220157,0.0-10.0-0.58,61001b6892ebd05a24fe82e1,650c16f0f2faf8d7a0d14c09,651c1acef4c0a1103a4eb272,null,null,"<p style=""font-size: 60px; font-family: BACS"">EdBbDlDT</p>",,,,,,,,,,
html-keyboard-response,148,221164,0.0-10.0-0.59,61001b6892ebd05a24fe82e1,650c16f0f2faf8d7a0d14c09,651c1acef4c0a1103a4eb272,null,null,"<p style=""font-size: 60px; font-family: BACS"">TbKMERDM</p>",,,,,,,,,,
html-keyboard-response,149,222180,0.0-10.0-0.60,61001b6892ebd05a24fe82e1,650c16f0f2faf8d7a0d14c09,651c1acef4c0a1103a4eb272,null,null,"<p style=""font-size: 60px; font-family: BACS"">aNYmbOJlN</p>",,,,,,,,,,
html-keyboard-response,150,223185,0.0-10.0-0.61,61001b6892ebd05a24fe82e1,650c16f0f2faf8d7a0d14c09,651c1acef4c0a1103a4eb272,null,null,"<p style=""font-size: 60px; font-family: BACS"">bRABtRdCc</p>",,,,,,,,,,
html-keyboard-response,151,224196,0.0-10.0-0.62,61001b6892ebd05a24fe82e1,650c16f0f2faf8d7a0d14c09,651c1acef4c0a1103a4eb272,null,null,"<p style=""font-size: 60px; font-family: BACS"">TbKMEDlDT</p>",,,,,,,,,,
html-keyboard-response,152,225209,0.0-10.0-0.63,61001b6892ebd05a24fe82e1,650c16f0f2faf8d7a0d14c09,651c1acef4c0a1103a4eb272,null,null,"<p style=""font-size: 60px; font-family: BACS"">AlQaQvcb</p>",,,,,,,,,,
html-keyboard-response,153,226217,0.0-10.0-0.64,61001b6892ebd05a24fe82e1,650c16f0f2faf8d7a0d14c09,651c1acef4c0a1103a4eb272,null,null,"<p style=""font-size: 60px; font-family: BACS"">ODBDAPED</p>",,,,,,,,,,
html-keyboard-response,154,227227,0.0-10.0-0.65,61001b6892ebd05a24fe82e1,650c16f0f2faf8d7a0d14c09,651c1acef4c0a1103a4eb272,null,null,"<p style=""font-size: 60px; font-family: BACS"">CRdBdPEdK</p>",,,,,,,,,,
html-keyboard-response,155,228237,0.0-10.0-0.66,61001b6892ebd05a24fe82e1,650c16f0f2faf8d7a0d14c09,651c1acef4c0a1103a4eb272,null,null,"<p style=""font-size: 60px; font-family: BACS"">ctktDlDT</p>",,,,,,,,,,
html-keyboard-response,156,229247,0.0-10.0-0.67,61001b6892ebd05a24fe82e1,650c16f0f2faf8d7a0d14c09,651c1acef4c0a1103a4eb272,null,null,"<p style=""font-size: 60px; font-family: BACS"">aNYmbrGl</p>",,,,,,,,,,
html-keyboard-response,157,230252,0.0-10.0-0.68,61001b6892ebd05a24fe82e1,650c16f0f2faf8d7a0d14c09,651c1acef4c0a1103a4eb272,null,null,"<p style=""font-size: 60px; font-family: BACS"">CRdBdRDM</p>",,,,,,,,,,
html-keyboard-response,158,231270,0.0-10.0-0.69,61001b6892ebd05a24fe82e1,650c16f0f2faf8d7a0d14c09,651c1acef4c0a1103a4eb272,null,null,"<p style=""font-size: 60px; font-family: BACS"">UmNJvcb</p>",,,,,,,,,,
html-keyboard-response,159,232273,0.0-10.0-0.70,61001b6892ebd05a24fe82e1,650c16f0f2faf8d7a0d14c09,651c1acef4c0a1103a4eb272,null,null,"<p style=""font-size: 60px; font-family: BACS"">vuJZuOJlN</p>",,,,,,,,,,
html-keyboard-response,160,233300,0.0-10.0-0.71,61001b6892ebd05a24fe82e1,650c16f0f2faf8d7a0d14c09,651c1acef4c0a1103a4eb272,null,null,"<p style=""font-size: 60px; font-family: BACS"">bRABtPEdK</p>",,,,,,,,,,
html-keyboard-response,161,234307,0.0-10.0-0.72,61001b6892ebd05a24fe82e1,650c16f0f2faf8d7a0d14c09,651c1acef4c0a1103a4eb272,null,null,"<p style=""font-size: 60px; font-family: BACS"">dCtMAPED</p>",,,,,,,,,,
html-keyboard-response,162,235324,0.0-10.0-0.73,61001b6892ebd05a24fe82e1,650c16f0f2faf8d7a0d14c09,651c1acef4c0a1103a4eb272,null,null,"<p style=""font-size: 60px; font-family: BACS"">vuJZurGl</p>",,,,,,,,,,
html-keyboard-response,163,236337,0.0-10.0-0.74,61001b6892ebd05a24fe82e1,650c16f0f2faf8d7a0d14c09,651c1acef4c0a1103a4eb272,null,null,"<p style=""font-size: 60px; font-family: BACS"">aUZANUZ</p>",,,,,,,,,,
html-keyboard-response,164,237343,0.0-10.0-0.75,61001b6892ebd05a24fe82e1,650c16f0f2faf8d7a0d14c09,651c1acef4c0a1103a4eb272,null,null,"<p style=""font-size: 60px; font-family: BACS"">bRABtDlDT</p>",,,,,,,,,,
html-keyboard-response,165,238349,0.0-10.0-0.76,61001b6892ebd05a24fe82e1,650c16f0f2faf8d7a0d14c09,651c1acef4c0a1103a4eb272,null,null,"<p style=""font-size: 60px; font-family: BACS"">AlQaQrGl</p>",,,,,,,,,,
html-keyboard-response,166,239358,0.0-10.0-0.77,61001b6892ebd05a24fe82e1,650c16f0f2faf8d7a0d14c09,651c1acef4c0a1103a4eb272,null,null,"<p style=""font-size: 60px; font-family: BACS"">bvuZvcb</p>",,,,,,,,,,
html-keyboard-response,167,240366,0.0-10.0-0.78,61001b6892ebd05a24fe82e1,650c16f0f2faf8d7a0d14c09,651c1acef4c0a1103a4eb272,null,null,"<p style=""font-size: 60px; font-family: BACS"">AlQaQYUYa</p>",,,,,,,,,,
html-keyboard-response,168,241381,0.0-10.0-0.79,61001b6892ebd05a24fe82e1,650c16f0f2faf8d7a0d14c09,651c1acef4c0a1103a4eb272,null,null,"<p style=""font-size: 60px; font-family: BACS"">hlbtbPEdK</p>",,,,,,,,,,
html-keyboard-response,169,249771,0.0-11.0,61001b6892ebd05a24fe82e1,650c16f0f2faf8d7a0d14c09,651c1acef4c0a1103a4eb272,8389, ,"<p>Great, you've seen the second block of words. You may now take a short break.</p>
      <p>Press the spacebar when you're ready to continue.</p>",,,,,,,,,,
html-keyboard-response,170,250780,0.0-12.0-0.0,61001b6892ebd05a24fe82e1,650c16f0f2faf8d7a0d14c09,651c1acef4c0a1103a4eb272,null,null,"<p style=""font-size: 60px; font-family: BACS"">vuJZuOJlN</p>",,,,,,,,,,
html-keyboard-response,171,251796,0.0-12.0-0.1,61001b6892ebd05a24fe82e1,650c16f0f2faf8d7a0d14c09,651c1acef4c0a1103a4eb272,null,null,"<p style=""font-size: 60px; font-family: BACS"">ctktDlDT</p>",,,,,,,,,,
html-keyboard-response,172,252804,0.0-12.0-0.2,61001b6892ebd05a24fe82e1,650c16f0f2faf8d7a0d14c09,651c1acef4c0a1103a4eb272,null,null,"<p style=""font-size: 60px; font-family: BACS"">KAERMPED</p>",,,,,,,,,,
html-keyboard-response,173,253810,0.0-12.0-0.3,61001b6892ebd05a24fe82e1,650c16f0f2faf8d7a0d14c09,651c1acef4c0a1103a4eb272,null,null,"<p style=""font-size: 60px; font-family: BACS"">aUZAYUYa</p>",,,,,,,,,,
html-keyboard-response,174,254829,0.0-12.0-0.4,61001b6892ebd05a24fe82e1,650c16f0f2faf8d7a0d14c09,651c1acef4c0a1103a4eb272,null,null,"<p style=""font-size: 60px; font-family: BACS"">ODBDARdCc</p>",,,,,,,,,,
html-keyboard-response,175,255838,0.0-12.0-0.5,61001b6892ebd05a24fe82e1,650c16f0f2faf8d7a0d14c09,651c1acef4c0a1103a4eb272,null,null,"<p style=""font-size: 60px; font-family: BACS"">aNYmbvcb</p>",,,,,,,,,,
html-keyboard-response,176,256862,0.0-12.0-0.6,61001b6892ebd05a24fe82e1,650c16f0f2faf8d7a0d14c09,651c1acef4c0a1103a4eb272,null,null,"<p style=""font-size: 60px; font-family: BACS"">ckdAmRDM</p>",,,,,,,,,,
html-keyboard-response,177,257877,0.0-12.0-0.7,61001b6892ebd05a24fe82e1,650c16f0f2faf8d7a0d14c09,651c1acef4c0a1103a4eb272,null,null,"<p style=""font-size: 60px; font-family: BACS"">dCtMADlDT</p>",,,,,,,,,,
html-keyboard-response,178,258878,0.0-12.0-0.8,61001b6892ebd05a24fe82e1,650c16f0f2faf8d7a0d14c09,651c1acef4c0a1103a4eb272,null,null,"<p style=""font-size: 60px; font-family: BACS"">aUZArGl</p>",,,,,,,,,,
html-keyboard-response,179,259889,0.0-12.0-0.9,61001b6892ebd05a24fe82e1,650c16f0f2faf8d7a0d14c09,651c1acef4c0a1103a4eb272,null,null,"<p style=""font-size: 60px; font-family: BACS"">dCtMAPED</p>",,,,,,,,,,
html-keyboard-response,180,260903,0.0-12.0-0.10,61001b6892ebd05a24fe82e1,650c16f0f2faf8d7a0d14c09,651c1acef4c0a1103a4eb272,null,null,"<p style=""font-size: 60px; font-family: BACS"">vuJZurGl</p>",,,,,,,,,,
html-keyboard-response,181,261907,0.0-12.0-0.11,61001b6892ebd05a24fe82e1,650c16f0f2faf8d7a0d14c09,651c1acef4c0a1103a4eb272,null,null,"<p style=""font-size: 60px; font-family: BACS"">hlbtbPED</p>",,,,,,,,,,
html-keyboard-response,182,262916,0.0-12.0-0.12,61001b6892ebd05a24fe82e1,650c16f0f2faf8d7a0d14c09,651c1acef4c0a1103a4eb272,null,null,"<p style=""font-size: 60px; font-family: BACS"">AlQaQvcb</p>",,,,,,,,,,
html-keyboard-response,183,263923,0.0-12.0-0.13,61001b6892ebd05a24fe82e1,650c16f0f2faf8d7a0d14c09,651c1acef4c0a1103a4eb272,null,null,"<p style=""font-size: 60px; font-family: BACS"">CRdBdPEdK</p>",,,,,,,,,,
html-keyboard-response,184,264935,0.0-12.0-0.14,61001b6892ebd05a24fe82e1,650c16f0f2faf8d7a0d14c09,651c1acef4c0a1103a4eb272,null,null,"<p style=""font-size: 60px; font-family: BACS"">AlQaQNUZ</p>",,,,,,,,,,
html-keyboard-response,185,265948,0.0-12.0-0.15,61001b6892ebd05a24fe82e1,650c16f0f2faf8d7a0d14c09,651c1acef4c0a1103a4eb272,null,null,"<p style=""font-size: 60px; font-family: BACS"">ctktRDM</p>",,,,,,,,,,
html-keyboard-response,186,266957,0.0-12.0-0.16,61001b6892ebd05a24fe82e1,650c16f0f2faf8d7a0d14c09,651c1acef4c0a1103a4eb272,null,null,"<p style=""font-size: 60px; font-family: BACS"">aUZAOJlN</p>",,,,,,,,,,
html-keyboard-response,187,267966,0.0-12.0-0.17,61001b6892ebd05a24fe82e1,650c16f0f2faf8d7a0d14c09,651c1acef4c0a1103a4eb272,null,null,"<p style=""font-size: 60px; font-family: BACS"">EdBbRDM</p>",,,,,,,,,,
html-keyboard-response,188,268978,0.0-12.0-0.18,61001b6892ebd05a24fe82e1,650c16f0f2faf8d7a0d14c09,651c1acef4c0a1103a4eb272,null,null,"<p style=""font-size: 60px; font-family: BACS"">UmNJrGl</p>",,,,,,,,,,
html-keyboard-response,189,269988,0.0-12.0-0.19,61001b6892ebd05a24fe82e1,650c16f0f2faf8d7a0d14c09,651c1acef4c0a1103a4eb272,null,null,"<p style=""font-size: 60px; font-family: BACS"">vuJZuYUYa</p>",,,,,,,,,,
html-keyboard-response,190,271007,0.0-12.0-0.20,61001b6892ebd05a24fe82e1,650c16f0f2faf8d7a0d14c09,651c1acef4c0a1103a4eb272,null,null,"<p style=""font-size: 60px; font-family: BACS"">OdlNmNUZ</p>",,,,,,,,,,
html-keyboard-response,191,272016,0.0-12.0-0.21,61001b6892ebd05a24fe82e1,650c16f0f2faf8d7a0d14c09,651c1acef4c0a1103a4eb272,null,null,"<p style=""font-size: 60px; font-family: BACS"">TbKMERDM</p>",,,,,,,,,,
html-keyboard-response,192,273025,0.0-12.0-0.22,61001b6892ebd05a24fe82e1,650c16f0f2faf8d7a0d14c09,651c1acef4c0a1103a4eb272,null,null,"<p style=""font-size: 60px; font-family: BACS"">bvuZYUYa</p>",,,,,,,,,,
html-keyboard-response,193,274027,0.0-12.0-0.23,61001b6892ebd05a24fe82e1,650c16f0f2faf8d7a0d14c09,651c1acef4c0a1103a4eb272,null,null,"<p style=""font-size: 60px; font-family: BACS"">vuJZuvcb</p>",,,,,,,,,,
html-keyboard-response,194,275031,0.0-12.0-0.24,61001b6892ebd05a24fe82e1,650c16f0f2faf8d7a0d14c09,651c1acef4c0a1103a4eb272,null,null,"<p style=""font-size: 60px; font-family: BACS"">dCtMARdCc</p>",,,,,,,,,,
html-keyboard-response,195,276044,0.0-12.0-0.25,61001b6892ebd05a24fe82e1,650c16f0f2faf8d7a0d14c09,651c1acef4c0a1103a4eb272,null,null,"<p style=""font-size: 60px; font-family: BACS"">UmNJvcb</p>",,,,,,,,,,
html-keyboard-response,196,277047,0.0-12.0-0.26,61001b6892ebd05a24fe82e1,650c16f0f2faf8d7a0d14c09,651c1acef4c0a1103a4eb272,null,null,"<p style=""font-size: 60px; font-family: BACS"">TbKMEDlDT</p>",,,,,,,,,,
html-keyboard-response,197,278066,0.0-12.0-0.27,61001b6892ebd05a24fe82e1,650c16f0f2faf8d7a0d14c09,651c1acef4c0a1103a4eb272,null,null,"<p style=""font-size: 60px; font-family: BACS"">aNYmbrGl</p>",,,,,,,,,,
html-keyboard-response,198,279078,0.0-12.0-0.28,61001b6892ebd05a24fe82e1,650c16f0f2faf8d7a0d14c09,651c1acef4c0a1103a4eb272,null,null,"<p style=""font-size: 60px; font-family: BACS"">TbKMEPEdK</p>",,,,,,,,,,
html-keyboard-response,199,280088,0.0-12.0-0.29,61001b6892ebd05a24fe82e1,650c16f0f2faf8d7a0d14c09,651c1acef4c0a1103a4eb272,null,null,"<p style=""font-size: 60px; font-family: BACS"">mbZlNUZ</p>",,,,,,,,,,
html-keyboard-response,200,281098,0.0-12.0-0.30,61001b6892ebd05a24fe82e1,650c16f0f2faf8d7a0d14c09,651c1acef4c0a1103a4eb272,null,null,"<p style=""font-size: 60px; font-family: BACS"">dCtMARDM</p>",,,,,,,,,,
html-keyboard-response,201,282109,0.0-12.0-0.31,61001b6892ebd05a24fe82e1,650c16f0f2faf8d7a0d14c09,651c1acef4c0a1103a4eb272,null,null,"<p style=""font-size: 60px; font-family: BACS"">AmaclYUYa</p>",,,,,,,,,,
html-keyboard-response,202,283119,0.0-12.0-0.32,61001b6892ebd05a24fe82e1,650c16f0f2faf8d7a0d14c09,651c1acef4c0a1103a4eb272,null,null,"<p style=""font-size: 60px; font-family: BACS"">bvuZOJlN</p>",,,,,,,,,,
html-keyboard-response,203,284129,0.0-12.0-0.33,61001b6892ebd05a24fe82e1,650c16f0f2faf8d7a0d14c09,651c1acef4c0a1103a4eb272,null,null,"<p style=""font-size: 60px; font-family: BACS"">EdBbPEdK</p>",,,,,,,,,,
html-keyboard-response,204,285140,0.0-12.0-0.34,61001b6892ebd05a24fe82e1,650c16f0f2faf8d7a0d14c09,651c1acef4c0a1103a4eb272,null,null,"<p style=""font-size: 60px; font-family: BACS"">CRdBdDlDT</p>",,,,,,,,,,
html-keyboard-response,205,286151,0.0-12.0-0.35,61001b6892ebd05a24fe82e1,650c16f0f2faf8d7a0d14c09,651c1acef4c0a1103a4eb272,null,null,"<p style=""font-size: 60px; font-family: BACS"">aNYmbOJlN</p>",,,,,,,,,,
html-keyboard-response,206,287159,0.0-12.0-0.36,61001b6892ebd05a24fe82e1,650c16f0f2faf8d7a0d14c09,651c1acef4c0a1103a4eb272,null,null,"<p style=""font-size: 60px; font-family: BACS"">ckdAmPEdK</p>",,,,,,,,,,
html-keyboard-response,207,288176,0.0-12.0-0.37,61001b6892ebd05a24fe82e1,650c16f0f2faf8d7a0d14c09,651c1acef4c0a1103a4eb272,null,null,"<p style=""font-size: 60px; font-family: BACS"">mbZlvcb</p>",,,,,,,,,,
html-keyboard-response,208,289189,0.0-12.0-0.38,61001b6892ebd05a24fe82e1,650c16f0f2faf8d7a0d14c09,651c1acef4c0a1103a4eb272,null,null,"<p style=""font-size: 60px; font-family: BACS"">CRdBdRDM</p>",,,,,,,,,,
html-keyboard-response,209,290210,0.0-12.0-0.39,61001b6892ebd05a24fe82e1,650c16f0f2faf8d7a0d14c09,651c1acef4c0a1103a4eb272,null,null,"<p style=""font-size: 60px; font-family: BACS"">Amaclvcb</p>",,,,,,,,,,
html-keyboard-response,210,291228,0.0-12.0-0.40,61001b6892ebd05a24fe82e1,650c16f0f2faf8d7a0d14c09,651c1acef4c0a1103a4eb272,null,null,"<p style=""font-size: 60px; font-family: BACS"">mbZlYUYa</p>",,,,,,,,,,
html-keyboard-response,211,292242,0.0-12.0-0.41,61001b6892ebd05a24fe82e1,650c16f0f2faf8d7a0d14c09,651c1acef4c0a1103a4eb272,null,null,"<p style=""font-size: 60px; font-family: BACS"">KAERMRDM</p>",,,,,,,,,,
html-keyboard-response,212,293246,0.0-12.0-0.42,61001b6892ebd05a24fe82e1,650c16f0f2faf8d7a0d14c09,651c1acef4c0a1103a4eb272,null,null,"<p style=""font-size: 60px; font-family: BACS"">aUZANUZ</p>",,,,,,,,,,
html-keyboard-response,213,294248,0.0-12.0-0.43,61001b6892ebd05a24fe82e1,650c16f0f2faf8d7a0d14c09,651c1acef4c0a1103a4eb272,null,null,"<p style=""font-size: 60px; font-family: BACS"">hlbtbPEdK</p>",,,,,,,,,,
html-keyboard-response,214,295254,0.0-12.0-0.44,61001b6892ebd05a24fe82e1,650c16f0f2faf8d7a0d14c09,651c1acef4c0a1103a4eb272,null,null,"<p style=""font-size: 60px; font-family: BACS"">bRABtDlDT</p>",,,,,,,,,,
html-keyboard-response,215,296256,0.0-12.0-0.45,61001b6892ebd05a24fe82e1,650c16f0f2faf8d7a0d14c09,651c1acef4c0a1103a4eb272,null,null,"<p style=""font-size: 60px; font-family: BACS"">KAERMRdCc</p>",,,,,,,,,,
html-keyboard-response,216,297265,0.0-12.0-0.46,61001b6892ebd05a24fe82e1,650c16f0f2faf8d7a0d14c09,651c1acef4c0a1103a4eb272,null,null,"<p style=""font-size: 60px; font-family: BACS"">YJkbrGl</p>",,,,,,,,,,
html-keyboard-response,217,298274,0.0-12.0-0.47,61001b6892ebd05a24fe82e1,650c16f0f2faf8d7a0d14c09,651c1acef4c0a1103a4eb272,null,null,"<p style=""font-size: 60px; font-family: BACS"">UmNJYUYa</p>",,,,,,,,,,
html-keyboard-response,218,299289,0.0-12.0-0.48,61001b6892ebd05a24fe82e1,650c16f0f2faf8d7a0d14c09,651c1acef4c0a1103a4eb272,null,null,"<p style=""font-size: 60px; font-family: BACS"">EdBbDlDT</p>",,,,,,,,,,
html-keyboard-response,219,300294,0.0-12.0-0.49,61001b6892ebd05a24fe82e1,650c16f0f2faf8d7a0d14c09,651c1acef4c0a1103a4eb272,null,null,"<p style=""font-size: 60px; font-family: BACS"">bRABtPED</p>",,,,,,,,,,
html-keyboard-response,220,301301,0.0-12.0-0.50,61001b6892ebd05a24fe82e1,650c16f0f2faf8d7a0d14c09,651c1acef4c0a1103a4eb272,null,null,"<p style=""font-size: 60px; font-family: BACS"">ctktRdCc</p>",,,,,,,,,,
html-keyboard-response,221,302307,0.0-12.0-0.51,61001b6892ebd05a24fe82e1,650c16f0f2faf8d7a0d14c09,651c1acef4c0a1103a4eb272,null,null,"<p style=""font-size: 60px; font-family: BACS"">AmaclOJlN</p>",,,,,,,,,,
html-keyboard-response,222,303317,0.0-12.0-0.52,61001b6892ebd05a24fe82e1,650c16f0f2faf8d7a0d14c09,651c1acef4c0a1103a4eb272,null,null,"<p style=""font-size: 60px; font-family: BACS"">hlbtbDlDT</p>",,,,,,,,,,
html-keyboard-response,223,304324,0.0-12.0-0.53,61001b6892ebd05a24fe82e1,650c16f0f2faf8d7a0d14c09,651c1acef4c0a1103a4eb272,null,null,"<p style=""font-size: 60px; font-family: BACS"">TbKMEPED</p>",,,,,,,,,,
html-keyboard-response,224,305339,0.0-12.0-0.54,61001b6892ebd05a24fe82e1,650c16f0f2faf8d7a0d14c09,651c1acef4c0a1103a4eb272,null,null,"<p style=""font-size: 60px; font-family: BACS"">OdlNmOJlN</p>",,,,,,,,,,
html-keyboard-response,225,306349,0.0-12.0-0.55,61001b6892ebd05a24fe82e1,650c16f0f2faf8d7a0d14c09,651c1acef4c0a1103a4eb272,null,null,"<p style=""font-size: 60px; font-family: BACS"">EdBbPED</p>",,,,,,,,,,
html-keyboard-response,226,307362,0.0-12.0-0.56,61001b6892ebd05a24fe82e1,650c16f0f2faf8d7a0d14c09,651c1acef4c0a1103a4eb272,null,null,"<p style=""font-size: 60px; font-family: BACS"">ckdAmDlDT</p>",,,,,,,,,,
html-keyboard-response,227,308372,0.0-12.0-0.57,61001b6892ebd05a24fe82e1,650c16f0f2faf8d7a0d14c09,651c1acef4c0a1103a4eb272,null,null,"<p style=""font-size: 60px; font-family: BACS"">YJkbYUYa</p>",,,,,,,,,,
html-keyboard-response,228,309382,0.0-12.0-0.58,61001b6892ebd05a24fe82e1,650c16f0f2faf8d7a0d14c09,651c1acef4c0a1103a4eb272,null,null,"<p style=""font-size: 60px; font-family: BACS"">bRABtRdCc</p>",,,,,,,,,,
html-keyboard-response,229,310397,0.0-12.0-0.59,61001b6892ebd05a24fe82e1,650c16f0f2faf8d7a0d14c09,651c1acef4c0a1103a4eb272,null,null,"<p style=""font-size: 60px; font-family: BACS"">ODBDAPED</p>",,,,,,,,,,
html-keyboard-response,230,311405,0.0-12.0-0.60,61001b6892ebd05a24fe82e1,650c16f0f2faf8d7a0d14c09,651c1acef4c0a1103a4eb272,null,null,"<p style=""font-size: 60px; font-family: BACS"">bRABtPEdK</p>",,,,,,,,,,
html-keyboard-response,231,312411,0.0-12.0-0.61,61001b6892ebd05a24fe82e1,650c16f0f2faf8d7a0d14c09,651c1acef4c0a1103a4eb272,null,null,"<p style=""font-size: 60px; font-family: BACS"">AlQaQYUYa</p>",,,,,,,,,,
html-keyboard-response,232,313420,0.0-12.0-0.62,61001b6892ebd05a24fe82e1,650c16f0f2faf8d7a0d14c09,651c1acef4c0a1103a4eb272,null,null,"<p style=""font-size: 60px; font-family: BACS"">YJkbNUZ</p>",,,,,,,,,,
html-keyboard-response,233,314428,0.0-12.0-0.63,61001b6892ebd05a24fe82e1,650c16f0f2faf8d7a0d14c09,651c1acef4c0a1103a4eb272,null,null,"<p style=""font-size: 60px; font-family: BACS"">ODBDARDM</p>",,,,,,,,,,
html-keyboard-response,234,315441,0.0-12.0-0.64,61001b6892ebd05a24fe82e1,650c16f0f2faf8d7a0d14c09,651c1acef4c0a1103a4eb272,null,null,"<p style=""font-size: 60px; font-family: BACS"">YJkbOJlN</p>",,,,,,,,,,
html-keyboard-response,235,316460,0.0-12.0-0.65,61001b6892ebd05a24fe82e1,650c16f0f2faf8d7a0d14c09,651c1acef4c0a1103a4eb272,null,null,"<p style=""font-size: 60px; font-family: BACS"">ODBDAPEdK</p>",,,,,,,,,,
html-keyboard-response,236,317466,0.0-12.0-0.66,61001b6892ebd05a24fe82e1,650c16f0f2faf8d7a0d14c09,651c1acef4c0a1103a4eb272,null,null,"<p style=""font-size: 60px; font-family: BACS"">bvuZvcb</p>",,,,,,,,,,
html-keyboard-response,237,318468,0.0-12.0-0.67,61001b6892ebd05a24fe82e1,650c16f0f2faf8d7a0d14c09,651c1acef4c0a1103a4eb272,null,null,"<p style=""font-size: 60px; font-family: BACS"">mbZlOJlN</p>",,,,,,,,,,
html-keyboard-response,238,319485,0.0-12.0-0.68,61001b6892ebd05a24fe82e1,650c16f0f2faf8d7a0d14c09,651c1acef4c0a1103a4eb272,null,null,"<p style=""font-size: 60px; font-family: BACS"">OdlNmvcb</p>",,,,,,,,,,
html-keyboard-response,239,320488,0.0-12.0-0.69,61001b6892ebd05a24fe82e1,650c16f0f2faf8d7a0d14c09,651c1acef4c0a1103a4eb272,null,null,"<p style=""font-size: 60px; font-family: BACS"">UmNJNUZ</p>",,,,,,,,,,
html-keyboard-response,240,321504,0.0-12.0-0.70,61001b6892ebd05a24fe82e1,650c16f0f2faf8d7a0d14c09,651c1acef4c0a1103a4eb272,null,null,"<p style=""font-size: 60px; font-family: BACS"">bvuZrGl</p>",,,,,,,,,,
html-keyboard-response,241,322509,0.0-12.0-0.71,61001b6892ebd05a24fe82e1,650c16f0f2faf8d7a0d14c09,651c1acef4c0a1103a4eb272,null,null,"<p style=""font-size: 60px; font-family: BACS"">KAERMPEdK</p>",,,,,,,,,,
html-keyboard-response,242,323518,0.0-12.0-0.72,61001b6892ebd05a24fe82e1,650c16f0f2faf8d7a0d14c09,651c1acef4c0a1103a4eb272,null,null,"<p style=""font-size: 60px; font-family: BACS"">aNYmbNUZ</p>",,,,,,,,,,
html-keyboard-response,243,324527,0.0-12.0-0.73,61001b6892ebd05a24fe82e1,650c16f0f2faf8d7a0d14c09,651c1acef4c0a1103a4eb272,null,null,"<p style=""font-size: 60px; font-family: BACS"">hlbtbRdCc</p>",,,,,,,,,,
html-keyboard-response,244,325540,0.0-12.0-0.74,61001b6892ebd05a24fe82e1,650c16f0f2faf8d7a0d14c09,651c1acef4c0a1103a4eb272,null,null,"<p style=""font-size: 60px; font-family: BACS"">AmaclNUZ</p>",,,,,,,,,,
html-keyboard-response,245,326546,0.0-12.0-0.75,61001b6892ebd05a24fe82e1,650c16f0f2faf8d7a0d14c09,651c1acef4c0a1103a4eb272,null,null,"<p style=""font-size: 60px; font-family: BACS"">OdlNmrGl</p>",,,,,,,,,,
html-keyboard-response,246,327559,0.0-12.0-0.76,61001b6892ebd05a24fe82e1,650c16f0f2faf8d7a0d14c09,651c1acef4c0a1103a4eb272,null,null,"<p style=""font-size: 60px; font-family: BACS"">ckdAmRdCc</p>",,,,,,,,,,
html-keyboard-response,247,328579,0.0-12.0-0.77,61001b6892ebd05a24fe82e1,650c16f0f2faf8d7a0d14c09,651c1acef4c0a1103a4eb272,null,null,"<p style=""font-size: 60px; font-family: BACS"">ctktPED</p>",,,,,,,,,,
html-keyboard-response,248,329589,0.0-12.0-0.78,61001b6892ebd05a24fe82e1,650c16f0f2faf8d7a0d14c09,651c1acef4c0a1103a4eb272,null,null,"<p style=""font-size: 60px; font-family: BACS"">AlQaQrGl</p>",,,,,,,,,,
html-keyboard-response,249,330594,0.0-12.0-0.79,61001b6892ebd05a24fe82e1,650c16f0f2faf8d7a0d14c09,651c1acef4c0a1103a4eb272,null,null,"<p style=""font-size: 60px; font-family: BACS"">CRdBdRdCc</p>",,,,,,,,,,
html-keyboard-response,250,400237,0.0-13.0,61001b6892ebd05a24fe82e1,650c16f0f2faf8d7a0d14c09,651c1acef4c0a1103a4eb272,69642, ,"<p>Great, you've seen the third block of words. You may now take a short break.</p>
      <p>Press the spacebar when you're ready to continue.</p>",,,,,,,,,,
html-keyboard-response,251,401246,0.0-14.0-0.0,61001b6892ebd05a24fe82e1,650c16f0f2faf8d7a0d14c09,651c1acef4c0a1103a4eb272,null,null,"<p style=""font-size: 60px; font-family: BACS"">hlbtbDlDT</p>",,,,,,,,,,
html-keyboard-response,252,402255,0.0-14.0-0.1,61001b6892ebd05a24fe82e1,650c16f0f2faf8d7a0d14c09,651c1acef4c0a1103a4eb272,null,null,"<p style=""font-size: 60px; font-family: BACS"">mbZlYUYa</p>",,,,,,,,,,
html-keyboard-response,253,403262,0.0-14.0-0.2,61001b6892ebd05a24fe82e1,650c16f0f2faf8d7a0d14c09,651c1acef4c0a1103a4eb272,null,null,"<p style=""font-size: 60px; font-family: BACS"">YJkbOJlN</p>",,,,,,,,,,
html-keyboard-response,254,404284,0.0-14.0-0.3,61001b6892ebd05a24fe82e1,650c16f0f2faf8d7a0d14c09,651c1acef4c0a1103a4eb272,null,null,"<p style=""font-size: 60px; font-family: BACS"">ODBDARDM</p>",,,,,,,,,,
html-keyboard-response,255,405287,0.0-14.0-0.4,61001b6892ebd05a24fe82e1,650c16f0f2faf8d7a0d14c09,651c1acef4c0a1103a4eb272,null,null,"<p style=""font-size: 60px; font-family: BACS"">OdlNmvcb</p>",,,,,,,,,,
html-keyboard-response,256,406300,0.0-14.0-0.5,61001b6892ebd05a24fe82e1,650c16f0f2faf8d7a0d14c09,651c1acef4c0a1103a4eb272,null,null,"<p style=""font-size: 60px; font-family: BACS"">CRdBdRdCc</p>",,,,,,,,,,
html-keyboard-response,257,407307,0.0-14.0-0.6,61001b6892ebd05a24fe82e1,650c16f0f2faf8d7a0d14c09,651c1acef4c0a1103a4eb272,null,null,"<p style=""font-size: 60px; font-family: BACS"">dCtMADlDT</p>",,,,,,,,,,
html-keyboard-response,258,408316,0.0-14.0-0.7,61001b6892ebd05a24fe82e1,650c16f0f2faf8d7a0d14c09,651c1acef4c0a1103a4eb272,null,null,"<p style=""font-size: 60px; font-family: BACS"">bRABtPEdK</p>",,,,,,,,,,
html-keyboard-response,259,409320,0.0-14.0-0.8,61001b6892ebd05a24fe82e1,650c16f0f2faf8d7a0d14c09,651c1acef4c0a1103a4eb272,null,null,"<p style=""font-size: 60px; font-family: BACS"">ckdAmDlDT</p>",,,,,,,,,,
html-keyboard-response,260,410333,0.0-14.0-0.9,61001b6892ebd05a24fe82e1,650c16f0f2faf8d7a0d14c09,651c1acef4c0a1103a4eb272,null,null,"<p style=""font-size: 60px; font-family: BACS"">aUZAYUYa</p>",,,,,,,,,,
html-keyboard-response,261,411338,0.0-14.0-0.10,61001b6892ebd05a24fe82e1,650c16f0f2faf8d7a0d14c09,651c1acef4c0a1103a4eb272,null,null,"<p style=""font-size: 60px; font-family: BACS"">EdBbDlDT</p>",,,,,,,,,,
html-keyboard-response,262,412357,0.0-14.0-0.11,61001b6892ebd05a24fe82e1,650c16f0f2faf8d7a0d14c09,651c1acef4c0a1103a4eb272,null,null,"<p style=""font-size: 60px; font-family: BACS"">vuJZurGl</p>",,,,,,,,,,
html-keyboard-response,263,413367,0.0-14.0-0.12,61001b6892ebd05a24fe82e1,650c16f0f2faf8d7a0d14c09,651c1acef4c0a1103a4eb272,null,null,"<p style=""font-size: 60px; font-family: BACS"">AmaclYUYa</p>",,,,,,,,,,
html-keyboard-response,264,414375,0.0-14.0-0.13,61001b6892ebd05a24fe82e1,650c16f0f2faf8d7a0d14c09,651c1acef4c0a1103a4eb272,null,null,"<p style=""font-size: 60px; font-family: BACS"">ctktRdCc</p>",,,,,,,,,,
html-keyboard-response,265,415402,0.0-14.0-0.14,61001b6892ebd05a24fe82e1,650c16f0f2faf8d7a0d14c09,651c1acef4c0a1103a4eb272,null,null,"<p style=""font-size: 60px; font-family: BACS"">dCtMAPED</p>",,,,,,,,,,
html-keyboard-response,266,416413,0.0-14.0-0.15,61001b6892ebd05a24fe82e1,650c16f0f2faf8d7a0d14c09,651c1acef4c0a1103a4eb272,null,null,"<p style=""font-size: 60px; font-family: BACS"">CRdBdPEdK</p>",,,,,,,,,,
html-keyboard-response,267,417424,0.0-14.0-0.16,61001b6892ebd05a24fe82e1,650c16f0f2faf8d7a0d14c09,651c1acef4c0a1103a4eb272,null,null,"<p style=""font-size: 60px; font-family: BACS"">dCtMARDM</p>",,,,,,,,,,
html-keyboard-response,268,418434,0.0-14.0-0.17,61001b6892ebd05a24fe82e1,650c16f0f2faf8d7a0d14c09,651c1acef4c0a1103a4eb272,null,null,"<p style=""font-size: 60px; font-family: BACS"">vuJZuvcb</p>",,,,,,,,,,
html-keyboard-response,269,419447,0.0-14.0-0.18,61001b6892ebd05a24fe82e1,650c16f0f2faf8d7a0d14c09,651c1acef4c0a1103a4eb272,null,null,"<p style=""font-size: 60px; font-family: BACS"">mbZlNUZ</p>",,,,,,,,,,
html-keyboard-response,270,420457,0.0-14.0-0.19,61001b6892ebd05a24fe82e1,650c16f0f2faf8d7a0d14c09,651c1acef4c0a1103a4eb272,null,null,"<p style=""font-size: 60px; font-family: BACS"">OdlNmOJlN</p>",,,,,,,,,,
html-keyboard-response,271,421468,0.0-14.0-0.20,61001b6892ebd05a24fe82e1,650c16f0f2faf8d7a0d14c09,651c1acef4c0a1103a4eb272,null,null,"<p style=""font-size: 60px; font-family: BACS"">ODBDAPED</p>",,,,,,,,,,
html-keyboard-response,272,422476,0.0-14.0-0.21,61001b6892ebd05a24fe82e1,650c16f0f2faf8d7a0d14c09,651c1acef4c0a1103a4eb272,null,null,"<p style=""font-size: 60px; font-family: BACS"">ctktRDM</p>",,,,,,,,,,
html-keyboard-response,273,423487,0.0-14.0-0.22,61001b6892ebd05a24fe82e1,650c16f0f2faf8d7a0d14c09,651c1acef4c0a1103a4eb272,null,null,"<p style=""font-size: 60px; font-family: BACS"">dCtMARdCc</p>",,,,,,,,,,
html-keyboard-response,274,424499,0.0-14.0-0.23,61001b6892ebd05a24fe82e1,650c16f0f2faf8d7a0d14c09,651c1acef4c0a1103a4eb272,null,null,"<p style=""font-size: 60px; font-family: BACS"">aUZArGl</p>",,,,,,,,,,
html-keyboard-response,275,425512,0.0-14.0-0.24,61001b6892ebd05a24fe82e1,650c16f0f2faf8d7a0d14c09,651c1acef4c0a1103a4eb272,null,null,"<p style=""font-size: 60px; font-family: BACS"">hlbtbRdCc</p>",,,,,,,,,,
html-keyboard-response,276,426517,0.0-14.0-0.25,61001b6892ebd05a24fe82e1,650c16f0f2faf8d7a0d14c09,651c1acef4c0a1103a4eb272,null,null,"<p style=""font-size: 60px; font-family: BACS"">aNYmbOJlN</p>",,,,,,,,,,
html-keyboard-response,277,427535,0.0-14.0-0.26,61001b6892ebd05a24fe82e1,650c16f0f2faf8d7a0d14c09,651c1acef4c0a1103a4eb272,null,null,"<p style=""font-size: 60px; font-family: BACS"">EdBbPED</p>",,,,,,,,,,
html-keyboard-response,278,428546,0.0-14.0-0.27,61001b6892ebd05a24fe82e1,650c16f0f2faf8d7a0d14c09,651c1acef4c0a1103a4eb272,null,null,"<p style=""font-size: 60px; font-family: BACS"">ckdAmPEdK</p>",,,,,,,,,,
html-keyboard-response,279,429557,0.0-14.0-0.28,61001b6892ebd05a24fe82e1,650c16f0f2faf8d7a0d14c09,651c1acef4c0a1103a4eb272,null,null,"<p style=""font-size: 60px; font-family: BACS"">UmNJYUYa</p>",,,,,,,,,,
html-keyboard-response,280,430574,0.0-14.0-0.29,61001b6892ebd05a24fe82e1,650c16f0f2faf8d7a0d14c09,651c1acef4c0a1103a4eb272,null,null,"<p style=""font-size: 60px; font-family: BACS"">ckdAmRDM</p>",,,,,,,,,,
html-keyboard-response,281,431577,0.0-14.0-0.30,61001b6892ebd05a24fe82e1,650c16f0f2faf8d7a0d14c09,651c1acef4c0a1103a4eb272,null,null,"<p style=""font-size: 60px; font-family: BACS"">aUZANUZ</p>",,,,,,,,,,
html-keyboard-response,282,432589,0.0-14.0-0.31,61001b6892ebd05a24fe82e1,650c16f0f2faf8d7a0d14c09,651c1acef4c0a1103a4eb272,null,null,"<p style=""font-size: 60px; font-family: BACS"">ctktPED</p>",,,,,,,,,,
html-keyboard-response,283,433596,0.0-14.0-0.32,61001b6892ebd05a24fe82e1,650c16f0f2faf8d7a0d14c09,651c1acef4c0a1103a4eb272,null,null,"<p style=""font-size: 60px; font-family: BACS"">bRABtDlDT</p>",,,,,,,,,,
html-keyboard-response,284,434600,0.0-14.0-0.33,61001b6892ebd05a24fe82e1,650c16f0f2faf8d7a0d14c09,651c1acef4c0a1103a4eb272,null,null,"<p style=""font-size: 60px; font-family: BACS"">aNYmbvcb</p>",,,,,,,,,,
html-keyboard-response,285,435612,0.0-14.0-0.34,61001b6892ebd05a24fe82e1,650c16f0f2faf8d7a0d14c09,651c1acef4c0a1103a4eb272,null,null,"<p style=""font-size: 60px; font-family: BACS"">TbKMEPEdK</p>",,,,,,,,,,
html-keyboard-response,286,436618,0.0-14.0-0.35,61001b6892ebd05a24fe82e1,650c16f0f2faf8d7a0d14c09,651c1acef4c0a1103a4eb272,null,null,"<p style=""font-size: 60px; font-family: BACS"">aUZAOJlN</p>",,,,,,,,,,
html-keyboard-response,287,437635,0.0-14.0-0.36,61001b6892ebd05a24fe82e1,650c16f0f2faf8d7a0d14c09,651c1acef4c0a1103a4eb272,null,null,"<p style=""font-size: 60px; font-family: BACS"">YJkbYUYa</p>",,,,,,,,,,
html-keyboard-response,288,438645,0.0-14.0-0.37,61001b6892ebd05a24fe82e1,650c16f0f2faf8d7a0d14c09,651c1acef4c0a1103a4eb272,null,null,"<p style=""font-size: 60px; font-family: BACS"">CRdBdDlDT</p>",,,,,,,,,,
html-keyboard-response,289,439656,0.0-14.0-0.38,61001b6892ebd05a24fe82e1,650c16f0f2faf8d7a0d14c09,651c1acef4c0a1103a4eb272,null,null,"<p style=""font-size: 60px; font-family: BACS"">vuJZuOJlN</p>",,,,,,,,,,
html-keyboard-response,290,440674,0.0-14.0-0.39,61001b6892ebd05a24fe82e1,650c16f0f2faf8d7a0d14c09,651c1acef4c0a1103a4eb272,null,null,"<p style=""font-size: 60px; font-family: BACS"">UmNJvcb</p>",,,,,,,,,,
html-keyboard-response,291,441682,0.0-14.0-0.40,61001b6892ebd05a24fe82e1,650c16f0f2faf8d7a0d14c09,651c1acef4c0a1103a4eb272,null,null,"<p style=""font-size: 60px; font-family: BACS"">AmaclOJlN</p>",,,,,,,,,,
html-keyboard-response,292,442687,0.0-14.0-0.41,61001b6892ebd05a24fe82e1,650c16f0f2faf8d7a0d14c09,651c1acef4c0a1103a4eb272,null,null,"<p style=""font-size: 60px; font-family: BACS"">mbZlvcb</p>",,,,,,,,,,
html-keyboard-response,293,443689,0.0-14.0-0.42,61001b6892ebd05a24fe82e1,650c16f0f2faf8d7a0d14c09,651c1acef4c0a1103a4eb272,null,null,"<p style=""font-size: 60px; font-family: BACS"">KAERMRdCc</p>",,,,,,,,,,
html-keyboard-response,294,444697,0.0-14.0-0.43,61001b6892ebd05a24fe82e1,650c16f0f2faf8d7a0d14c09,651c1acef4c0a1103a4eb272,null,null,"<p style=""font-size: 60px; font-family: BACS"">bvuZvcb</p>",,,,,,,,,,
html-keyboard-response,295,445715,0.0-14.0-0.44,61001b6892ebd05a24fe82e1,650c16f0f2faf8d7a0d14c09,651c1acef4c0a1103a4eb272,null,null,"<p style=""font-size: 60px; font-family: BACS"">KAERMRDM</p>",,,,,,,,,,
html-keyboard-response,296,446725,0.0-14.0-0.45,61001b6892ebd05a24fe82e1,650c16f0f2faf8d7a0d14c09,651c1acef4c0a1103a4eb272,null,null,"<p style=""font-size: 60px; font-family: BACS"">YJkbNUZ</p>",,,,,,,,,,
html-keyboard-response,297,447731,0.0-14.0-0.46,61001b6892ebd05a24fe82e1,650c16f0f2faf8d7a0d14c09,651c1acef4c0a1103a4eb272,null,null,"<p style=""font-size: 60px; font-family: BACS"">bRABtPED</p>",,,,,,,,,,
html-keyboard-response,298,448739,0.0-14.0-0.47,61001b6892ebd05a24fe82e1,650c16f0f2faf8d7a0d14c09,651c1acef4c0a1103a4eb272,null,null,"<p style=""font-size: 60px; font-family: BACS"">mbZlOJlN</p>",,,,,,,,,,
html-keyboard-response,299,449756,0.0-14.0-0.48,61001b6892ebd05a24fe82e1,650c16f0f2faf8d7a0d14c09,651c1acef4c0a1103a4eb272,null,null,"<p style=""font-size: 60px; font-family: BACS"">ckdAmRdCc</p>",,,,,,,,,,
html-keyboard-response,300,450764,0.0-14.0-0.49,61001b6892ebd05a24fe82e1,650c16f0f2faf8d7a0d14c09,651c1acef4c0a1103a4eb272,null,null,"<p style=""font-size: 60px; font-family: BACS"">ODBDAPEdK</p>",,,,,,,,,,
html-keyboard-response,301,451766,0.0-14.0-0.50,61001b6892ebd05a24fe82e1,650c16f0f2faf8d7a0d14c09,651c1acef4c0a1103a4eb272,null,null,"<p style=""font-size: 60px; font-family: BACS"">hlbtbPED</p>",,,,,,,,,,
html-keyboard-response,302,452782,0.0-14.0-0.51,61001b6892ebd05a24fe82e1,650c16f0f2faf8d7a0d14c09,651c1acef4c0a1103a4eb272,null,null,"<p style=""font-size: 60px; font-family: BACS"">AlQaQNUZ</p>",,,,,,,,,,
html-keyboard-response,303,453787,0.0-14.0-0.52,61001b6892ebd05a24fe82e1,650c16f0f2faf8d7a0d14c09,651c1acef4c0a1103a4eb272,null,null,"<p style=""font-size: 60px; font-family: BACS"">vuJZuYUYa</p>",,,,,,,,,,
html-keyboard-response,304,454800,0.0-14.0-0.53,61001b6892ebd05a24fe82e1,650c16f0f2faf8d7a0d14c09,651c1acef4c0a1103a4eb272,null,null,"<p style=""font-size: 60px; font-family: BACS"">bvuZrGl</p>",,,,,,,,,,
html-keyboard-response,305,455813,0.0-14.0-0.54,61001b6892ebd05a24fe82e1,650c16f0f2faf8d7a0d14c09,651c1acef4c0a1103a4eb272,null,null,"<p style=""font-size: 60px; font-family: BACS"">AmaclNUZ</p>",,,,,,,,,,
html-keyboard-response,306,456817,0.0-14.0-0.55,61001b6892ebd05a24fe82e1,650c16f0f2faf8d7a0d14c09,651c1acef4c0a1103a4eb272,null,null,"<p style=""font-size: 60px; font-family: BACS"">bvuZYUYa</p>",,,,,,,,,,
html-keyboard-response,307,457824,0.0-14.0-0.56,61001b6892ebd05a24fe82e1,650c16f0f2faf8d7a0d14c09,651c1acef4c0a1103a4eb272,null,null,"<p style=""font-size: 60px; font-family: BACS"">AlQaQrGl</p>",,,,,,,,,,
html-keyboard-response,308,458837,0.0-14.0-0.57,61001b6892ebd05a24fe82e1,650c16f0f2faf8d7a0d14c09,651c1acef4c0a1103a4eb272,null,null,"<p style=""font-size: 60px; font-family: BACS"">CRdBdRDM</p>",,,,,,,,,,
html-keyboard-response,309,459855,0.0-14.0-0.58,61001b6892ebd05a24fe82e1,650c16f0f2faf8d7a0d14c09,651c1acef4c0a1103a4eb272,null,null,"<p style=""font-size: 60px; font-family: BACS"">hlbtbPEdK</p>",,,,,,,,,,
html-keyboard-response,310,460863,0.0-14.0-0.59,61001b6892ebd05a24fe82e1,650c16f0f2faf8d7a0d14c09,651c1acef4c0a1103a4eb272,null,null,"<p style=""font-size: 60px; font-family: BACS"">TbKMEDlDT</p>",,,,,,,,,,
html-keyboard-response,311,461871,0.0-14.0-0.60,61001b6892ebd05a24fe82e1,650c16f0f2faf8d7a0d14c09,651c1acef4c0a1103a4eb272,null,null,"<p style=""font-size: 60px; font-family: BACS"">AlQaQYUYa</p>",,,,,,,,,,
html-keyboard-response,312,462886,0.0-14.0-0.61,61001b6892ebd05a24fe82e1,650c16f0f2faf8d7a0d14c09,651c1acef4c0a1103a4eb272,null,null,"<p style=""font-size: 60px; font-family: BACS"">EdBbRDM</p>",,,,,,,,,,
html-keyboard-response,313,463900,0.0-14.0-0.62,61001b6892ebd05a24fe82e1,650c16f0f2faf8d7a0d14c09,651c1acef4c0a1103a4eb272,null,null,"<p style=""font-size: 60px; font-family: BACS"">YJkbrGl</p>",,,,,,,,,,
html-keyboard-response,314,464908,0.0-14.0-0.63,61001b6892ebd05a24fe82e1,650c16f0f2faf8d7a0d14c09,651c1acef4c0a1103a4eb272,null,null,"<p style=""font-size: 60px; font-family: BACS"">UmNJNUZ</p>",,,,,,,,,,
html-keyboard-response,315,465952,0.0-14.0-0.64,61001b6892ebd05a24fe82e1,650c16f0f2faf8d7a0d14c09,651c1acef4c0a1103a4eb272,null,null,"<p style=""font-size: 60px; font-family: BACS"">Amaclvcb</p>",,,,,,,,,,
html-keyboard-response,316,466958,0.0-14.0-0.65,61001b6892ebd05a24fe82e1,650c16f0f2faf8d7a0d14c09,651c1acef4c0a1103a4eb272,null,null,"<p style=""font-size: 60px; font-family: BACS"">aNYmbrGl</p>",,,,,,,,,,
html-keyboard-response,317,467970,0.0-14.0-0.66,61001b6892ebd05a24fe82e1,650c16f0f2faf8d7a0d14c09,651c1acef4c0a1103a4eb272,null,null,"<p style=""font-size: 60px; font-family: BACS"">TbKMEPED</p>",,,,,,,,,,
html-keyboard-response,318,468974,0.0-14.0-0.67,61001b6892ebd05a24fe82e1,650c16f0f2faf8d7a0d14c09,651c1acef4c0a1103a4eb272,null,null,"<p style=""font-size: 60px; font-family: BACS"">bRABtRdCc</p>",,,,,,,,,,
html-keyboard-response,319,469983,0.0-14.0-0.68,61001b6892ebd05a24fe82e1,650c16f0f2faf8d7a0d14c09,651c1acef4c0a1103a4eb272,null,null,"<p style=""font-size: 60px; font-family: BACS"">OdlNmNUZ</p>",,,,,,,,,,
html-keyboard-response,320,470986,0.0-14.0-0.69,61001b6892ebd05a24fe82e1,650c16f0f2faf8d7a0d14c09,651c1acef4c0a1103a4eb272,null,null,"<p style=""font-size: 60px; font-family: BACS"">TbKMERDM</p>",,,,,,,,,,
html-keyboard-response,321,471993,0.0-14.0-0.70,61001b6892ebd05a24fe82e1,650c16f0f2faf8d7a0d14c09,651c1acef4c0a1103a4eb272,null,null,"<p style=""font-size: 60px; font-family: BACS"">ODBDARdCc</p>",,,,,,,,,,
html-keyboard-response,322,473006,0.0-14.0-0.71,61001b6892ebd05a24fe82e1,650c16f0f2faf8d7a0d14c09,651c1acef4c0a1103a4eb272,null,null,"<p style=""font-size: 60px; font-family: BACS"">EdBbPEdK</p>",,,,,,,,,,
html-keyboard-response,323,474018,0.0-14.0-0.72,61001b6892ebd05a24fe82e1,650c16f0f2faf8d7a0d14c09,651c1acef4c0a1103a4eb272,null,null,"<p style=""font-size: 60px; font-family: BACS"">ctktDlDT</p>",,,,,,,,,,
html-keyboard-response,324,475028,0.0-14.0-0.73,61001b6892ebd05a24fe82e1,650c16f0f2faf8d7a0d14c09,651c1acef4c0a1103a4eb272,null,null,"<p style=""font-size: 60px; font-family: BACS"">aNYmbNUZ</p>",,,,,,,,,,
html-keyboard-response,325,476032,0.0-14.0-0.74,61001b6892ebd05a24fe82e1,650c16f0f2faf8d7a0d14c09,651c1acef4c0a1103a4eb272,null,null,"<p style=""font-size: 60px; font-family: BACS"">bvuZOJlN</p>",,,,,,,,,,
html-keyboard-response,326,477046,0.0-14.0-0.75,61001b6892ebd05a24fe82e1,650c16f0f2faf8d7a0d14c09,651c1acef4c0a1103a4eb272,null,null,"<p style=""font-size: 60px; font-family: BACS"">KAERMPED</p>",,,,,,,,,,
html-keyboard-response,327,478057,0.0-14.0-0.76,61001b6892ebd05a24fe82e1,650c16f0f2faf8d7a0d14c09,651c1acef4c0a1103a4eb272,null,null,"<p style=""font-size: 60px; font-family: BACS"">OdlNmrGl</p>",,,,,,,,,,
html-keyboard-response,328,479074,0.0-14.0-0.77,61001b6892ebd05a24fe82e1,650c16f0f2faf8d7a0d14c09,651c1acef4c0a1103a4eb272,null,null,"<p style=""font-size: 60px; font-family: BACS"">KAERMPEdK</p>",,,,,,,,,,
html-keyboard-response,329,480081,0.0-14.0-0.78,61001b6892ebd05a24fe82e1,650c16f0f2faf8d7a0d14c09,651c1acef4c0a1103a4eb272,null,null,"<p style=""font-size: 60px; font-family: BACS"">AlQaQvcb</p>",,,,,,,,,,
html-keyboard-response,330,481086,0.0-14.0-0.79,61001b6892ebd05a24fe82e1,650c16f0f2faf8d7a0d14c09,651c1acef4c0a1103a4eb272,null,null,"<p style=""font-size: 60px; font-family: BACS"">UmNJrGl</p>",,,,,,,,,,
html-keyboard-response,331,487561,0.0-15.0,61001b6892ebd05a24fe82e1,650c16f0f2faf8d7a0d14c09,651c1acef4c0a1103a4eb272,6473, ,"<p>Great, you've seen the fourth block of words. You may now take a short break.</p>
      <p>Press the spacebar when you're ready to continue.</p>",,,,,,,,,,
html-keyboard-response,332,488566,0.0-16.0-0.0,61001b6892ebd05a24fe82e1,650c16f0f2faf8d7a0d14c09,651c1acef4c0a1103a4eb272,null,null,"<p style=""font-size: 60px; font-family: BACS"">aNYmbOJlN</p>",,,,,,,,,,
html-keyboard-response,333,489576,0.0-16.0-0.1,61001b6892ebd05a24fe82e1,650c16f0f2faf8d7a0d14c09,651c1acef4c0a1103a4eb272,null,null,"<p style=""font-size: 60px; font-family: BACS"">aNYmbOJlN</p>",,,,,,,,,,
html-keyboard-response,334,490592,0.0-16.0-0.2,61001b6892ebd05a24fe82e1,650c16f0f2faf8d7a0d14c09,651c1acef4c0a1103a4eb272,null,null,"<p style=""font-size: 60px; font-family: BACS"">aNYmbOJlN</p>",,,,,,,,,,
html-keyboard-response,335,491597,0.0-16.0-0.3,61001b6892ebd05a24fe82e1,650c16f0f2faf8d7a0d14c09,651c1acef4c0a1103a4eb272,null,null,"<p style=""font-size: 60px; font-family: BACS"">aNYmbOJlN</p>",,,,,,,,,,
html-keyboard-response,336,492605,0.0-16.0-0.4,61001b6892ebd05a24fe82e1,650c16f0f2faf8d7a0d14c09,651c1acef4c0a1103a4eb272,null,null,"<p style=""font-size: 60px; font-family: BACS"">aNYmbOJlN</p>",,,,,,,,,,
html-keyboard-response,337,493614,0.0-16.0-0.5,61001b6892ebd05a24fe82e1,650c16f0f2faf8d7a0d14c09,651c1acef4c0a1103a4eb272,null,null,"<p style=""font-size: 60px; font-family: BACS"">aNYmbOJlN</p>",,,,,,,,,,
html-keyboard-response,338,494622,0.0-16.0-0.6,61001b6892ebd05a24fe82e1,650c16f0f2faf8d7a0d14c09,651c1acef4c0a1103a4eb272,null,null,"<p style=""font-size: 60px; font-family: BACS"">aNYmbOJlN</p>",,,,,,,,,,
html-keyboard-response,339,495626,0.0-16.0-0.7,61001b6892ebd05a24fe82e1,650c16f0f2faf8d7a0d14c09,651c1acef4c0a1103a4eb272,null,null,"<p style=""font-size: 60px; font-family: BACS"">aNYmbOJlN</p>",,,,,,,,,,
html-keyboard-response,340,496632,0.0-16.0-0.8,61001b6892ebd05a24fe82e1,650c16f0f2faf8d7a0d14c09,651c1acef4c0a1103a4eb272,null,null,"<p style=""font-size: 60px; font-family: BACS"">aNYmbOJlN</p>",,,,,,,,,,
html-keyboard-response,341,497636,0.0-16.0-0.9,61001b6892ebd05a24fe82e1,650c16f0f2faf8d7a0d14c09,651c1acef4c0a1103a4eb272,null,null,"<p style=""font-size: 60px; font-family: BACS"">aNYmbOJlN</p>",,,,,,,,,,
html-keyboard-response,342,498655,0.0-16.0-0.10,61001b6892ebd05a24fe82e1,650c16f0f2faf8d7a0d14c09,651c1acef4c0a1103a4eb272,null,null,"<p style=""font-size: 60px; font-family: BACS"">aNYmbOJlN</p>",,,,,,,,,,
html-keyboard-response,343,499666,0.0-16.0-0.11,61001b6892ebd05a24fe82e1,650c16f0f2faf8d7a0d14c09,651c1acef4c0a1103a4eb272,null,null,"<p style=""font-size: 60px; font-family: BACS"">aNYmbOJlN</p>",,,,,,,,,,
html-keyboard-response,344,500670,0.0-16.0-0.12,61001b6892ebd05a24fe82e1,650c16f0f2faf8d7a0d14c09,651c1acef4c0a1103a4eb272,null,null,"<p style=""font-size: 60px; font-family: BACS"">aNYmbOJlN</p>",,,,,,,,,,
html-keyboard-response,345,501678,0.0-16.0-0.13,61001b6892ebd05a24fe82e1,650c16f0f2faf8d7a0d14c09,651c1acef4c0a1103a4eb272,null,null,"<p style=""font-size: 60px; font-family: BACS"">aNYmbOJlN</p>",,,,,,,,,,
html-keyboard-response,346,502686,0.0-16.0-0.14,61001b6892ebd05a24fe82e1,650c16f0f2faf8d7a0d14c09,651c1acef4c0a1103a4eb272,null,null,"<p style=""font-size: 60px; font-family: BACS"">aNYmbOJlN</p>",,,,,,,,,,
html-keyboard-response,347,503695,0.0-16.0-0.15,61001b6892ebd05a24fe82e1,650c16f0f2faf8d7a0d14c09,651c1acef4c0a1103a4eb272,null,null,"<p style=""font-size: 60px; font-family: BACS"">aNYmbOJlN</p>",,,,,,,,,,
html-keyboard-response,348,504711,0.0-16.0-0.16,61001b6892ebd05a24fe82e1,650c16f0f2faf8d7a0d14c09,651c1acef4c0a1103a4eb272,null,null,"<p style=""font-size: 60px; font-family: BACS"">aNYmbOJlN</p>",,,,,,,,,,
html-keyboard-response,349,505728,0.0-16.0-0.17,61001b6892ebd05a24fe82e1,650c16f0f2faf8d7a0d14c09,651c1acef4c0a1103a4eb272,null,null,"<p style=""font-size: 60px; font-family: BACS"">aNYmbOJlN</p>",,,,,,,,,,
html-keyboard-response,350,506736,0.0-16.0-0.18,61001b6892ebd05a24fe82e1,650c16f0f2faf8d7a0d14c09,651c1acef4c0a1103a4eb272,null,null,"<p style=""font-size: 60px; font-family: BACS"">aNYmbOJlN</p>",,,,,,,,,,
html-keyboard-response,351,507749,0.0-16.0-0.19,61001b6892ebd05a24fe82e1,650c16f0f2faf8d7a0d14c09,651c1acef4c0a1103a4eb272,null,null,"<p style=""font-size: 60px; font-family: BACS"">aNYmbOJlN</p>",,,,,,,,,,
html-keyboard-response,352,508752,0.0-16.0-0.20,61001b6892ebd05a24fe82e1,650c16f0f2faf8d7a0d14c09,651c1acef4c0a1103a4eb272,null,null,"<p style=""font-size: 60px; font-family: BACS"">aNYmbOJlN</p>",,,,,,,,,,
html-keyboard-response,353,509755,0.0-16.0-0.21,61001b6892ebd05a24fe82e1,650c16f0f2faf8d7a0d14c09,651c1acef4c0a1103a4eb272,null,null,"<p style=""font-size: 60px; font-family: BACS"">aNYmbOJlN</p>",,,,,,,,,,
html-keyboard-response,354,510767,0.0-16.0-0.22,61001b6892ebd05a24fe82e1,650c16f0f2faf8d7a0d14c09,651c1acef4c0a1103a4eb272,null,null,"<p style=""font-size: 60px; font-family: BACS"">aNYmbOJlN</p>",,,,,,,,,,
html-keyboard-response,355,511774,0.0-16.0-0.23,61001b6892ebd05a24fe82e1,650c16f0f2faf8d7a0d14c09,651c1acef4c0a1103a4eb272,null,null,"<p style=""font-size: 60px; font-family: BACS"">aNYmbOJlN</p>",,,,,,,,,,
html-keyboard-response,356,512784,0.0-16.0-0.24,61001b6892ebd05a24fe82e1,650c16f0f2faf8d7a0d14c09,651c1acef4c0a1103a4eb272,null,null,"<p style=""font-size: 60px; font-family: BACS"">aNYmbOJlN</p>",,,,,,,,,,
html-keyboard-response,357,513797,0.0-16.0-0.25,61001b6892ebd05a24fe82e1,650c16f0f2faf8d7a0d14c09,651c1acef4c0a1103a4eb272,null,null,"<p style=""font-size: 60px; font-family: BACS"">aNYmbOJlN</p>",,,,,,,,,,
html-keyboard-response,358,514808,0.0-16.0-0.26,61001b6892ebd05a24fe82e1,650c16f0f2faf8d7a0d14c09,651c1acef4c0a1103a4eb272,null,null,"<p style=""font-size: 60px; font-family: BACS"">aNYmbOJlN</p>",,,,,,,,,,
html-keyboard-response,359,515815,0.0-16.0-0.27,61001b6892ebd05a24fe82e1,650c16f0f2faf8d7a0d14c09,651c1acef4c0a1103a4eb272,null,null,"<p style=""font-size: 60px; font-family: BACS"">aNYmbOJlN</p>",,,,,,,,,,
html-keyboard-response,360,516818,0.0-16.0-0.28,61001b6892ebd05a24fe82e1,650c16f0f2faf8d7a0d14c09,651c1acef4c0a1103a4eb272,null,null,"<p style=""font-size: 60px; font-family: BACS"">aNYmbOJlN</p>",,,,,,,,,,
html-keyboard-response,361,517826,0.0-16.0-0.29,61001b6892ebd05a24fe82e1,650c16f0f2faf8d7a0d14c09,651c1acef4c0a1103a4eb272,null,null,"<p style=""font-size: 60px; font-family: BACS"">aNYmbOJlN</p>",,,,,,,,,,
html-keyboard-response,362,518833,0.0-16.0-0.30,61001b6892ebd05a24fe82e1,650c16f0f2faf8d7a0d14c09,651c1acef4c0a1103a4eb272,null,null,"<p style=""font-size: 60px; font-family: BACS"">aNYmbOJlN</p>",,,,,,,,,,
html-keyboard-response,363,519840,0.0-16.0-0.31,61001b6892ebd05a24fe82e1,650c16f0f2faf8d7a0d14c09,651c1acef4c0a1103a4eb272,null,null,"<p style=""font-size: 60px; font-family: BACS"">aNYmbOJlN</p>",,,,,,,,,,
html-keyboard-response,364,520846,0.0-16.0-0.32,61001b6892ebd05a24fe82e1,650c16f0f2faf8d7a0d14c09,651c1acef4c0a1103a4eb272,null,null,"<p style=""font-size: 60px; font-family: BACS"">aNYmbOJlN</p>",,,,,,,,,,
html-keyboard-response,365,521857,0.0-16.0-0.33,61001b6892ebd05a24fe82e1,650c16f0f2faf8d7a0d14c09,651c1acef4c0a1103a4eb272,null,null,"<p style=""font-size: 60px; font-family: BACS"">aNYmbOJlN</p>",,,,,,,,,,
html-keyboard-response,366,522865,0.0-16.0-0.34,61001b6892ebd05a24fe82e1,650c16f0f2faf8d7a0d14c09,651c1acef4c0a1103a4eb272,null,null,"<p style=""font-size: 60px; font-family: BACS"">aNYmbOJlN</p>",,,,,,,,,,
html-keyboard-response,367,523868,0.0-16.0-0.35,61001b6892ebd05a24fe82e1,650c16f0f2faf8d7a0d14c09,651c1acef4c0a1103a4eb272,null,null,"<p style=""font-size: 60px; font-family: BACS"">aNYmbOJlN</p>",,,,,,,,,,
html-keyboard-response,368,524876,0.0-16.0-0.36,61001b6892ebd05a24fe82e1,650c16f0f2faf8d7a0d14c09,651c1acef4c0a1103a4eb272,null,null,"<p style=""font-size: 60px; font-family: BACS"">aNYmbOJlN</p>",,,,,,,,,,
html-keyboard-response,369,525880,0.0-16.0-0.37,61001b6892ebd05a24fe82e1,650c16f0f2faf8d7a0d14c09,651c1acef4c0a1103a4eb272,null,null,"<p style=""font-size: 60px; font-family: BACS"">aNYmbOJlN</p>",,,,,,,,,,
html-keyboard-response,370,526887,0.0-16.0-0.38,61001b6892ebd05a24fe82e1,650c16f0f2faf8d7a0d14c09,651c1acef4c0a1103a4eb272,null,null,"<p style=""font-size: 60px; font-family: BACS"">aNYmbOJlN</p>",,,,,,,,,,
html-keyboard-response,371,527908,0.0-16.0-0.39,61001b6892ebd05a24fe82e1,650c16f0f2faf8d7a0d14c09,651c1acef4c0a1103a4eb272,null,null,"<p style=""font-size: 60px; font-family: BACS"">aNYmbOJlN</p>",,,,,,,,,,
html-keyboard-response,372,528912,0.0-16.0-0.40,61001b6892ebd05a24fe82e1,650c16f0f2faf8d7a0d14c09,651c1acef4c0a1103a4eb272,null,null,"<p style=""font-size: 60px; font-family: BACS"">aNYmbOJlN</p>",,,,,,,,,,
html-keyboard-response,373,529926,0.0-16.0-0.41,61001b6892ebd05a24fe82e1,650c16f0f2faf8d7a0d14c09,651c1acef4c0a1103a4eb272,null,null,"<p style=""font-size: 60px; font-family: BACS"">aNYmbOJlN</p>",,,,,,,,,,
html-keyboard-response,374,530936,0.0-16.0-0.42,61001b6892ebd05a24fe82e1,650c16f0f2faf8d7a0d14c09,651c1acef4c0a1103a4eb272,null,null,"<p style=""font-size: 60px; font-family: BACS"">aNYmbOJlN</p>",,,,,,,,,,
html-keyboard-response,375,531947,0.0-16.0-0.43,61001b6892ebd05a24fe82e1,650c16f0f2faf8d7a0d14c09,651c1acef4c0a1103a4eb272,null,null,"<p style=""font-size: 60px; font-family: BACS"">aNYmbOJlN</p>",,,,,,,,,,
html-keyboard-response,376,532952,0.0-16.0-0.44,61001b6892ebd05a24fe82e1,650c16f0f2faf8d7a0d14c09,651c1acef4c0a1103a4eb272,null,null,"<p style=""font-size: 60px; font-family: BACS"">aNYmbOJlN</p>",,,,,,,,,,
html-keyboard-response,377,533959,0.0-16.0-0.45,61001b6892ebd05a24fe82e1,650c16f0f2faf8d7a0d14c09,651c1acef4c0a1103a4eb272,null,null,"<p style=""font-size: 60px; font-family: BACS"">aNYmbOJlN</p>",,,,,,,,,,
html-keyboard-response,378,534967,0.0-16.0-0.46,61001b6892ebd05a24fe82e1,650c16f0f2faf8d7a0d14c09,651c1acef4c0a1103a4eb272,null,null,"<p style=""font-size: 60px; font-family: BACS"">aNYmbOJlN</p>",,,,,,,,,,
html-keyboard-response,379,535973,0.0-16.0-0.47,61001b6892ebd05a24fe82e1,650c16f0f2faf8d7a0d14c09,651c1acef4c0a1103a4eb272,null,null,"<p style=""font-size: 60px; font-family: BACS"">aNYmbOJlN</p>",,,,,,,,,,
html-keyboard-response,380,536987,0.0-16.0-0.48,61001b6892ebd05a24fe82e1,650c16f0f2faf8d7a0d14c09,651c1acef4c0a1103a4eb272,null,null,"<p style=""font-size: 60px; font-family: BACS"">aNYmbOJlN</p>",,,,,,,,,,
html-keyboard-response,381,537991,0.0-16.0-0.49,61001b6892ebd05a24fe82e1,650c16f0f2faf8d7a0d14c09,651c1acef4c0a1103a4eb272,null,null,"<p style=""font-size: 60px; font-family: BACS"">aNYmbOJlN</p>",,,,,,,,,,
html-keyboard-response,382,538999,0.0-16.0-0.50,61001b6892ebd05a24fe82e1,650c16f0f2faf8d7a0d14c09,651c1acef4c0a1103a4eb272,null,null,"<p style=""font-size: 60px; font-family: BACS"">aNYmbOJlN</p>",,,,,,,,,,
html-keyboard-response,383,540012,0.0-16.0-0.51,61001b6892ebd05a24fe82e1,650c16f0f2faf8d7a0d14c09,651c1acef4c0a1103a4eb272,null,null,"<p style=""font-size: 60px; font-family: BACS"">aNYmbOJlN</p>",,,,,,,,,,
html-keyboard-response,384,541017,0.0-16.0-0.52,61001b6892ebd05a24fe82e1,650c16f0f2faf8d7a0d14c09,651c1acef4c0a1103a4eb272,null,null,"<p style=""font-size: 60px; font-family: BACS"">aNYmbOJlN</p>",,,,,,,,,,
html-keyboard-response,385,542023,0.0-16.0-0.53,61001b6892ebd05a24fe82e1,650c16f0f2faf8d7a0d14c09,651c1acef4c0a1103a4eb272,null,null,"<p style=""font-size: 60px; font-family: BACS"">aNYmbOJlN</p>",,,,,,,,,,
html-keyboard-response,386,543031,0.0-16.0-0.54,61001b6892ebd05a24fe82e1,650c16f0f2faf8d7a0d14c09,651c1acef4c0a1103a4eb272,null,null,"<p style=""font-size: 60px; font-family: BACS"">aNYmbOJlN</p>",,,,,,,,,,
html-keyboard-response,387,544036,0.0-16.0-0.55,61001b6892ebd05a24fe82e1,650c16f0f2faf8d7a0d14c09,651c1acef4c0a1103a4eb272,null,null,"<p style=""font-size: 60px; font-family: BACS"">aNYmbOJlN</p>",,,,,,,,,,
html-keyboard-response,388,545042,0.0-16.0-0.56,61001b6892ebd05a24fe82e1,650c16f0f2faf8d7a0d14c09,651c1acef4c0a1103a4eb272,null,null,"<p style=""font-size: 60px; font-family: BACS"">aNYmbOJlN</p>",,,,,,,,,,
html-keyboard-response,389,546052,0.0-16.0-0.57,61001b6892ebd05a24fe82e1,650c16f0f2faf8d7a0d14c09,651c1acef4c0a1103a4eb272,null,null,"<p style=""font-size: 60px; font-family: BACS"">aNYmbOJlN</p>",,,,,,,,,,
html-keyboard-response,390,547059,0.0-16.0-0.58,61001b6892ebd05a24fe82e1,650c16f0f2faf8d7a0d14c09,651c1acef4c0a1103a4eb272,null,null,"<p style=""font-size: 60px; font-family: BACS"">aNYmbOJlN</p>",,,,,,,,,,
html-keyboard-response,391,548064,0.0-16.0-0.59,61001b6892ebd05a24fe82e1,650c16f0f2faf8d7a0d14c09,651c1acef4c0a1103a4eb272,null,null,"<p style=""font-size: 60px; font-family: BACS"">aNYmbOJlN</p>",,,,,,,,,,
html-keyboard-response,392,549074,0.0-16.0-0.60,61001b6892ebd05a24fe82e1,650c16f0f2faf8d7a0d14c09,651c1acef4c0a1103a4eb272,null,null,"<p style=""font-size: 60px; font-family: BACS"">aNYmbOJlN</p>",,,,,,,,,,
html-keyboard-response,393,550079,0.0-16.0-0.61,61001b6892ebd05a24fe82e1,650c16f0f2faf8d7a0d14c09,651c1acef4c0a1103a4eb272,null,null,"<p style=""font-size: 60px; font-family: BACS"">aNYmbOJlN</p>",,,,,,,,,,
html-keyboard-response,394,551083,0.0-16.0-0.62,61001b6892ebd05a24fe82e1,650c16f0f2faf8d7a0d14c09,651c1acef4c0a1103a4eb272,null,null,"<p style=""font-size: 60px; font-family: BACS"">aNYmbOJlN</p>",,,,,,,,,,
html-keyboard-response,395,552087,0.0-16.0-0.63,61001b6892ebd05a24fe82e1,650c16f0f2faf8d7a0d14c09,651c1acef4c0a1103a4eb272,null,null,"<p style=""font-size: 60px; font-family: BACS"">aNYmbOJlN</p>",,,,,,,,,,
html-keyboard-response,396,553096,0.0-16.0-0.64,61001b6892ebd05a24fe82e1,650c16f0f2faf8d7a0d14c09,651c1acef4c0a1103a4eb272,null,null,"<p style=""font-size: 60px; font-family: BACS"">aNYmbOJlN</p>",,,,,,,,,,
html-keyboard-response,397,554102,0.0-16.0-0.65,61001b6892ebd05a24fe82e1,650c16f0f2faf8d7a0d14c09,651c1acef4c0a1103a4eb272,null,null,"<p style=""font-size: 60px; font-family: BACS"">aNYmbOJlN</p>",,,,,,,,,,
html-keyboard-response,398,555110,0.0-16.0-0.66,61001b6892ebd05a24fe82e1,650c16f0f2faf8d7a0d14c09,651c1acef4c0a1103a4eb272,null,null,"<p style=""font-size: 60px; font-family: BACS"">aNYmbOJlN</p>",,,,,,,,,,
html-keyboard-response,399,556129,0.0-16.0-0.67,61001b6892ebd05a24fe82e1,650c16f0f2faf8d7a0d14c09,651c1acef4c0a1103a4eb272,null,null,"<p style=""font-size: 60px; font-family: BACS"">aNYmbOJlN</p>",,,,,,,,,,
html-keyboard-response,400,557138,0.0-16.0-0.68,61001b6892ebd05a24fe82e1,650c16f0f2faf8d7a0d14c09,651c1acef4c0a1103a4eb272,null,null,"<p style=""font-size: 60px; font-family: BACS"">aNYmbOJlN</p>",,,,,,,,,,
html-keyboard-response,401,558149,0.0-16.0-0.69,61001b6892ebd05a24fe82e1,650c16f0f2faf8d7a0d14c09,651c1acef4c0a1103a4eb272,null,null,"<p style=""font-size: 60px; font-family: BACS"">aNYmbOJlN</p>",,,,,,,,,,
html-keyboard-response,402,559157,0.0-16.0-0.70,61001b6892ebd05a24fe82e1,650c16f0f2faf8d7a0d14c09,651c1acef4c0a1103a4eb272,null,null,"<p style=""font-size: 60px; font-family: BACS"">aNYmbOJlN</p>",,,,,,,,,,
html-keyboard-response,403,560168,0.0-16.0-0.71,61001b6892ebd05a24fe82e1,650c16f0f2faf8d7a0d14c09,651c1acef4c0a1103a4eb272,null,null,"<p style=""font-size: 60px; font-family: BACS"">aNYmbOJlN</p>",,,,,,,,,,
html-keyboard-response,404,561180,0.0-16.0-0.72,61001b6892ebd05a24fe82e1,650c16f0f2faf8d7a0d14c09,651c1acef4c0a1103a4eb272,null,null,"<p style=""font-size: 60px; font-family: BACS"">aNYmbOJlN</p>",,,,,,,,,,
html-keyboard-response,405,562187,0.0-16.0-0.73,61001b6892ebd05a24fe82e1,650c16f0f2faf8d7a0d14c09,651c1acef4c0a1103a4eb272,null,null,"<p style=""font-size: 60px; font-family: BACS"">aNYmbOJlN</p>",,,,,,,,,,
html-keyboard-response,406,563195,0.0-16.0-0.74,61001b6892ebd05a24fe82e1,650c16f0f2faf8d7a0d14c09,651c1acef4c0a1103a4eb272,null,null,"<p style=""font-size: 60px; font-family: BACS"">aNYmbOJlN</p>",,,,,,,,,,
html-keyboard-response,407,564200,0.0-16.0-0.75,61001b6892ebd05a24fe82e1,650c16f0f2faf8d7a0d14c09,651c1acef4c0a1103a4eb272,null,null,"<p style=""font-size: 60px; font-family: BACS"">aNYmbOJlN</p>",,,,,,,,,,
html-keyboard-response,408,565209,0.0-16.0-0.76,61001b6892ebd05a24fe82e1,650c16f0f2faf8d7a0d14c09,651c1acef4c0a1103a4eb272,null,null,"<p style=""font-size: 60px; font-family: BACS"">aNYmbOJlN</p>",,,,,,,,,,
html-keyboard-response,409,566216,0.0-16.0-0.77,61001b6892ebd05a24fe82e1,650c16f0f2faf8d7a0d14c09,651c1acef4c0a1103a4eb272,null,null,"<p style=""font-size: 60px; font-family: BACS"">aNYmbOJlN</p>",,,,,,,,,,
html-keyboard-response,410,567220,0.0-16.0-0.78,61001b6892ebd05a24fe82e1,650c16f0f2faf8d7a0d14c09,651c1acef4c0a1103a4eb272,null,null,"<p style=""font-size: 60px; font-family: BACS"">aNYmbOJlN</p>",,,,,,,,,,
html-keyboard-response,411,568230,0.0-16.0-0.79,61001b6892ebd05a24fe82e1,650c16f0f2faf8d7a0d14c09,651c1acef4c0a1103a4eb272,null,null,"<p style=""font-size: 60px; font-family: BACS"">aNYmbOJlN</p>",,,,,,,,,,
html-keyboard-response,412,576293,0.0-17.0,61001b6892ebd05a24fe82e1,650c16f0f2faf8d7a0d14c09,651c1acef4c0a1103a4eb272,8060, ,"<p>Great, you've seen the fifth block of words. You may now take a short break.</p>
      <p>Press the spacebar when you're ready to continue.</p>",,,,,,,,,,
html-keyboard-response,413,577296,0.0-18.0-0.0,61001b6892ebd05a24fe82e1,650c16f0f2faf8d7a0d14c09,651c1acef4c0a1103a4eb272,null,null,"<p style=""font-size: 60px; font-family: BACS"">UmNJNUZ</p>",,,,,,,,,,
html-keyboard-response,414,578299,0.0-18.0-0.1,61001b6892ebd05a24fe82e1,650c16f0f2faf8d7a0d14c09,651c1acef4c0a1103a4eb272,null,null,"<p style=""font-size: 60px; font-family: BACS"">AlQaQvcb</p>",,,,,,,,,,
html-keyboard-response,415,579308,0.0-18.0-0.2,61001b6892ebd05a24fe82e1,650c16f0f2faf8d7a0d14c09,651c1acef4c0a1103a4eb272,null,null,"<p style=""font-size: 60px; font-family: BACS"">ckdAmDlDT</p>",,,,,,,,,,
html-keyboard-response,416,580316,0.0-18.0-0.3,61001b6892ebd05a24fe82e1,650c16f0f2faf8d7a0d14c09,651c1acef4c0a1103a4eb272,null,null,"<p style=""font-size: 60px; font-family: BACS"">CRdBdPEdK</p>",,,,,,,,,,
html-keyboard-response,417,581336,0.0-18.0-0.4,61001b6892ebd05a24fe82e1,650c16f0f2faf8d7a0d14c09,651c1acef4c0a1103a4eb272,null,null,"<p style=""font-size: 60px; font-family: BACS"">aUZAYUYa</p>",,,,,,,,,,
html-keyboard-response,418,582346,0.0-18.0-0.5,61001b6892ebd05a24fe82e1,650c16f0f2faf8d7a0d14c09,651c1acef4c0a1103a4eb272,null,null,"<p style=""font-size: 60px; font-family: BACS"">EdBbPEdK</p>",,,,,,,,,,
html-keyboard-response,419,583350,0.0-18.0-0.6,61001b6892ebd05a24fe82e1,650c16f0f2faf8d7a0d14c09,651c1acef4c0a1103a4eb272,null,null,"<p style=""font-size: 60px; font-family: BACS"">ODBDARdCc</p>",,,,,,,,,,
html-keyboard-response,420,584358,0.0-18.0-0.7,61001b6892ebd05a24fe82e1,650c16f0f2faf8d7a0d14c09,651c1acef4c0a1103a4eb272,null,null,"<p style=""font-size: 60px; font-family: BACS"">AmaclYUYa</p>",,,,,,,,,,
html-keyboard-response,421,585363,0.0-18.0-0.8,61001b6892ebd05a24fe82e1,650c16f0f2faf8d7a0d14c09,651c1acef4c0a1103a4eb272,null,null,"<p style=""font-size: 60px; font-family: BACS"">AlQaQNUZ</p>",,,,,,,,,,
html-keyboard-response,422,586374,0.0-18.0-0.9,61001b6892ebd05a24fe82e1,650c16f0f2faf8d7a0d14c09,651c1acef4c0a1103a4eb272,null,null,"<p style=""font-size: 60px; font-family: BACS"">UmNJvcb</p>",,,,,,,,,,
html-keyboard-response,423,587381,0.0-18.0-0.10,61001b6892ebd05a24fe82e1,650c16f0f2faf8d7a0d14c09,651c1acef4c0a1103a4eb272,null,null,"<p style=""font-size: 60px; font-family: BACS"">OdlNmNUZ</p>",,,,,,,,,,
html-keyboard-response,424,588385,0.0-18.0-0.11,61001b6892ebd05a24fe82e1,650c16f0f2faf8d7a0d14c09,651c1acef4c0a1103a4eb272,null,null,"<p style=""font-size: 60px; font-family: BACS"">hlbtbPEdK</p>",,,,,,,,,,
html-keyboard-response,425,589397,0.0-18.0-0.12,61001b6892ebd05a24fe82e1,650c16f0f2faf8d7a0d14c09,651c1acef4c0a1103a4eb272,null,null,"<p style=""font-size: 60px; font-family: BACS"">aUZArGl</p>",,,,,,,,,,
html-keyboard-response,426,590404,0.0-18.0-0.13,61001b6892ebd05a24fe82e1,650c16f0f2faf8d7a0d14c09,651c1acef4c0a1103a4eb272,null,null,"<p style=""font-size: 60px; font-family: BACS"">OdlNmOJlN</p>",,,,,,,,,,
html-keyboard-response,427,591412,0.0-18.0-0.14,61001b6892ebd05a24fe82e1,650c16f0f2faf8d7a0d14c09,651c1acef4c0a1103a4eb272,null,null,"<p style=""font-size: 60px; font-family: BACS"">YJkbrGl</p>",,,,,,,,,,
html-keyboard-response,428,592415,0.0-18.0-0.15,61001b6892ebd05a24fe82e1,650c16f0f2faf8d7a0d14c09,651c1acef4c0a1103a4eb272,null,null,"<p style=""font-size: 60px; font-family: BACS"">bRABtRdCc</p>",,,,,,,,,,
html-keyboard-response,429,593420,0.0-18.0-0.16,61001b6892ebd05a24fe82e1,650c16f0f2faf8d7a0d14c09,651c1acef4c0a1103a4eb272,null,null,"<p style=""font-size: 60px; font-family: BACS"">ctktRDM</p>",,,,,,,,,,
html-keyboard-response,430,594430,0.0-18.0-0.17,61001b6892ebd05a24fe82e1,650c16f0f2faf8d7a0d14c09,651c1acef4c0a1103a4eb272,null,null,"<p style=""font-size: 60px; font-family: BACS"">TbKMEPEdK</p>",,,,,,,,,,
html-keyboard-response,431,595438,0.0-18.0-0.18,61001b6892ebd05a24fe82e1,650c16f0f2faf8d7a0d14c09,651c1acef4c0a1103a4eb272,null,null,"<p style=""font-size: 60px; font-family: BACS"">AlQaQYUYa</p>",,,,,,,,,,
html-keyboard-response,432,596453,0.0-18.0-0.19,61001b6892ebd05a24fe82e1,650c16f0f2faf8d7a0d14c09,651c1acef4c0a1103a4eb272,null,null,"<p style=""font-size: 60px; font-family: BACS"">ckdAmRDM</p>",,,,,,,,,,
html-keyboard-response,433,597469,0.0-18.0-0.20,61001b6892ebd05a24fe82e1,650c16f0f2faf8d7a0d14c09,651c1acef4c0a1103a4eb272,null,null,"<p style=""font-size: 60px; font-family: BACS"">TbKMEPED</p>",,,,,,,,,,
html-keyboard-response,434,598480,0.0-18.0-0.21,61001b6892ebd05a24fe82e1,650c16f0f2faf8d7a0d14c09,651c1acef4c0a1103a4eb272,null,null,"<p style=""font-size: 60px; font-family: BACS"">KAERMRdCc</p>",,,,,,,,,,
html-keyboard-response,435,599491,0.0-18.0-0.22,61001b6892ebd05a24fe82e1,650c16f0f2faf8d7a0d14c09,651c1acef4c0a1103a4eb272,null,null,"<p style=""font-size: 60px; font-family: BACS"">OdlNmrGl</p>",,,,,,,,,,
html-keyboard-response,436,600500,0.0-18.0-0.23,61001b6892ebd05a24fe82e1,650c16f0f2faf8d7a0d14c09,651c1acef4c0a1103a4eb272,null,null,"<p style=""font-size: 60px; font-family: BACS"">KAERMPED</p>",,,,,,,,,,
html-keyboard-response,437,601508,0.0-18.0-0.24,61001b6892ebd05a24fe82e1,650c16f0f2faf8d7a0d14c09,651c1acef4c0a1103a4eb272,null,null,"<p style=""font-size: 60px; font-family: BACS"">ctktDlDT</p>",,,,,,,,,,
html-keyboard-response,438,602518,0.0-18.0-0.25,61001b6892ebd05a24fe82e1,650c16f0f2faf8d7a0d14c09,651c1acef4c0a1103a4eb272,null,null,"<p style=""font-size: 60px; font-family: BACS"">CRdBdRDM</p>",,,,,,,,,,
html-keyboard-response,439,603531,0.0-18.0-0.26,61001b6892ebd05a24fe82e1,650c16f0f2faf8d7a0d14c09,651c1acef4c0a1103a4eb272,null,null,"<p style=""font-size: 60px; font-family: BACS"">vuJZurGl</p>",,,,,,,,,,
html-keyboard-response,440,604540,0.0-18.0-0.27,61001b6892ebd05a24fe82e1,650c16f0f2faf8d7a0d14c09,651c1acef4c0a1103a4eb272,null,null,"<p style=""font-size: 60px; font-family: BACS"">CRdBdRdCc</p>",,,,,,,,,,
html-keyboard-response,441,605547,0.0-18.0-0.28,61001b6892ebd05a24fe82e1,650c16f0f2faf8d7a0d14c09,651c1acef4c0a1103a4eb272,null,null,"<p style=""font-size: 60px; font-family: BACS"">ckdAmPEdK</p>",,,,,,,,,,
html-keyboard-response,442,606552,0.0-18.0-0.29,61001b6892ebd05a24fe82e1,650c16f0f2faf8d7a0d14c09,651c1acef4c0a1103a4eb272,null,null,"<p style=""font-size: 60px; font-family: BACS"">ctktRdCc</p>",,,,,,,,,,
html-keyboard-response,443,607553,0.0-18.0-0.30,61001b6892ebd05a24fe82e1,650c16f0f2faf8d7a0d14c09,651c1acef4c0a1103a4eb272,null,null,"<p style=""font-size: 60px; font-family: BACS"">CRdBdDlDT</p>",,,,,,,,,,
html-keyboard-response,444,608557,0.0-18.0-0.31,61001b6892ebd05a24fe82e1,650c16f0f2faf8d7a0d14c09,651c1acef4c0a1103a4eb272,null,null,"<p style=""font-size: 60px; font-family: BACS"">ckdAmRdCc</p>",,,,,,,,,,
html-keyboard-response,445,609565,0.0-18.0-0.32,61001b6892ebd05a24fe82e1,650c16f0f2faf8d7a0d14c09,651c1acef4c0a1103a4eb272,null,null,"<p style=""font-size: 60px; font-family: BACS"">mbZlNUZ</p>",,,,,,,,,,
html-keyboard-response,446,610568,0.0-18.0-0.33,61001b6892ebd05a24fe82e1,650c16f0f2faf8d7a0d14c09,651c1acef4c0a1103a4eb272,null,null,"<p style=""font-size: 60px; font-family: BACS"">aUZAOJlN</p>",,,,,,,,,,
html-keyboard-response,447,611573,0.0-18.0-0.34,61001b6892ebd05a24fe82e1,650c16f0f2faf8d7a0d14c09,651c1acef4c0a1103a4eb272,null,null,"<p style=""font-size: 60px; font-family: BACS"">KAERMPEdK</p>",,,,,,,,,,
html-keyboard-response,448,612581,0.0-18.0-0.35,61001b6892ebd05a24fe82e1,650c16f0f2faf8d7a0d14c09,651c1acef4c0a1103a4eb272,null,null,"<p style=""font-size: 60px; font-family: BACS"">aNYmbOJlN</p>",,,,,,,,,,
html-keyboard-response,449,613587,0.0-18.0-0.36,61001b6892ebd05a24fe82e1,650c16f0f2faf8d7a0d14c09,651c1acef4c0a1103a4eb272,null,null,"<p style=""font-size: 60px; font-family: BACS"">UmNJrGl</p>",,,,,,,,,,
html-keyboard-response,450,614599,0.0-18.0-0.37,61001b6892ebd05a24fe82e1,650c16f0f2faf8d7a0d14c09,651c1acef4c0a1103a4eb272,null,null,"<p style=""font-size: 60px; font-family: BACS"">YJkbNUZ</p>",,,,,,,,,,
html-keyboard-response,451,615618,0.0-18.0-0.38,61001b6892ebd05a24fe82e1,650c16f0f2faf8d7a0d14c09,651c1acef4c0a1103a4eb272,null,null,"<p style=""font-size: 60px; font-family: BACS"">dCtMARDM</p>",,,,,,,,,,
html-keyboard-response,452,616628,0.0-18.0-0.39,61001b6892ebd05a24fe82e1,650c16f0f2faf8d7a0d14c09,651c1acef4c0a1103a4eb272,null,null,"<p style=""font-size: 60px; font-family: BACS"">hlbtbDlDT</p>",,,,,,,,,,
html-keyboard-response,453,617638,0.0-18.0-0.40,61001b6892ebd05a24fe82e1,650c16f0f2faf8d7a0d14c09,651c1acef4c0a1103a4eb272,null,null,"<p style=""font-size: 60px; font-family: BACS"">mbZlOJlN</p>",,,,,,,,,,
html-keyboard-response,454,618657,0.0-18.0-0.41,61001b6892ebd05a24fe82e1,650c16f0f2faf8d7a0d14c09,651c1acef4c0a1103a4eb272,null,null,"<p style=""font-size: 60px; font-family: BACS"">aUZANUZ</p>",,,,,,,,,,
html-keyboard-response,455,619669,0.0-18.0-0.42,61001b6892ebd05a24fe82e1,650c16f0f2faf8d7a0d14c09,651c1acef4c0a1103a4eb272,null,null,"<p style=""font-size: 60px; font-family: BACS"">dCtMARdCc</p>",,,,,,,,,,
html-keyboard-response,456,620673,0.0-18.0-0.43,61001b6892ebd05a24fe82e1,650c16f0f2faf8d7a0d14c09,651c1acef4c0a1103a4eb272,null,null,"<p style=""font-size: 60px; font-family: BACS"">ODBDARDM</p>",,,,,,,,,,
html-keyboard-response,457,621676,0.0-18.0-0.44,61001b6892ebd05a24fe82e1,650c16f0f2faf8d7a0d14c09,651c1acef4c0a1103a4eb272,null,null,"<p style=""font-size: 60px; font-family: BACS"">YJkbYUYa</p>",,,,,,,,,,
html-keyboard-response,458,622681,0.0-18.0-0.45,61001b6892ebd05a24fe82e1,650c16f0f2faf8d7a0d14c09,651c1acef4c0a1103a4eb272,null,null,"<p style=""font-size: 60px; font-family: BACS"">bvuZrGl</p>",,,,,,,,,,
html-keyboard-response,459,623696,0.0-18.0-0.46,61001b6892ebd05a24fe82e1,650c16f0f2faf8d7a0d14c09,651c1acef4c0a1103a4eb272,null,null,"<p style=""font-size: 60px; font-family: BACS"">vuJZuvcb</p>",,,,,,,,,,
html-keyboard-response,460,624705,0.0-18.0-0.47,61001b6892ebd05a24fe82e1,650c16f0f2faf8d7a0d14c09,651c1acef4c0a1103a4eb272,null,null,"<p style=""font-size: 60px; font-family: BACS"">aNYmbrGl</p>",,,,,,,,,,
html-keyboard-response,461,625710,0.0-18.0-0.48,61001b6892ebd05a24fe82e1,650c16f0f2faf8d7a0d14c09,651c1acef4c0a1103a4eb272,null,null,"<p style=""font-size: 60px; font-family: BACS"">bvuZYUYa</p>",,,,,,,,,,
html-keyboard-response,462,626715,0.0-18.0-0.49,61001b6892ebd05a24fe82e1,650c16f0f2faf8d7a0d14c09,651c1acef4c0a1103a4eb272,null,null,"<p style=""font-size: 60px; font-family: BACS"">AlQaQrGl</p>",,,,,,,,,,
html-keyboard-response,463,627735,0.0-18.0-0.50,61001b6892ebd05a24fe82e1,650c16f0f2faf8d7a0d14c09,651c1acef4c0a1103a4eb272,null,null,"<p style=""font-size: 60px; font-family: BACS"">ODBDAPED</p>",,,,,,,,,,
html-keyboard-response,464,628746,0.0-18.0-0.51,61001b6892ebd05a24fe82e1,650c16f0f2faf8d7a0d14c09,651c1acef4c0a1103a4eb272,null,null,"<p style=""font-size: 60px; font-family: BACS"">bvuZvcb</p>",,,,,,,,,,
html-keyboard-response,465,629754,0.0-18.0-0.52,61001b6892ebd05a24fe82e1,650c16f0f2faf8d7a0d14c09,651c1acef4c0a1103a4eb272,null,null,"<p style=""font-size: 60px; font-family: BACS"">EdBbRDM</p>",,,,,,,,,,
html-keyboard-response,466,630768,0.0-18.0-0.53,61001b6892ebd05a24fe82e1,650c16f0f2faf8d7a0d14c09,651c1acef4c0a1103a4eb272,null,null,"<p style=""font-size: 60px; font-family: BACS"">dCtMAPED</p>",,,,,,,,,,
html-keyboard-response,467,631778,0.0-18.0-0.54,61001b6892ebd05a24fe82e1,650c16f0f2faf8d7a0d14c09,651c1acef4c0a1103a4eb272,null,null,"<p style=""font-size: 60px; font-family: BACS"">bRABtPEdK</p>",,,,,,,,,,
