trial_type,trial_index,time_elapsed,internal_node_id,subject_id,study_id,session_id,rt,response,stimulus,success,item,task,correct_response,testing_condition,correct,target,confound,name,view_history
pavlovia,0,2898,0.0-0.0,6120211d8e1eab16fcb7ad69,650c16f0f2faf8d7a0d14c09,651c1e90371af10733e73995,,,,,,,,,,,,,
survey-html-form,1,18435,0.0-1.0,6120211d8e1eab16fcb7ad69,650c16f0f2faf8d7a0d14c09,651c1e90371af10733e73995,15529,"{""ID"":""6120211d8e1eab16fcb7ad69""}",,,,,,,,,,,
html-keyboard-response,2,123842,0.0-2.0,6120211d8e1eab16fcb7ad69,650c16f0f2faf8d7a0d14c09,651c1e90371af10733e73995,105359, ,"<p style=""font-size: 15px;"">Before beginning, we ask that you read the consent information and confirm your agreement to participate in the experiment.</p>
      <p style=""font-size: 15px;""> We ask that you remember that this is a research project and that your participation is entirely voluntary. You can stop your participation at any time, without needing to provide any explanation. The study we're asking you to participate in aims at examining how readers process written words. You will be engaged in a session of apprximately 20 minutes, followed by a brief questionnaire. You will have the opportunity to take a few breaks during the experiment. You will be paid £4 for your participation, corresponding to a rate of £8/hour. While this experiment looks at cognitive faculties, this experiment doesn't constitute clinical proof of eventual pathologies.</p>
      <p style=""font-size: 15px;"">All of the information collected thanks to yours and others' participation will be held in a secure password-protected server, and will not be shared with anyone not authorised to view it. Your personal information will be kept with an arbitrary participant ID. Thanks to this data anonymity process, any researcher analysing the data won't be able to track the information back to a specific participant. Therefore, this process will make identifying you impossibile, even when results from the study will be published in scientific reviews, presented at congresses, or at any other public forum. More generally, the collected data will be treated in accordance with the laws on privacy and conformity to the Legislative Degree n. 196 ""Code regarding the protection of personal data"" of the 30th of June 2003 and to the European Regulation 2016/670 (General Data Protection Regulation - GDPR). The Data Protection Officer is Avv. Valentina Carollo, who can be contacted at the following email addresses: <a href=""mailto:dpo@sissa.it"">dpo@sissa.it</a> or <a href=""mailto:rpd@sissa.it"">rpd@sissa.it</a> - PEC: <a href=""mailto:protocollo@pec.sissa.it"">protocollo@pec.sissa.it</a>.</p>
      <p style=""font-size: 15px;""> Before expressing your consent to participate, we would like to remind you again that in case you need explanations on any aspect of the experimental procedure, the researcher is at your disposition (<a href=""mailto:aliebelt@sissa.it"">aliebelt@sissa.it</a>, <a href=""mailto:davide.crepaldi@sissa.it"">davide.crepaldi@sissa.it</a>).</p>
      <p style=""font-size: 15px;"">If you would like to download the informed consent form, you can do so here: <a href=""BASL-Informed_Consent.pdf"" download>informed consent form</a>.</p>
      <p style=""font-size: 15px;"">We ask that you press the spacebar to proceed to the consent section.</p>",,,,,,,,,,
survey-html-form,3,166734,0.0-3.0,6120211d8e1eab16fcb7ad69,650c16f0f2faf8d7a0d14c09,651c1e90371af10733e73995,42886,"{""consent1"":""YES"",""consent2"":""YES"",""consent3"":""YES"",""consent4"":""YES"",""consent5"":""YES"",""consent6"":""YES""}",,,,,,,,,,,
fullscreen,4,181409,0.0-4.0,6120211d8e1eab16fcb7ad69,650c16f0f2faf8d7a0d14c09,651c1e90371af10733e73995,,,,TRUE,,,,,,,,,
html-keyboard-response,5,227674,0.0-5.0,6120211d8e1eab16fcb7ad69,650c16f0f2faf8d7a0d14c09,651c1e90371af10733e73995,46263, ,"<p>Welcome, and thank you very much for your time!</p>
      <p>In this experiment, you'll be a language expert who's been asked to take a look at words that Earth has received in its first communication with aliens. Your task, in this first part of the experiment, is to pay close attention to the words you'll be shown; later, world leaders will ask you questions on what you saw. The words will be shown to you quite quickly; it seems that the aliens were in a hurry :-)</p>
      <p>Press the spacebar to continue.<p>",,,,,,,,,,
html-keyboard-response,6,227728,0.0-6.0,6120211d8e1eab16fcb7ad69,650c16f0f2faf8d7a0d14c09,651c1e90371af10733e73995,null,null,"<p style=""font-size: 120px; font-family: BACS""> </p>",,,,,,,,,,
html-keyboard-response,7,291163,0.0-7.0,6120211d8e1eab16fcb7ad69,650c16f0f2faf8d7a0d14c09,651c1e90371af10733e73995,63434, ,"<p>Here is an example of the words you'll see:</p>
      <img src='esempio.png' height='400px'>
      <p>When you're ready to begin, press the spacebar.</p></div>",,,,,,,,,,
html-keyboard-response,8,292168,0.0-8.0-0.0,6120211d8e1eab16fcb7ad69,650c16f0f2faf8d7a0d14c09,651c1e90371af10733e73995,null,null,"<p style=""font-size: 60px; font-family: BACS"">hkRKYDE</p>",,,,,,,,,,
html-keyboard-response,9,293170,0.0-8.0-0.1,6120211d8e1eab16fcb7ad69,650c16f0f2faf8d7a0d14c09,651c1e90371af10733e73995,null,null,"<p style=""font-size: 60px; font-family: BACS"">dClOCBbM</p>",,,,,,,,,,
html-keyboard-response,10,294173,0.0-8.0-0.2,6120211d8e1eab16fcb7ad69,650c16f0f2faf8d7a0d14c09,651c1e90371af10733e73995,null,null,"<p style=""font-size: 60px; font-family: BACS"">EtMDMmKcD</p>",,,,,,,,,,
html-keyboard-response,11,295175,0.0-8.0-0.3,6120211d8e1eab16fcb7ad69,650c16f0f2faf8d7a0d14c09,651c1e90371af10733e73995,null,null,"<p style=""font-size: 60px; font-family: BACS"">vAuNlrZYd</p>",,,,,,,,,,
html-keyboard-response,12,296178,0.0-8.0-0.4,6120211d8e1eab16fcb7ad69,650c16f0f2faf8d7a0d14c09,651c1e90371af10733e73995,null,null,"<p style=""font-size: 60px; font-family: BACS"">CkBOPBbM</p>",,,,,,,,,,
html-keyboard-response,13,297180,0.0-8.0-0.5,6120211d8e1eab16fcb7ad69,650c16f0f2faf8d7a0d14c09,651c1e90371af10733e73995,null,null,"<p style=""font-size: 60px; font-family: BACS"">EdBbAlKD</p>",,,,,,,,,,
html-keyboard-response,14,298183,0.0-8.0-0.6,6120211d8e1eab16fcb7ad69,650c16f0f2faf8d7a0d14c09,651c1e90371af10733e73995,null,null,"<p style=""font-size: 60px; font-family: BACS"">vQdObLd</p>",,,,,,,,,,
html-keyboard-response,15,299187,0.0-8.0-0.7,6120211d8e1eab16fcb7ad69,650c16f0f2faf8d7a0d14c09,651c1e90371af10733e73995,null,null,"<p style=""font-size: 60px; font-family: BACS"">mbZlkJdr</p>",,,,,,,,,,
html-keyboard-response,16,300192,0.0-8.0-0.8,6120211d8e1eab16fcb7ad69,650c16f0f2faf8d7a0d14c09,651c1e90371af10733e73995,null,null,"<p style=""font-size: 60px; font-family: BACS"">UdbdJQA</p>",,,,,,,,,,
html-keyboard-response,17,301195,0.0-8.0-0.9,6120211d8e1eab16fcb7ad69,650c16f0f2faf8d7a0d14c09,651c1e90371af10733e73995,null,null,"<p style=""font-size: 60px; font-family: BACS"">DhMtmKcD</p>",,,,,,,,,,
html-keyboard-response,18,302200,0.0-8.0-0.10,6120211d8e1eab16fcb7ad69,650c16f0f2faf8d7a0d14c09,651c1e90371af10733e73995,null,null,"<p style=""font-size: 60px; font-family: BACS"">dClOCYDE</p>",,,,,,,,,,
html-keyboard-response,19,303204,0.0-8.0-0.11,6120211d8e1eab16fcb7ad69,650c16f0f2faf8d7a0d14c09,651c1e90371af10733e73995,null,null,"<p style=""font-size: 60px; font-family: BACS"">mbZlJQA</p>",,,,,,,,,,
html-keyboard-response,20,304207,0.0-8.0-0.12,6120211d8e1eab16fcb7ad69,650c16f0f2faf8d7a0d14c09,651c1e90371af10733e73995,null,null,"<p style=""font-size: 60px; font-family: BACS"">EhbtAlKD</p>",,,,,,,,,,
html-keyboard-response,21,305210,0.0-8.0-0.13,6120211d8e1eab16fcb7ad69,650c16f0f2faf8d7a0d14c09,651c1e90371af10733e73995,null,null,"<p style=""font-size: 60px; font-family: BACS"">vQdOkJdr</p>",,,,,,,,,,
html-keyboard-response,22,306211,0.0-8.0-0.14,6120211d8e1eab16fcb7ad69,650c16f0f2faf8d7a0d14c09,651c1e90371af10733e73995,null,null,"<p style=""font-size: 60px; font-family: BACS"">EdBbYDE</p>",,,,,,,,,,
html-keyboard-response,23,307212,0.0-8.0-0.15,6120211d8e1eab16fcb7ad69,650c16f0f2faf8d7a0d14c09,651c1e90371af10733e73995,null,null,"<p style=""font-size: 60px; font-family: BACS"">vAuNlJQA</p>",,,,,,,,,,
html-keyboard-response,24,308214,0.0-8.0-0.16,6120211d8e1eab16fcb7ad69,650c16f0f2faf8d7a0d14c09,651c1e90371af10733e73995,null,null,"<p style=""font-size: 60px; font-family: BACS"">LvuOGbLd</p>",,,,,,,,,,
html-keyboard-response,25,309216,0.0-8.0-0.17,6120211d8e1eab16fcb7ad69,650c16f0f2faf8d7a0d14c09,651c1e90371af10733e73995,null,null,"<p style=""font-size: 60px; font-family: BACS"">hkRKAlKD</p>",,,,,,,,,,
html-keyboard-response,26,310218,0.0-8.0-0.18,6120211d8e1eab16fcb7ad69,650c16f0f2faf8d7a0d14c09,651c1e90371af10733e73995,null,null,"<p style=""font-size: 60px; font-family: BACS"">TDKhkMEC</p>",,,,,,,,,,
html-keyboard-response,27,311220,0.0-8.0-0.19,6120211d8e1eab16fcb7ad69,650c16f0f2faf8d7a0d14c09,651c1e90371af10733e73995,null,null,"<p style=""font-size: 60px; font-family: BACS"">LvuOGJQA</p>",,,,,,,,,,
html-keyboard-response,28,312222,0.0-8.0-0.20,6120211d8e1eab16fcb7ad69,650c16f0f2faf8d7a0d14c09,651c1e90371af10733e73995,null,null,"<p style=""font-size: 60px; font-family: BACS"">EdBbkMEC</p>",,,,,,,,,,
html-keyboard-response,29,313224,0.0-8.0-0.21,6120211d8e1eab16fcb7ad69,650c16f0f2faf8d7a0d14c09,651c1e90371af10733e73995,null,null,"<p style=""font-size: 60px; font-family: BACS"">DhMtBbM</p>",,,,,,,,,,
html-keyboard-response,30,314226,0.0-8.0-0.22,6120211d8e1eab16fcb7ad69,650c16f0f2faf8d7a0d14c09,651c1e90371af10733e73995,null,null,"<p style=""font-size: 60px; font-family: BACS"">bGuOYZJO</p>",,,,,,,,,,
html-keyboard-response,31,315230,0.0-8.0-0.23,6120211d8e1eab16fcb7ad69,650c16f0f2faf8d7a0d14c09,651c1e90371af10733e73995,null,null,"<p style=""font-size: 60px; font-family: BACS"">dClOCAlKD</p>",,,,,,,,,,
html-keyboard-response,32,316233,0.0-8.0-0.24,6120211d8e1eab16fcb7ad69,650c16f0f2faf8d7a0d14c09,651c1e90371af10733e73995,null,null,"<p style=""font-size: 60px; font-family: BACS"">hAROKBbM</p>",,,,,,,,,,
html-keyboard-response,33,317237,0.0-8.0-0.25,6120211d8e1eab16fcb7ad69,650c16f0f2faf8d7a0d14c09,651c1e90371af10733e73995,null,null,"<p style=""font-size: 60px; font-family: BACS"">YQbcbLd</p>",,,,,,,,,,
html-keyboard-response,34,318240,0.0-8.0-0.26,6120211d8e1eab16fcb7ad69,650c16f0f2faf8d7a0d14c09,651c1e90371af10733e73995,null,null,"<p style=""font-size: 60px; font-family: BACS"">TAdhMkMEC</p>",,,,,,,,,,
html-keyboard-response,35,319244,0.0-8.0-0.27,6120211d8e1eab16fcb7ad69,650c16f0f2faf8d7a0d14c09,651c1e90371af10733e73995,null,null,"<p style=""font-size: 60px; font-family: BACS"">vYLUJQA</p>",,,,,,,,,,
html-keyboard-response,36,320251,0.0-8.0-0.28,6120211d8e1eab16fcb7ad69,650c16f0f2faf8d7a0d14c09,651c1e90371af10733e73995,null,null,"<p style=""font-size: 60px; font-family: BACS"">mbZlbLd</p>",,,,,,,,,,
html-keyboard-response,37,321253,0.0-8.0-0.29,6120211d8e1eab16fcb7ad69,650c16f0f2faf8d7a0d14c09,651c1e90371af10733e73995,null,null,"<p style=""font-size: 60px; font-family: BACS"">CkBOPAlKD</p>",,,,,,,,,,
html-keyboard-response,38,322256,0.0-8.0-0.30,6120211d8e1eab16fcb7ad69,650c16f0f2faf8d7a0d14c09,651c1e90371af10733e73995,null,null,"<p style=""font-size: 60px; font-family: BACS"">UdbdrZYd</p>",,,,,,,,,,
html-keyboard-response,39,323259,0.0-8.0-0.31,6120211d8e1eab16fcb7ad69,650c16f0f2faf8d7a0d14c09,651c1e90371af10733e73995,null,null,"<p style=""font-size: 60px; font-family: BACS"">TDKhBbM</p>",,,,,,,,,,
html-keyboard-response,40,324270,0.0-8.0-0.32,6120211d8e1eab16fcb7ad69,650c16f0f2faf8d7a0d14c09,651c1e90371af10733e73995,null,null,"<p style=""font-size: 60px; font-family: BACS"">uQuZcbLd</p>",,,,,,,,,,
html-keyboard-response,41,325275,0.0-8.0-0.33,6120211d8e1eab16fcb7ad69,650c16f0f2faf8d7a0d14c09,651c1e90371af10733e73995,null,null,"<p style=""font-size: 60px; font-family: BACS"">hAROKkMEC</p>",,,,,,,,,,
html-keyboard-response,42,326278,0.0-8.0-0.34,6120211d8e1eab16fcb7ad69,650c16f0f2faf8d7a0d14c09,651c1e90371af10733e73995,null,null,"<p style=""font-size: 60px; font-family: BACS"">EhbtmKcD</p>",,,,,,,,,,
html-keyboard-response,43,327280,0.0-8.0-0.35,6120211d8e1eab16fcb7ad69,650c16f0f2faf8d7a0d14c09,651c1e90371af10733e73995,null,null,"<p style=""font-size: 60px; font-family: BACS"">vQdOrZYd</p>",,,,,,,,,,
html-keyboard-response,44,328282,0.0-8.0-0.36,6120211d8e1eab16fcb7ad69,650c16f0f2faf8d7a0d14c09,651c1e90371af10733e73995,null,null,"<p style=""font-size: 60px; font-family: BACS"">YQbcJQA</p>",,,,,,,,,,
html-keyboard-response,45,329285,0.0-8.0-0.37,6120211d8e1eab16fcb7ad69,650c16f0f2faf8d7a0d14c09,651c1e90371af10733e73995,null,null,"<p style=""font-size: 60px; font-family: BACS"">vAuNlYZJO</p>",,,,,,,,,,
html-keyboard-response,46,330288,0.0-8.0-0.38,6120211d8e1eab16fcb7ad69,650c16f0f2faf8d7a0d14c09,651c1e90371af10733e73995,null,null,"<p style=""font-size: 60px; font-family: BACS"">hAROKYDE</p>",,,,,,,,,,
html-keyboard-response,47,331290,0.0-8.0-0.39,6120211d8e1eab16fcb7ad69,650c16f0f2faf8d7a0d14c09,651c1e90371af10733e73995,null,null,"<p style=""font-size: 60px; font-family: BACS"">advYOrZYd</p>",,,,,,,,,,
html-keyboard-response,48,332294,0.0-8.0-0.40,6120211d8e1eab16fcb7ad69,650c16f0f2faf8d7a0d14c09,651c1e90371af10733e73995,null,null,"<p style=""font-size: 60px; font-family: BACS"">EtMDMkMEC</p>",,,,,,,,,,
html-keyboard-response,49,333297,0.0-8.0-0.41,6120211d8e1eab16fcb7ad69,650c16f0f2faf8d7a0d14c09,651c1e90371af10733e73995,null,null,"<p style=""font-size: 60px; font-family: BACS"">uQuZcJQA</p>",,,,,,,,,,
html-keyboard-response,50,334301,0.0-8.0-0.42,6120211d8e1eab16fcb7ad69,650c16f0f2faf8d7a0d14c09,651c1e90371af10733e73995,null,null,"<p style=""font-size: 60px; font-family: BACS"">vAuNlbLd</p>",,,,,,,,,,
html-keyboard-response,51,335304,0.0-8.0-0.43,6120211d8e1eab16fcb7ad69,650c16f0f2faf8d7a0d14c09,651c1e90371af10733e73995,null,null,"<p style=""font-size: 60px; font-family: BACS"">bGuOJQA</p>",,,,,,,,,,
html-keyboard-response,52,336307,0.0-8.0-0.44,6120211d8e1eab16fcb7ad69,650c16f0f2faf8d7a0d14c09,651c1e90371af10733e73995,null,null,"<p style=""font-size: 60px; font-family: BACS"">uQuZcrZYd</p>",,,,,,,,,,
html-keyboard-response,53,337309,0.0-8.0-0.45,6120211d8e1eab16fcb7ad69,650c16f0f2faf8d7a0d14c09,651c1e90371af10733e73995,null,null,"<p style=""font-size: 60px; font-family: BACS"">EtMDMAlKD</p>",,,,,,,,,,
html-keyboard-response,54,338313,0.0-8.0-0.46,6120211d8e1eab16fcb7ad69,650c16f0f2faf8d7a0d14c09,651c1e90371af10733e73995,null,null,"<p style=""font-size: 60px; font-family: BACS"">TDKhYDE</p>",,,,,,,,,,
html-keyboard-response,55,339314,0.0-8.0-0.47,6120211d8e1eab16fcb7ad69,650c16f0f2faf8d7a0d14c09,651c1e90371af10733e73995,null,null,"<p style=""font-size: 60px; font-family: BACS"">DhMtkMEC</p>",,,,,,,,,,
html-keyboard-response,56,340316,0.0-8.0-0.48,6120211d8e1eab16fcb7ad69,650c16f0f2faf8d7a0d14c09,651c1e90371af10733e73995,null,null,"<p style=""font-size: 60px; font-family: BACS"">vYLUbLd</p>",,,,,,,,,,
html-keyboard-response,57,341319,0.0-8.0-0.49,6120211d8e1eab16fcb7ad69,650c16f0f2faf8d7a0d14c09,651c1e90371af10733e73995,null,null,"<p style=""font-size: 60px; font-family: BACS"">UdbdYZJO</p>",,,,,,,,,,
html-keyboard-response,58,342322,0.0-8.0-0.50,6120211d8e1eab16fcb7ad69,650c16f0f2faf8d7a0d14c09,651c1e90371af10733e73995,null,null,"<p style=""font-size: 60px; font-family: BACS"">TAdhMBbM</p>",,,,,,,,,,
html-keyboard-response,59,343325,0.0-8.0-0.51,6120211d8e1eab16fcb7ad69,650c16f0f2faf8d7a0d14c09,651c1e90371af10733e73995,null,null,"<p style=""font-size: 60px; font-family: BACS"">bGuOrZYd</p>",,,,,,,,,,
html-keyboard-response,60,344327,0.0-8.0-0.52,6120211d8e1eab16fcb7ad69,650c16f0f2faf8d7a0d14c09,651c1e90371af10733e73995,null,null,"<p style=""font-size: 60px; font-family: BACS"">EtMDMYDE</p>",,,,,,,,,,
html-keyboard-response,61,345329,0.0-8.0-0.53,6120211d8e1eab16fcb7ad69,650c16f0f2faf8d7a0d14c09,651c1e90371af10733e73995,null,null,"<p style=""font-size: 60px; font-family: BACS"">uQuZcYZJO</p>",,,,,,,,,,
html-keyboard-response,62,346331,0.0-8.0-0.54,6120211d8e1eab16fcb7ad69,650c16f0f2faf8d7a0d14c09,651c1e90371af10733e73995,null,null,"<p style=""font-size: 60px; font-family: BACS"">CkBOPkMEC</p>",,,,,,,,,,
html-keyboard-response,63,347334,0.0-8.0-0.55,6120211d8e1eab16fcb7ad69,650c16f0f2faf8d7a0d14c09,651c1e90371af10733e73995,null,null,"<p style=""font-size: 60px; font-family: BACS"">UdbdkJdr</p>",,,,,,,,,,
html-keyboard-response,64,348338,0.0-8.0-0.56,6120211d8e1eab16fcb7ad69,650c16f0f2faf8d7a0d14c09,651c1e90371af10733e73995,null,null,"<p style=""font-size: 60px; font-family: BACS"">hAROKmKcD</p>",,,,,,,,,,
html-keyboard-response,65,349341,0.0-8.0-0.57,6120211d8e1eab16fcb7ad69,650c16f0f2faf8d7a0d14c09,651c1e90371af10733e73995,null,null,"<p style=""font-size: 60px; font-family: BACS"">vYLUrZYd</p>",,,,,,,,,,
html-keyboard-response,66,350343,0.0-8.0-0.58,6120211d8e1eab16fcb7ad69,650c16f0f2faf8d7a0d14c09,651c1e90371af10733e73995,null,null,"<p style=""font-size: 60px; font-family: BACS"">TAdhMYDE</p>",,,,,,,,,,
html-keyboard-response,67,351344,0.0-8.0-0.59,6120211d8e1eab16fcb7ad69,650c16f0f2faf8d7a0d14c09,651c1e90371af10733e73995,null,null,"<p style=""font-size: 60px; font-family: BACS"">CkBOPmKcD</p>",,,,,,,,,,
html-keyboard-response,68,352347,0.0-8.0-0.60,6120211d8e1eab16fcb7ad69,650c16f0f2faf8d7a0d14c09,651c1e90371af10733e73995,null,null,"<p style=""font-size: 60px; font-family: BACS"">DhMtAlKD</p>",,,,,,,,,,
html-keyboard-response,69,353349,0.0-8.0-0.61,6120211d8e1eab16fcb7ad69,650c16f0f2faf8d7a0d14c09,651c1e90371af10733e73995,null,null,"<p style=""font-size: 60px; font-family: BACS"">advYObLd</p>",,,,,,,,,,
html-keyboard-response,70,354351,0.0-8.0-0.62,6120211d8e1eab16fcb7ad69,650c16f0f2faf8d7a0d14c09,651c1e90371af10733e73995,null,null,"<p style=""font-size: 60px; font-family: BACS"">hkRKkMEC</p>",,,,,,,,,,
html-keyboard-response,71,355353,0.0-8.0-0.63,6120211d8e1eab16fcb7ad69,650c16f0f2faf8d7a0d14c09,651c1e90371af10733e73995,null,null,"<p style=""font-size: 60px; font-family: BACS"">advYOYZJO</p>",,,,,,,,,,
html-keyboard-response,72,356355,0.0-8.0-0.64,6120211d8e1eab16fcb7ad69,650c16f0f2faf8d7a0d14c09,651c1e90371af10733e73995,null,null,"<p style=""font-size: 60px; font-family: BACS"">EhbtBbM</p>",,,,,,,,,,
html-keyboard-response,73,357356,0.0-8.0-0.65,6120211d8e1eab16fcb7ad69,650c16f0f2faf8d7a0d14c09,651c1e90371af10733e73995,null,null,"<p style=""font-size: 60px; font-family: BACS"">advYOkJdr</p>",,,,,,,,,,
html-keyboard-response,74,358359,0.0-8.0-0.66,6120211d8e1eab16fcb7ad69,650c16f0f2faf8d7a0d14c09,651c1e90371af10733e73995,null,null,"<p style=""font-size: 60px; font-family: BACS"">vQdOYZJO</p>",,,,,,,,,,
html-keyboard-response,75,359361,0.0-8.0-0.67,6120211d8e1eab16fcb7ad69,650c16f0f2faf8d7a0d14c09,651c1e90371af10733e73995,null,null,"<p style=""font-size: 60px; font-family: BACS"">dClOCmKcD</p>",,,,,,,,,,
html-keyboard-response,76,360364,0.0-8.0-0.68,6120211d8e1eab16fcb7ad69,650c16f0f2faf8d7a0d14c09,651c1e90371af10733e73995,null,null,"<p style=""font-size: 60px; font-family: BACS"">YQbcrZYd</p>",,,,,,,,,,
html-keyboard-response,77,361367,0.0-8.0-0.69,6120211d8e1eab16fcb7ad69,650c16f0f2faf8d7a0d14c09,651c1e90371af10733e73995,null,null,"<p style=""font-size: 60px; font-family: BACS"">TAdhMmKcD</p>",,,,,,,,,,
html-keyboard-response,78,362370,0.0-8.0-0.70,6120211d8e1eab16fcb7ad69,650c16f0f2faf8d7a0d14c09,651c1e90371af10733e73995,null,null,"<p style=""font-size: 60px; font-family: BACS"">vYLUkJdr</p>",,,,,,,,,,
html-keyboard-response,79,363374,0.0-8.0-0.71,6120211d8e1eab16fcb7ad69,650c16f0f2faf8d7a0d14c09,651c1e90371af10733e73995,null,null,"<p style=""font-size: 60px; font-family: BACS"">EhbtYDE</p>",,,,,,,,,,
html-keyboard-response,80,364377,0.0-8.0-0.72,6120211d8e1eab16fcb7ad69,650c16f0f2faf8d7a0d14c09,651c1e90371af10733e73995,null,null,"<p style=""font-size: 60px; font-family: BACS"">LvuOGkJdr</p>",,,,,,,,,,
html-keyboard-response,81,365381,0.0-8.0-0.73,6120211d8e1eab16fcb7ad69,650c16f0f2faf8d7a0d14c09,651c1e90371af10733e73995,null,null,"<p style=""font-size: 60px; font-family: BACS"">TDKhAlKD</p>",,,,,,,,,,
html-keyboard-response,82,366382,0.0-8.0-0.74,6120211d8e1eab16fcb7ad69,650c16f0f2faf8d7a0d14c09,651c1e90371af10733e73995,null,null,"<p style=""font-size: 60px; font-family: BACS"">EdBbBbM</p>",,,,,,,,,,
html-keyboard-response,83,367385,0.0-8.0-0.75,6120211d8e1eab16fcb7ad69,650c16f0f2faf8d7a0d14c09,651c1e90371af10733e73995,null,null,"<p style=""font-size: 60px; font-family: BACS"">hkRKmKcD</p>",,,,,,,,,,
html-keyboard-response,84,368387,0.0-8.0-0.76,6120211d8e1eab16fcb7ad69,650c16f0f2faf8d7a0d14c09,651c1e90371af10733e73995,null,null,"<p style=""font-size: 60px; font-family: BACS"">mbZlYZJO</p>",,,,,,,,,,
html-keyboard-response,85,369389,0.0-8.0-0.77,6120211d8e1eab16fcb7ad69,650c16f0f2faf8d7a0d14c09,651c1e90371af10733e73995,null,null,"<p style=""font-size: 60px; font-family: BACS"">YQbckJdr</p>",,,,,,,,,,
html-keyboard-response,86,370390,0.0-8.0-0.78,6120211d8e1eab16fcb7ad69,650c16f0f2faf8d7a0d14c09,651c1e90371af10733e73995,null,null,"<p style=""font-size: 60px; font-family: BACS"">LvuOGYZJO</p>",,,,,,,,,,
html-keyboard-response,87,371391,0.0-8.0-0.79,6120211d8e1eab16fcb7ad69,650c16f0f2faf8d7a0d14c09,651c1e90371af10733e73995,null,null,"<p style=""font-size: 60px; font-family: BACS"">bGuOkJdr</p>",,,,,,,,,,
html-keyboard-response,88,400566,0.0-9.0,6120211d8e1eab16fcb7ad69,650c16f0f2faf8d7a0d14c09,651c1e90371af10733e73995,29173, ,"<p>Great, you've seen the first block of words. You may now take a short break.</p>
      <p>Press the spacebar when you're ready to continue.</p>",,,,,,,,,,
html-keyboard-response,89,401568,0.0-10.0-0.0,6120211d8e1eab16fcb7ad69,650c16f0f2faf8d7a0d14c09,651c1e90371af10733e73995,null,null,"<p style=""font-size: 60px; font-family: BACS"">EdBbYDE</p>",,,,,,,,,,
html-keyboard-response,90,402572,0.0-10.0-0.1,6120211d8e1eab16fcb7ad69,650c16f0f2faf8d7a0d14c09,651c1e90371af10733e73995,null,null,"<p style=""font-size: 60px; font-family: BACS"">YQbcrZYd</p>",,,,,,,,,,
html-keyboard-response,91,403573,0.0-10.0-0.2,6120211d8e1eab16fcb7ad69,650c16f0f2faf8d7a0d14c09,651c1e90371af10733e73995,null,null,"<p style=""font-size: 60px; font-family: BACS"">advYOkJdr</p>",,,,,,,,,,
html-keyboard-response,92,404575,0.0-10.0-0.3,6120211d8e1eab16fcb7ad69,650c16f0f2faf8d7a0d14c09,651c1e90371af10733e73995,null,null,"<p style=""font-size: 60px; font-family: BACS"">hAROKYDE</p>",,,,,,,,,,
html-keyboard-response,93,405578,0.0-10.0-0.4,6120211d8e1eab16fcb7ad69,650c16f0f2faf8d7a0d14c09,651c1e90371af10733e73995,null,null,"<p style=""font-size: 60px; font-family: BACS"">UdbdJQA</p>",,,,,,,,,,
html-keyboard-response,94,406581,0.0-10.0-0.5,6120211d8e1eab16fcb7ad69,650c16f0f2faf8d7a0d14c09,651c1e90371af10733e73995,null,null,"<p style=""font-size: 60px; font-family: BACS"">mbZlkJdr</p>",,,,,,,,,,
html-keyboard-response,95,407583,0.0-10.0-0.6,6120211d8e1eab16fcb7ad69,650c16f0f2faf8d7a0d14c09,651c1e90371af10733e73995,null,null,"<p style=""font-size: 60px; font-family: BACS"">TAdhMBbM</p>",,,,,,,,,,
html-keyboard-response,96,408587,0.0-10.0-0.7,6120211d8e1eab16fcb7ad69,650c16f0f2faf8d7a0d14c09,651c1e90371af10733e73995,null,null,"<p style=""font-size: 60px; font-family: BACS"">hkRKAlKD</p>",,,,,,,,,,
html-keyboard-response,97,409590,0.0-10.0-0.8,6120211d8e1eab16fcb7ad69,650c16f0f2faf8d7a0d14c09,651c1e90371af10733e73995,null,null,"<p style=""font-size: 60px; font-family: BACS"">vQdOkJdr</p>",,,,,,,,,,
html-keyboard-response,98,410592,0.0-10.0-0.9,6120211d8e1eab16fcb7ad69,650c16f0f2faf8d7a0d14c09,651c1e90371af10733e73995,null,null,"<p style=""font-size: 60px; font-family: BACS"">uQuZcbLd</p>",,,,,,,,,,
html-keyboard-response,99,411594,0.0-10.0-0.10,6120211d8e1eab16fcb7ad69,650c16f0f2faf8d7a0d14c09,651c1e90371af10733e73995,null,null,"<p style=""font-size: 60px; font-family: BACS"">bGuOYZJO</p>",,,,,,,,,,
html-keyboard-response,100,412596,0.0-10.0-0.11,6120211d8e1eab16fcb7ad69,650c16f0f2faf8d7a0d14c09,651c1e90371af10733e73995,null,null,"<p style=""font-size: 60px; font-family: BACS"">hkRKkMEC</p>",,,,,,,,,,
html-keyboard-response,101,413598,0.0-10.0-0.12,6120211d8e1eab16fcb7ad69,650c16f0f2faf8d7a0d14c09,651c1e90371af10733e73995,null,null,"<p style=""font-size: 60px; font-family: BACS"">dClOCmKcD</p>",,,,,,,,,,
html-keyboard-response,102,414599,0.0-10.0-0.13,6120211d8e1eab16fcb7ad69,650c16f0f2faf8d7a0d14c09,651c1e90371af10733e73995,null,null,"<p style=""font-size: 60px; font-family: BACS"">vQdOYZJO</p>",,,,,,,,,,
html-keyboard-response,103,415601,0.0-10.0-0.14,6120211d8e1eab16fcb7ad69,650c16f0f2faf8d7a0d14c09,651c1e90371af10733e73995,null,null,"<p style=""font-size: 60px; font-family: BACS"">TAdhMYDE</p>",,,,,,,,,,
html-keyboard-response,104,416604,0.0-10.0-0.15,6120211d8e1eab16fcb7ad69,650c16f0f2faf8d7a0d14c09,651c1e90371af10733e73995,null,null,"<p style=""font-size: 60px; font-family: BACS"">DhMtkMEC</p>",,,,,,,,,,
html-keyboard-response,105,417606,0.0-10.0-0.16,6120211d8e1eab16fcb7ad69,650c16f0f2faf8d7a0d14c09,651c1e90371af10733e73995,null,null,"<p style=""font-size: 60px; font-family: BACS"">TDKhAlKD</p>",,,,,,,,,,
html-keyboard-response,106,418608,0.0-10.0-0.17,6120211d8e1eab16fcb7ad69,650c16f0f2faf8d7a0d14c09,651c1e90371af10733e73995,null,null,"<p style=""font-size: 60px; font-family: BACS"">TAdhMmKcD</p>",,,,,,,,,,
html-keyboard-response,107,419609,0.0-10.0-0.18,6120211d8e1eab16fcb7ad69,650c16f0f2faf8d7a0d14c09,651c1e90371af10733e73995,null,null,"<p style=""font-size: 60px; font-family: BACS"">CkBOPBbM</p>",,,,,,,,,,
html-keyboard-response,108,420612,0.0-10.0-0.19,6120211d8e1eab16fcb7ad69,650c16f0f2faf8d7a0d14c09,651c1e90371af10733e73995,null,null,"<p style=""font-size: 60px; font-family: BACS"">DhMtmKcD</p>",,,,,,,,,,
html-keyboard-response,109,421615,0.0-10.0-0.20,6120211d8e1eab16fcb7ad69,650c16f0f2faf8d7a0d14c09,651c1e90371af10733e73995,null,null,"<p style=""font-size: 60px; font-family: BACS"">EtMDMYDE</p>",,,,,,,,,,
html-keyboard-response,110,422618,0.0-10.0-0.21,6120211d8e1eab16fcb7ad69,650c16f0f2faf8d7a0d14c09,651c1e90371af10733e73995,null,null,"<p style=""font-size: 60px; font-family: BACS"">vAuNlJQA</p>",,,,,,,,,,
html-keyboard-response,111,423621,0.0-10.0-0.22,6120211d8e1eab16fcb7ad69,650c16f0f2faf8d7a0d14c09,651c1e90371af10733e73995,null,null,"<p style=""font-size: 60px; font-family: BACS"">EdBbBbM</p>",,,,,,,,,,
html-keyboard-response,112,424623,0.0-10.0-0.23,6120211d8e1eab16fcb7ad69,650c16f0f2faf8d7a0d14c09,651c1e90371af10733e73995,null,null,"<p style=""font-size: 60px; font-family: BACS"">advYObLd</p>",,,,,,,,,,
html-keyboard-response,113,425627,0.0-10.0-0.24,6120211d8e1eab16fcb7ad69,650c16f0f2faf8d7a0d14c09,651c1e90371af10733e73995,null,null,"<p style=""font-size: 60px; font-family: BACS"">hAROKBbM</p>",,,,,,,,,,
html-keyboard-response,114,426629,0.0-10.0-0.25,6120211d8e1eab16fcb7ad69,650c16f0f2faf8d7a0d14c09,651c1e90371af10733e73995,null,null,"<p style=""font-size: 60px; font-family: BACS"">LvuOGbLd</p>",,,,,,,,,,
html-keyboard-response,115,427631,0.0-10.0-0.26,6120211d8e1eab16fcb7ad69,650c16f0f2faf8d7a0d14c09,651c1e90371af10733e73995,null,null,"<p style=""font-size: 60px; font-family: BACS"">CkBOPAlKD</p>",,,,,,,,,,
html-keyboard-response,116,428635,0.0-10.0-0.27,6120211d8e1eab16fcb7ad69,650c16f0f2faf8d7a0d14c09,651c1e90371af10733e73995,null,null,"<p style=""font-size: 60px; font-family: BACS"">vAuNlrZYd</p>",,,,,,,,,,
html-keyboard-response,117,429638,0.0-10.0-0.28,6120211d8e1eab16fcb7ad69,650c16f0f2faf8d7a0d14c09,651c1e90371af10733e73995,null,null,"<p style=""font-size: 60px; font-family: BACS"">uQuZcJQA</p>",,,,,,,,,,
html-keyboard-response,118,430640,0.0-10.0-0.29,6120211d8e1eab16fcb7ad69,650c16f0f2faf8d7a0d14c09,651c1e90371af10733e73995,null,null,"<p style=""font-size: 60px; font-family: BACS"">CkBOPmKcD</p>",,,,,,,,,,
html-keyboard-response,119,431641,0.0-10.0-0.30,6120211d8e1eab16fcb7ad69,650c16f0f2faf8d7a0d14c09,651c1e90371af10733e73995,null,null,"<p style=""font-size: 60px; font-family: BACS"">EdBbAlKD</p>",,,,,,,,,,
html-keyboard-response,120,432643,0.0-10.0-0.31,6120211d8e1eab16fcb7ad69,650c16f0f2faf8d7a0d14c09,651c1e90371af10733e73995,null,null,"<p style=""font-size: 60px; font-family: BACS"">DhMtBbM</p>",,,,,,,,,,
html-keyboard-response,121,433645,0.0-10.0-0.32,6120211d8e1eab16fcb7ad69,650c16f0f2faf8d7a0d14c09,651c1e90371af10733e73995,null,null,"<p style=""font-size: 60px; font-family: BACS"">UdbdYZJO</p>",,,,,,,,,,
html-keyboard-response,122,434647,0.0-10.0-0.33,6120211d8e1eab16fcb7ad69,650c16f0f2faf8d7a0d14c09,651c1e90371af10733e73995,null,null,"<p style=""font-size: 60px; font-family: BACS"">TAdhMkMEC</p>",,,,,,,,,,
html-keyboard-response,123,435650,0.0-10.0-0.34,6120211d8e1eab16fcb7ad69,650c16f0f2faf8d7a0d14c09,651c1e90371af10733e73995,null,null,"<p style=""font-size: 60px; font-family: BACS"">vYLUrZYd</p>",,,,,,,,,,
html-keyboard-response,124,436653,0.0-10.0-0.35,6120211d8e1eab16fcb7ad69,650c16f0f2faf8d7a0d14c09,651c1e90371af10733e73995,null,null,"<p style=""font-size: 60px; font-family: BACS"">vAuNlYZJO</p>",,,,,,,,,,
html-keyboard-response,125,437655,0.0-10.0-0.36,6120211d8e1eab16fcb7ad69,650c16f0f2faf8d7a0d14c09,651c1e90371af10733e73995,null,null,"<p style=""font-size: 60px; font-family: BACS"">hkRKmKcD</p>",,,,,,,,,,
html-keyboard-response,126,438658,0.0-10.0-0.37,6120211d8e1eab16fcb7ad69,650c16f0f2faf8d7a0d14c09,651c1e90371af10733e73995,null,null,"<p style=""font-size: 60px; font-family: BACS"">vYLUJQA</p>",,,,,,,,,,
html-keyboard-response,127,439662,0.0-10.0-0.38,6120211d8e1eab16fcb7ad69,650c16f0f2faf8d7a0d14c09,651c1e90371af10733e73995,null,null,"<p style=""font-size: 60px; font-family: BACS"">DhMtAlKD</p>",,,,,,,,,,
html-keyboard-response,128,440665,0.0-10.0-0.39,6120211d8e1eab16fcb7ad69,650c16f0f2faf8d7a0d14c09,651c1e90371af10733e73995,null,null,"<p style=""font-size: 60px; font-family: BACS"">vAuNlbLd</p>",,,,,,,,,,
html-keyboard-response,129,441667,0.0-10.0-0.40,6120211d8e1eab16fcb7ad69,650c16f0f2faf8d7a0d14c09,651c1e90371af10733e73995,null,null,"<p style=""font-size: 60px; font-family: BACS"">EhbtAlKD</p>",,,,,,,,,,
html-keyboard-response,130,442669,0.0-10.0-0.41,6120211d8e1eab16fcb7ad69,650c16f0f2faf8d7a0d14c09,651c1e90371af10733e73995,null,null,"<p style=""font-size: 60px; font-family: BACS"">EdBbkMEC</p>",,,,,,,,,,
html-keyboard-response,131,443670,0.0-10.0-0.42,6120211d8e1eab16fcb7ad69,650c16f0f2faf8d7a0d14c09,651c1e90371af10733e73995,null,null,"<p style=""font-size: 60px; font-family: BACS"">dClOCYDE</p>",,,,,,,,,,
html-keyboard-response,132,444672,0.0-10.0-0.43,6120211d8e1eab16fcb7ad69,650c16f0f2faf8d7a0d14c09,651c1e90371af10733e73995,null,null,"<p style=""font-size: 60px; font-family: BACS"">hAROKkMEC</p>",,,,,,,,,,
html-keyboard-response,133,445675,0.0-10.0-0.44,6120211d8e1eab16fcb7ad69,650c16f0f2faf8d7a0d14c09,651c1e90371af10733e73995,null,null,"<p style=""font-size: 60px; font-family: BACS"">mbZlYZJO</p>",,,,,,,,,,
html-keyboard-response,134,446677,0.0-10.0-0.45,6120211d8e1eab16fcb7ad69,650c16f0f2faf8d7a0d14c09,651c1e90371af10733e73995,null,null,"<p style=""font-size: 60px; font-family: BACS"">TDKhBbM</p>",,,,,,,,,,
html-keyboard-response,135,447678,0.0-10.0-0.46,6120211d8e1eab16fcb7ad69,650c16f0f2faf8d7a0d14c09,651c1e90371af10733e73995,null,null,"<p style=""font-size: 60px; font-family: BACS"">CkBOPkMEC</p>",,,,,,,,,,
html-keyboard-response,136,448681,0.0-10.0-0.47,6120211d8e1eab16fcb7ad69,650c16f0f2faf8d7a0d14c09,651c1e90371af10733e73995,null,null,"<p style=""font-size: 60px; font-family: BACS"">EhbtBbM</p>",,,,,,,,,,
html-keyboard-response,137,449684,0.0-10.0-0.48,6120211d8e1eab16fcb7ad69,650c16f0f2faf8d7a0d14c09,651c1e90371af10733e73995,null,null,"<p style=""font-size: 60px; font-family: BACS"">UdbdrZYd</p>",,,,,,,,,,
html-keyboard-response,138,450687,0.0-10.0-0.49,6120211d8e1eab16fcb7ad69,650c16f0f2faf8d7a0d14c09,651c1e90371af10733e73995,null,null,"<p style=""font-size: 60px; font-family: BACS"">dClOCAlKD</p>",,,,,,,,,,
html-keyboard-response,139,451688,0.0-10.0-0.50,6120211d8e1eab16fcb7ad69,650c16f0f2faf8d7a0d14c09,651c1e90371af10733e73995,null,null,"<p style=""font-size: 60px; font-family: BACS"">uQuZcrZYd</p>",,,,,,,,,,
html-keyboard-response,140,452691,0.0-10.0-0.51,6120211d8e1eab16fcb7ad69,650c16f0f2faf8d7a0d14c09,651c1e90371af10733e73995,null,null,"<p style=""font-size: 60px; font-family: BACS"">EtMDMmKcD</p>",,,,,,,,,,
html-keyboard-response,141,453695,0.0-10.0-0.52,6120211d8e1eab16fcb7ad69,650c16f0f2faf8d7a0d14c09,651c1e90371af10733e73995,null,null,"<p style=""font-size: 60px; font-family: BACS"">mbZlJQA</p>",,,,,,,,,,
html-keyboard-response,142,454698,0.0-10.0-0.53,6120211d8e1eab16fcb7ad69,650c16f0f2faf8d7a0d14c09,651c1e90371af10733e73995,null,null,"<p style=""font-size: 60px; font-family: BACS"">advYOYZJO</p>",,,,,,,,,,
html-keyboard-response,143,455701,0.0-10.0-0.54,6120211d8e1eab16fcb7ad69,650c16f0f2faf8d7a0d14c09,651c1e90371af10733e73995,null,null,"<p style=""font-size: 60px; font-family: BACS"">YQbcbLd</p>",,,,,,,,,,
html-keyboard-response,144,456706,0.0-10.0-0.55,6120211d8e1eab16fcb7ad69,650c16f0f2faf8d7a0d14c09,651c1e90371af10733e73995,null,null,"<p style=""font-size: 60px; font-family: BACS"">LvuOGYZJO</p>",,,,,,,,,,
html-keyboard-response,145,457709,0.0-10.0-0.56,6120211d8e1eab16fcb7ad69,650c16f0f2faf8d7a0d14c09,651c1e90371af10733e73995,null,null,"<p style=""font-size: 60px; font-family: BACS"">vYLUbLd</p>",,,,,,,,,,
html-keyboard-response,146,458711,0.0-10.0-0.57,6120211d8e1eab16fcb7ad69,650c16f0f2faf8d7a0d14c09,651c1e90371af10733e73995,null,null,"<p style=""font-size: 60px; font-family: BACS"">bGuOrZYd</p>",,,,,,,,,,
html-keyboard-response,147,459713,0.0-10.0-0.58,6120211d8e1eab16fcb7ad69,650c16f0f2faf8d7a0d14c09,651c1e90371af10733e73995,null,null,"<p style=""font-size: 60px; font-family: BACS"">mbZlbLd</p>",,,,,,,,,,
html-keyboard-response,148,460716,0.0-10.0-0.59,6120211d8e1eab16fcb7ad69,650c16f0f2faf8d7a0d14c09,651c1e90371af10733e73995,null,null,"<p style=""font-size: 60px; font-family: BACS"">LvuOGJQA</p>",,,,,,,,,,
html-keyboard-response,149,461720,0.0-10.0-0.60,6120211d8e1eab16fcb7ad69,650c16f0f2faf8d7a0d14c09,651c1e90371af10733e73995,null,null,"<p style=""font-size: 60px; font-family: BACS"">vYLUkJdr</p>",,,,,,,,,,
html-keyboard-response,150,462724,0.0-10.0-0.61,6120211d8e1eab16fcb7ad69,650c16f0f2faf8d7a0d14c09,651c1e90371af10733e73995,null,null,"<p style=""font-size: 60px; font-family: BACS"">EhbtmKcD</p>",,,,,,,,,,
html-keyboard-response,151,463727,0.0-10.0-0.62,6120211d8e1eab16fcb7ad69,650c16f0f2faf8d7a0d14c09,651c1e90371af10733e73995,null,null,"<p style=""font-size: 60px; font-family: BACS"">LvuOGkJdr</p>",,,,,,,,,,
html-keyboard-response,152,464729,0.0-10.0-0.63,6120211d8e1eab16fcb7ad69,650c16f0f2faf8d7a0d14c09,651c1e90371af10733e73995,null,null,"<p style=""font-size: 60px; font-family: BACS"">TDKhkMEC</p>",,,,,,,,,,
html-keyboard-response,153,465731,0.0-10.0-0.64,6120211d8e1eab16fcb7ad69,650c16f0f2faf8d7a0d14c09,651c1e90371af10733e73995,null,null,"<p style=""font-size: 60px; font-family: BACS"">YQbcJQA</p>",,,,,,,,,,
html-keyboard-response,154,466734,0.0-10.0-0.65,6120211d8e1eab16fcb7ad69,650c16f0f2faf8d7a0d14c09,651c1e90371af10733e73995,null,null,"<p style=""font-size: 60px; font-family: BACS"">vQdObLd</p>",,,,,,,,,,
html-keyboard-response,155,467737,0.0-10.0-0.66,6120211d8e1eab16fcb7ad69,650c16f0f2faf8d7a0d14c09,651c1e90371af10733e73995,null,null,"<p style=""font-size: 60px; font-family: BACS"">bGuOkJdr</p>",,,,,,,,,,
html-keyboard-response,156,468740,0.0-10.0-0.67,6120211d8e1eab16fcb7ad69,650c16f0f2faf8d7a0d14c09,651c1e90371af10733e73995,null,null,"<p style=""font-size: 60px; font-family: BACS"">uQuZcYZJO</p>",,,,,,,,,,
html-keyboard-response,157,469743,0.0-10.0-0.68,6120211d8e1eab16fcb7ad69,650c16f0f2faf8d7a0d14c09,651c1e90371af10733e73995,null,null,"<p style=""font-size: 60px; font-family: BACS"">EtMDMAlKD</p>",,,,,,,,,,
html-keyboard-response,158,470745,0.0-10.0-0.69,6120211d8e1eab16fcb7ad69,650c16f0f2faf8d7a0d14c09,651c1e90371af10733e73995,null,null,"<p style=""font-size: 60px; font-family: BACS"">hkRKYDE</p>",,,,,,,,,,
html-keyboard-response,159,471746,0.0-10.0-0.70,6120211d8e1eab16fcb7ad69,650c16f0f2faf8d7a0d14c09,651c1e90371af10733e73995,null,null,"<p style=""font-size: 60px; font-family: BACS"">UdbdkJdr</p>",,,,,,,,,,
html-keyboard-response,160,472750,0.0-10.0-0.71,6120211d8e1eab16fcb7ad69,650c16f0f2faf8d7a0d14c09,651c1e90371af10733e73995,null,null,"<p style=""font-size: 60px; font-family: BACS"">dClOCBbM</p>",,,,,,,,,,
html-keyboard-response,161,473752,0.0-10.0-0.72,6120211d8e1eab16fcb7ad69,650c16f0f2faf8d7a0d14c09,651c1e90371af10733e73995,null,null,"<p style=""font-size: 60px; font-family: BACS"">bGuOJQA</p>",,,,,,,,,,
html-keyboard-response,162,474755,0.0-10.0-0.73,6120211d8e1eab16fcb7ad69,650c16f0f2faf8d7a0d14c09,651c1e90371af10733e73995,null,null,"<p style=""font-size: 60px; font-family: BACS"">TDKhYDE</p>",,,,,,,,,,
html-keyboard-response,163,475759,0.0-10.0-0.74,6120211d8e1eab16fcb7ad69,650c16f0f2faf8d7a0d14c09,651c1e90371af10733e73995,null,null,"<p style=""font-size: 60px; font-family: BACS"">EtMDMkMEC</p>",,,,,,,,,,
html-keyboard-response,164,476762,0.0-10.0-0.75,6120211d8e1eab16fcb7ad69,650c16f0f2faf8d7a0d14c09,651c1e90371af10733e73995,null,null,"<p style=""font-size: 60px; font-family: BACS"">advYOrZYd</p>",,,,,,,,,,
html-keyboard-response,165,477765,0.0-10.0-0.76,6120211d8e1eab16fcb7ad69,650c16f0f2faf8d7a0d14c09,651c1e90371af10733e73995,null,null,"<p style=""font-size: 60px; font-family: BACS"">hAROKmKcD</p>",,,,,,,,,,
html-keyboard-response,166,478768,0.0-10.0-0.77,6120211d8e1eab16fcb7ad69,650c16f0f2faf8d7a0d14c09,651c1e90371af10733e73995,null,null,"<p style=""font-size: 60px; font-family: BACS"">EhbtYDE</p>",,,,,,,,,,
html-keyboard-response,167,479770,0.0-10.0-0.78,6120211d8e1eab16fcb7ad69,650c16f0f2faf8d7a0d14c09,651c1e90371af10733e73995,null,null,"<p style=""font-size: 60px; font-family: BACS"">vQdOrZYd</p>",,,,,,,,,,
html-keyboard-response,168,480773,0.0-10.0-0.79,6120211d8e1eab16fcb7ad69,650c16f0f2faf8d7a0d14c09,651c1e90371af10733e73995,null,null,"<p style=""font-size: 60px; font-family: BACS"">YQbckJdr</p>",,,,,,,,,,
html-keyboard-response,169,548828,0.0-11.0,6120211d8e1eab16fcb7ad69,650c16f0f2faf8d7a0d14c09,651c1e90371af10733e73995,68052, ,"<p>Great, you've seen the second block of words. You may now take a short break.</p>
      <p>Press the spacebar when you're ready to continue.</p>",,,,,,,,,,
html-keyboard-response,170,549831,0.0-12.0-0.0,6120211d8e1eab16fcb7ad69,650c16f0f2faf8d7a0d14c09,651c1e90371af10733e73995,null,null,"<p style=""font-size: 60px; font-family: BACS"">dClOCmKcD</p>",,,,,,,,,,
html-keyboard-response,171,550834,0.0-12.0-0.1,6120211d8e1eab16fcb7ad69,650c16f0f2faf8d7a0d14c09,651c1e90371af10733e73995,null,null,"<p style=""font-size: 60px; font-family: BACS"">vYLUJQA</p>",,,,,,,,,,
html-keyboard-response,172,551836,0.0-12.0-0.2,6120211d8e1eab16fcb7ad69,650c16f0f2faf8d7a0d14c09,651c1e90371af10733e73995,null,null,"<p style=""font-size: 60px; font-family: BACS"">advYOkJdr</p>",,,,,,,,,,
html-keyboard-response,173,552838,0.0-12.0-0.3,6120211d8e1eab16fcb7ad69,650c16f0f2faf8d7a0d14c09,651c1e90371af10733e73995,null,null,"<p style=""font-size: 60px; font-family: BACS"">uQuZcYZJO</p>",,,,,,,,,,
html-keyboard-response,174,553842,0.0-12.0-0.4,6120211d8e1eab16fcb7ad69,650c16f0f2faf8d7a0d14c09,651c1e90371af10733e73995,null,null,"<p style=""font-size: 60px; font-family: BACS"">UdbdkJdr</p>",,,,,,,,,,
html-keyboard-response,175,554845,0.0-12.0-0.5,6120211d8e1eab16fcb7ad69,650c16f0f2faf8d7a0d14c09,651c1e90371af10733e73995,null,null,"<p style=""font-size: 60px; font-family: BACS"">advYObLd</p>",,,,,,,,,,
html-keyboard-response,176,555848,0.0-12.0-0.6,6120211d8e1eab16fcb7ad69,650c16f0f2faf8d7a0d14c09,651c1e90371af10733e73995,null,null,"<p style=""font-size: 60px; font-family: BACS"">vQdOYZJO</p>",,,,,,,,,,
html-keyboard-response,177,556852,0.0-12.0-0.7,6120211d8e1eab16fcb7ad69,650c16f0f2faf8d7a0d14c09,651c1e90371af10733e73995,null,null,"<p style=""font-size: 60px; font-family: BACS"">uQuZcbLd</p>",,,,,,,,,,
html-keyboard-response,178,557855,0.0-12.0-0.8,6120211d8e1eab16fcb7ad69,650c16f0f2faf8d7a0d14c09,651c1e90371af10733e73995,null,null,"<p style=""font-size: 60px; font-family: BACS"">dClOCAlKD</p>",,,,,,,,,,
html-keyboard-response,179,558859,0.0-12.0-0.9,6120211d8e1eab16fcb7ad69,650c16f0f2faf8d7a0d14c09,651c1e90371af10733e73995,null,null,"<p style=""font-size: 60px; font-family: BACS"">LvuOGbLd</p>",,,,,,,,,,
html-keyboard-response,180,559864,0.0-12.0-0.10,6120211d8e1eab16fcb7ad69,650c16f0f2faf8d7a0d14c09,651c1e90371af10733e73995,null,null,"<p style=""font-size: 60px; font-family: BACS"">UdbdrZYd</p>",,,,,,,,,,
html-keyboard-response,181,560867,0.0-12.0-0.11,6120211d8e1eab16fcb7ad69,650c16f0f2faf8d7a0d14c09,651c1e90371af10733e73995,null,null,"<p style=""font-size: 60px; font-family: BACS"">LvuOGJQA</p>",,,,,,,,,,
html-keyboard-response,182,561870,0.0-12.0-0.12,6120211d8e1eab16fcb7ad69,650c16f0f2faf8d7a0d14c09,651c1e90371af10733e73995,null,null,"<p style=""font-size: 60px; font-family: BACS"">mbZlbLd</p>",,,,,,,,,,
html-keyboard-response,183,562872,0.0-12.0-0.13,6120211d8e1eab16fcb7ad69,650c16f0f2faf8d7a0d14c09,651c1e90371af10733e73995,null,null,"<p style=""font-size: 60px; font-family: BACS"">EtMDMYDE</p>",,,,,,,,,,
html-keyboard-response,184,563876,0.0-12.0-0.14,6120211d8e1eab16fcb7ad69,650c16f0f2faf8d7a0d14c09,651c1e90371af10733e73995,null,null,"<p style=""font-size: 60px; font-family: BACS"">hAROKkMEC</p>",,,,,,,,,,
html-keyboard-response,185,564878,0.0-12.0-0.15,6120211d8e1eab16fcb7ad69,650c16f0f2faf8d7a0d14c09,651c1e90371af10733e73995,null,null,"<p style=""font-size: 60px; font-family: BACS"">dClOCYDE</p>",,,,,,,,,,
html-keyboard-response,186,565881,0.0-12.0-0.16,6120211d8e1eab16fcb7ad69,650c16f0f2faf8d7a0d14c09,651c1e90371af10733e73995,null,null,"<p style=""font-size: 60px; font-family: BACS"">vQdObLd</p>",,,,,,,,,,
html-keyboard-response,187,566885,0.0-12.0-0.17,6120211d8e1eab16fcb7ad69,650c16f0f2faf8d7a0d14c09,651c1e90371af10733e73995,null,null,"<p style=""font-size: 60px; font-family: BACS"">hAROKmKcD</p>",,,,,,,,,,
html-keyboard-response,188,567888,0.0-12.0-0.18,6120211d8e1eab16fcb7ad69,650c16f0f2faf8d7a0d14c09,651c1e90371af10733e73995,null,null,"<p style=""font-size: 60px; font-family: BACS"">CkBOPkMEC</p>",,,,,,,,,,
html-keyboard-response,189,568892,0.0-12.0-0.19,6120211d8e1eab16fcb7ad69,650c16f0f2faf8d7a0d14c09,651c1e90371af10733e73995,null,null,"<p style=""font-size: 60px; font-family: BACS"">hkRKYDE</p>",,,,,,,,,,
html-keyboard-response,190,569894,0.0-12.0-0.20,6120211d8e1eab16fcb7ad69,650c16f0f2faf8d7a0d14c09,651c1e90371af10733e73995,null,null,"<p style=""font-size: 60px; font-family: BACS"">TAdhMmKcD</p>",,,,,,,,,,
html-keyboard-response,191,570897,0.0-12.0-0.21,6120211d8e1eab16fcb7ad69,650c16f0f2faf8d7a0d14c09,651c1e90371af10733e73995,null,null,"<p style=""font-size: 60px; font-family: BACS"">mbZlkJdr</p>",,,,,,,,,,
html-keyboard-response,192,571900,0.0-12.0-0.22,6120211d8e1eab16fcb7ad69,650c16f0f2faf8d7a0d14c09,651c1e90371af10733e73995,null,null,"<p style=""font-size: 60px; font-family: BACS"">DhMtAlKD</p>",,,,,,,,,,
html-keyboard-response,193,572903,0.0-12.0-0.23,6120211d8e1eab16fcb7ad69,650c16f0f2faf8d7a0d14c09,651c1e90371af10733e73995,null,null,"<p style=""font-size: 60px; font-family: BACS"">mbZlJQA</p>",,,,,,,,,,
html-keyboard-response,194,573905,0.0-12.0-0.24,6120211d8e1eab16fcb7ad69,650c16f0f2faf8d7a0d14c09,651c1e90371af10733e73995,null,null,"<p style=""font-size: 60px; font-family: BACS"">vAuNlYZJO</p>",,,,,,,,,,
html-keyboard-response,195,574907,0.0-12.0-0.25,6120211d8e1eab16fcb7ad69,650c16f0f2faf8d7a0d14c09,651c1e90371af10733e73995,null,null,"<p style=""font-size: 60px; font-family: BACS"">EhbtBbM</p>",,,,,,,,,,
html-keyboard-response,196,575910,0.0-12.0-0.26,6120211d8e1eab16fcb7ad69,650c16f0f2faf8d7a0d14c09,651c1e90371af10733e73995,null,null,"<p style=""font-size: 60px; font-family: BACS"">UdbdYZJO</p>",,,,,,,,,,
html-keyboard-response,197,576912,0.0-12.0-0.27,6120211d8e1eab16fcb7ad69,650c16f0f2faf8d7a0d14c09,651c1e90371af10733e73995,null,null,"<p style=""font-size: 60px; font-family: BACS"">EtMDMmKcD</p>",,,,,,,,,,
html-keyboard-response,198,577914,0.0-12.0-0.28,6120211d8e1eab16fcb7ad69,650c16f0f2faf8d7a0d14c09,651c1e90371af10733e73995,null,null,"<p style=""font-size: 60px; font-family: BACS"">advYOrZYd</p>",,,,,,,,,,
html-keyboard-response,199,578916,0.0-12.0-0.29,6120211d8e1eab16fcb7ad69,650c16f0f2faf8d7a0d14c09,651c1e90371af10733e73995,null,null,"<p style=""font-size: 60px; font-family: BACS"">YQbckJdr</p>",,,,,,,,,,
html-keyboard-response,200,579918,0.0-12.0-0.30,6120211d8e1eab16fcb7ad69,650c16f0f2faf8d7a0d14c09,651c1e90371af10733e73995,null,null,"<p style=""font-size: 60px; font-family: BACS"">TAdhMBbM</p>",,,,,,,,,,
html-keyboard-response,201,580920,0.0-12.0-0.31,6120211d8e1eab16fcb7ad69,650c16f0f2faf8d7a0d14c09,651c1e90371af10733e73995,null,null,"<p style=""font-size: 60px; font-family: BACS"">EdBbAlKD</p>",,,,,,,,,,
html-keyboard-response,202,581923,0.0-12.0-0.32,6120211d8e1eab16fcb7ad69,650c16f0f2faf8d7a0d14c09,651c1e90371af10733e73995,null,null,"<p style=""font-size: 60px; font-family: BACS"">bGuOJQA</p>",,,,,,,,,,
html-keyboard-response,203,582926,0.0-12.0-0.33,6120211d8e1eab16fcb7ad69,650c16f0f2faf8d7a0d14c09,651c1e90371af10733e73995,null,null,"<p style=""font-size: 60px; font-family: BACS"">EhbtYDE</p>",,,,,,,,,,
html-keyboard-response,204,583927,0.0-12.0-0.34,6120211d8e1eab16fcb7ad69,650c16f0f2faf8d7a0d14c09,651c1e90371af10733e73995,null,null,"<p style=""font-size: 60px; font-family: BACS"">vAuNlrZYd</p>",,,,,,,,,,
html-keyboard-response,205,584929,0.0-12.0-0.35,6120211d8e1eab16fcb7ad69,650c16f0f2faf8d7a0d14c09,651c1e90371af10733e73995,null,null,"<p style=""font-size: 60px; font-family: BACS"">CkBOPmKcD</p>",,,,,,,,,,
html-keyboard-response,206,585933,0.0-12.0-0.36,6120211d8e1eab16fcb7ad69,650c16f0f2faf8d7a0d14c09,651c1e90371af10733e73995,null,null,"<p style=""font-size: 60px; font-family: BACS"">YQbcJQA</p>",,,,,,,,,,
html-keyboard-response,207,586936,0.0-12.0-0.37,6120211d8e1eab16fcb7ad69,650c16f0f2faf8d7a0d14c09,651c1e90371af10733e73995,null,null,"<p style=""font-size: 60px; font-family: BACS"">DhMtmKcD</p>",,,,,,,,,,
html-keyboard-response,208,587938,0.0-12.0-0.38,6120211d8e1eab16fcb7ad69,650c16f0f2faf8d7a0d14c09,651c1e90371af10733e73995,null,null,"<p style=""font-size: 60px; font-family: BACS"">TDKhAlKD</p>",,,,,,,,,,
html-keyboard-response,209,588940,0.0-12.0-0.39,6120211d8e1eab16fcb7ad69,650c16f0f2faf8d7a0d14c09,651c1e90371af10733e73995,null,null,"<p style=""font-size: 60px; font-family: BACS"">vQdOkJdr</p>",,,,,,,,,,
html-keyboard-response,210,589943,0.0-12.0-0.40,6120211d8e1eab16fcb7ad69,650c16f0f2faf8d7a0d14c09,651c1e90371af10733e73995,null,null,"<p style=""font-size: 60px; font-family: BACS"">CkBOPAlKD</p>",,,,,,,,,,
html-keyboard-response,211,590946,0.0-12.0-0.41,6120211d8e1eab16fcb7ad69,650c16f0f2faf8d7a0d14c09,651c1e90371af10733e73995,null,null,"<p style=""font-size: 60px; font-family: BACS"">YQbcbLd</p>",,,,,,,,,,
html-keyboard-response,212,591950,0.0-12.0-0.42,6120211d8e1eab16fcb7ad69,650c16f0f2faf8d7a0d14c09,651c1e90371af10733e73995,null,null,"<p style=""font-size: 60px; font-family: BACS"">EdBbBbM</p>",,,,,,,,,,
html-keyboard-response,213,592952,0.0-12.0-0.43,6120211d8e1eab16fcb7ad69,650c16f0f2faf8d7a0d14c09,651c1e90371af10733e73995,null,null,"<p style=""font-size: 60px; font-family: BACS"">vAuNlbLd</p>",,,,,,,,,,
html-keyboard-response,214,593955,0.0-12.0-0.44,6120211d8e1eab16fcb7ad69,650c16f0f2faf8d7a0d14c09,651c1e90371af10733e73995,null,null,"<p style=""font-size: 60px; font-family: BACS"">bGuOkJdr</p>",,,,,,,,,,
html-keyboard-response,215,594960,0.0-12.0-0.45,6120211d8e1eab16fcb7ad69,650c16f0f2faf8d7a0d14c09,651c1e90371af10733e73995,null,null,"<p style=""font-size: 60px; font-family: BACS"">TDKhBbM</p>",,,,,,,,,,
html-keyboard-response,216,595962,0.0-12.0-0.46,6120211d8e1eab16fcb7ad69,650c16f0f2faf8d7a0d14c09,651c1e90371af10733e73995,null,null,"<p style=""font-size: 60px; font-family: BACS"">advYOYZJO</p>",,,,,,,,,,
html-keyboard-response,217,596963,0.0-12.0-0.47,6120211d8e1eab16fcb7ad69,650c16f0f2faf8d7a0d14c09,651c1e90371af10733e73995,null,null,"<p style=""font-size: 60px; font-family: BACS"">EdBbkMEC</p>",,,,,,,,,,
html-keyboard-response,218,597967,0.0-12.0-0.48,6120211d8e1eab16fcb7ad69,650c16f0f2faf8d7a0d14c09,651c1e90371af10733e73995,null,null,"<p style=""font-size: 60px; font-family: BACS"">TDKhYDE</p>",,,,,,,,,,
html-keyboard-response,219,598970,0.0-12.0-0.49,6120211d8e1eab16fcb7ad69,650c16f0f2faf8d7a0d14c09,651c1e90371af10733e73995,null,null,"<p style=""font-size: 60px; font-family: BACS"">vYLUrZYd</p>",,,,,,,,,,
html-keyboard-response,220,599973,0.0-12.0-0.50,6120211d8e1eab16fcb7ad69,650c16f0f2faf8d7a0d14c09,651c1e90371af10733e73995,null,null,"<p style=""font-size: 60px; font-family: BACS"">bGuOYZJO</p>",,,,,,,,,,
html-keyboard-response,221,600977,0.0-12.0-0.51,6120211d8e1eab16fcb7ad69,650c16f0f2faf8d7a0d14c09,651c1e90371af10733e73995,null,null,"<p style=""font-size: 60px; font-family: BACS"">uQuZcrZYd</p>",,,,,,,,,,
html-keyboard-response,222,601980,0.0-12.0-0.52,6120211d8e1eab16fcb7ad69,650c16f0f2faf8d7a0d14c09,651c1e90371af10733e73995,null,null,"<p style=""font-size: 60px; font-family: BACS"">vAuNlJQA</p>",,,,,,,,,,
html-keyboard-response,223,602983,0.0-12.0-0.53,6120211d8e1eab16fcb7ad69,650c16f0f2faf8d7a0d14c09,651c1e90371af10733e73995,null,null,"<p style=""font-size: 60px; font-family: BACS"">EtMDMkMEC</p>",,,,,,,,,,
html-keyboard-response,224,603986,0.0-12.0-0.54,6120211d8e1eab16fcb7ad69,650c16f0f2faf8d7a0d14c09,651c1e90371af10733e73995,null,null,"<p style=""font-size: 60px; font-family: BACS"">hkRKAlKD</p>",,,,,,,,,,
html-keyboard-response,225,604989,0.0-12.0-0.55,6120211d8e1eab16fcb7ad69,650c16f0f2faf8d7a0d14c09,651c1e90371af10733e73995,null,null,"<p style=""font-size: 60px; font-family: BACS"">hAROKYDE</p>",,,,,,,,,,
html-keyboard-response,226,605994,0.0-12.0-0.56,6120211d8e1eab16fcb7ad69,650c16f0f2faf8d7a0d14c09,651c1e90371af10733e73995,null,null,"<p style=""font-size: 60px; font-family: BACS"">DhMtBbM</p>",,,,,,,,,,
html-keyboard-response,227,606998,0.0-12.0-0.57,6120211d8e1eab16fcb7ad69,650c16f0f2faf8d7a0d14c09,651c1e90371af10733e73995,null,null,"<p style=""font-size: 60px; font-family: BACS"">LvuOGkJdr</p>",,,,,,,,,,
html-keyboard-response,228,608001,0.0-12.0-0.58,6120211d8e1eab16fcb7ad69,650c16f0f2faf8d7a0d14c09,651c1e90371af10733e73995,null,null,"<p style=""font-size: 60px; font-family: BACS"">TDKhkMEC</p>",,,,,,,,,,
html-keyboard-response,229,609004,0.0-12.0-0.59,6120211d8e1eab16fcb7ad69,650c16f0f2faf8d7a0d14c09,651c1e90371af10733e73995,null,null,"<p style=""font-size: 60px; font-family: BACS"">hkRKmKcD</p>",,,,,,,,,,
html-keyboard-response,230,610007,0.0-12.0-0.60,6120211d8e1eab16fcb7ad69,650c16f0f2faf8d7a0d14c09,651c1e90371af10733e73995,null,null,"<p style=""font-size: 60px; font-family: BACS"">vYLUbLd</p>",,,,,,,,,,
html-keyboard-response,231,611010,0.0-12.0-0.61,6120211d8e1eab16fcb7ad69,650c16f0f2faf8d7a0d14c09,651c1e90371af10733e73995,null,null,"<p style=""font-size: 60px; font-family: BACS"">EtMDMAlKD</p>",,,,,,,,,,
html-keyboard-response,232,612013,0.0-12.0-0.62,6120211d8e1eab16fcb7ad69,650c16f0f2faf8d7a0d14c09,651c1e90371af10733e73995,null,null,"<p style=""font-size: 60px; font-family: BACS"">dClOCBbM</p>",,,,,,,,,,
html-keyboard-response,233,613016,0.0-12.0-0.63,6120211d8e1eab16fcb7ad69,650c16f0f2faf8d7a0d14c09,651c1e90371af10733e73995,null,null,"<p style=""font-size: 60px; font-family: BACS"">TAdhMkMEC</p>",,,,,,,,,,
html-keyboard-response,234,614019,0.0-12.0-0.64,6120211d8e1eab16fcb7ad69,650c16f0f2faf8d7a0d14c09,651c1e90371af10733e73995,null,null,"<p style=""font-size: 60px; font-family: BACS"">EdBbYDE</p>",,,,,,,,,,
html-keyboard-response,235,615022,0.0-12.0-0.65,6120211d8e1eab16fcb7ad69,650c16f0f2faf8d7a0d14c09,651c1e90371af10733e73995,null,null,"<p style=""font-size: 60px; font-family: BACS"">hkRKkMEC</p>",,,,,,,,,,
html-keyboard-response,236,616025,0.0-12.0-0.66,6120211d8e1eab16fcb7ad69,650c16f0f2faf8d7a0d14c09,651c1e90371af10733e73995,null,null,"<p style=""font-size: 60px; font-family: BACS"">mbZlYZJO</p>",,,,,,,,,,
html-keyboard-response,237,617029,0.0-12.0-0.67,6120211d8e1eab16fcb7ad69,650c16f0f2faf8d7a0d14c09,651c1e90371af10733e73995,null,null,"<p style=""font-size: 60px; font-family: BACS"">hAROKBbM</p>",,,,,,,,,,
html-keyboard-response,238,618032,0.0-12.0-0.68,6120211d8e1eab16fcb7ad69,650c16f0f2faf8d7a0d14c09,651c1e90371af10733e73995,null,null,"<p style=""font-size: 60px; font-family: BACS"">DhMtkMEC</p>",,,,,,,,,,
html-keyboard-response,239,619036,0.0-12.0-0.69,6120211d8e1eab16fcb7ad69,650c16f0f2faf8d7a0d14c09,651c1e90371af10733e73995,null,null,"<p style=""font-size: 60px; font-family: BACS"">CkBOPBbM</p>",,,,,,,,,,
html-keyboard-response,240,620040,0.0-12.0-0.70,6120211d8e1eab16fcb7ad69,650c16f0f2faf8d7a0d14c09,651c1e90371af10733e73995,null,null,"<p style=""font-size: 60px; font-family: BACS"">TAdhMYDE</p>",,,,,,,,,,
html-keyboard-response,241,621042,0.0-12.0-0.71,6120211d8e1eab16fcb7ad69,650c16f0f2faf8d7a0d14c09,651c1e90371af10733e73995,null,null,"<p style=""font-size: 60px; font-family: BACS"">vQdOrZYd</p>",,,,,,,,,,
html-keyboard-response,242,622045,0.0-12.0-0.72,6120211d8e1eab16fcb7ad69,650c16f0f2faf8d7a0d14c09,651c1e90371af10733e73995,null,null,"<p style=""font-size: 60px; font-family: BACS"">EhbtmKcD</p>",,,,,,,,,,
html-keyboard-response,243,623050,0.0-12.0-0.73,6120211d8e1eab16fcb7ad69,650c16f0f2faf8d7a0d14c09,651c1e90371af10733e73995,null,null,"<p style=""font-size: 60px; font-family: BACS"">vYLUkJdr</p>",,,,,,,,,,
html-keyboard-response,244,624054,0.0-12.0-0.74,6120211d8e1eab16fcb7ad69,650c16f0f2faf8d7a0d14c09,651c1e90371af10733e73995,null,null,"<p style=""font-size: 60px; font-family: BACS"">uQuZcJQA</p>",,,,,,,,,,
html-keyboard-response,245,625057,0.0-12.0-0.75,6120211d8e1eab16fcb7ad69,650c16f0f2faf8d7a0d14c09,651c1e90371af10733e73995,null,null,"<p style=""font-size: 60px; font-family: BACS"">LvuOGYZJO</p>",,,,,,,,,,
html-keyboard-response,246,626061,0.0-12.0-0.76,6120211d8e1eab16fcb7ad69,650c16f0f2faf8d7a0d14c09,651c1e90371af10733e73995,null,null,"<p style=""font-size: 60px; font-family: BACS"">UdbdJQA</p>",,,,,,,,,,
html-keyboard-response,247,627064,0.0-12.0-0.77,6120211d8e1eab16fcb7ad69,650c16f0f2faf8d7a0d14c09,651c1e90371af10733e73995,null,null,"<p style=""font-size: 60px; font-family: BACS"">bGuOrZYd</p>",,,,,,,,,,
html-keyboard-response,248,628067,0.0-12.0-0.78,6120211d8e1eab16fcb7ad69,650c16f0f2faf8d7a0d14c09,651c1e90371af10733e73995,null,null,"<p style=""font-size: 60px; font-family: BACS"">EhbtAlKD</p>",,,,,,,,,,
html-keyboard-response,249,629071,0.0-12.0-0.79,6120211d8e1eab16fcb7ad69,650c16f0f2faf8d7a0d14c09,651c1e90371af10733e73995,null,null,"<p style=""font-size: 60px; font-family: BACS"">YQbcrZYd</p>",,,,,,,,,,
html-keyboard-response,250,855916,0.0-13.0,6120211d8e1eab16fcb7ad69,650c16f0f2faf8d7a0d14c09,651c1e90371af10733e73995,226842, ,"<p>Great, you've seen the third block of words. You may now take a short break.</p>
      <p>Press the spacebar when you're ready to continue.</p>",,,,,,,,,,
html-keyboard-response,251,856921,0.0-14.0-0.0,6120211d8e1eab16fcb7ad69,650c16f0f2faf8d7a0d14c09,651c1e90371af10733e73995,null,null,"<p style=""font-size: 60px; font-family: BACS"">bGuOkJdr</p>",,,,,,,,,,
html-keyboard-response,252,857923,0.0-14.0-0.1,6120211d8e1eab16fcb7ad69,650c16f0f2faf8d7a0d14c09,651c1e90371af10733e73995,null,null,"<p style=""font-size: 60px; font-family: BACS"">vQdOYZJO</p>",,,,,,,,,,
html-keyboard-response,253,858924,0.0-14.0-0.2,6120211d8e1eab16fcb7ad69,650c16f0f2faf8d7a0d14c09,651c1e90371af10733e73995,null,null,"<p style=""font-size: 60px; font-family: BACS"">EdBbYDE</p>",,,,,,,,,,
html-keyboard-response,254,859927,0.0-14.0-0.3,6120211d8e1eab16fcb7ad69,650c16f0f2faf8d7a0d14c09,651c1e90371af10733e73995,null,null,"<p style=""font-size: 60px; font-family: BACS"">TDKhBbM</p>",,,,,,,,,,
html-keyboard-response,255,860931,0.0-14.0-0.4,6120211d8e1eab16fcb7ad69,650c16f0f2faf8d7a0d14c09,651c1e90371af10733e73995,null,null,"<p style=""font-size: 60px; font-family: BACS"">LvuOGYZJO</p>",,,,,,,,,,
html-keyboard-response,256,861933,0.0-14.0-0.5,6120211d8e1eab16fcb7ad69,650c16f0f2faf8d7a0d14c09,651c1e90371af10733e73995,null,null,"<p style=""font-size: 60px; font-family: BACS"">TAdhMkMEC</p>",,,,,,,,,,
html-keyboard-response,257,862937,0.0-14.0-0.6,6120211d8e1eab16fcb7ad69,650c16f0f2faf8d7a0d14c09,651c1e90371af10733e73995,null,null,"<p style=""font-size: 60px; font-family: BACS"">EtMDMmKcD</p>",,,,,,,,,,
html-keyboard-response,258,863940,0.0-14.0-0.7,6120211d8e1eab16fcb7ad69,650c16f0f2faf8d7a0d14c09,651c1e90371af10733e73995,null,null,"<p style=""font-size: 60px; font-family: BACS"">EdBbkMEC</p>",,,,,,,,,,
html-keyboard-response,259,864942,0.0-14.0-0.8,6120211d8e1eab16fcb7ad69,650c16f0f2faf8d7a0d14c09,651c1e90371af10733e73995,null,null,"<p style=""font-size: 60px; font-family: BACS"">UdbdJQA</p>",,,,,,,,,,
html-keyboard-response,260,865946,0.0-14.0-0.9,6120211d8e1eab16fcb7ad69,650c16f0f2faf8d7a0d14c09,651c1e90371af10733e73995,null,null,"<p style=""font-size: 60px; font-family: BACS"">vQdOkJdr</p>",,,,,,,,,,
html-keyboard-response,261,866949,0.0-14.0-0.10,6120211d8e1eab16fcb7ad69,650c16f0f2faf8d7a0d14c09,651c1e90371af10733e73995,null,null,"<p style=""font-size: 60px; font-family: BACS"">TAdhMBbM</p>",,,,,,,,,,
html-keyboard-response,262,867953,0.0-14.0-0.11,6120211d8e1eab16fcb7ad69,650c16f0f2faf8d7a0d14c09,651c1e90371af10733e73995,null,null,"<p style=""font-size: 60px; font-family: BACS"">EhbtYDE</p>",,,,,,,,,,
html-keyboard-response,263,868956,0.0-14.0-0.12,6120211d8e1eab16fcb7ad69,650c16f0f2faf8d7a0d14c09,651c1e90371af10733e73995,null,null,"<p style=""font-size: 60px; font-family: BACS"">EtMDMkMEC</p>",,,,,,,,,,
html-keyboard-response,264,869961,0.0-14.0-0.13,6120211d8e1eab16fcb7ad69,650c16f0f2faf8d7a0d14c09,651c1e90371af10733e73995,null,null,"<p style=""font-size: 60px; font-family: BACS"">UdbdrZYd</p>",,,,,,,,,,
html-keyboard-response,265,870964,0.0-14.0-0.14,6120211d8e1eab16fcb7ad69,650c16f0f2faf8d7a0d14c09,651c1e90371af10733e73995,null,null,"<p style=""font-size: 60px; font-family: BACS"">hkRKAlKD</p>",,,,,,,,,,
html-keyboard-response,266,871967,0.0-14.0-0.15,6120211d8e1eab16fcb7ad69,650c16f0f2faf8d7a0d14c09,651c1e90371af10733e73995,null,null,"<p style=""font-size: 60px; font-family: BACS"">YQbcrZYd</p>",,,,,,,,,,
html-keyboard-response,267,872971,0.0-14.0-0.16,6120211d8e1eab16fcb7ad69,650c16f0f2faf8d7a0d14c09,651c1e90371af10733e73995,null,null,"<p style=""font-size: 60px; font-family: BACS"">CkBOPmKcD</p>",,,,,,,,,,
html-keyboard-response,268,873974,0.0-14.0-0.17,6120211d8e1eab16fcb7ad69,650c16f0f2faf8d7a0d14c09,651c1e90371af10733e73995,null,null,"<p style=""font-size: 60px; font-family: BACS"">mbZlkJdr</p>",,,,,,,,,,
html-keyboard-response,269,874978,0.0-14.0-0.18,6120211d8e1eab16fcb7ad69,650c16f0f2faf8d7a0d14c09,651c1e90371af10733e73995,null,null,"<p style=""font-size: 60px; font-family: BACS"">hkRKmKcD</p>",,,,,,,,,,
html-keyboard-response,270,875982,0.0-14.0-0.19,6120211d8e1eab16fcb7ad69,650c16f0f2faf8d7a0d14c09,651c1e90371af10733e73995,null,null,"<p style=""font-size: 60px; font-family: BACS"">uQuZcrZYd</p>",,,,,,,,,,
html-keyboard-response,271,876985,0.0-14.0-0.20,6120211d8e1eab16fcb7ad69,650c16f0f2faf8d7a0d14c09,651c1e90371af10733e73995,null,null,"<p style=""font-size: 60px; font-family: BACS"">hAROKmKcD</p>",,,,,,,,,,
html-keyboard-response,272,877989,0.0-14.0-0.21,6120211d8e1eab16fcb7ad69,650c16f0f2faf8d7a0d14c09,651c1e90371af10733e73995,null,null,"<p style=""font-size: 60px; font-family: BACS"">EhbtBbM</p>",,,,,,,,,,
html-keyboard-response,273,878991,0.0-14.0-0.22,6120211d8e1eab16fcb7ad69,650c16f0f2faf8d7a0d14c09,651c1e90371af10733e73995,null,null,"<p style=""font-size: 60px; font-family: BACS"">advYObLd</p>",,,,,,,,,,
html-keyboard-response,274,879994,0.0-14.0-0.23,6120211d8e1eab16fcb7ad69,650c16f0f2faf8d7a0d14c09,651c1e90371af10733e73995,null,null,"<p style=""font-size: 60px; font-family: BACS"">vYLUkJdr</p>",,,,,,,,,,
html-keyboard-response,275,880996,0.0-14.0-0.24,6120211d8e1eab16fcb7ad69,650c16f0f2faf8d7a0d14c09,651c1e90371af10733e73995,null,null,"<p style=""font-size: 60px; font-family: BACS"">DhMtmKcD</p>",,,,,,,,,,
html-keyboard-response,276,881999,0.0-14.0-0.25,6120211d8e1eab16fcb7ad69,650c16f0f2faf8d7a0d14c09,651c1e90371af10733e73995,null,null,"<p style=""font-size: 60px; font-family: BACS"">vYLUJQA</p>",,,,,,,,,,
html-keyboard-response,277,883002,0.0-14.0-0.26,6120211d8e1eab16fcb7ad69,650c16f0f2faf8d7a0d14c09,651c1e90371af10733e73995,null,null,"<p style=""font-size: 60px; font-family: BACS"">advYOYZJO</p>",,,,,,,,,,
html-keyboard-response,278,884005,0.0-14.0-0.27,6120211d8e1eab16fcb7ad69,650c16f0f2faf8d7a0d14c09,651c1e90371af10733e73995,null,null,"<p style=""font-size: 60px; font-family: BACS"">hkRKYDE</p>",,,,,,,,,,
html-keyboard-response,279,885008,0.0-14.0-0.28,6120211d8e1eab16fcb7ad69,650c16f0f2faf8d7a0d14c09,651c1e90371af10733e73995,null,null,"<p style=""font-size: 60px; font-family: BACS"">UdbdkJdr</p>",,,,,,,,,,
html-keyboard-response,280,886010,0.0-14.0-0.29,6120211d8e1eab16fcb7ad69,650c16f0f2faf8d7a0d14c09,651c1e90371af10733e73995,null,null,"<p style=""font-size: 60px; font-family: BACS"">EdBbAlKD</p>",,,,,,,,,,
html-keyboard-response,281,887013,0.0-14.0-0.30,6120211d8e1eab16fcb7ad69,650c16f0f2faf8d7a0d14c09,651c1e90371af10733e73995,null,null,"<p style=""font-size: 60px; font-family: BACS"">mbZlbLd</p>",,,,,,,,,,
html-keyboard-response,282,888016,0.0-14.0-0.31,6120211d8e1eab16fcb7ad69,650c16f0f2faf8d7a0d14c09,651c1e90371af10733e73995,null,null,"<p style=""font-size: 60px; font-family: BACS"">advYOkJdr</p>",,,,,,,,,,
html-keyboard-response,283,889019,0.0-14.0-0.32,6120211d8e1eab16fcb7ad69,650c16f0f2faf8d7a0d14c09,651c1e90371af10733e73995,null,null,"<p style=""font-size: 60px; font-family: BACS"">bGuOJQA</p>",,,,,,,,,,
html-keyboard-response,284,890022,0.0-14.0-0.33,6120211d8e1eab16fcb7ad69,650c16f0f2faf8d7a0d14c09,651c1e90371af10733e73995,null,null,"<p style=""font-size: 60px; font-family: BACS"">hkRKkMEC</p>",,,,,,,,,,
html-keyboard-response,285,891026,0.0-14.0-0.34,6120211d8e1eab16fcb7ad69,650c16f0f2faf8d7a0d14c09,651c1e90371af10733e73995,null,null,"<p style=""font-size: 60px; font-family: BACS"">mbZlYZJO</p>",,,,,,,,,,
html-keyboard-response,286,892028,0.0-14.0-0.35,6120211d8e1eab16fcb7ad69,650c16f0f2faf8d7a0d14c09,651c1e90371af10733e73995,null,null,"<p style=""font-size: 60px; font-family: BACS"">EdBbBbM</p>",,,,,,,,,,
html-keyboard-response,287,893033,0.0-14.0-0.36,6120211d8e1eab16fcb7ad69,650c16f0f2faf8d7a0d14c09,651c1e90371af10733e73995,null,null,"<p style=""font-size: 60px; font-family: BACS"">TDKhAlKD</p>",,,,,,,,,,
html-keyboard-response,288,894036,0.0-14.0-0.37,6120211d8e1eab16fcb7ad69,650c16f0f2faf8d7a0d14c09,651c1e90371af10733e73995,null,null,"<p style=""font-size: 60px; font-family: BACS"">hAROKkMEC</p>",,,,,,,,,,
html-keyboard-response,289,895039,0.0-14.0-0.38,6120211d8e1eab16fcb7ad69,650c16f0f2faf8d7a0d14c09,651c1e90371af10733e73995,null,null,"<p style=""font-size: 60px; font-family: BACS"">mbZlJQA</p>",,,,,,,,,,
html-keyboard-response,290,896042,0.0-14.0-0.39,6120211d8e1eab16fcb7ad69,650c16f0f2faf8d7a0d14c09,651c1e90371af10733e73995,null,null,"<p style=""font-size: 60px; font-family: BACS"">uQuZcYZJO</p>",,,,,,,,,,
html-keyboard-response,291,897045,0.0-14.0-0.40,6120211d8e1eab16fcb7ad69,650c16f0f2faf8d7a0d14c09,651c1e90371af10733e73995,null,null,"<p style=""font-size: 60px; font-family: BACS"">bGuOrZYd</p>",,,,,,,,,,
html-keyboard-response,292,898048,0.0-14.0-0.41,6120211d8e1eab16fcb7ad69,650c16f0f2faf8d7a0d14c09,651c1e90371af10733e73995,null,null,"<p style=""font-size: 60px; font-family: BACS"">CkBOPkMEC</p>",,,,,,,,,,
html-keyboard-response,293,899052,0.0-14.0-0.42,6120211d8e1eab16fcb7ad69,650c16f0f2faf8d7a0d14c09,651c1e90371af10733e73995,null,null,"<p style=""font-size: 60px; font-family: BACS"">dClOCBbM</p>",,,,,,,,,,
html-keyboard-response,294,900055,0.0-14.0-0.43,6120211d8e1eab16fcb7ad69,650c16f0f2faf8d7a0d14c09,651c1e90371af10733e73995,null,null,"<p style=""font-size: 60px; font-family: BACS"">vYLUbLd</p>",,,,,,,,,,
html-keyboard-response,295,901058,0.0-14.0-0.44,6120211d8e1eab16fcb7ad69,650c16f0f2faf8d7a0d14c09,651c1e90371af10733e73995,null,null,"<p style=""font-size: 60px; font-family: BACS"">TDKhYDE</p>",,,,,,,,,,
html-keyboard-response,296,902061,0.0-14.0-0.45,6120211d8e1eab16fcb7ad69,650c16f0f2faf8d7a0d14c09,651c1e90371af10733e73995,null,null,"<p style=""font-size: 60px; font-family: BACS"">EhbtAlKD</p>",,,,,,,,,,
html-keyboard-response,297,903064,0.0-14.0-0.46,6120211d8e1eab16fcb7ad69,650c16f0f2faf8d7a0d14c09,651c1e90371af10733e73995,null,null,"<p style=""font-size: 60px; font-family: BACS"">TAdhMmKcD</p>",,,,,,,,,,
html-keyboard-response,298,904069,0.0-14.0-0.47,6120211d8e1eab16fcb7ad69,650c16f0f2faf8d7a0d14c09,651c1e90371af10733e73995,null,null,"<p style=""font-size: 60px; font-family: BACS"">LvuOGJQA</p>",,,,,,,,,,
html-keyboard-response,299,905072,0.0-14.0-0.48,6120211d8e1eab16fcb7ad69,650c16f0f2faf8d7a0d14c09,651c1e90371af10733e73995,null,null,"<p style=""font-size: 60px; font-family: BACS"">dClOCYDE</p>",,,,,,,,,,
html-keyboard-response,300,906073,0.0-14.0-0.49,6120211d8e1eab16fcb7ad69,650c16f0f2faf8d7a0d14c09,651c1e90371af10733e73995,null,null,"<p style=""font-size: 60px; font-family: BACS"">vAuNlrZYd</p>",,,,,,,,,,
html-keyboard-response,301,907077,0.0-14.0-0.50,6120211d8e1eab16fcb7ad69,650c16f0f2faf8d7a0d14c09,651c1e90371af10733e73995,null,null,"<p style=""font-size: 60px; font-family: BACS"">uQuZcbLd</p>",,,,,,,,,,
html-keyboard-response,302,908080,0.0-14.0-0.51,6120211d8e1eab16fcb7ad69,650c16f0f2faf8d7a0d14c09,651c1e90371af10733e73995,null,null,"<p style=""font-size: 60px; font-family: BACS"">UdbdYZJO</p>",,,,,,,,,,
html-keyboard-response,303,909083,0.0-14.0-0.52,6120211d8e1eab16fcb7ad69,650c16f0f2faf8d7a0d14c09,651c1e90371af10733e73995,null,null,"<p style=""font-size: 60px; font-family: BACS"">LvuOGbLd</p>",,,,,,,,,,
html-keyboard-response,304,910088,0.0-14.0-0.53,6120211d8e1eab16fcb7ad69,650c16f0f2faf8d7a0d14c09,651c1e90371af10733e73995,null,null,"<p style=""font-size: 60px; font-family: BACS"">vAuNlJQA</p>",,,,,,,,,,
html-keyboard-response,305,911092,0.0-14.0-0.54,6120211d8e1eab16fcb7ad69,650c16f0f2faf8d7a0d14c09,651c1e90371af10733e73995,null,null,"<p style=""font-size: 60px; font-family: BACS"">TAdhMYDE</p>",,,,,,,,,,
html-keyboard-response,306,912095,0.0-14.0-0.55,6120211d8e1eab16fcb7ad69,650c16f0f2faf8d7a0d14c09,651c1e90371af10733e73995,null,null,"<p style=""font-size: 60px; font-family: BACS"">YQbcbLd</p>",,,,,,,,,,
html-keyboard-response,307,913098,0.0-14.0-0.56,6120211d8e1eab16fcb7ad69,650c16f0f2faf8d7a0d14c09,651c1e90371af10733e73995,null,null,"<p style=""font-size: 60px; font-family: BACS"">hAROKBbM</p>",,,,,,,,,,
html-keyboard-response,308,914100,0.0-14.0-0.57,6120211d8e1eab16fcb7ad69,650c16f0f2faf8d7a0d14c09,651c1e90371af10733e73995,null,null,"<p style=""font-size: 60px; font-family: BACS"">YQbcJQA</p>",,,,,,,,,,
html-keyboard-response,309,915104,0.0-14.0-0.58,6120211d8e1eab16fcb7ad69,650c16f0f2faf8d7a0d14c09,651c1e90371af10733e73995,null,null,"<p style=""font-size: 60px; font-family: BACS"">DhMtBbM</p>",,,,,,,,,,
html-keyboard-response,310,916107,0.0-14.0-0.59,6120211d8e1eab16fcb7ad69,650c16f0f2faf8d7a0d14c09,651c1e90371af10733e73995,null,null,"<p style=""font-size: 60px; font-family: BACS"">LvuOGkJdr</p>",,,,,,,,,,
html-keyboard-response,311,917109,0.0-14.0-0.60,6120211d8e1eab16fcb7ad69,650c16f0f2faf8d7a0d14c09,651c1e90371af10733e73995,null,null,"<p style=""font-size: 60px; font-family: BACS"">dClOCmKcD</p>",,,,,,,,,,
html-keyboard-response,312,918111,0.0-14.0-0.61,6120211d8e1eab16fcb7ad69,650c16f0f2faf8d7a0d14c09,651c1e90371af10733e73995,null,null,"<p style=""font-size: 60px; font-family: BACS"">TDKhkMEC</p>",,,,,,,,,,
html-keyboard-response,313,919114,0.0-14.0-0.62,6120211d8e1eab16fcb7ad69,650c16f0f2faf8d7a0d14c09,651c1e90371af10733e73995,null,null,"<p style=""font-size: 60px; font-family: BACS"">DhMtAlKD</p>",,,,,,,,,,
html-keyboard-response,314,920117,0.0-14.0-0.63,6120211d8e1eab16fcb7ad69,650c16f0f2faf8d7a0d14c09,651c1e90371af10733e73995,null,null,"<p style=""font-size: 60px; font-family: BACS"">advYOrZYd</p>",,,,,,,,,,
html-keyboard-response,315,921120,0.0-14.0-0.64,6120211d8e1eab16fcb7ad69,650c16f0f2faf8d7a0d14c09,651c1e90371af10733e73995,null,null,"<p style=""font-size: 60px; font-family: BACS"">EtMDMAlKD</p>",,,,,,,,,,
html-keyboard-response,316,922137,0.0-14.0-0.65,6120211d8e1eab16fcb7ad69,650c16f0f2faf8d7a0d14c09,651c1e90371af10733e73995,null,null,"<p style=""font-size: 60px; font-family: BACS"">vQdObLd</p>",,,,,,,,,,
html-keyboard-response,317,923140,0.0-14.0-0.66,6120211d8e1eab16fcb7ad69,650c16f0f2faf8d7a0d14c09,651c1e90371af10733e73995,null,null,"<p style=""font-size: 60px; font-family: BACS"">EhbtmKcD</p>",,,,,,,,,,
html-keyboard-response,318,924144,0.0-14.0-0.67,6120211d8e1eab16fcb7ad69,650c16f0f2faf8d7a0d14c09,651c1e90371af10733e73995,null,null,"<p style=""font-size: 60px; font-family: BACS"">EtMDMYDE</p>",,,,,,,,,,
html-keyboard-response,319,925147,0.0-14.0-0.68,6120211d8e1eab16fcb7ad69,650c16f0f2faf8d7a0d14c09,651c1e90371af10733e73995,null,null,"<p style=""font-size: 60px; font-family: BACS"">CkBOPAlKD</p>",,,,,,,,,,
html-keyboard-response,320,926150,0.0-14.0-0.69,6120211d8e1eab16fcb7ad69,650c16f0f2faf8d7a0d14c09,651c1e90371af10733e73995,null,null,"<p style=""font-size: 60px; font-family: BACS"">YQbckJdr</p>",,,,,,,,,,
html-keyboard-response,321,927151,0.0-14.0-0.70,6120211d8e1eab16fcb7ad69,650c16f0f2faf8d7a0d14c09,651c1e90371af10733e73995,null,null,"<p style=""font-size: 60px; font-family: BACS"">vAuNlbLd</p>",,,,,,,,,,
html-keyboard-response,322,928153,0.0-14.0-0.71,6120211d8e1eab16fcb7ad69,650c16f0f2faf8d7a0d14c09,651c1e90371af10733e73995,null,null,"<p style=""font-size: 60px; font-family: BACS"">bGuOYZJO</p>",,,,,,,,,,
html-keyboard-response,323,929156,0.0-14.0-0.72,6120211d8e1eab16fcb7ad69,650c16f0f2faf8d7a0d14c09,651c1e90371af10733e73995,null,null,"<p style=""font-size: 60px; font-family: BACS"">uQuZcJQA</p>",,,,,,,,,,
html-keyboard-response,324,930159,0.0-14.0-0.73,6120211d8e1eab16fcb7ad69,650c16f0f2faf8d7a0d14c09,651c1e90371af10733e73995,null,null,"<p style=""font-size: 60px; font-family: BACS"">CkBOPBbM</p>",,,,,,,,,,
html-keyboard-response,325,931161,0.0-14.0-0.74,6120211d8e1eab16fcb7ad69,650c16f0f2faf8d7a0d14c09,651c1e90371af10733e73995,null,null,"<p style=""font-size: 60px; font-family: BACS"">dClOCAlKD</p>",,,,,,,,,,
html-keyboard-response,326,932163,0.0-14.0-0.75,6120211d8e1eab16fcb7ad69,650c16f0f2faf8d7a0d14c09,651c1e90371af10733e73995,null,null,"<p style=""font-size: 60px; font-family: BACS"">vYLUrZYd</p>",,,,,,,,,,
html-keyboard-response,327,933165,0.0-14.0-0.76,6120211d8e1eab16fcb7ad69,650c16f0f2faf8d7a0d14c09,651c1e90371af10733e73995,null,null,"<p style=""font-size: 60px; font-family: BACS"">DhMtkMEC</p>",,,,,,,,,,
html-keyboard-response,328,934167,0.0-14.0-0.77,6120211d8e1eab16fcb7ad69,650c16f0f2faf8d7a0d14c09,651c1e90371af10733e73995,null,null,"<p style=""font-size: 60px; font-family: BACS"">hAROKYDE</p>",,,,,,,,,,
html-keyboard-response,329,935171,0.0-14.0-0.78,6120211d8e1eab16fcb7ad69,650c16f0f2faf8d7a0d14c09,651c1e90371af10733e73995,null,null,"<p style=""font-size: 60px; font-family: BACS"">vAuNlYZJO</p>",,,,,,,,,,
html-keyboard-response,330,936173,0.0-14.0-0.79,6120211d8e1eab16fcb7ad69,650c16f0f2faf8d7a0d14c09,651c1e90371af10733e73995,null,null,"<p style=""font-size: 60px; font-family: BACS"">vQdOrZYd</p>",,,,,,,,,,
html-keyboard-response,331,1019932,0.0-15.0,6120211d8e1eab16fcb7ad69,650c16f0f2faf8d7a0d14c09,651c1e90371af10733e73995,83757, ,"<p>Great, you've seen the fourth block of words. You may now take a short break.</p>
      <p>Press the spacebar when you're ready to continue.</p>",,,,,,,,,,
html-keyboard-response,332,1020935,0.0-16.0-0.0,6120211d8e1eab16fcb7ad69,650c16f0f2faf8d7a0d14c09,651c1e90371af10733e73995,null,null,"<p style=""font-size: 60px; font-family: BACS"">bGuOkJdr</p>",,,,,,,,,,
html-keyboard-response,333,1021938,0.0-16.0-0.1,6120211d8e1eab16fcb7ad69,650c16f0f2faf8d7a0d14c09,651c1e90371af10733e73995,null,null,"<p style=""font-size: 60px; font-family: BACS"">bGuOkJdr</p>",,,,,,,,,,
html-keyboard-response,334,1022942,0.0-16.0-0.2,6120211d8e1eab16fcb7ad69,650c16f0f2faf8d7a0d14c09,651c1e90371af10733e73995,null,null,"<p style=""font-size: 60px; font-family: BACS"">bGuOkJdr</p>",,,,,,,,,,
html-keyboard-response,335,1023945,0.0-16.0-0.3,6120211d8e1eab16fcb7ad69,650c16f0f2faf8d7a0d14c09,651c1e90371af10733e73995,null,null,"<p style=""font-size: 60px; font-family: BACS"">bGuOkJdr</p>",,,,,,,,,,
html-keyboard-response,336,1024948,0.0-16.0-0.4,6120211d8e1eab16fcb7ad69,650c16f0f2faf8d7a0d14c09,651c1e90371af10733e73995,null,null,"<p style=""font-size: 60px; font-family: BACS"">bGuOkJdr</p>",,,,,,,,,,
html-keyboard-response,337,1025950,0.0-16.0-0.5,6120211d8e1eab16fcb7ad69,650c16f0f2faf8d7a0d14c09,651c1e90371af10733e73995,null,null,"<p style=""font-size: 60px; font-family: BACS"">bGuOkJdr</p>",,,,,,,,,,
html-keyboard-response,338,1026954,0.0-16.0-0.6,6120211d8e1eab16fcb7ad69,650c16f0f2faf8d7a0d14c09,651c1e90371af10733e73995,null,null,"<p style=""font-size: 60px; font-family: BACS"">bGuOkJdr</p>",,,,,,,,,,
html-keyboard-response,339,1027957,0.0-16.0-0.7,6120211d8e1eab16fcb7ad69,650c16f0f2faf8d7a0d14c09,651c1e90371af10733e73995,null,null,"<p style=""font-size: 60px; font-family: BACS"">bGuOkJdr</p>",,,,,,,,,,
html-keyboard-response,340,1028962,0.0-16.0-0.8,6120211d8e1eab16fcb7ad69,650c16f0f2faf8d7a0d14c09,651c1e90371af10733e73995,null,null,"<p style=""font-size: 60px; font-family: BACS"">bGuOkJdr</p>",,,,,,,,,,
html-keyboard-response,341,1029966,0.0-16.0-0.9,6120211d8e1eab16fcb7ad69,650c16f0f2faf8d7a0d14c09,651c1e90371af10733e73995,null,null,"<p style=""font-size: 60px; font-family: BACS"">bGuOkJdr</p>",,,,,,,,,,
html-keyboard-response,342,1030971,0.0-16.0-0.10,6120211d8e1eab16fcb7ad69,650c16f0f2faf8d7a0d14c09,651c1e90371af10733e73995,null,null,"<p style=""font-size: 60px; font-family: BACS"">bGuOkJdr</p>",,,,,,,,,,
html-keyboard-response,343,1031973,0.0-16.0-0.11,6120211d8e1eab16fcb7ad69,650c16f0f2faf8d7a0d14c09,651c1e90371af10733e73995,null,null,"<p style=""font-size: 60px; font-family: BACS"">bGuOkJdr</p>",,,,,,,,,,
html-keyboard-response,344,1032976,0.0-16.0-0.12,6120211d8e1eab16fcb7ad69,650c16f0f2faf8d7a0d14c09,651c1e90371af10733e73995,null,null,"<p style=""font-size: 60px; font-family: BACS"">bGuOkJdr</p>",,,,,,,,,,
html-keyboard-response,345,1033981,0.0-16.0-0.13,6120211d8e1eab16fcb7ad69,650c16f0f2faf8d7a0d14c09,651c1e90371af10733e73995,null,null,"<p style=""font-size: 60px; font-family: BACS"">bGuOkJdr</p>",,,,,,,,,,
html-keyboard-response,346,1034985,0.0-16.0-0.14,6120211d8e1eab16fcb7ad69,650c16f0f2faf8d7a0d14c09,651c1e90371af10733e73995,null,null,"<p style=""font-size: 60px; font-family: BACS"">bGuOkJdr</p>",,,,,,,,,,
html-keyboard-response,347,1035988,0.0-16.0-0.15,6120211d8e1eab16fcb7ad69,650c16f0f2faf8d7a0d14c09,651c1e90371af10733e73995,null,null,"<p style=""font-size: 60px; font-family: BACS"">bGuOkJdr</p>",,,,,,,,,,
html-keyboard-response,348,1036991,0.0-16.0-0.16,6120211d8e1eab16fcb7ad69,650c16f0f2faf8d7a0d14c09,651c1e90371af10733e73995,null,null,"<p style=""font-size: 60px; font-family: BACS"">bGuOkJdr</p>",,,,,,,,,,
html-keyboard-response,349,1037994,0.0-16.0-0.17,6120211d8e1eab16fcb7ad69,650c16f0f2faf8d7a0d14c09,651c1e90371af10733e73995,null,null,"<p style=""font-size: 60px; font-family: BACS"">bGuOkJdr</p>",,,,,,,,,,
html-keyboard-response,350,1038998,0.0-16.0-0.18,6120211d8e1eab16fcb7ad69,650c16f0f2faf8d7a0d14c09,651c1e90371af10733e73995,null,null,"<p style=""font-size: 60px; font-family: BACS"">bGuOkJdr</p>",,,,,,,,,,
html-keyboard-response,351,1040002,0.0-16.0-0.19,6120211d8e1eab16fcb7ad69,650c16f0f2faf8d7a0d14c09,651c1e90371af10733e73995,null,null,"<p style=""font-size: 60px; font-family: BACS"">bGuOkJdr</p>",,,,,,,,,,
html-keyboard-response,352,1041006,0.0-16.0-0.20,6120211d8e1eab16fcb7ad69,650c16f0f2faf8d7a0d14c09,651c1e90371af10733e73995,null,null,"<p style=""font-size: 60px; font-family: BACS"">bGuOkJdr</p>",,,,,,,,,,
html-keyboard-response,353,1042010,0.0-16.0-0.21,6120211d8e1eab16fcb7ad69,650c16f0f2faf8d7a0d14c09,651c1e90371af10733e73995,null,null,"<p style=""font-size: 60px; font-family: BACS"">bGuOkJdr</p>",,,,,,,,,,
html-keyboard-response,354,1043012,0.0-16.0-0.22,6120211d8e1eab16fcb7ad69,650c16f0f2faf8d7a0d14c09,651c1e90371af10733e73995,null,null,"<p style=""font-size: 60px; font-family: BACS"">bGuOkJdr</p>",,,,,,,,,,
html-keyboard-response,355,1044015,0.0-16.0-0.23,6120211d8e1eab16fcb7ad69,650c16f0f2faf8d7a0d14c09,651c1e90371af10733e73995,null,null,"<p style=""font-size: 60px; font-family: BACS"">bGuOkJdr</p>",,,,,,,,,,
html-keyboard-response,356,1045017,0.0-16.0-0.24,6120211d8e1eab16fcb7ad69,650c16f0f2faf8d7a0d14c09,651c1e90371af10733e73995,null,null,"<p style=""font-size: 60px; font-family: BACS"">bGuOkJdr</p>",,,,,,,,,,
html-keyboard-response,357,1046020,0.0-16.0-0.25,6120211d8e1eab16fcb7ad69,650c16f0f2faf8d7a0d14c09,651c1e90371af10733e73995,null,null,"<p style=""font-size: 60px; font-family: BACS"">bGuOkJdr</p>",,,,,,,,,,
html-keyboard-response,358,1047023,0.0-16.0-0.26,6120211d8e1eab16fcb7ad69,650c16f0f2faf8d7a0d14c09,651c1e90371af10733e73995,null,null,"<p style=""font-size: 60px; font-family: BACS"">bGuOkJdr</p>",,,,,,,,,,
html-keyboard-response,359,1048026,0.0-16.0-0.27,6120211d8e1eab16fcb7ad69,650c16f0f2faf8d7a0d14c09,651c1e90371af10733e73995,null,null,"<p style=""font-size: 60px; font-family: BACS"">bGuOkJdr</p>",,,,,,,,,,
html-keyboard-response,360,1049028,0.0-16.0-0.28,6120211d8e1eab16fcb7ad69,650c16f0f2faf8d7a0d14c09,651c1e90371af10733e73995,null,null,"<p style=""font-size: 60px; font-family: BACS"">bGuOkJdr</p>",,,,,,,,,,
html-keyboard-response,361,1050032,0.0-16.0-0.29,6120211d8e1eab16fcb7ad69,650c16f0f2faf8d7a0d14c09,651c1e90371af10733e73995,null,null,"<p style=""font-size: 60px; font-family: BACS"">bGuOkJdr</p>",,,,,,,,,,
html-keyboard-response,362,1051035,0.0-16.0-0.30,6120211d8e1eab16fcb7ad69,650c16f0f2faf8d7a0d14c09,651c1e90371af10733e73995,null,null,"<p style=""font-size: 60px; font-family: BACS"">bGuOkJdr</p>",,,,,,,,,,
html-keyboard-response,363,1052039,0.0-16.0-0.31,6120211d8e1eab16fcb7ad69,650c16f0f2faf8d7a0d14c09,651c1e90371af10733e73995,null,null,"<p style=""font-size: 60px; font-family: BACS"">bGuOkJdr</p>",,,,,,,,,,
html-keyboard-response,364,1053043,0.0-16.0-0.32,6120211d8e1eab16fcb7ad69,650c16f0f2faf8d7a0d14c09,651c1e90371af10733e73995,null,null,"<p style=""font-size: 60px; font-family: BACS"">bGuOkJdr</p>",,,,,,,,,,
html-keyboard-response,365,1054046,0.0-16.0-0.33,6120211d8e1eab16fcb7ad69,650c16f0f2faf8d7a0d14c09,651c1e90371af10733e73995,null,null,"<p style=""font-size: 60px; font-family: BACS"">bGuOkJdr</p>",,,,,,,,,,
html-keyboard-response,366,1055049,0.0-16.0-0.34,6120211d8e1eab16fcb7ad69,650c16f0f2faf8d7a0d14c09,651c1e90371af10733e73995,null,null,"<p style=""font-size: 60px; font-family: BACS"">bGuOkJdr</p>",,,,,,,,,,
html-keyboard-response,367,1056054,0.0-16.0-0.35,6120211d8e1eab16fcb7ad69,650c16f0f2faf8d7a0d14c09,651c1e90371af10733e73995,null,null,"<p style=""font-size: 60px; font-family: BACS"">bGuOkJdr</p>",,,,,,,,,,
html-keyboard-response,368,1057056,0.0-16.0-0.36,6120211d8e1eab16fcb7ad69,650c16f0f2faf8d7a0d14c09,651c1e90371af10733e73995,null,null,"<p style=""font-size: 60px; font-family: BACS"">bGuOkJdr</p>",,,,,,,,,,
html-keyboard-response,369,1058059,0.0-16.0-0.37,6120211d8e1eab16fcb7ad69,650c16f0f2faf8d7a0d14c09,651c1e90371af10733e73995,null,null,"<p style=""font-size: 60px; font-family: BACS"">bGuOkJdr</p>",,,,,,,,,,
html-keyboard-response,370,1059062,0.0-16.0-0.38,6120211d8e1eab16fcb7ad69,650c16f0f2faf8d7a0d14c09,651c1e90371af10733e73995,null,null,"<p style=""font-size: 60px; font-family: BACS"">bGuOkJdr</p>",,,,,,,,,,
html-keyboard-response,371,1060064,0.0-16.0-0.39,6120211d8e1eab16fcb7ad69,650c16f0f2faf8d7a0d14c09,651c1e90371af10733e73995,null,null,"<p style=""font-size: 60px; font-family: BACS"">bGuOkJdr</p>",,,,,,,,,,
html-keyboard-response,372,1061067,0.0-16.0-0.40,6120211d8e1eab16fcb7ad69,650c16f0f2faf8d7a0d14c09,651c1e90371af10733e73995,null,null,"<p style=""font-size: 60px; font-family: BACS"">bGuOkJdr</p>",,,,,,,,,,
html-keyboard-response,373,1062070,0.0-16.0-0.41,6120211d8e1eab16fcb7ad69,650c16f0f2faf8d7a0d14c09,651c1e90371af10733e73995,null,null,"<p style=""font-size: 60px; font-family: BACS"">bGuOkJdr</p>",,,,,,,,,,
html-keyboard-response,374,1063073,0.0-16.0-0.42,6120211d8e1eab16fcb7ad69,650c16f0f2faf8d7a0d14c09,651c1e90371af10733e73995,null,null,"<p style=""font-size: 60px; font-family: BACS"">bGuOkJdr</p>",,,,,,,,,,
html-keyboard-response,375,1064076,0.0-16.0-0.43,6120211d8e1eab16fcb7ad69,650c16f0f2faf8d7a0d14c09,651c1e90371af10733e73995,null,null,"<p style=""font-size: 60px; font-family: BACS"">bGuOkJdr</p>",,,,,,,,,,
html-keyboard-response,376,1065080,0.0-16.0-0.44,6120211d8e1eab16fcb7ad69,650c16f0f2faf8d7a0d14c09,651c1e90371af10733e73995,null,null,"<p style=""font-size: 60px; font-family: BACS"">bGuOkJdr</p>",,,,,,,,,,
html-keyboard-response,377,1066083,0.0-16.0-0.45,6120211d8e1eab16fcb7ad69,650c16f0f2faf8d7a0d14c09,651c1e90371af10733e73995,null,null,"<p style=""font-size: 60px; font-family: BACS"">bGuOkJdr</p>",,,,,,,,,,
html-keyboard-response,378,1067085,0.0-16.0-0.46,6120211d8e1eab16fcb7ad69,650c16f0f2faf8d7a0d14c09,651c1e90371af10733e73995,null,null,"<p style=""font-size: 60px; font-family: BACS"">bGuOkJdr</p>",,,,,,,,,,
html-keyboard-response,379,1068090,0.0-16.0-0.47,6120211d8e1eab16fcb7ad69,650c16f0f2faf8d7a0d14c09,651c1e90371af10733e73995,null,null,"<p style=""font-size: 60px; font-family: BACS"">bGuOkJdr</p>",,,,,,,,,,
html-keyboard-response,380,1069093,0.0-16.0-0.48,6120211d8e1eab16fcb7ad69,650c16f0f2faf8d7a0d14c09,651c1e90371af10733e73995,null,null,"<p style=""font-size: 60px; font-family: BACS"">bGuOkJdr</p>",,,,,,,,,,
html-keyboard-response,381,1070099,0.0-16.0-0.49,6120211d8e1eab16fcb7ad69,650c16f0f2faf8d7a0d14c09,651c1e90371af10733e73995,null,null,"<p style=""font-size: 60px; font-family: BACS"">bGuOkJdr</p>",,,,,,,,,,
html-keyboard-response,382,1071103,0.0-16.0-0.50,6120211d8e1eab16fcb7ad69,650c16f0f2faf8d7a0d14c09,651c1e90371af10733e73995,null,null,"<p style=""font-size: 60px; font-family: BACS"">bGuOkJdr</p>",,,,,,,,,,
html-keyboard-response,383,1072108,0.0-16.0-0.51,6120211d8e1eab16fcb7ad69,650c16f0f2faf8d7a0d14c09,651c1e90371af10733e73995,null,null,"<p style=""font-size: 60px; font-family: BACS"">bGuOkJdr</p>",,,,,,,,,,
html-keyboard-response,384,1073112,0.0-16.0-0.52,6120211d8e1eab16fcb7ad69,650c16f0f2faf8d7a0d14c09,651c1e90371af10733e73995,null,null,"<p style=""font-size: 60px; font-family: BACS"">bGuOkJdr</p>",,,,,,,,,,
html-keyboard-response,385,1074115,0.0-16.0-0.53,6120211d8e1eab16fcb7ad69,650c16f0f2faf8d7a0d14c09,651c1e90371af10733e73995,null,null,"<p style=""font-size: 60px; font-family: BACS"">bGuOkJdr</p>",,,,,,,,,,
html-keyboard-response,386,1075118,0.0-16.0-0.54,6120211d8e1eab16fcb7ad69,650c16f0f2faf8d7a0d14c09,651c1e90371af10733e73995,null,null,"<p style=""font-size: 60px; font-family: BACS"">bGuOkJdr</p>",,,,,,,,,,
html-keyboard-response,387,1076122,0.0-16.0-0.55,6120211d8e1eab16fcb7ad69,650c16f0f2faf8d7a0d14c09,651c1e90371af10733e73995,null,null,"<p style=""font-size: 60px; font-family: BACS"">bGuOkJdr</p>",,,,,,,,,,
html-keyboard-response,388,1077125,0.0-16.0-0.56,6120211d8e1eab16fcb7ad69,650c16f0f2faf8d7a0d14c09,651c1e90371af10733e73995,null,null,"<p style=""font-size: 60px; font-family: BACS"">bGuOkJdr</p>",,,,,,,,,,
html-keyboard-response,389,1078129,0.0-16.0-0.57,6120211d8e1eab16fcb7ad69,650c16f0f2faf8d7a0d14c09,651c1e90371af10733e73995,null,null,"<p style=""font-size: 60px; font-family: BACS"">bGuOkJdr</p>",,,,,,,,,,
html-keyboard-response,390,1079133,0.0-16.0-0.58,6120211d8e1eab16fcb7ad69,650c16f0f2faf8d7a0d14c09,651c1e90371af10733e73995,null,null,"<p style=""font-size: 60px; font-family: BACS"">bGuOkJdr</p>",,,,,,,,,,
html-keyboard-response,391,1080136,0.0-16.0-0.59,6120211d8e1eab16fcb7ad69,650c16f0f2faf8d7a0d14c09,651c1e90371af10733e73995,null,null,"<p style=""font-size: 60px; font-family: BACS"">bGuOkJdr</p>",,,,,,,,,,
html-keyboard-response,392,1081139,0.0-16.0-0.60,6120211d8e1eab16fcb7ad69,650c16f0f2faf8d7a0d14c09,651c1e90371af10733e73995,null,null,"<p style=""font-size: 60px; font-family: BACS"">bGuOkJdr</p>",,,,,,,,,,
html-keyboard-response,393,1082141,0.0-16.0-0.61,6120211d8e1eab16fcb7ad69,650c16f0f2faf8d7a0d14c09,651c1e90371af10733e73995,null,null,"<p style=""font-size: 60px; font-family: BACS"">bGuOkJdr</p>",,,,,,,,,,
html-keyboard-response,394,1083145,0.0-16.0-0.62,6120211d8e1eab16fcb7ad69,650c16f0f2faf8d7a0d14c09,651c1e90371af10733e73995,null,null,"<p style=""font-size: 60px; font-family: BACS"">bGuOkJdr</p>",,,,,,,,,,
html-keyboard-response,395,1084148,0.0-16.0-0.63,6120211d8e1eab16fcb7ad69,650c16f0f2faf8d7a0d14c09,651c1e90371af10733e73995,null,null,"<p style=""font-size: 60px; font-family: BACS"">bGuOkJdr</p>",,,,,,,,,,
html-keyboard-response,396,1085151,0.0-16.0-0.64,6120211d8e1eab16fcb7ad69,650c16f0f2faf8d7a0d14c09,651c1e90371af10733e73995,null,null,"<p style=""font-size: 60px; font-family: BACS"">bGuOkJdr</p>",,,,,,,,,,
html-keyboard-response,397,1086156,0.0-16.0-0.65,6120211d8e1eab16fcb7ad69,650c16f0f2faf8d7a0d14c09,651c1e90371af10733e73995,null,null,"<p style=""font-size: 60px; font-family: BACS"">bGuOkJdr</p>",,,,,,,,,,
html-keyboard-response,398,1087159,0.0-16.0-0.66,6120211d8e1eab16fcb7ad69,650c16f0f2faf8d7a0d14c09,651c1e90371af10733e73995,null,null,"<p style=""font-size: 60px; font-family: BACS"">bGuOkJdr</p>",,,,,,,,,,
html-keyboard-response,399,1088163,0.0-16.0-0.67,6120211d8e1eab16fcb7ad69,650c16f0f2faf8d7a0d14c09,651c1e90371af10733e73995,null,null,"<p style=""font-size: 60px; font-family: BACS"">bGuOkJdr</p>",,,,,,,,,,
html-keyboard-response,400,1089167,0.0-16.0-0.68,6120211d8e1eab16fcb7ad69,650c16f0f2faf8d7a0d14c09,651c1e90371af10733e73995,null,null,"<p style=""font-size: 60px; font-family: BACS"">bGuOkJdr</p>",,,,,,,,,,
html-keyboard-response,401,1090171,0.0-16.0-0.69,6120211d8e1eab16fcb7ad69,650c16f0f2faf8d7a0d14c09,651c1e90371af10733e73995,null,null,"<p style=""font-size: 60px; font-family: BACS"">bGuOkJdr</p>",,,,,,,,,,
html-keyboard-response,402,1091173,0.0-16.0-0.70,6120211d8e1eab16fcb7ad69,650c16f0f2faf8d7a0d14c09,651c1e90371af10733e73995,null,null,"<p style=""font-size: 60px; font-family: BACS"">bGuOkJdr</p>",,,,,,,,,,
html-keyboard-response,403,1092177,0.0-16.0-0.71,6120211d8e1eab16fcb7ad69,650c16f0f2faf8d7a0d14c09,651c1e90371af10733e73995,null,null,"<p style=""font-size: 60px; font-family: BACS"">bGuOkJdr</p>",,,,,,,,,,
html-keyboard-response,404,1093180,0.0-16.0-0.72,6120211d8e1eab16fcb7ad69,650c16f0f2faf8d7a0d14c09,651c1e90371af10733e73995,null,null,"<p style=""font-size: 60px; font-family: BACS"">bGuOkJdr</p>",,,,,,,,,,
html-keyboard-response,405,1094183,0.0-16.0-0.73,6120211d8e1eab16fcb7ad69,650c16f0f2faf8d7a0d14c09,651c1e90371af10733e73995,null,null,"<p style=""font-size: 60px; font-family: BACS"">bGuOkJdr</p>",,,,,,,,,,
html-keyboard-response,406,1095186,0.0-16.0-0.74,6120211d8e1eab16fcb7ad69,650c16f0f2faf8d7a0d14c09,651c1e90371af10733e73995,null,null,"<p style=""font-size: 60px; font-family: BACS"">bGuOkJdr</p>",,,,,,,,,,
html-keyboard-response,407,1096189,0.0-16.0-0.75,6120211d8e1eab16fcb7ad69,650c16f0f2faf8d7a0d14c09,651c1e90371af10733e73995,null,null,"<p style=""font-size: 60px; font-family: BACS"">bGuOkJdr</p>",,,,,,,,,,
html-keyboard-response,408,1097192,0.0-16.0-0.76,6120211d8e1eab16fcb7ad69,650c16f0f2faf8d7a0d14c09,651c1e90371af10733e73995,null,null,"<p style=""font-size: 60px; font-family: BACS"">bGuOkJdr</p>",,,,,,,,,,
html-keyboard-response,409,1098196,0.0-16.0-0.77,6120211d8e1eab16fcb7ad69,650c16f0f2faf8d7a0d14c09,651c1e90371af10733e73995,null,null,"<p style=""font-size: 60px; font-family: BACS"">bGuOkJdr</p>",,,,,,,,,,
html-keyboard-response,410,1099200,0.0-16.0-0.78,6120211d8e1eab16fcb7ad69,650c16f0f2faf8d7a0d14c09,651c1e90371af10733e73995,null,null,"<p style=""font-size: 60px; font-family: BACS"">bGuOkJdr</p>",,,,,,,,,,
html-keyboard-response,411,1100202,0.0-16.0-0.79,6120211d8e1eab16fcb7ad69,650c16f0f2faf8d7a0d14c09,651c1e90371af10733e73995,null,null,"<p style=""font-size: 60px; font-family: BACS"">bGuOkJdr</p>",,,,,,,,,,
html-keyboard-response,412,1108525,0.0-17.0,6120211d8e1eab16fcb7ad69,650c16f0f2faf8d7a0d14c09,651c1e90371af10733e73995,8321, ,"<p>Great, you've seen the fifth block of words. You may now take a short break.</p>
      <p>Press the spacebar when you're ready to continue.</p>",,,,,,,,,,
html-keyboard-response,413,1109528,0.0-18.0-0.0,6120211d8e1eab16fcb7ad69,650c16f0f2faf8d7a0d14c09,651c1e90371af10733e73995,null,null,"<p style=""font-size: 60px; font-family: BACS"">UdbdJQA</p>",,,,,,,,,,
html-keyboard-response,414,1110532,0.0-18.0-0.1,6120211d8e1eab16fcb7ad69,650c16f0f2faf8d7a0d14c09,651c1e90371af10733e73995,null,null,"<p style=""font-size: 60px; font-family: BACS"">LvuOGkJdr</p>",,,,,,,,,,
html-keyboard-response,415,1111536,0.0-18.0-0.2,6120211d8e1eab16fcb7ad69,650c16f0f2faf8d7a0d14c09,651c1e90371af10733e73995,null,null,"<p style=""font-size: 60px; font-family: BACS"">bGuOYZJO</p>",,,,,,,,,,
html-keyboard-response,416,1112540,0.0-18.0-0.3,6120211d8e1eab16fcb7ad69,650c16f0f2faf8d7a0d14c09,651c1e90371af10733e73995,null,null,"<p style=""font-size: 60px; font-family: BACS"">hkRKYDE</p>",,,,,,,,,,
html-keyboard-response,417,1113542,0.0-18.0-0.4,6120211d8e1eab16fcb7ad69,650c16f0f2faf8d7a0d14c09,651c1e90371af10733e73995,null,null,"<p style=""font-size: 60px; font-family: BACS"">TDKhAlKD</p>",,,,,,,,,,
html-keyboard-response,418,1114546,0.0-18.0-0.5,6120211d8e1eab16fcb7ad69,650c16f0f2faf8d7a0d14c09,651c1e90371af10733e73995,null,null,"<p style=""font-size: 60px; font-family: BACS"">DhMtkMEC</p>",,,,,,,,,,
html-keyboard-response,419,1115550,0.0-18.0-0.6,6120211d8e1eab16fcb7ad69,650c16f0f2faf8d7a0d14c09,651c1e90371af10733e73995,null,null,"<p style=""font-size: 60px; font-family: BACS"">vQdObLd</p>",,,,,,,,,,
html-keyboard-response,420,1116554,0.0-18.0-0.7,6120211d8e1eab16fcb7ad69,650c16f0f2faf8d7a0d14c09,651c1e90371af10733e73995,null,null,"<p style=""font-size: 60px; font-family: BACS"">UdbdkJdr</p>",,,,,,,,,,
html-keyboard-response,421,1117556,0.0-18.0-0.8,6120211d8e1eab16fcb7ad69,650c16f0f2faf8d7a0d14c09,651c1e90371af10733e73995,null,null,"<p style=""font-size: 60px; font-family: BACS"">YQbcrZYd</p>",,,,,,,,,,
html-keyboard-response,422,1118558,0.0-18.0-0.9,6120211d8e1eab16fcb7ad69,650c16f0f2faf8d7a0d14c09,651c1e90371af10733e73995,null,null,"<p style=""font-size: 60px; font-family: BACS"">hAROKBbM</p>",,,,,,,,,,
html-keyboard-response,423,1119561,0.0-18.0-0.10,6120211d8e1eab16fcb7ad69,650c16f0f2faf8d7a0d14c09,651c1e90371af10733e73995,null,null,"<p style=""font-size: 60px; font-family: BACS"">hkRKmKcD</p>",,,,,,,,,,
html-keyboard-response,424,1120564,0.0-18.0-0.11,6120211d8e1eab16fcb7ad69,650c16f0f2faf8d7a0d14c09,651c1e90371af10733e73995,null,null,"<p style=""font-size: 60px; font-family: BACS"">uQuZcJQA</p>",,,,,,,,,,
html-keyboard-response,425,1121566,0.0-18.0-0.12,6120211d8e1eab16fcb7ad69,650c16f0f2faf8d7a0d14c09,651c1e90371af10733e73995,null,null,"<p style=""font-size: 60px; font-family: BACS"">vYLUrZYd</p>",,,,,,,,,,
html-keyboard-response,426,1122569,0.0-18.0-0.13,6120211d8e1eab16fcb7ad69,650c16f0f2faf8d7a0d14c09,651c1e90371af10733e73995,null,null,"<p style=""font-size: 60px; font-family: BACS"">advYObLd</p>",,,,,,,,,,
html-keyboard-response,427,1123572,0.0-18.0-0.14,6120211d8e1eab16fcb7ad69,650c16f0f2faf8d7a0d14c09,651c1e90371af10733e73995,null,null,"<p style=""font-size: 60px; font-family: BACS"">hkRKAlKD</p>",,,,,,,,,,
html-keyboard-response,428,1124577,0.0-18.0-0.15,6120211d8e1eab16fcb7ad69,650c16f0f2faf8d7a0d14c09,651c1e90371af10733e73995,null,null,"<p style=""font-size: 60px; font-family: BACS"">dClOCYDE</p>",,,,,,,,,,
html-keyboard-response,429,1125580,0.0-18.0-0.16,6120211d8e1eab16fcb7ad69,650c16f0f2faf8d7a0d14c09,651c1e90371af10733e73995,null,null,"<p style=""font-size: 60px; font-family: BACS"">LvuOGJQA</p>",,,,,,,,,,
html-keyboard-response,430,1126582,0.0-18.0-0.17,6120211d8e1eab16fcb7ad69,650c16f0f2faf8d7a0d14c09,651c1e90371af10733e73995,null,null,"<p style=""font-size: 60px; font-family: BACS"">hkRKkMEC</p>",,,,,,,,,,
html-keyboard-response,431,1127584,0.0-18.0-0.18,6120211d8e1eab16fcb7ad69,650c16f0f2faf8d7a0d14c09,651c1e90371af10733e73995,null,null,"<p style=""font-size: 60px; font-family: BACS"">vAuNlbLd</p>",,,,,,,,,,
html-keyboard-response,432,1128587,0.0-18.0-0.19,6120211d8e1eab16fcb7ad69,650c16f0f2faf8d7a0d14c09,651c1e90371af10733e73995,null,null,"<p style=""font-size: 60px; font-family: BACS"">TAdhMYDE</p>",,,,,,,,,,
html-keyboard-response,433,1129590,0.0-18.0-0.20,6120211d8e1eab16fcb7ad69,650c16f0f2faf8d7a0d14c09,651c1e90371af10733e73995,null,null,"<p style=""font-size: 60px; font-family: BACS"">mbZlkJdr</p>",,,,,,,,,,
html-keyboard-response,434,1130595,0.0-18.0-0.21,6120211d8e1eab16fcb7ad69,650c16f0f2faf8d7a0d14c09,651c1e90371af10733e73995,null,null,"<p style=""font-size: 60px; font-family: BACS"">TDKhkMEC</p>",,,,,,,,,,
html-keyboard-response,435,1131599,0.0-18.0-0.22,6120211d8e1eab16fcb7ad69,650c16f0f2faf8d7a0d14c09,651c1e90371af10733e73995,null,null,"<p style=""font-size: 60px; font-family: BACS"">TAdhMmKcD</p>",,,,,,,,,,
html-keyboard-response,436,1132602,0.0-18.0-0.23,6120211d8e1eab16fcb7ad69,650c16f0f2faf8d7a0d14c09,651c1e90371af10733e73995,null,null,"<p style=""font-size: 60px; font-family: BACS"">vAuNlJQA</p>",,,,,,,,,,
html-keyboard-response,437,1133606,0.0-18.0-0.24,6120211d8e1eab16fcb7ad69,650c16f0f2faf8d7a0d14c09,651c1e90371af10733e73995,null,null,"<p style=""font-size: 60px; font-family: BACS"">EdBbAlKD</p>",,,,,,,,,,
html-keyboard-response,438,1134609,0.0-18.0-0.25,6120211d8e1eab16fcb7ad69,650c16f0f2faf8d7a0d14c09,651c1e90371af10733e73995,null,null,"<p style=""font-size: 60px; font-family: BACS"">advYOrZYd</p>",,,,,,,,,,
html-keyboard-response,439,1135613,0.0-18.0-0.26,6120211d8e1eab16fcb7ad69,650c16f0f2faf8d7a0d14c09,651c1e90371af10733e73995,null,null,"<p style=""font-size: 60px; font-family: BACS"">EtMDMmKcD</p>",,,,,,,,,,
html-keyboard-response,440,1136618,0.0-18.0-0.27,6120211d8e1eab16fcb7ad69,650c16f0f2faf8d7a0d14c09,651c1e90371af10733e73995,null,null,"<p style=""font-size: 60px; font-family: BACS"">DhMtAlKD</p>",,,,,,,,,,
html-keyboard-response,441,1137621,0.0-18.0-0.28,6120211d8e1eab16fcb7ad69,650c16f0f2faf8d7a0d14c09,651c1e90371af10733e73995,null,null,"<p style=""font-size: 60px; font-family: BACS"">mbZlYZJO</p>",,,,,,,,,,
html-keyboard-response,442,1138625,0.0-18.0-0.29,6120211d8e1eab16fcb7ad69,650c16f0f2faf8d7a0d14c09,651c1e90371af10733e73995,null,null,"<p style=""font-size: 60px; font-family: BACS"">advYOkJdr</p>",,,,,,,,,,
html-keyboard-response,443,1139628,0.0-18.0-0.30,6120211d8e1eab16fcb7ad69,650c16f0f2faf8d7a0d14c09,651c1e90371af10733e73995,null,null,"<p style=""font-size: 60px; font-family: BACS"">CkBOPBbM</p>",,,,,,,,,,
html-keyboard-response,444,1140632,0.0-18.0-0.31,6120211d8e1eab16fcb7ad69,650c16f0f2faf8d7a0d14c09,651c1e90371af10733e73995,null,null,"<p style=""font-size: 60px; font-family: BACS"">TDKhYDE</p>",,,,,,,,,,
html-keyboard-response,445,1141634,0.0-18.0-0.32,6120211d8e1eab16fcb7ad69,650c16f0f2faf8d7a0d14c09,651c1e90371af10733e73995,null,null,"<p style=""font-size: 60px; font-family: BACS"">vQdOYZJO</p>",,,,,,,,,,
html-keyboard-response,446,1142637,0.0-18.0-0.33,6120211d8e1eab16fcb7ad69,650c16f0f2faf8d7a0d14c09,651c1e90371af10733e73995,null,null,"<p style=""font-size: 60px; font-family: BACS"">EhbtAlKD</p>",,,,,,,,,,
html-keyboard-response,447,1143640,0.0-18.0-0.34,6120211d8e1eab16fcb7ad69,650c16f0f2faf8d7a0d14c09,651c1e90371af10733e73995,null,null,"<p style=""font-size: 60px; font-family: BACS"">vQdOrZYd</p>",,,,,,,,,,
html-keyboard-response,448,1144644,0.0-18.0-0.35,6120211d8e1eab16fcb7ad69,650c16f0f2faf8d7a0d14c09,651c1e90371af10733e73995,null,null,"<p style=""font-size: 60px; font-family: BACS"">bGuOJQA</p>",,,,,,,,,,
html-keyboard-response,449,1145646,0.0-18.0-0.36,6120211d8e1eab16fcb7ad69,650c16f0f2faf8d7a0d14c09,651c1e90371af10733e73995,null,null,"<p style=""font-size: 60px; font-family: BACS"">EtMDMkMEC</p>",,,,,,,,,,
html-keyboard-response,450,1146648,0.0-18.0-0.37,6120211d8e1eab16fcb7ad69,650c16f0f2faf8d7a0d14c09,651c1e90371af10733e73995,null,null,"<p style=""font-size: 60px; font-family: BACS"">vYLUkJdr</p>",,,,,,,,,,
html-keyboard-response,451,1147650,0.0-18.0-0.38,6120211d8e1eab16fcb7ad69,650c16f0f2faf8d7a0d14c09,651c1e90371af10733e73995,null,null,"<p style=""font-size: 60px; font-family: BACS"">dClOCBbM</p>",,,,,,,,,,
html-keyboard-response,452,1148653,0.0-18.0-0.39,6120211d8e1eab16fcb7ad69,650c16f0f2faf8d7a0d14c09,651c1e90371af10733e73995,null,null,"<p style=""font-size: 60px; font-family: BACS"">vAuNlYZJO</p>",,,,,,,,,,
html-keyboard-response,453,1149656,0.0-18.0-0.40,6120211d8e1eab16fcb7ad69,650c16f0f2faf8d7a0d14c09,651c1e90371af10733e73995,null,null,"<p style=""font-size: 60px; font-family: BACS"">EtMDMAlKD</p>",,,,,,,,,,
html-keyboard-response,454,1150659,0.0-18.0-0.41,6120211d8e1eab16fcb7ad69,650c16f0f2faf8d7a0d14c09,651c1e90371af10733e73995,null,null,"<p style=""font-size: 60px; font-family: BACS"">YQbckJdr</p>",,,,,,,,,,
html-keyboard-response,455,1151662,0.0-18.0-0.42,6120211d8e1eab16fcb7ad69,650c16f0f2faf8d7a0d14c09,651c1e90371af10733e73995,null,null,"<p style=""font-size: 60px; font-family: BACS"">TDKhBbM</p>",,,,,,,,,,
html-keyboard-response,456,1152666,0.0-18.0-0.43,6120211d8e1eab16fcb7ad69,650c16f0f2faf8d7a0d14c09,651c1e90371af10733e73995,null,null,"<p style=""font-size: 60px; font-family: BACS"">TAdhMkMEC</p>",,,,,,,,,,
html-keyboard-response,457,1153669,0.0-18.0-0.44,6120211d8e1eab16fcb7ad69,650c16f0f2faf8d7a0d14c09,651c1e90371af10733e73995,null,null,"<p style=""font-size: 60px; font-family: BACS"">hAROKYDE</p>",,,,,,,,,,
html-keyboard-response,458,1154673,0.0-18.0-0.45,6120211d8e1eab16fcb7ad69,650c16f0f2faf8d7a0d14c09,651c1e90371af10733e73995,null,null,"<p style=""font-size: 60px; font-family: BACS"">YQbcbLd</p>",,,,,,,,,,
html-keyboard-response,459,1155687,0.0-18.0-0.46,6120211d8e1eab16fcb7ad69,650c16f0f2faf8d7a0d14c09,651c1e90371af10733e73995,null,null,"<p style=""font-size: 60px; font-family: BACS"">bGuOrZYd</p>",,,,,,,,,,
html-keyboard-response,460,1156691,0.0-18.0-0.47,6120211d8e1eab16fcb7ad69,650c16f0f2faf8d7a0d14c09,651c1e90371af10733e73995,null,null,"<p style=""font-size: 60px; font-family: BACS"">vYLUJQA</p>",,,,,,,,,,
html-keyboard-response,461,1157694,0.0-18.0-0.48,6120211d8e1eab16fcb7ad69,650c16f0f2faf8d7a0d14c09,651c1e90371af10733e73995,null,null,"<p style=""font-size: 60px; font-family: BACS"">LvuOGYZJO</p>",,,,,,,,,,
html-keyboard-response,462,1158697,0.0-18.0-0.49,6120211d8e1eab16fcb7ad69,650c16f0f2faf8d7a0d14c09,651c1e90371af10733e73995,null,null,"<p style=""font-size: 60px; font-family: BACS"">mbZlbLd</p>",,,,,,,,,,
html-keyboard-response,463,1159700,0.0-18.0-0.50,6120211d8e1eab16fcb7ad69,650c16f0f2faf8d7a0d14c09,651c1e90371af10733e73995,null,null,"<p style=""font-size: 60px; font-family: BACS"">advYOYZJO</p>",,,,,,,,,,
html-keyboard-response,464,1160703,0.0-18.0-0.51,6120211d8e1eab16fcb7ad69,650c16f0f2faf8d7a0d14c09,651c1e90371af10733e73995,null,null,"<p style=""font-size: 60px; font-family: BACS"">vAuNlrZYd</p>",,,,,,,,,,
html-keyboard-response,465,1161706,0.0-18.0-0.52,6120211d8e1eab16fcb7ad69,650c16f0f2faf8d7a0d14c09,651c1e90371af10733e73995,null,null,"<p style=""font-size: 60px; font-family: BACS"">uQuZcYZJO</p>",,,,,,,,,,
html-keyboard-response,466,1162710,0.0-18.0-0.53,6120211d8e1eab16fcb7ad69,650c16f0f2faf8d7a0d14c09,651c1e90371af10733e73995,null,null,"<p style=""font-size: 60px; font-family: BACS"">EdBbkMEC</p>",,,,,,,,,,
html-keyboard-response,467,1163713,0.0-18.0-0.54,6120211d8e1eab16fcb7ad69,650c16f0f2faf8d7a0d14c09,651c1e90371af10733e73995,null,null,"<p style=""font-size: 60px; font-family: BACS"">TAdhMBbM</p>",,,,,,,,,,
