"trial_type","trial_index","time_elapsed","internal_node_id","subject_id","study_id","session_id","rt","response","stimulus","success","item","task","correct_response","correct","target","confound","name"
"pavlovia","0","3060","0.0-0.0","612d5712d75b6c46b4cefc63","64b003020eef62ee308107cc","64b0205ee3b71102ab721a27","","","","","","","","","","",""
"survey-html-form","1","11792","0.0-1.0","612d5712d75b6c46b4cefc63","64b003020eef62ee308107cc","64b0205ee3b71102ab721a27","8731","{""ID"":""612d5712d75b6c46b4cefc63""}","","","","","","","","",""
"html-keyboard-response","2","16854","0.0-2.0","612d5712d75b6c46b4cefc63","64b003020eef62ee308107cc","64b0205ee3b71102ab721a27","5060"," ","<p style=""font-size: 15px;"">Prima di cominciare, le chiediamo di leggere il modulo di consenso informato e confermare la sua volontà di partecipare all'esperimento.</p>
      <p style=""font-size: 15px;""> La preghiamo di ricordare che questo è un progetto di ricerca e che la sua partecipazione è completamente volontaria. Lei si potra' ritirare in qualunque momento, senza necessariamente dover dare alcuna spiegazione. Lo studio al quale Le si chiede di partecipare ha lo scopo di esaminare come i lettori elaborano le parole scritte. La somministrazione delle prove è individuale. Lei sarà impegnato in una sessione di lavoro della durata media di 10 minuti, e un questionario di 10 minuti. L’ordine delle prove ed il loro svolgimento sono stabiliti in modo tale da evitare un eventuale affaticamento. Tutte le prove saranno precedute da un breve addestramento in modo tale che abbia la possibilità di familiarizzare con il compito. Sono previste alcune pause nel corso dello svolgimento dell’esperimento. Una ricompensa di £4 (£8 per ora) Le verrà consegnata al termine della sessione di testing. Nonostante il testing preveda delle prove cognitive, il presente esperimento non costituisce una prova clinica che permetta la diagnosi di eventuali patologie.</p>
      <p style=""font-size: 15px;"">Tutti i dati raccolti grazie alla partecipazione Sua e di altre persone volontarie saranno custoditi in server sicuri e protetti da password, e non sarà consentito ad alcuna persona non autorizzata di accedervi. Le Sue informazioni personali saranno conservate separatamente dai risultati della presente ricerca, cui saranno associati soltanto attraverso un ID arbitrario. Grazie a questo processo di anonimizzazione dei dati, a nessun ricercatore sarà possibile analizzare i risultati sapendo da quale specifico partecipante essi provengono. Inoltre, questa procedura renderà impossibile la Sua identificazione anche nel momento in cui i risultati della ricerca fossero pubblicati su riviste scientifiche, o presentati a congressi o in qualsiasi altro pubblico consesso. Più in generale, i dati raccolti saranno trattati in accordo con le leggi sulla privacy e in conformità al Decreto Legislativo 30 giugno 2003 n. 196 “Codice in materia di protezione dei dati personali” e al Regolamento Europeo 2016/679 (General Data Protection Regulation - GDPR). Il Responsabile della protezione dei dati (RPD) è l’Avv. Valentina Carollo che può essere contattato ai seguenti indirizzi email: <a href=""mailto:dpo@sissa.it"">dpo@sissa.it</a> oppure <a href=""mailto:rpd@sissa.it"">rpd@sissa.it</a> - PEC: <a href=""mailto:protocollo@pec.sissa.it"">protocollo@pec.sissa.it</a>.</p>
      <p style=""font-size: 15px;""> Prima di esprimere il suo consenso alla partecipazione, Le ricordiamo ancora che in caso Lei abbia bisogno di delucidazioni su qualunque aspetto della procedura sperimentale, il ricercatore è a Sua completa disposizione (<a href=""mailto:aliebelt@sissa.it"">aliebelt@sissa.it</a>, <a href=""mailto:davide.crepaldi@sissa.it"">davide.crepaldi@sissa.it</a>).</p>
      <p style=""font-size: 15px;"">Se vuole scaricare il modulo di consenso informato, clicca qui: <a href=""BASL_modulo_consenso.pdf"" download>modulo di consenso</a>.</p>
      <p style=""font-size: 15px;""> Le chiediamo di premere la barra per continuare al consenso.</p>","","","","","","","",""
"survey-html-form","3","27582","0.0-3.0","612d5712d75b6c46b4cefc63","64b003020eef62ee308107cc","64b0205ee3b71102ab721a27","10726","{""consent1"":""YES"",""consent2"":""YES"",""consent3"":""YES"",""consent4"":""YES"",""consent5"":""YES"",""consent6"":""YES""}","","","","","","","","",""
"fullscreen","4","32828","0.0-4.0","612d5712d75b6c46b4cefc63","64b003020eef62ee308107cc","64b0205ee3b71102ab721a27","","","","true","","","","","","",""
"html-keyboard-response","5","50258","0.0-5.0","612d5712d75b6c46b4cefc63","64b003020eef62ee308107cc","64b0205ee3b71102ab721a27","17428"," ","<p>Benvenuta/o, e grazie mille del tuo tempo!</p>
      <p>In questo esperimento sarai un esperto/un'esperta di linguaggio cui è stato chiesto di dare un'occhiata ad alcuni messaggi che la Terra ha ricevuto dallo spazio. Il tuo compito, in questa prima parte dell'esperimento, sarà di fare molta attenzione alle parole che ti verranno mostrate; più tardi, i leader del mondo ti chiederanno qualche informazione su quello che hai visto. Le parole si susseguiranno abbastanza velocemente; sembra che questi alieni abbiano una certa fretta :-) </p>
      <p>Per favore, chiama lo sperimentatore se ha qualche domanda.</p><p>Premi la barra per continuare.</p>","","","","","","","",""
"html-keyboard-response","6","54908","0.0-6.0","612d5712d75b6c46b4cefc63","64b003020eef62ee308107cc","64b0205ee3b71102ab721a27","4647"," ","<p>Ecco un esempio delle parole che vedrai:</p>
      <img src='esempio.png' height='400px'>
      <p>Quando sei pronti per iniziare, premi la barra.</p></div>","","","","","","","",""
"html-keyboard-response","7","55914","0.0-7.0-0.0","612d5712d75b6c46b4cefc63","64b003020eef62ee308107cc","64b0205ee3b71102ab721a27","null","null","<p style=""font-size: 60px; font-family: BACS"">NaAQdmZb</p>","","","","","","","",""
"html-keyboard-response","8","56923","0.0-7.0-0.1","612d5712d75b6c46b4cefc63","64b003020eef62ee308107cc","64b0205ee3b71102ab721a27","null","null","<p style=""font-size: 60px; font-family: BACS"">JdOAYvcb</p>","","","","","","","",""
"html-keyboard-response","9","57934","0.0-7.0-0.2","612d5712d75b6c46b4cefc63","64b003020eef62ee308107cc","64b0205ee3b71102ab721a27","null","null","<p style=""font-size: 60px; font-family: BACS"">ZcGdNLkNc</p>","","","","","","","",""
"html-keyboard-response","10","58941","0.0-7.0-0.3","612d5712d75b6c46b4cefc63","64b003020eef62ee308107cc","64b0205ee3b71102ab721a27","null","null","<p style=""font-size: 60px; font-family: BACS"">lcOcvcb</p>","","","","","","","",""
"html-keyboard-response","11","59952","0.0-7.0-0.4","612d5712d75b6c46b4cefc63","64b003020eef62ee308107cc","64b0205ee3b71102ab721a27","null","null","<p style=""font-size: 60px; font-family: BACS"">KAERMtAY</p>","","","","","","","",""
"html-keyboard-response","12","60964","0.0-7.0-0.5","612d5712d75b6c46b4cefc63","64b003020eef62ee308107cc","64b0205ee3b71102ab721a27","null","null","<p style=""font-size: 60px; font-family: BACS"">lkAkLkNc</p>","","","","","","","",""
"html-keyboard-response","13","61977","0.0-7.0-0.6","612d5712d75b6c46b4cefc63","64b003020eef62ee308107cc","64b0205ee3b71102ab721a27","null","null","<p style=""font-size: 60px; font-family: BACS"">DOchlTbk</p>","","","","","","","",""
"html-keyboard-response","14","62988","0.0-7.0-0.7","612d5712d75b6c46b4cefc63","64b003020eef62ee308107cc","64b0205ee3b71102ab721a27","null","null","<p style=""font-size: 60px; font-family: BACS"">kKEdMmtKP</p>","","","","","","","",""
"html-keyboard-response","15","63997","0.0-7.0-0.8","612d5712d75b6c46b4cefc63","64b003020eef62ee308107cc","64b0205ee3b71102ab721a27","null","null","<p style=""font-size: 60px; font-family: BACS"">lcOcGlu</p>","","","","","","","",""
"html-keyboard-response","16","64999","0.0-7.0-0.9","612d5712d75b6c46b4cefc63","64b003020eef62ee308107cc","64b0205ee3b71102ab721a27","null","null","<p style=""font-size: 60px; font-family: BACS"">lBlEYBO</p>","","","","","","","",""
"html-keyboard-response","17","66014","0.0-7.0-0.10","612d5712d75b6c46b4cefc63","64b003020eef62ee308107cc","64b0205ee3b71102ab721a27","null","null","<p style=""font-size: 60px; font-family: BACS"">JdOAYLkNc</p>","","","","","","","",""
"html-keyboard-response","18","67018","0.0-7.0-0.11","612d5712d75b6c46b4cefc63","64b003020eef62ee308107cc","64b0205ee3b71102ab721a27","null","null","<p style=""font-size: 60px; font-family: BACS"">RkmdCYBO</p>","","","","","","","",""
"html-keyboard-response","19","68020","0.0-7.0-0.12","612d5712d75b6c46b4cefc63","64b003020eef62ee308107cc","64b0205ee3b71102ab721a27","null","null","<p style=""font-size: 60px; font-family: BACS"">KdARTbk</p>","","","","","","","",""
"html-keyboard-response","20","69024","0.0-7.0-0.13","612d5712d75b6c46b4cefc63","64b003020eef62ee308107cc","64b0205ee3b71102ab721a27","null","null","<p style=""font-size: 60px; font-family: BACS"">lkAkGlu</p>","","","","","","","",""
"html-keyboard-response","21","70035","0.0-7.0-0.14","612d5712d75b6c46b4cefc63","64b003020eef62ee308107cc","64b0205ee3b71102ab721a27","null","null","<p style=""font-size: 60px; font-family: BACS"">KdARhEct</p>","","","","","","","",""
"html-keyboard-response","22","71048","0.0-7.0-0.15","612d5712d75b6c46b4cefc63","64b003020eef62ee308107cc","64b0205ee3b71102ab721a27","null","null","<p style=""font-size: 60px; font-family: BACS"">kZUbGlu</p>","","","","","","","",""
"html-keyboard-response","23","72064","0.0-7.0-0.16","612d5712d75b6c46b4cefc63","64b003020eef62ee308107cc","64b0205ee3b71102ab721a27","null","null","<p style=""font-size: 60px; font-family: BACS"">lBlEhEct</p>","","","","","","","",""
"html-keyboard-response","24","73077","0.0-7.0-0.17","612d5712d75b6c46b4cefc63","64b003020eef62ee308107cc","64b0205ee3b71102ab721a27","null","null","<p style=""font-size: 60px; font-family: BACS"">PctRCYBO</p>","","","","","","","",""
"html-keyboard-response","25","74085","0.0-7.0-0.18","612d5712d75b6c46b4cefc63","64b003020eef62ee308107cc","64b0205ee3b71102ab721a27","null","null","<p style=""font-size: 60px; font-family: BACS"">NbmQUGlu</p>","","","","","","","",""
"html-keyboard-response","26","75092","0.0-7.0-0.19","612d5712d75b6c46b4cefc63","64b003020eef62ee308107cc","64b0205ee3b71102ab721a27","null","null","<p style=""font-size: 60px; font-family: BACS"">kKEdMtAY</p>","","","","","","","",""
"html-keyboard-response","27","76107","0.0-7.0-0.20","612d5712d75b6c46b4cefc63","64b003020eef62ee308107cc","64b0205ee3b71102ab721a27","null","null","<p style=""font-size: 60px; font-family: BACS"">NbacAmZb</p>","","","","","","","",""
"html-keyboard-response","28","77119","0.0-7.0-0.21","612d5712d75b6c46b4cefc63","64b003020eef62ee308107cc","64b0205ee3b71102ab721a27","null","null","<p style=""font-size: 60px; font-family: BACS"">GumLlrkra</p>","","","","","","","",""
"html-keyboard-response","29","78126","0.0-7.0-0.22","612d5712d75b6c46b4cefc63","64b003020eef62ee308107cc","64b0205ee3b71102ab721a27","null","null","<p style=""font-size: 60px; font-family: BACS"">ZcGdNvcb</p>","","","","","","","",""
"html-keyboard-response","30","79136","0.0-7.0-0.23","612d5712d75b6c46b4cefc63","64b003020eef62ee308107cc","64b0205ee3b71102ab721a27","null","null","<p style=""font-size: 60px; font-family: BACS"">kKEdMTbk</p>","","","","","","","",""
"html-keyboard-response","31","80143","0.0-7.0-0.24","612d5712d75b6c46b4cefc63","64b003020eef62ee308107cc","64b0205ee3b71102ab721a27","null","null","<p style=""font-size: 60px; font-family: BACS"">ldAarkra</p>","","","","","","","",""
"html-keyboard-response","32","81154","0.0-7.0-0.25","612d5712d75b6c46b4cefc63","64b003020eef62ee308107cc","64b0205ee3b71102ab721a27","null","null","<p style=""font-size: 60px; font-family: BACS"">KdARtAY</p>","","","","","","","",""
"html-keyboard-response","33","82164","0.0-7.0-0.26","612d5712d75b6c46b4cefc63","64b003020eef62ee308107cc","64b0205ee3b71102ab721a27","null","null","<p style=""font-size: 60px; font-family: BACS"">DOchlhEct</p>","","","","","","","",""
"html-keyboard-response","34","83175","0.0-7.0-0.27","612d5712d75b6c46b4cefc63","64b003020eef62ee308107cc","64b0205ee3b71102ab721a27","null","null","<p style=""font-size: 60px; font-family: BACS"">NbacALkNc</p>","","","","","","","",""
"html-keyboard-response","35","84186","0.0-7.0-0.28","612d5712d75b6c46b4cefc63","64b003020eef62ee308107cc","64b0205ee3b71102ab721a27","null","null","<p style=""font-size: 60px; font-family: BACS"">PctRChEct</p>","","","","","","","",""
"html-keyboard-response","36","85195","0.0-7.0-0.29","612d5712d75b6c46b4cefc63","64b003020eef62ee308107cc","64b0205ee3b71102ab721a27","null","null","<p style=""font-size: 60px; font-family: BACS"">KABAYBO</p>","","","","","","","",""
"html-keyboard-response","37","86206","0.0-7.0-0.30","612d5712d75b6c46b4cefc63","64b003020eef62ee308107cc","64b0205ee3b71102ab721a27","null","null","<p style=""font-size: 60px; font-family: BACS"">RkmdCmtKP</p>","","","","","","","",""
"html-keyboard-response","38","87214","0.0-7.0-0.31","612d5712d75b6c46b4cefc63","64b003020eef62ee308107cc","64b0205ee3b71102ab721a27","null","null","<p style=""font-size: 60px; font-family: BACS"">NbacAvcb</p>","","","","","","","",""
"html-keyboard-response","39","88221","0.0-7.0-0.32","612d5712d75b6c46b4cefc63","64b003020eef62ee308107cc","64b0205ee3b71102ab721a27","null","null","<p style=""font-size: 60px; font-family: BACS"">KABAhEct</p>","","","","","","","",""
"html-keyboard-response","40","89226","0.0-7.0-0.33","612d5712d75b6c46b4cefc63","64b003020eef62ee308107cc","64b0205ee3b71102ab721a27","null","null","<p style=""font-size: 60px; font-family: BACS"">hAROKTbk</p>","","","","","","","",""
"html-keyboard-response","41","90239","0.0-7.0-0.34","612d5712d75b6c46b4cefc63","64b003020eef62ee308107cc","64b0205ee3b71102ab721a27","null","null","<p style=""font-size: 60px; font-family: BACS"">KAERMYBO</p>","","","","","","","",""
"html-keyboard-response","42","91251","0.0-7.0-0.35","612d5712d75b6c46b4cefc63","64b003020eef62ee308107cc","64b0205ee3b71102ab721a27","null","null","<p style=""font-size: 60px; font-family: BACS"">NbacAGlu</p>","","","","","","","",""
"html-keyboard-response","43","92263","0.0-7.0-0.36","612d5712d75b6c46b4cefc63","64b003020eef62ee308107cc","64b0205ee3b71102ab721a27","null","null","<p style=""font-size: 60px; font-family: BACS"">hAROKYBO</p>","","","","","","","",""
"html-keyboard-response","44","93272","0.0-7.0-0.37","612d5712d75b6c46b4cefc63","64b003020eef62ee308107cc","64b0205ee3b71102ab721a27","null","null","<p style=""font-size: 60px; font-family: BACS"">lBlETbk</p>","","","","","","","",""
"html-keyboard-response","45","94283","0.0-7.0-0.38","612d5712d75b6c46b4cefc63","64b003020eef62ee308107cc","64b0205ee3b71102ab721a27","null","null","<p style=""font-size: 60px; font-family: BACS"">kZUbLkNc</p>","","","","","","","",""
"html-keyboard-response","46","95289","0.0-7.0-0.39","612d5712d75b6c46b4cefc63","64b003020eef62ee308107cc","64b0205ee3b71102ab721a27","null","null","<p style=""font-size: 60px; font-family: BACS"">hAROKmtKP</p>","","","","","","","",""
"html-keyboard-response","47","96298","0.0-7.0-0.40","612d5712d75b6c46b4cefc63","64b003020eef62ee308107cc","64b0205ee3b71102ab721a27","null","null","<p style=""font-size: 60px; font-family: BACS"">ZcGdNGlu</p>","","","","","","","",""
"html-keyboard-response","48","97310","0.0-7.0-0.41","612d5712d75b6c46b4cefc63","64b003020eef62ee308107cc","64b0205ee3b71102ab721a27","null","null","<p style=""font-size: 60px; font-family: BACS"">KAERMTbk</p>","","","","","","","",""
"html-keyboard-response","49","98320","0.0-7.0-0.42","612d5712d75b6c46b4cefc63","64b003020eef62ee308107cc","64b0205ee3b71102ab721a27","null","null","<p style=""font-size: 60px; font-family: BACS"">KTDTBhEct</p>","","","","","","","",""
"html-keyboard-response","50","99331","0.0-7.0-0.43","612d5712d75b6c46b4cefc63","64b003020eef62ee308107cc","64b0205ee3b71102ab721a27","null","null","<p style=""font-size: 60px; font-family: BACS"">lkAkvcb</p>","","","","","","","",""
"html-keyboard-response","51","100344","0.0-7.0-0.44","612d5712d75b6c46b4cefc63","64b003020eef62ee308107cc","64b0205ee3b71102ab721a27","null","null","<p style=""font-size: 60px; font-family: BACS"">RkmdChEct</p>","","","","","","","",""
"html-keyboard-response","52","101354","0.0-7.0-0.45","612d5712d75b6c46b4cefc63","64b003020eef62ee308107cc","64b0205ee3b71102ab721a27","null","null","<p style=""font-size: 60px; font-family: BACS"">ldAavcb</p>","","","","","","","",""
"html-keyboard-response","53","102369","0.0-7.0-0.46","612d5712d75b6c46b4cefc63","64b003020eef62ee308107cc","64b0205ee3b71102ab721a27","null","null","<p style=""font-size: 60px; font-family: BACS"">RkmdCTbk</p>","","","","","","","",""
"html-keyboard-response","54","103380","0.0-7.0-0.47","612d5712d75b6c46b4cefc63","64b003020eef62ee308107cc","64b0205ee3b71102ab721a27","null","null","<p style=""font-size: 60px; font-family: BACS"">ldAaGlu</p>","","","","","","","",""
"html-keyboard-response","55","104393","0.0-7.0-0.48","612d5712d75b6c46b4cefc63","64b003020eef62ee308107cc","64b0205ee3b71102ab721a27","null","null","<p style=""font-size: 60px; font-family: BACS"">NbmQULkNc</p>","","","","","","","",""
"html-keyboard-response","56","105401","0.0-7.0-0.49","612d5712d75b6c46b4cefc63","64b003020eef62ee308107cc","64b0205ee3b71102ab721a27","null","null","<p style=""font-size: 60px; font-family: BACS"">ldAamZb</p>","","","","","","","",""
"html-keyboard-response","57","106408","0.0-7.0-0.50","612d5712d75b6c46b4cefc63","64b003020eef62ee308107cc","64b0205ee3b71102ab721a27","null","null","<p style=""font-size: 60px; font-family: BACS"">KTDTBtAY</p>","","","","","","","",""
"html-keyboard-response","58","107421","0.0-7.0-0.51","612d5712d75b6c46b4cefc63","64b003020eef62ee308107cc","64b0205ee3b71102ab721a27","null","null","<p style=""font-size: 60px; font-family: BACS"">NbmQUmZb</p>","","","","","","","",""
"html-keyboard-response","59","108428","0.0-7.0-0.52","612d5712d75b6c46b4cefc63","64b003020eef62ee308107cc","64b0205ee3b71102ab721a27","null","null","<p style=""font-size: 60px; font-family: BACS"">KTDTBmtKP</p>","","","","","","","",""
"html-keyboard-response","60","109436","0.0-7.0-0.53","612d5712d75b6c46b4cefc63","64b003020eef62ee308107cc","64b0205ee3b71102ab721a27","null","null","<p style=""font-size: 60px; font-family: BACS"">lcOcrkra</p>","","","","","","","",""
"html-keyboard-response","61","110445","0.0-7.0-0.54","612d5712d75b6c46b4cefc63","64b003020eef62ee308107cc","64b0205ee3b71102ab721a27","null","null","<p style=""font-size: 60px; font-family: BACS"">GumLlGlu</p>","","","","","","","",""
"html-keyboard-response","62","111457","0.0-7.0-0.55","612d5712d75b6c46b4cefc63","64b003020eef62ee308107cc","64b0205ee3b71102ab721a27","null","null","<p style=""font-size: 60px; font-family: BACS"">hAROKtAY</p>","","","","","","","",""
"html-keyboard-response","63","112467","0.0-7.0-0.56","612d5712d75b6c46b4cefc63","64b003020eef62ee308107cc","64b0205ee3b71102ab721a27","null","null","<p style=""font-size: 60px; font-family: BACS"">ZcGdNrkra</p>","","","","","","","",""
"html-keyboard-response","64","113476","0.0-7.0-0.57","612d5712d75b6c46b4cefc63","64b003020eef62ee308107cc","64b0205ee3b71102ab721a27","null","null","<p style=""font-size: 60px; font-family: BACS"">KABAmtKP</p>","","","","","","","",""
"html-keyboard-response","65","114483","0.0-7.0-0.58","612d5712d75b6c46b4cefc63","64b003020eef62ee308107cc","64b0205ee3b71102ab721a27","null","null","<p style=""font-size: 60px; font-family: BACS"">JdOAYmZb</p>","","","","","","","",""
"html-keyboard-response","66","115493","0.0-7.0-0.59","612d5712d75b6c46b4cefc63","64b003020eef62ee308107cc","64b0205ee3b71102ab721a27","null","null","<p style=""font-size: 60px; font-family: BACS"">KTDTBYBO</p>","","","","","","","",""
"html-keyboard-response","67","116502","0.0-7.0-0.60","612d5712d75b6c46b4cefc63","64b003020eef62ee308107cc","64b0205ee3b71102ab721a27","null","null","<p style=""font-size: 60px; font-family: BACS"">kZUbmZb</p>","","","","","","","",""
"html-keyboard-response","68","117511","0.0-7.0-0.61","612d5712d75b6c46b4cefc63","64b003020eef62ee308107cc","64b0205ee3b71102ab721a27","null","null","<p style=""font-size: 60px; font-family: BACS"">NaAQdrkra</p>","","","","","","","",""
"html-keyboard-response","69","118522","0.0-7.0-0.62","612d5712d75b6c46b4cefc63","64b003020eef62ee308107cc","64b0205ee3b71102ab721a27","null","null","<p style=""font-size: 60px; font-family: BACS"">KABAtAY</p>","","","","","","","",""
"html-keyboard-response","70","119533","0.0-7.0-0.63","612d5712d75b6c46b4cefc63","64b003020eef62ee308107cc","64b0205ee3b71102ab721a27","null","null","<p style=""font-size: 60px; font-family: BACS"">DOchlYBO</p>","","","","","","","",""
"html-keyboard-response","71","120543","0.0-7.0-0.64","612d5712d75b6c46b4cefc63","64b003020eef62ee308107cc","64b0205ee3b71102ab721a27","null","null","<p style=""font-size: 60px; font-family: BACS"">PctRCtAY</p>","","","","","","","",""
"html-keyboard-response","72","121555","0.0-7.0-0.65","612d5712d75b6c46b4cefc63","64b003020eef62ee308107cc","64b0205ee3b71102ab721a27","null","null","<p style=""font-size: 60px; font-family: BACS"">kKEdMhEct</p>","","","","","","","",""
"html-keyboard-response","73","122567","0.0-7.0-0.66","612d5712d75b6c46b4cefc63","64b003020eef62ee308107cc","64b0205ee3b71102ab721a27","null","null","<p style=""font-size: 60px; font-family: BACS"">JdOAYrkra</p>","","","","","","","",""
"html-keyboard-response","74","123579","0.0-7.0-0.67","612d5712d75b6c46b4cefc63","64b003020eef62ee308107cc","64b0205ee3b71102ab721a27","null","null","<p style=""font-size: 60px; font-family: BACS"">lcOcLkNc</p>","","","","","","","",""
"html-keyboard-response","75","124590","0.0-7.0-0.68","612d5712d75b6c46b4cefc63","64b003020eef62ee308107cc","64b0205ee3b71102ab721a27","null","null","<p style=""font-size: 60px; font-family: BACS"">DOchltAY</p>","","","","","","","",""
"html-keyboard-response","76","125599","0.0-7.0-0.69","612d5712d75b6c46b4cefc63","64b003020eef62ee308107cc","64b0205ee3b71102ab721a27","null","null","<p style=""font-size: 60px; font-family: BACS"">KAERMmtKP</p>","","","","","","","",""
"html-keyboard-response","77","126608","0.0-7.0-0.70","612d5712d75b6c46b4cefc63","64b003020eef62ee308107cc","64b0205ee3b71102ab721a27","null","null","<p style=""font-size: 60px; font-family: BACS"">PctRCTbk</p>","","","","","","","",""
"html-keyboard-response","78","127617","0.0-7.0-0.71","612d5712d75b6c46b4cefc63","64b003020eef62ee308107cc","64b0205ee3b71102ab721a27","null","null","<p style=""font-size: 60px; font-family: BACS"">KdARmtKP</p>","","","","","","","",""
"html-keyboard-response","79","128624","0.0-7.0-0.72","612d5712d75b6c46b4cefc63","64b003020eef62ee308107cc","64b0205ee3b71102ab721a27","null","null","<p style=""font-size: 60px; font-family: BACS"">NaAQdLkNc</p>","","","","","","","",""
"html-keyboard-response","80","129636","0.0-7.0-0.73","612d5712d75b6c46b4cefc63","64b003020eef62ee308107cc","64b0205ee3b71102ab721a27","null","null","<p style=""font-size: 60px; font-family: BACS"">NbmQUrkra</p>","","","","","","","",""
"html-keyboard-response","81","130648","0.0-7.0-0.74","612d5712d75b6c46b4cefc63","64b003020eef62ee308107cc","64b0205ee3b71102ab721a27","null","null","<p style=""font-size: 60px; font-family: BACS"">GumLlmZb</p>","","","","","","","",""
"html-keyboard-response","82","131658","0.0-7.0-0.75","612d5712d75b6c46b4cefc63","64b003020eef62ee308107cc","64b0205ee3b71102ab721a27","null","null","<p style=""font-size: 60px; font-family: BACS"">NaAQdvcb</p>","","","","","","","",""
"html-keyboard-response","83","132670","0.0-7.0-0.76","612d5712d75b6c46b4cefc63","64b003020eef62ee308107cc","64b0205ee3b71102ab721a27","null","null","<p style=""font-size: 60px; font-family: BACS"">kZUbrkra</p>","","","","","","","",""
"html-keyboard-response","84","133680","0.0-7.0-0.77","612d5712d75b6c46b4cefc63","64b003020eef62ee308107cc","64b0205ee3b71102ab721a27","null","null","<p style=""font-size: 60px; font-family: BACS"">lkAkmZb</p>","","","","","","","",""
"html-keyboard-response","85","134687","0.0-7.0-0.78","612d5712d75b6c46b4cefc63","64b003020eef62ee308107cc","64b0205ee3b71102ab721a27","null","null","<p style=""font-size: 60px; font-family: BACS"">lBlEmtKP</p>","","","","","","","",""
"html-keyboard-response","86","135697","0.0-7.0-0.79","612d5712d75b6c46b4cefc63","64b003020eef62ee308107cc","64b0205ee3b71102ab721a27","null","null","<p style=""font-size: 60px; font-family: BACS"">GumLlvcb</p>","","","","","","","",""
"html-keyboard-response","87","140779","0.0-8.0","612d5712d75b6c46b4cefc63","64b003020eef62ee308107cc","64b0205ee3b71102ab721a27","5081"," ","<p>Ottimo, hai visto il primo blocco di parole. Ora puoi prenderti una piccola pausa.</p>
      <p>Premi la barra quando sei pronta/o per riprendere.</p>","","","","","","","",""
"html-keyboard-response","88","141794","0.0-9.0-0.0","612d5712d75b6c46b4cefc63","64b003020eef62ee308107cc","64b0205ee3b71102ab721a27","null","null","<p style=""font-size: 60px; font-family: BACS"">hAROKmtKP</p>","","","","","","","",""
"html-keyboard-response","89","142807","0.0-9.0-0.1","612d5712d75b6c46b4cefc63","64b003020eef62ee308107cc","64b0205ee3b71102ab721a27","null","null","<p style=""font-size: 60px; font-family: BACS"">KABAhEct</p>","","","","","","","",""
"html-keyboard-response","90","143815","0.0-9.0-0.2","612d5712d75b6c46b4cefc63","64b003020eef62ee308107cc","64b0205ee3b71102ab721a27","null","null","<p style=""font-size: 60px; font-family: BACS"">kKEdMTbk</p>","","","","","","","",""
"html-keyboard-response","91","144825","0.0-9.0-0.3","612d5712d75b6c46b4cefc63","64b003020eef62ee308107cc","64b0205ee3b71102ab721a27","null","null","<p style=""font-size: 60px; font-family: BACS"">NaAQdrkra</p>","","","","","","","",""
"html-keyboard-response","92","145832","0.0-9.0-0.4","612d5712d75b6c46b4cefc63","64b003020eef62ee308107cc","64b0205ee3b71102ab721a27","null","null","<p style=""font-size: 60px; font-family: BACS"">DOchlhEct</p>","","","","","","","",""
"html-keyboard-response","93","146842","0.0-9.0-0.5","612d5712d75b6c46b4cefc63","64b003020eef62ee308107cc","64b0205ee3b71102ab721a27","null","null","<p style=""font-size: 60px; font-family: BACS"">NbmQULkNc</p>","","","","","","","",""
"html-keyboard-response","94","147850","0.0-9.0-0.6","612d5712d75b6c46b4cefc63","64b003020eef62ee308107cc","64b0205ee3b71102ab721a27","null","null","<p style=""font-size: 60px; font-family: BACS"">ldAamZb</p>","","","","","","","",""
"html-keyboard-response","95","148859","0.0-9.0-0.7","612d5712d75b6c46b4cefc63","64b003020eef62ee308107cc","64b0205ee3b71102ab721a27","null","null","<p style=""font-size: 60px; font-family: BACS"">RkmdCTbk</p>","","","","","","","",""
"html-keyboard-response","96","149869","0.0-9.0-0.8","612d5712d75b6c46b4cefc63","64b003020eef62ee308107cc","64b0205ee3b71102ab721a27","null","null","<p style=""font-size: 60px; font-family: BACS"">NaAQdmZb</p>","","","","","","","",""
"html-keyboard-response","97","150880","0.0-9.0-0.9","612d5712d75b6c46b4cefc63","64b003020eef62ee308107cc","64b0205ee3b71102ab721a27","null","null","<p style=""font-size: 60px; font-family: BACS"">DOchlTbk</p>","","","","","","","",""
"html-keyboard-response","98","151891","0.0-9.0-0.10","612d5712d75b6c46b4cefc63","64b003020eef62ee308107cc","64b0205ee3b71102ab721a27","null","null","<p style=""font-size: 60px; font-family: BACS"">NbacAGlu</p>","","","","","","","",""
"html-keyboard-response","99","152903","0.0-9.0-0.11","612d5712d75b6c46b4cefc63","64b003020eef62ee308107cc","64b0205ee3b71102ab721a27","null","null","<p style=""font-size: 60px; font-family: BACS"">kKEdMmtKP</p>","","","","","","","",""
"html-keyboard-response","100","153913","0.0-9.0-0.12","612d5712d75b6c46b4cefc63","64b003020eef62ee308107cc","64b0205ee3b71102ab721a27","null","null","<p style=""font-size: 60px; font-family: BACS"">KTDTBYBO</p>","","","","","","","",""
"html-keyboard-response","101","154921","0.0-9.0-0.13","612d5712d75b6c46b4cefc63","64b003020eef62ee308107cc","64b0205ee3b71102ab721a27","null","null","<p style=""font-size: 60px; font-family: BACS"">JdOAYrkra</p>","","","","","","","",""
"html-keyboard-response","102","155930","0.0-9.0-0.14","612d5712d75b6c46b4cefc63","64b003020eef62ee308107cc","64b0205ee3b71102ab721a27","null","null","<p style=""font-size: 60px; font-family: BACS"">kZUbLkNc</p>","","","","","","","",""
"html-keyboard-response","103","156940","0.0-9.0-0.15","612d5712d75b6c46b4cefc63","64b003020eef62ee308107cc","64b0205ee3b71102ab721a27","null","null","<p style=""font-size: 60px; font-family: BACS"">kKEdMhEct</p>","","","","","","","",""
"html-keyboard-response","104","157946","0.0-9.0-0.16","612d5712d75b6c46b4cefc63","64b003020eef62ee308107cc","64b0205ee3b71102ab721a27","null","null","<p style=""font-size: 60px; font-family: BACS"">PctRCTbk</p>","","","","","","","",""
"html-keyboard-response","105","158954","0.0-9.0-0.17","612d5712d75b6c46b4cefc63","64b003020eef62ee308107cc","64b0205ee3b71102ab721a27","null","null","<p style=""font-size: 60px; font-family: BACS"">GumLlvcb</p>","","","","","","","",""
"html-keyboard-response","106","159965","0.0-9.0-0.18","612d5712d75b6c46b4cefc63","64b003020eef62ee308107cc","64b0205ee3b71102ab721a27","null","null","<p style=""font-size: 60px; font-family: BACS"">PctRCYBO</p>","","","","","","","",""
"html-keyboard-response","107","160975","0.0-9.0-0.19","612d5712d75b6c46b4cefc63","64b003020eef62ee308107cc","64b0205ee3b71102ab721a27","null","null","<p style=""font-size: 60px; font-family: BACS"">KAERMmtKP</p>","","","","","","","",""
"html-keyboard-response","108","161987","0.0-9.0-0.20","612d5712d75b6c46b4cefc63","64b003020eef62ee308107cc","64b0205ee3b71102ab721a27","null","null","<p style=""font-size: 60px; font-family: BACS"">PctRChEct</p>","","","","","","","",""
"html-keyboard-response","109","163000","0.0-9.0-0.21","612d5712d75b6c46b4cefc63","64b003020eef62ee308107cc","64b0205ee3b71102ab721a27","null","null","<p style=""font-size: 60px; font-family: BACS"">NbmQUmZb</p>","","","","","","","",""
"html-keyboard-response","110","164013","0.0-9.0-0.22","612d5712d75b6c46b4cefc63","64b003020eef62ee308107cc","64b0205ee3b71102ab721a27","null","null","<p style=""font-size: 60px; font-family: BACS"">JdOAYvcb</p>","","","","","","","",""
"html-keyboard-response","111","165023","0.0-9.0-0.23","612d5712d75b6c46b4cefc63","64b003020eef62ee308107cc","64b0205ee3b71102ab721a27","null","null","<p style=""font-size: 60px; font-family: BACS"">NbacALkNc</p>","","","","","","","",""
"html-keyboard-response","112","166035","0.0-9.0-0.24","612d5712d75b6c46b4cefc63","64b003020eef62ee308107cc","64b0205ee3b71102ab721a27","null","null","<p style=""font-size: 60px; font-family: BACS"">lcOcvcb</p>","","","","","","","",""
"html-keyboard-response","113","167044","0.0-9.0-0.25","612d5712d75b6c46b4cefc63","64b003020eef62ee308107cc","64b0205ee3b71102ab721a27","null","null","<p style=""font-size: 60px; font-family: BACS"">RkmdCmtKP</p>","","","","","","","",""
"html-keyboard-response","114","168052","0.0-9.0-0.26","612d5712d75b6c46b4cefc63","64b003020eef62ee308107cc","64b0205ee3b71102ab721a27","null","null","<p style=""font-size: 60px; font-family: BACS"">lBlEYBO</p>","","","","","","","",""
"html-keyboard-response","115","169062","0.0-9.0-0.27","612d5712d75b6c46b4cefc63","64b003020eef62ee308107cc","64b0205ee3b71102ab721a27","null","null","<p style=""font-size: 60px; font-family: BACS"">KdARhEct</p>","","","","","","","",""
"html-keyboard-response","116","170069","0.0-9.0-0.28","612d5712d75b6c46b4cefc63","64b003020eef62ee308107cc","64b0205ee3b71102ab721a27","null","null","<p style=""font-size: 60px; font-family: BACS"">KABAmtKP</p>","","","","","","","",""
"html-keyboard-response","117","171081","0.0-9.0-0.29","612d5712d75b6c46b4cefc63","64b003020eef62ee308107cc","64b0205ee3b71102ab721a27","null","null","<p style=""font-size: 60px; font-family: BACS"">lcOcLkNc</p>","","","","","","","",""
"html-keyboard-response","118","172091","0.0-9.0-0.30","612d5712d75b6c46b4cefc63","64b003020eef62ee308107cc","64b0205ee3b71102ab721a27","null","null","<p style=""font-size: 60px; font-family: BACS"">GumLlGlu</p>","","","","","","","",""
"html-keyboard-response","119","173102","0.0-9.0-0.31","612d5712d75b6c46b4cefc63","64b003020eef62ee308107cc","64b0205ee3b71102ab721a27","null","null","<p style=""font-size: 60px; font-family: BACS"">KABAYBO</p>","","","","","","","",""
"html-keyboard-response","120","174113","0.0-9.0-0.32","612d5712d75b6c46b4cefc63","64b003020eef62ee308107cc","64b0205ee3b71102ab721a27","null","null","<p style=""font-size: 60px; font-family: BACS"">kZUbmZb</p>","","","","","","","",""
"html-keyboard-response","121","175124","0.0-9.0-0.33","612d5712d75b6c46b4cefc63","64b003020eef62ee308107cc","64b0205ee3b71102ab721a27","null","null","<p style=""font-size: 60px; font-family: BACS"">KABAtAY</p>","","","","","","","",""
"html-keyboard-response","122","176132","0.0-9.0-0.34","612d5712d75b6c46b4cefc63","64b003020eef62ee308107cc","64b0205ee3b71102ab721a27","null","null","<p style=""font-size: 60px; font-family: BACS"">GumLlrkra</p>","","","","","","","",""
"html-keyboard-response","123","177134","0.0-9.0-0.35","612d5712d75b6c46b4cefc63","64b003020eef62ee308107cc","64b0205ee3b71102ab721a27","null","null","<p style=""font-size: 60px; font-family: BACS"">PctRCtAY</p>","","","","","","","",""
"html-keyboard-response","124","178139","0.0-9.0-0.36","612d5712d75b6c46b4cefc63","64b003020eef62ee308107cc","64b0205ee3b71102ab721a27","null","null","<p style=""font-size: 60px; font-family: BACS"">ZcGdNLkNc</p>","","","","","","","",""
"html-keyboard-response","125","179146","0.0-9.0-0.37","612d5712d75b6c46b4cefc63","64b003020eef62ee308107cc","64b0205ee3b71102ab721a27","null","null","<p style=""font-size: 60px; font-family: BACS"">KTDTBhEct</p>","","","","","","","",""
"html-keyboard-response","126","180162","0.0-9.0-0.38","612d5712d75b6c46b4cefc63","64b003020eef62ee308107cc","64b0205ee3b71102ab721a27","null","null","<p style=""font-size: 60px; font-family: BACS"">KdARtAY</p>","","","","","","","",""
"html-keyboard-response","127","181181","0.0-9.0-0.39","612d5712d75b6c46b4cefc63","64b003020eef62ee308107cc","64b0205ee3b71102ab721a27","null","null","<p style=""font-size: 60px; font-family: BACS"">DOchlYBO</p>","","","","","","","",""
"html-keyboard-response","128","182197","0.0-9.0-0.40","612d5712d75b6c46b4cefc63","64b003020eef62ee308107cc","64b0205ee3b71102ab721a27","null","null","<p style=""font-size: 60px; font-family: BACS"">KAERMtAY</p>","","","","","","","",""
"html-keyboard-response","129","183210","0.0-9.0-0.41","612d5712d75b6c46b4cefc63","64b003020eef62ee308107cc","64b0205ee3b71102ab721a27","null","null","<p style=""font-size: 60px; font-family: BACS"">ldAarkra</p>","","","","","","","",""
"html-keyboard-response","130","184221","0.0-9.0-0.42","612d5712d75b6c46b4cefc63","64b003020eef62ee308107cc","64b0205ee3b71102ab721a27","null","null","<p style=""font-size: 60px; font-family: BACS"">lBlEmtKP</p>","","","","","","","",""
"html-keyboard-response","131","185227","0.0-9.0-0.43","612d5712d75b6c46b4cefc63","64b003020eef62ee308107cc","64b0205ee3b71102ab721a27","null","null","<p style=""font-size: 60px; font-family: BACS"">KAERMTbk</p>","","","","","","","",""
"html-keyboard-response","132","186236","0.0-9.0-0.44","612d5712d75b6c46b4cefc63","64b003020eef62ee308107cc","64b0205ee3b71102ab721a27","null","null","<p style=""font-size: 60px; font-family: BACS"">DOchltAY</p>","","","","","","","",""
"html-keyboard-response","133","187248","0.0-9.0-0.45","612d5712d75b6c46b4cefc63","64b003020eef62ee308107cc","64b0205ee3b71102ab721a27","null","null","<p style=""font-size: 60px; font-family: BACS"">ZcGdNGlu</p>","","","","","","","",""
"html-keyboard-response","134","188249","0.0-9.0-0.46","612d5712d75b6c46b4cefc63","64b003020eef62ee308107cc","64b0205ee3b71102ab721a27","null","null","<p style=""font-size: 60px; font-family: BACS"">lkAkvcb</p>","","","","","","","",""
"html-keyboard-response","135","189260","0.0-9.0-0.47","612d5712d75b6c46b4cefc63","64b003020eef62ee308107cc","64b0205ee3b71102ab721a27","null","null","<p style=""font-size: 60px; font-family: BACS"">kZUbrkra</p>","","","","","","","",""
"html-keyboard-response","136","190271","0.0-9.0-0.48","612d5712d75b6c46b4cefc63","64b003020eef62ee308107cc","64b0205ee3b71102ab721a27","null","null","<p style=""font-size: 60px; font-family: BACS"">lcOcGlu</p>","","","","","","","",""
"html-keyboard-response","137","191277","0.0-9.0-0.49","612d5712d75b6c46b4cefc63","64b003020eef62ee308107cc","64b0205ee3b71102ab721a27","null","null","<p style=""font-size: 60px; font-family: BACS"">NaAQdvcb</p>","","","","","","","",""
"html-keyboard-response","138","192290","0.0-9.0-0.50","612d5712d75b6c46b4cefc63","64b003020eef62ee308107cc","64b0205ee3b71102ab721a27","null","null","<p style=""font-size: 60px; font-family: BACS"">JdOAYLkNc</p>","","","","","","","",""
"html-keyboard-response","139","193294","0.0-9.0-0.51","612d5712d75b6c46b4cefc63","64b003020eef62ee308107cc","64b0205ee3b71102ab721a27","null","null","<p style=""font-size: 60px; font-family: BACS"">ldAavcb</p>","","","","","","","",""
"html-keyboard-response","140","194305","0.0-9.0-0.52","612d5712d75b6c46b4cefc63","64b003020eef62ee308107cc","64b0205ee3b71102ab721a27","null","null","<p style=""font-size: 60px; font-family: BACS"">NaAQdLkNc</p>","","","","","","","",""
"html-keyboard-response","141","195314","0.0-9.0-0.53","612d5712d75b6c46b4cefc63","64b003020eef62ee308107cc","64b0205ee3b71102ab721a27","null","null","<p style=""font-size: 60px; font-family: BACS"">KTDTBmtKP</p>","","","","","","","",""
"html-keyboard-response","142","196326","0.0-9.0-0.54","612d5712d75b6c46b4cefc63","64b003020eef62ee308107cc","64b0205ee3b71102ab721a27","null","null","<p style=""font-size: 60px; font-family: BACS"">KAERMYBO</p>","","","","","","","",""
"html-keyboard-response","143","197339","0.0-9.0-0.55","612d5712d75b6c46b4cefc63","64b003020eef62ee308107cc","64b0205ee3b71102ab721a27","null","null","<p style=""font-size: 60px; font-family: BACS"">JdOAYmZb</p>","","","","","","","",""
"html-keyboard-response","144","198353","0.0-9.0-0.56","612d5712d75b6c46b4cefc63","64b003020eef62ee308107cc","64b0205ee3b71102ab721a27","null","null","<p style=""font-size: 60px; font-family: BACS"">hAROKTbk</p>","","","","","","","",""
"html-keyboard-response","145","199363","0.0-9.0-0.57","612d5712d75b6c46b4cefc63","64b003020eef62ee308107cc","64b0205ee3b71102ab721a27","null","null","<p style=""font-size: 60px; font-family: BACS"">KTDTBtAY</p>","","","","","","","",""
"html-keyboard-response","146","200367","0.0-9.0-0.58","612d5712d75b6c46b4cefc63","64b003020eef62ee308107cc","64b0205ee3b71102ab721a27","null","null","<p style=""font-size: 60px; font-family: BACS"">NbmQUrkra</p>","","","","","","","",""
"html-keyboard-response","147","201369","0.0-9.0-0.59","612d5712d75b6c46b4cefc63","64b003020eef62ee308107cc","64b0205ee3b71102ab721a27","null","null","<p style=""font-size: 60px; font-family: BACS"">ZcGdNvcb</p>","","","","","","","",""
"html-keyboard-response","148","202383","0.0-9.0-0.60","612d5712d75b6c46b4cefc63","64b003020eef62ee308107cc","64b0205ee3b71102ab721a27","null","null","<p style=""font-size: 60px; font-family: BACS"">lBlETbk</p>","","","","","","","",""
"html-keyboard-response","149","203396","0.0-9.0-0.61","612d5712d75b6c46b4cefc63","64b003020eef62ee308107cc","64b0205ee3b71102ab721a27","null","null","<p style=""font-size: 60px; font-family: BACS"">NbacAmZb</p>","","","","","","","",""
"html-keyboard-response","150","204407","0.0-9.0-0.62","612d5712d75b6c46b4cefc63","64b003020eef62ee308107cc","64b0205ee3b71102ab721a27","null","null","<p style=""font-size: 60px; font-family: BACS"">kKEdMtAY</p>","","","","","","","",""
"html-keyboard-response","151","205419","0.0-9.0-0.63","612d5712d75b6c46b4cefc63","64b003020eef62ee308107cc","64b0205ee3b71102ab721a27","null","null","<p style=""font-size: 60px; font-family: BACS"">lkAkGlu</p>","","","","","","","",""
"html-keyboard-response","152","206430","0.0-9.0-0.64","612d5712d75b6c46b4cefc63","64b003020eef62ee308107cc","64b0205ee3b71102ab721a27","null","null","<p style=""font-size: 60px; font-family: BACS"">NbacAvcb</p>","","","","","","","",""
"html-keyboard-response","153","207440","0.0-9.0-0.65","612d5712d75b6c46b4cefc63","64b003020eef62ee308107cc","64b0205ee3b71102ab721a27","null","null","<p style=""font-size: 60px; font-family: BACS"">RkmdChEct</p>","","","","","","","",""
"html-keyboard-response","154","208449","0.0-9.0-0.66","612d5712d75b6c46b4cefc63","64b003020eef62ee308107cc","64b0205ee3b71102ab721a27","null","null","<p style=""font-size: 60px; font-family: BACS"">hAROKYBO</p>","","","","","","","",""
"html-keyboard-response","155","209461","0.0-9.0-0.67","612d5712d75b6c46b4cefc63","64b003020eef62ee308107cc","64b0205ee3b71102ab721a27","null","null","<p style=""font-size: 60px; font-family: BACS"">lkAkLkNc</p>","","","","","","","",""
"html-keyboard-response","156","210476","0.0-9.0-0.68","612d5712d75b6c46b4cefc63","64b003020eef62ee308107cc","64b0205ee3b71102ab721a27","null","null","<p style=""font-size: 60px; font-family: BACS"">ldAaGlu</p>","","","","","","","",""
"html-keyboard-response","157","211480","0.0-9.0-0.69","612d5712d75b6c46b4cefc63","64b003020eef62ee308107cc","64b0205ee3b71102ab721a27","null","null","<p style=""font-size: 60px; font-family: BACS"">ZcGdNrkra</p>","","","","","","","",""
"html-keyboard-response","158","212483","0.0-9.0-0.70","612d5712d75b6c46b4cefc63","64b003020eef62ee308107cc","64b0205ee3b71102ab721a27","null","null","<p style=""font-size: 60px; font-family: BACS"">NbmQUGlu</p>","","","","","","","",""
"html-keyboard-response","159","213493","0.0-9.0-0.71","612d5712d75b6c46b4cefc63","64b003020eef62ee308107cc","64b0205ee3b71102ab721a27","null","null","<p style=""font-size: 60px; font-family: BACS"">RkmdCYBO</p>","","","","","","","",""
"html-keyboard-response","160","214494","0.0-9.0-0.72","612d5712d75b6c46b4cefc63","64b003020eef62ee308107cc","64b0205ee3b71102ab721a27","null","null","<p style=""font-size: 60px; font-family: BACS"">GumLlmZb</p>","","","","","","","",""
"html-keyboard-response","161","215505","0.0-9.0-0.73","612d5712d75b6c46b4cefc63","64b003020eef62ee308107cc","64b0205ee3b71102ab721a27","null","null","<p style=""font-size: 60px; font-family: BACS"">lcOcrkra</p>","","","","","","","",""
"html-keyboard-response","162","216517","0.0-9.0-0.74","612d5712d75b6c46b4cefc63","64b003020eef62ee308107cc","64b0205ee3b71102ab721a27","null","null","<p style=""font-size: 60px; font-family: BACS"">KdARTbk</p>","","","","","","","",""
"html-keyboard-response","163","217527","0.0-9.0-0.75","612d5712d75b6c46b4cefc63","64b003020eef62ee308107cc","64b0205ee3b71102ab721a27","null","null","<p style=""font-size: 60px; font-family: BACS"">hAROKtAY</p>","","","","","","","",""
"html-keyboard-response","164","218536","0.0-9.0-0.76","612d5712d75b6c46b4cefc63","64b003020eef62ee308107cc","64b0205ee3b71102ab721a27","null","null","<p style=""font-size: 60px; font-family: BACS"">kZUbGlu</p>","","","","","","","",""
"html-keyboard-response","165","219546","0.0-9.0-0.77","612d5712d75b6c46b4cefc63","64b003020eef62ee308107cc","64b0205ee3b71102ab721a27","null","null","<p style=""font-size: 60px; font-family: BACS"">lBlEhEct</p>","","","","","","","",""
"html-keyboard-response","166","220559","0.0-9.0-0.78","612d5712d75b6c46b4cefc63","64b003020eef62ee308107cc","64b0205ee3b71102ab721a27","null","null","<p style=""font-size: 60px; font-family: BACS"">KdARmtKP</p>","","","","","","","",""
"html-keyboard-response","167","221571","0.0-9.0-0.79","612d5712d75b6c46b4cefc63","64b003020eef62ee308107cc","64b0205ee3b71102ab721a27","null","null","<p style=""font-size: 60px; font-family: BACS"">lkAkmZb</p>","","","","","","","",""
"html-keyboard-response","168","234680","0.0-10.0","612d5712d75b6c46b4cefc63","64b003020eef62ee308107cc","64b0205ee3b71102ab721a27","13107"," ","<p>Ottimo, hai visto il secondo blocco di parole. Ora puoi prenderti una piccola pausa.</p>
      <p>Premi la barra quando sei pronta/o per riprendere.</p>","","","","","","","",""
"html-keyboard-response","169","235688","0.0-11.0-0.0","612d5712d75b6c46b4cefc63","64b003020eef62ee308107cc","64b0205ee3b71102ab721a27","null","null","<p style=""font-size: 60px; font-family: BACS"">KTDTBmtKP</p>","","","","","","","",""
"html-keyboard-response","170","236700","0.0-11.0-0.1","612d5712d75b6c46b4cefc63","64b003020eef62ee308107cc","64b0205ee3b71102ab721a27","null","null","<p style=""font-size: 60px; font-family: BACS"">DOchlYBO</p>","","","","","","","",""
"html-keyboard-response","171","237708","0.0-11.0-0.2","612d5712d75b6c46b4cefc63","64b003020eef62ee308107cc","64b0205ee3b71102ab721a27","null","null","<p style=""font-size: 60px; font-family: BACS"">NbacAmZb</p>","","","","","","","",""
"html-keyboard-response","172","238720","0.0-11.0-0.3","612d5712d75b6c46b4cefc63","64b003020eef62ee308107cc","64b0205ee3b71102ab721a27","null","null","<p style=""font-size: 60px; font-family: BACS"">RkmdChEct</p>","","","","","","","",""
"html-keyboard-response","173","239732","0.0-11.0-0.4","612d5712d75b6c46b4cefc63","64b003020eef62ee308107cc","64b0205ee3b71102ab721a27","null","null","<p style=""font-size: 60px; font-family: BACS"">KdARtAY</p>","","","","","","","",""
"html-keyboard-response","174","240746","0.0-11.0-0.5","612d5712d75b6c46b4cefc63","64b003020eef62ee308107cc","64b0205ee3b71102ab721a27","null","null","<p style=""font-size: 60px; font-family: BACS"">KAERMYBO</p>","","","","","","","",""
"html-keyboard-response","175","241759","0.0-11.0-0.6","612d5712d75b6c46b4cefc63","64b003020eef62ee308107cc","64b0205ee3b71102ab721a27","null","null","<p style=""font-size: 60px; font-family: BACS"">lcOcLkNc</p>","","","","","","","",""
"html-keyboard-response","176","242768","0.0-11.0-0.7","612d5712d75b6c46b4cefc63","64b003020eef62ee308107cc","64b0205ee3b71102ab721a27","null","null","<p style=""font-size: 60px; font-family: BACS"">lBlETbk</p>","","","","","","","",""
"html-keyboard-response","177","243779","0.0-11.0-0.8","612d5712d75b6c46b4cefc63","64b003020eef62ee308107cc","64b0205ee3b71102ab721a27","null","null","<p style=""font-size: 60px; font-family: BACS"">PctRCYBO</p>","","","","","","","",""
"html-keyboard-response","178","244788","0.0-11.0-0.9","612d5712d75b6c46b4cefc63","64b003020eef62ee308107cc","64b0205ee3b71102ab721a27","null","null","<p style=""font-size: 60px; font-family: BACS"">ZcGdNrkra</p>","","","","","","","",""
"html-keyboard-response","179","245796","0.0-11.0-0.10","612d5712d75b6c46b4cefc63","64b003020eef62ee308107cc","64b0205ee3b71102ab721a27","null","null","<p style=""font-size: 60px; font-family: BACS"">lBlEhEct</p>","","","","","","","",""
"html-keyboard-response","180","246806","0.0-11.0-0.11","612d5712d75b6c46b4cefc63","64b003020eef62ee308107cc","64b0205ee3b71102ab721a27","null","null","<p style=""font-size: 60px; font-family: BACS"">GumLlvcb</p>","","","","","","","",""
"html-keyboard-response","181","247810","0.0-11.0-0.12","612d5712d75b6c46b4cefc63","64b003020eef62ee308107cc","64b0205ee3b71102ab721a27","null","null","<p style=""font-size: 60px; font-family: BACS"">KAERMTbk</p>","","","","","","","",""
"html-keyboard-response","182","248821","0.0-11.0-0.13","612d5712d75b6c46b4cefc63","64b003020eef62ee308107cc","64b0205ee3b71102ab721a27","null","null","<p style=""font-size: 60px; font-family: BACS"">ZcGdNLkNc</p>","","","","","","","",""
"html-keyboard-response","183","249835","0.0-11.0-0.14","612d5712d75b6c46b4cefc63","64b003020eef62ee308107cc","64b0205ee3b71102ab721a27","null","null","<p style=""font-size: 60px; font-family: BACS"">ldAarkra</p>","","","","","","","",""
"html-keyboard-response","184","250847","0.0-11.0-0.15","612d5712d75b6c46b4cefc63","64b003020eef62ee308107cc","64b0205ee3b71102ab721a27","null","null","<p style=""font-size: 60px; font-family: BACS"">NbmQULkNc</p>","","","","","","","",""
"html-keyboard-response","185","251859","0.0-11.0-0.16","612d5712d75b6c46b4cefc63","64b003020eef62ee308107cc","64b0205ee3b71102ab721a27","null","null","<p style=""font-size: 60px; font-family: BACS"">lkAkvcb</p>","","","","","","","",""
"html-keyboard-response","186","252870","0.0-11.0-0.17","612d5712d75b6c46b4cefc63","64b003020eef62ee308107cc","64b0205ee3b71102ab721a27","null","null","<p style=""font-size: 60px; font-family: BACS"">ZcGdNGlu</p>","","","","","","","",""
"html-keyboard-response","187","253881","0.0-11.0-0.18","612d5712d75b6c46b4cefc63","64b003020eef62ee308107cc","64b0205ee3b71102ab721a27","null","null","<p style=""font-size: 60px; font-family: BACS"">DOchlTbk</p>","","","","","","","",""
"html-keyboard-response","188","254888","0.0-11.0-0.19","612d5712d75b6c46b4cefc63","64b003020eef62ee308107cc","64b0205ee3b71102ab721a27","null","null","<p style=""font-size: 60px; font-family: BACS"">lcOcvcb</p>","","","","","","","",""
"html-keyboard-response","189","255895","0.0-11.0-0.20","612d5712d75b6c46b4cefc63","64b003020eef62ee308107cc","64b0205ee3b71102ab721a27","null","null","<p style=""font-size: 60px; font-family: BACS"">NbacALkNc</p>","","","","","","","",""
"html-keyboard-response","190","256902","0.0-11.0-0.21","612d5712d75b6c46b4cefc63","64b003020eef62ee308107cc","64b0205ee3b71102ab721a27","null","null","<p style=""font-size: 60px; font-family: BACS"">GumLlrkra</p>","","","","","","","",""
"html-keyboard-response","191","257909","0.0-11.0-0.22","612d5712d75b6c46b4cefc63","64b003020eef62ee308107cc","64b0205ee3b71102ab721a27","null","null","<p style=""font-size: 60px; font-family: BACS"">lkAkLkNc</p>","","","","","","","",""
"html-keyboard-response","192","258919","0.0-11.0-0.23","612d5712d75b6c46b4cefc63","64b003020eef62ee308107cc","64b0205ee3b71102ab721a27","null","null","<p style=""font-size: 60px; font-family: BACS"">lcOcrkra</p>","","","","","","","",""
"html-keyboard-response","193","259929","0.0-11.0-0.24","612d5712d75b6c46b4cefc63","64b003020eef62ee308107cc","64b0205ee3b71102ab721a27","null","null","<p style=""font-size: 60px; font-family: BACS"">KTDTBtAY</p>","","","","","","","",""
"html-keyboard-response","194","260942","0.0-11.0-0.25","612d5712d75b6c46b4cefc63","64b003020eef62ee308107cc","64b0205ee3b71102ab721a27","null","null","<p style=""font-size: 60px; font-family: BACS"">JdOAYLkNc</p>","","","","","","","",""
"html-keyboard-response","195","261956","0.0-11.0-0.26","612d5712d75b6c46b4cefc63","64b003020eef62ee308107cc","64b0205ee3b71102ab721a27","null","null","<p style=""font-size: 60px; font-family: BACS"">lkAkGlu</p>","","","","","","","",""
"html-keyboard-response","196","262966","0.0-11.0-0.27","612d5712d75b6c46b4cefc63","64b003020eef62ee308107cc","64b0205ee3b71102ab721a27","null","null","<p style=""font-size: 60px; font-family: BACS"">ldAamZb</p>","","","","","","","",""
"html-keyboard-response","197","263981","0.0-11.0-0.28","612d5712d75b6c46b4cefc63","64b003020eef62ee308107cc","64b0205ee3b71102ab721a27","null","null","<p style=""font-size: 60px; font-family: BACS"">KABAmtKP</p>","","","","","","","",""
"html-keyboard-response","198","264991","0.0-11.0-0.29","612d5712d75b6c46b4cefc63","64b003020eef62ee308107cc","64b0205ee3b71102ab721a27","null","null","<p style=""font-size: 60px; font-family: BACS"">kKEdMTbk</p>","","","","","","","",""
"html-keyboard-response","199","266006","0.0-11.0-0.30","612d5712d75b6c46b4cefc63","64b003020eef62ee308107cc","64b0205ee3b71102ab721a27","null","null","<p style=""font-size: 60px; font-family: BACS"">KABAYBO</p>","","","","","","","",""
"html-keyboard-response","200","267013","0.0-11.0-0.31","612d5712d75b6c46b4cefc63","64b003020eef62ee308107cc","64b0205ee3b71102ab721a27","null","null","<p style=""font-size: 60px; font-family: BACS"">PctRChEct</p>","","","","","","","",""
"html-keyboard-response","201","268024","0.0-11.0-0.32","612d5712d75b6c46b4cefc63","64b003020eef62ee308107cc","64b0205ee3b71102ab721a27","null","null","<p style=""font-size: 60px; font-family: BACS"">kKEdMmtKP</p>","","","","","","","",""
"html-keyboard-response","202","269038","0.0-11.0-0.33","612d5712d75b6c46b4cefc63","64b003020eef62ee308107cc","64b0205ee3b71102ab721a27","null","null","<p style=""font-size: 60px; font-family: BACS"">kZUbLkNc</p>","","","","","","","",""
"html-keyboard-response","203","270041","0.0-11.0-0.34","612d5712d75b6c46b4cefc63","64b003020eef62ee308107cc","64b0205ee3b71102ab721a27","null","null","<p style=""font-size: 60px; font-family: BACS"">hAROKtAY</p>","","","","","","","",""
"html-keyboard-response","204","271056","0.0-11.0-0.35","612d5712d75b6c46b4cefc63","64b003020eef62ee308107cc","64b0205ee3b71102ab721a27","null","null","<p style=""font-size: 60px; font-family: BACS"">DOchlhEct</p>","","","","","","","",""
"html-keyboard-response","205","272066","0.0-11.0-0.36","612d5712d75b6c46b4cefc63","64b003020eef62ee308107cc","64b0205ee3b71102ab721a27","null","null","<p style=""font-size: 60px; font-family: BACS"">ldAavcb</p>","","","","","","","",""
"html-keyboard-response","206","273075","0.0-11.0-0.37","612d5712d75b6c46b4cefc63","64b003020eef62ee308107cc","64b0205ee3b71102ab721a27","null","null","<p style=""font-size: 60px; font-family: BACS"">KTDTBhEct</p>","","","","","","","",""
"html-keyboard-response","207","274090","0.0-11.0-0.38","612d5712d75b6c46b4cefc63","64b003020eef62ee308107cc","64b0205ee3b71102ab721a27","null","null","<p style=""font-size: 60px; font-family: BACS"">hAROKmtKP</p>","","","","","","","",""
"html-keyboard-response","208","275101","0.0-11.0-0.39","612d5712d75b6c46b4cefc63","64b003020eef62ee308107cc","64b0205ee3b71102ab721a27","null","null","<p style=""font-size: 60px; font-family: BACS"">JdOAYrkra</p>","","","","","","","",""
"html-keyboard-response","209","276107","0.0-11.0-0.40","612d5712d75b6c46b4cefc63","64b003020eef62ee308107cc","64b0205ee3b71102ab721a27","null","null","<p style=""font-size: 60px; font-family: BACS"">kZUbmZb</p>","","","","","","","",""
"html-keyboard-response","210","277117","0.0-11.0-0.41","612d5712d75b6c46b4cefc63","64b003020eef62ee308107cc","64b0205ee3b71102ab721a27","null","null","<p style=""font-size: 60px; font-family: BACS"">ZcGdNvcb</p>","","","","","","","",""
"html-keyboard-response","211","278126","0.0-11.0-0.42","612d5712d75b6c46b4cefc63","64b003020eef62ee308107cc","64b0205ee3b71102ab721a27","null","null","<p style=""font-size: 60px; font-family: BACS"">KTDTBYBO</p>","","","","","","","",""
"html-keyboard-response","212","279133","0.0-11.0-0.43","612d5712d75b6c46b4cefc63","64b003020eef62ee308107cc","64b0205ee3b71102ab721a27","null","null","<p style=""font-size: 60px; font-family: BACS"">KdARhEct</p>","","","","","","","",""
"html-keyboard-response","213","280145","0.0-11.0-0.44","612d5712d75b6c46b4cefc63","64b003020eef62ee308107cc","64b0205ee3b71102ab721a27","null","null","<p style=""font-size: 60px; font-family: BACS"">NaAQdmZb</p>","","","","","","","",""
"html-keyboard-response","214","281152","0.0-11.0-0.45","612d5712d75b6c46b4cefc63","64b003020eef62ee308107cc","64b0205ee3b71102ab721a27","null","null","<p style=""font-size: 60px; font-family: BACS"">kZUbrkra</p>","","","","","","","",""
"html-keyboard-response","215","282163","0.0-11.0-0.46","612d5712d75b6c46b4cefc63","64b003020eef62ee308107cc","64b0205ee3b71102ab721a27","null","null","<p style=""font-size: 60px; font-family: BACS"">lBlEmtKP</p>","","","","","","","",""
"html-keyboard-response","216","283176","0.0-11.0-0.47","612d5712d75b6c46b4cefc63","64b003020eef62ee308107cc","64b0205ee3b71102ab721a27","null","null","<p style=""font-size: 60px; font-family: BACS"">NbmQUGlu</p>","","","","","","","",""
"html-keyboard-response","217","284182","0.0-11.0-0.48","612d5712d75b6c46b4cefc63","64b003020eef62ee308107cc","64b0205ee3b71102ab721a27","null","null","<p style=""font-size: 60px; font-family: BACS"">lBlEYBO</p>","","","","","","","",""
"html-keyboard-response","218","285192","0.0-11.0-0.49","612d5712d75b6c46b4cefc63","64b003020eef62ee308107cc","64b0205ee3b71102ab721a27","null","null","<p style=""font-size: 60px; font-family: BACS"">hAROKTbk</p>","","","","","","","",""
"html-keyboard-response","219","286203","0.0-11.0-0.50","612d5712d75b6c46b4cefc63","64b003020eef62ee308107cc","64b0205ee3b71102ab721a27","null","null","<p style=""font-size: 60px; font-family: BACS"">JdOAYmZb</p>","","","","","","","",""
"html-keyboard-response","220","287217","0.0-11.0-0.51","612d5712d75b6c46b4cefc63","64b003020eef62ee308107cc","64b0205ee3b71102ab721a27","null","null","<p style=""font-size: 60px; font-family: BACS"">KABAtAY</p>","","","","","","","",""
"html-keyboard-response","221","288224","0.0-11.0-0.52","612d5712d75b6c46b4cefc63","64b003020eef62ee308107cc","64b0205ee3b71102ab721a27","null","null","<p style=""font-size: 60px; font-family: BACS"">KdARTbk</p>","","","","","","","",""
"html-keyboard-response","222","289235","0.0-11.0-0.53","612d5712d75b6c46b4cefc63","64b003020eef62ee308107cc","64b0205ee3b71102ab721a27","null","null","<p style=""font-size: 60px; font-family: BACS"">RkmdCYBO</p>","","","","","","","",""
"html-keyboard-response","223","290249","0.0-11.0-0.54","612d5712d75b6c46b4cefc63","64b003020eef62ee308107cc","64b0205ee3b71102ab721a27","null","null","<p style=""font-size: 60px; font-family: BACS"">KABAhEct</p>","","","","","","","",""
"html-keyboard-response","224","291249","0.0-11.0-0.55","612d5712d75b6c46b4cefc63","64b003020eef62ee308107cc","64b0205ee3b71102ab721a27","null","null","<p style=""font-size: 60px; font-family: BACS"">kKEdMtAY</p>","","","","","","","",""
"html-keyboard-response","225","292264","0.0-11.0-0.56","612d5712d75b6c46b4cefc63","64b003020eef62ee308107cc","64b0205ee3b71102ab721a27","null","null","<p style=""font-size: 60px; font-family: BACS"">NaAQdLkNc</p>","","","","","","","",""
"html-keyboard-response","226","293275","0.0-11.0-0.57","612d5712d75b6c46b4cefc63","64b003020eef62ee308107cc","64b0205ee3b71102ab721a27","null","null","<p style=""font-size: 60px; font-family: BACS"">RkmdCTbk</p>","","","","","","","",""
"html-keyboard-response","227","294285","0.0-11.0-0.58","612d5712d75b6c46b4cefc63","64b003020eef62ee308107cc","64b0205ee3b71102ab721a27","null","null","<p style=""font-size: 60px; font-family: BACS"">GumLlmZb</p>","","","","","","","",""
"html-keyboard-response","228","295294","0.0-11.0-0.59","612d5712d75b6c46b4cefc63","64b003020eef62ee308107cc","64b0205ee3b71102ab721a27","null","null","<p style=""font-size: 60px; font-family: BACS"">JdOAYvcb</p>","","","","","","","",""
"html-keyboard-response","229","296300","0.0-11.0-0.60","612d5712d75b6c46b4cefc63","64b003020eef62ee308107cc","64b0205ee3b71102ab721a27","null","null","<p style=""font-size: 60px; font-family: BACS"">NbmQUrkra</p>","","","","","","","",""
"html-keyboard-response","230","297309","0.0-11.0-0.61","612d5712d75b6c46b4cefc63","64b003020eef62ee308107cc","64b0205ee3b71102ab721a27","null","null","<p style=""font-size: 60px; font-family: BACS"">PctRCtAY</p>","","","","","","","",""
"html-keyboard-response","231","298318","0.0-11.0-0.62","612d5712d75b6c46b4cefc63","64b003020eef62ee308107cc","64b0205ee3b71102ab721a27","null","null","<p style=""font-size: 60px; font-family: BACS"">ldAaGlu</p>","","","","","","","",""
"html-keyboard-response","232","299323","0.0-11.0-0.63","612d5712d75b6c46b4cefc63","64b003020eef62ee308107cc","64b0205ee3b71102ab721a27","null","null","<p style=""font-size: 60px; font-family: BACS"">PctRCTbk</p>","","","","","","","",""
"html-keyboard-response","233","300332","0.0-11.0-0.64","612d5712d75b6c46b4cefc63","64b003020eef62ee308107cc","64b0205ee3b71102ab721a27","null","null","<p style=""font-size: 60px; font-family: BACS"">RkmdCmtKP</p>","","","","","","","",""
"html-keyboard-response","234","301342","0.0-11.0-0.65","612d5712d75b6c46b4cefc63","64b003020eef62ee308107cc","64b0205ee3b71102ab721a27","null","null","<p style=""font-size: 60px; font-family: BACS"">kZUbGlu</p>","","","","","","","",""
"html-keyboard-response","235","302351","0.0-11.0-0.66","612d5712d75b6c46b4cefc63","64b003020eef62ee308107cc","64b0205ee3b71102ab721a27","null","null","<p style=""font-size: 60px; font-family: BACS"">NaAQdvcb</p>","","","","","","","",""
"html-keyboard-response","236","303365","0.0-11.0-0.67","612d5712d75b6c46b4cefc63","64b003020eef62ee308107cc","64b0205ee3b71102ab721a27","null","null","<p style=""font-size: 60px; font-family: BACS"">lcOcGlu</p>","","","","","","","",""
"html-keyboard-response","237","304373","0.0-11.0-0.68","612d5712d75b6c46b4cefc63","64b003020eef62ee308107cc","64b0205ee3b71102ab721a27","null","null","<p style=""font-size: 60px; font-family: BACS"">DOchltAY</p>","","","","","","","",""
"html-keyboard-response","238","305379","0.0-11.0-0.69","612d5712d75b6c46b4cefc63","64b003020eef62ee308107cc","64b0205ee3b71102ab721a27","null","null","<p style=""font-size: 60px; font-family: BACS"">NaAQdrkra</p>","","","","","","","",""
"html-keyboard-response","239","306388","0.0-11.0-0.70","612d5712d75b6c46b4cefc63","64b003020eef62ee308107cc","64b0205ee3b71102ab721a27","null","null","<p style=""font-size: 60px; font-family: BACS"">NbacAvcb</p>","","","","","","","",""
"html-keyboard-response","240","307399","0.0-11.0-0.71","612d5712d75b6c46b4cefc63","64b003020eef62ee308107cc","64b0205ee3b71102ab721a27","null","null","<p style=""font-size: 60px; font-family: BACS"">KAERMtAY</p>","","","","","","","",""
"html-keyboard-response","241","308410","0.0-11.0-0.72","612d5712d75b6c46b4cefc63","64b003020eef62ee308107cc","64b0205ee3b71102ab721a27","null","null","<p style=""font-size: 60px; font-family: BACS"">KdARmtKP</p>","","","","","","","",""
"html-keyboard-response","242","309418","0.0-11.0-0.73","612d5712d75b6c46b4cefc63","64b003020eef62ee308107cc","64b0205ee3b71102ab721a27","null","null","<p style=""font-size: 60px; font-family: BACS"">GumLlGlu</p>","","","","","","","",""
"html-keyboard-response","243","310428","0.0-11.0-0.74","612d5712d75b6c46b4cefc63","64b003020eef62ee308107cc","64b0205ee3b71102ab721a27","null","null","<p style=""font-size: 60px; font-family: BACS"">KAERMmtKP</p>","","","","","","","",""
"html-keyboard-response","244","311436","0.0-11.0-0.75","612d5712d75b6c46b4cefc63","64b003020eef62ee308107cc","64b0205ee3b71102ab721a27","null","null","<p style=""font-size: 60px; font-family: BACS"">lkAkmZb</p>","","","","","","","",""
"html-keyboard-response","245","312446","0.0-11.0-0.76","612d5712d75b6c46b4cefc63","64b003020eef62ee308107cc","64b0205ee3b71102ab721a27","null","null","<p style=""font-size: 60px; font-family: BACS"">hAROKYBO</p>","","","","","","","",""
"html-keyboard-response","246","313459","0.0-11.0-0.77","612d5712d75b6c46b4cefc63","64b003020eef62ee308107cc","64b0205ee3b71102ab721a27","null","null","<p style=""font-size: 60px; font-family: BACS"">NbacAGlu</p>","","","","","","","",""
"html-keyboard-response","247","314471","0.0-11.0-0.78","612d5712d75b6c46b4cefc63","64b003020eef62ee308107cc","64b0205ee3b71102ab721a27","null","null","<p style=""font-size: 60px; font-family: BACS"">kKEdMhEct</p>","","","","","","","",""
"html-keyboard-response","248","315481","0.0-11.0-0.79","612d5712d75b6c46b4cefc63","64b003020eef62ee308107cc","64b0205ee3b71102ab721a27","null","null","<p style=""font-size: 60px; font-family: BACS"">NbmQUmZb</p>","","","","","","","",""
"html-keyboard-response","249","322949","0.0-12.0","612d5712d75b6c46b4cefc63","64b003020eef62ee308107cc","64b0205ee3b71102ab721a27","7467"," ","<p>Ottimo, hai visto il terzo blocco di parole. Ora puoi prenderti una piccola pausa.</p>
      <p>Premi la barra quando sei pronta/o per riprendere.</p>","","","","","","","",""
"html-keyboard-response","250","323960","0.0-13.0-0.0","612d5712d75b6c46b4cefc63","64b003020eef62ee308107cc","64b0205ee3b71102ab721a27","null","null","<p style=""font-size: 60px; font-family: BACS"">ZcGdNrkra</p>","","","","","","","",""
"html-keyboard-response","251","324961","0.0-13.0-0.1","612d5712d75b6c46b4cefc63","64b003020eef62ee308107cc","64b0205ee3b71102ab721a27","null","null","<p style=""font-size: 60px; font-family: BACS"">NbmQUmZb</p>","","","","","","","",""
"html-keyboard-response","252","325968","0.0-13.0-0.2","612d5712d75b6c46b4cefc63","64b003020eef62ee308107cc","64b0205ee3b71102ab721a27","null","null","<p style=""font-size: 60px; font-family: BACS"">lkAkGlu</p>","","","","","","","",""
"html-keyboard-response","253","326979","0.0-13.0-0.3","612d5712d75b6c46b4cefc63","64b003020eef62ee308107cc","64b0205ee3b71102ab721a27","null","null","<p style=""font-size: 60px; font-family: BACS"">lBlETbk</p>","","","","","","","",""
"html-keyboard-response","254","327985","0.0-13.0-0.4","612d5712d75b6c46b4cefc63","64b003020eef62ee308107cc","64b0205ee3b71102ab721a27","null","null","<p style=""font-size: 60px; font-family: BACS"">NbacAGlu</p>","","","","","","","",""
"html-keyboard-response","255","328992","0.0-13.0-0.5","612d5712d75b6c46b4cefc63","64b003020eef62ee308107cc","64b0205ee3b71102ab721a27","null","null","<p style=""font-size: 60px; font-family: BACS"">lBlEhEct</p>","","","","","","","",""
"html-keyboard-response","256","330005","0.0-13.0-0.6","612d5712d75b6c46b4cefc63","64b003020eef62ee308107cc","64b0205ee3b71102ab721a27","null","null","<p style=""font-size: 60px; font-family: BACS"">RkmdCTbk</p>","","","","","","","",""
"html-keyboard-response","257","331020","0.0-13.0-0.7","612d5712d75b6c46b4cefc63","64b003020eef62ee308107cc","64b0205ee3b71102ab721a27","null","null","<p style=""font-size: 60px; font-family: BACS"">lBlEYBO</p>","","","","","","","",""
"html-keyboard-response","258","332031","0.0-13.0-0.8","612d5712d75b6c46b4cefc63","64b003020eef62ee308107cc","64b0205ee3b71102ab721a27","null","null","<p style=""font-size: 60px; font-family: BACS"">RkmdChEct</p>","","","","","","","",""
"html-keyboard-response","259","333042","0.0-13.0-0.9","612d5712d75b6c46b4cefc63","64b003020eef62ee308107cc","64b0205ee3b71102ab721a27","null","null","<p style=""font-size: 60px; font-family: BACS"">kZUbLkNc</p>","","","","","","","",""
"html-keyboard-response","260","334054","0.0-13.0-0.10","612d5712d75b6c46b4cefc63","64b003020eef62ee308107cc","64b0205ee3b71102ab721a27","null","null","<p style=""font-size: 60px; font-family: BACS"">kKEdMTbk</p>","","","","","","","",""
"html-keyboard-response","261","335064","0.0-13.0-0.11","612d5712d75b6c46b4cefc63","64b003020eef62ee308107cc","64b0205ee3b71102ab721a27","null","null","<p style=""font-size: 60px; font-family: BACS"">KdARmtKP</p>","","","","","","","",""
"html-keyboard-response","262","336073","0.0-13.0-0.12","612d5712d75b6c46b4cefc63","64b003020eef62ee308107cc","64b0205ee3b71102ab721a27","null","null","<p style=""font-size: 60px; font-family: BACS"">lcOcGlu</p>","","","","","","","",""
"html-keyboard-response","263","337077","0.0-13.0-0.13","612d5712d75b6c46b4cefc63","64b003020eef62ee308107cc","64b0205ee3b71102ab721a27","null","null","<p style=""font-size: 60px; font-family: BACS"">KTDTBtAY</p>","","","","","","","",""
"html-keyboard-response","264","338078","0.0-13.0-0.14","612d5712d75b6c46b4cefc63","64b003020eef62ee308107cc","64b0205ee3b71102ab721a27","null","null","<p style=""font-size: 60px; font-family: BACS"">kKEdMmtKP</p>","","","","","","","",""
"html-keyboard-response","265","339088","0.0-13.0-0.15","612d5712d75b6c46b4cefc63","64b003020eef62ee308107cc","64b0205ee3b71102ab721a27","null","null","<p style=""font-size: 60px; font-family: BACS"">lcOcvcb</p>","","","","","","","",""
"html-keyboard-response","266","340098","0.0-13.0-0.16","612d5712d75b6c46b4cefc63","64b003020eef62ee308107cc","64b0205ee3b71102ab721a27","null","null","<p style=""font-size: 60px; font-family: BACS"">NbacALkNc</p>","","","","","","","",""
"html-keyboard-response","267","341110","0.0-13.0-0.17","612d5712d75b6c46b4cefc63","64b003020eef62ee308107cc","64b0205ee3b71102ab721a27","null","null","<p style=""font-size: 60px; font-family: BACS"">kZUbmZb</p>","","","","","","","",""
"html-keyboard-response","268","342115","0.0-13.0-0.18","612d5712d75b6c46b4cefc63","64b003020eef62ee308107cc","64b0205ee3b71102ab721a27","null","null","<p style=""font-size: 60px; font-family: BACS"">DOchlhEct</p>","","","","","","","",""
"html-keyboard-response","269","343124","0.0-13.0-0.19","612d5712d75b6c46b4cefc63","64b003020eef62ee308107cc","64b0205ee3b71102ab721a27","null","null","<p style=""font-size: 60px; font-family: BACS"">GumLlGlu</p>","","","","","","","",""
"html-keyboard-response","270","344136","0.0-13.0-0.20","612d5712d75b6c46b4cefc63","64b003020eef62ee308107cc","64b0205ee3b71102ab721a27","null","null","<p style=""font-size: 60px; font-family: BACS"">JdOAYmZb</p>","","","","","","","",""
"html-keyboard-response","271","345143","0.0-13.0-0.21","612d5712d75b6c46b4cefc63","64b003020eef62ee308107cc","64b0205ee3b71102ab721a27","null","null","<p style=""font-size: 60px; font-family: BACS"">kKEdMtAY</p>","","","","","","","",""
"html-keyboard-response","272","346153","0.0-13.0-0.22","612d5712d75b6c46b4cefc63","64b003020eef62ee308107cc","64b0205ee3b71102ab721a27","null","null","<p style=""font-size: 60px; font-family: BACS"">NbmQULkNc</p>","","","","","","","",""
"html-keyboard-response","273","347164","0.0-13.0-0.23","612d5712d75b6c46b4cefc63","64b003020eef62ee308107cc","64b0205ee3b71102ab721a27","null","null","<p style=""font-size: 60px; font-family: BACS"">PctRCtAY</p>","","","","","","","",""
"html-keyboard-response","274","348170","0.0-13.0-0.24","612d5712d75b6c46b4cefc63","64b003020eef62ee308107cc","64b0205ee3b71102ab721a27","null","null","<p style=""font-size: 60px; font-family: BACS"">ZcGdNvcb</p>","","","","","","","",""
"html-keyboard-response","275","349178","0.0-13.0-0.25","612d5712d75b6c46b4cefc63","64b003020eef62ee308107cc","64b0205ee3b71102ab721a27","null","null","<p style=""font-size: 60px; font-family: BACS"">RkmdCmtKP</p>","","","","","","","",""
"html-keyboard-response","276","350187","0.0-13.0-0.26","612d5712d75b6c46b4cefc63","64b003020eef62ee308107cc","64b0205ee3b71102ab721a27","null","null","<p style=""font-size: 60px; font-family: BACS"">hAROKTbk</p>","","","","","","","",""
"html-keyboard-response","277","351196","0.0-13.0-0.27","612d5712d75b6c46b4cefc63","64b003020eef62ee308107cc","64b0205ee3b71102ab721a27","null","null","<p style=""font-size: 60px; font-family: BACS"">NbacAvcb</p>","","","","","","","",""
"html-keyboard-response","278","352209","0.0-13.0-0.28","612d5712d75b6c46b4cefc63","64b003020eef62ee308107cc","64b0205ee3b71102ab721a27","null","null","<p style=""font-size: 60px; font-family: BACS"">ldAarkra</p>","","","","","","","",""
"html-keyboard-response","279","353224","0.0-13.0-0.29","612d5712d75b6c46b4cefc63","64b003020eef62ee308107cc","64b0205ee3b71102ab721a27","null","null","<p style=""font-size: 60px; font-family: BACS"">KABAmtKP</p>","","","","","","","",""
"html-keyboard-response","280","354237","0.0-13.0-0.30","612d5712d75b6c46b4cefc63","64b003020eef62ee308107cc","64b0205ee3b71102ab721a27","null","null","<p style=""font-size: 60px; font-family: BACS"">kZUbGlu</p>","","","","","","","",""
"html-keyboard-response","281","355247","0.0-13.0-0.31","612d5712d75b6c46b4cefc63","64b003020eef62ee308107cc","64b0205ee3b71102ab721a27","null","null","<p style=""font-size: 60px; font-family: BACS"">JdOAYLkNc</p>","","","","","","","",""
"html-keyboard-response","282","356257","0.0-13.0-0.32","612d5712d75b6c46b4cefc63","64b003020eef62ee308107cc","64b0205ee3b71102ab721a27","null","null","<p style=""font-size: 60px; font-family: BACS"">lBlEmtKP</p>","","","","","","","",""
"html-keyboard-response","283","357265","0.0-13.0-0.33","612d5712d75b6c46b4cefc63","64b003020eef62ee308107cc","64b0205ee3b71102ab721a27","null","null","<p style=""font-size: 60px; font-family: BACS"">RkmdCYBO</p>","","","","","","","",""
"html-keyboard-response","284","358273","0.0-13.0-0.34","612d5712d75b6c46b4cefc63","64b003020eef62ee308107cc","64b0205ee3b71102ab721a27","null","null","<p style=""font-size: 60px; font-family: BACS"">KTDTBmtKP</p>","","","","","","","",""
"html-keyboard-response","285","359283","0.0-13.0-0.35","612d5712d75b6c46b4cefc63","64b003020eef62ee308107cc","64b0205ee3b71102ab721a27","null","null","<p style=""font-size: 60px; font-family: BACS"">PctRCTbk</p>","","","","","","","",""
"html-keyboard-response","286","360294","0.0-13.0-0.36","612d5712d75b6c46b4cefc63","64b003020eef62ee308107cc","64b0205ee3b71102ab721a27","null","null","<p style=""font-size: 60px; font-family: BACS"">NaAQdLkNc</p>","","","","","","","",""
"html-keyboard-response","287","361308","0.0-13.0-0.37","612d5712d75b6c46b4cefc63","64b003020eef62ee308107cc","64b0205ee3b71102ab721a27","null","null","<p style=""font-size: 60px; font-family: BACS"">ldAamZb</p>","","","","","","","",""
"html-keyboard-response","288","362318","0.0-13.0-0.38","612d5712d75b6c46b4cefc63","64b003020eef62ee308107cc","64b0205ee3b71102ab721a27","null","null","<p style=""font-size: 60px; font-family: BACS"">KAERMTbk</p>","","","","","","","",""
"html-keyboard-response","289","363329","0.0-13.0-0.39","612d5712d75b6c46b4cefc63","64b003020eef62ee308107cc","64b0205ee3b71102ab721a27","null","null","<p style=""font-size: 60px; font-family: BACS"">lcOcrkra</p>","","","","","","","",""
"html-keyboard-response","290","364338","0.0-13.0-0.40","612d5712d75b6c46b4cefc63","64b003020eef62ee308107cc","64b0205ee3b71102ab721a27","null","null","<p style=""font-size: 60px; font-family: BACS"">ZcGdNLkNc</p>","","","","","","","",""
"html-keyboard-response","291","365348","0.0-13.0-0.41","612d5712d75b6c46b4cefc63","64b003020eef62ee308107cc","64b0205ee3b71102ab721a27","null","null","<p style=""font-size: 60px; font-family: BACS"">KABAYBO</p>","","","","","","","",""
"html-keyboard-response","292","366356","0.0-13.0-0.42","612d5712d75b6c46b4cefc63","64b003020eef62ee308107cc","64b0205ee3b71102ab721a27","null","null","<p style=""font-size: 60px; font-family: BACS"">lkAkLkNc</p>","","","","","","","",""
"html-keyboard-response","293","367367","0.0-13.0-0.43","612d5712d75b6c46b4cefc63","64b003020eef62ee308107cc","64b0205ee3b71102ab721a27","null","null","<p style=""font-size: 60px; font-family: BACS"">PctRChEct</p>","","","","","","","",""
"html-keyboard-response","294","368375","0.0-13.0-0.44","612d5712d75b6c46b4cefc63","64b003020eef62ee308107cc","64b0205ee3b71102ab721a27","null","null","<p style=""font-size: 60px; font-family: BACS"">NbacAmZb</p>","","","","","","","",""
"html-keyboard-response","295","369386","0.0-13.0-0.45","612d5712d75b6c46b4cefc63","64b003020eef62ee308107cc","64b0205ee3b71102ab721a27","null","null","<p style=""font-size: 60px; font-family: BACS"">KdARhEct</p>","","","","","","","",""
"html-keyboard-response","296","370399","0.0-13.0-0.46","612d5712d75b6c46b4cefc63","64b003020eef62ee308107cc","64b0205ee3b71102ab721a27","null","null","<p style=""font-size: 60px; font-family: BACS"">ldAaGlu</p>","","","","","","","",""
"html-keyboard-response","297","371402","0.0-13.0-0.47","612d5712d75b6c46b4cefc63","64b003020eef62ee308107cc","64b0205ee3b71102ab721a27","null","null","<p style=""font-size: 60px; font-family: BACS"">NaAQdmZb</p>","","","","","","","",""
"html-keyboard-response","298","372412","0.0-13.0-0.48","612d5712d75b6c46b4cefc63","64b003020eef62ee308107cc","64b0205ee3b71102ab721a27","null","null","<p style=""font-size: 60px; font-family: BACS"">NbmQUrkra</p>","","","","","","","",""
"html-keyboard-response","299","373423","0.0-13.0-0.49","612d5712d75b6c46b4cefc63","64b003020eef62ee308107cc","64b0205ee3b71102ab721a27","null","null","<p style=""font-size: 60px; font-family: BACS"">KABAhEct</p>","","","","","","","",""
"html-keyboard-response","300","374436","0.0-13.0-0.50","612d5712d75b6c46b4cefc63","64b003020eef62ee308107cc","64b0205ee3b71102ab721a27","null","null","<p style=""font-size: 60px; font-family: BACS"">lkAkvcb</p>","","","","","","","",""
"html-keyboard-response","301","375451","0.0-13.0-0.51","612d5712d75b6c46b4cefc63","64b003020eef62ee308107cc","64b0205ee3b71102ab721a27","null","null","<p style=""font-size: 60px; font-family: BACS"">hAROKYBO</p>","","","","","","","",""
"html-keyboard-response","302","376454","0.0-13.0-0.52","612d5712d75b6c46b4cefc63","64b003020eef62ee308107cc","64b0205ee3b71102ab721a27","null","null","<p style=""font-size: 60px; font-family: BACS"">KAERMmtKP</p>","","","","","","","",""
"html-keyboard-response","303","377459","0.0-13.0-0.53","612d5712d75b6c46b4cefc63","64b003020eef62ee308107cc","64b0205ee3b71102ab721a27","null","null","<p style=""font-size: 60px; font-family: BACS"">PctRCYBO</p>","","","","","","","",""
"html-keyboard-response","304","378473","0.0-13.0-0.54","612d5712d75b6c46b4cefc63","64b003020eef62ee308107cc","64b0205ee3b71102ab721a27","null","null","<p style=""font-size: 60px; font-family: BACS"">GumLlmZb</p>","","","","","","","",""
"html-keyboard-response","305","379474","0.0-13.0-0.55","612d5712d75b6c46b4cefc63","64b003020eef62ee308107cc","64b0205ee3b71102ab721a27","null","null","<p style=""font-size: 60px; font-family: BACS"">ldAavcb</p>","","","","","","","",""
"html-keyboard-response","306","380476","0.0-13.0-0.56","612d5712d75b6c46b4cefc63","64b003020eef62ee308107cc","64b0205ee3b71102ab721a27","null","null","<p style=""font-size: 60px; font-family: BACS"">KdARtAY</p>","","","","","","","",""
"html-keyboard-response","307","381478","0.0-13.0-0.57","612d5712d75b6c46b4cefc63","64b003020eef62ee308107cc","64b0205ee3b71102ab721a27","null","null","<p style=""font-size: 60px; font-family: BACS"">DOchlTbk</p>","","","","","","","",""
"html-keyboard-response","308","382482","0.0-13.0-0.58","612d5712d75b6c46b4cefc63","64b003020eef62ee308107cc","64b0205ee3b71102ab721a27","null","null","<p style=""font-size: 60px; font-family: BACS"">KABAtAY</p>","","","","","","","",""
"html-keyboard-response","309","383486","0.0-13.0-0.59","612d5712d75b6c46b4cefc63","64b003020eef62ee308107cc","64b0205ee3b71102ab721a27","null","null","<p style=""font-size: 60px; font-family: BACS"">kKEdMhEct</p>","","","","","","","",""
"html-keyboard-response","310","384492","0.0-13.0-0.60","612d5712d75b6c46b4cefc63","64b003020eef62ee308107cc","64b0205ee3b71102ab721a27","null","null","<p style=""font-size: 60px; font-family: BACS"">hAROKmtKP</p>","","","","","","","",""
"html-keyboard-response","311","385495","0.0-13.0-0.61","612d5712d75b6c46b4cefc63","64b003020eef62ee308107cc","64b0205ee3b71102ab721a27","null","null","<p style=""font-size: 60px; font-family: BACS"">KTDTBhEct</p>","","","","","","","",""
"html-keyboard-response","312","386498","0.0-13.0-0.62","612d5712d75b6c46b4cefc63","64b003020eef62ee308107cc","64b0205ee3b71102ab721a27","null","null","<p style=""font-size: 60px; font-family: BACS"">JdOAYrkra</p>","","","","","","","",""
"html-keyboard-response","313","387505","0.0-13.0-0.63","612d5712d75b6c46b4cefc63","64b003020eef62ee308107cc","64b0205ee3b71102ab721a27","null","null","<p style=""font-size: 60px; font-family: BACS"">DOchlYBO</p>","","","","","","","",""
"html-keyboard-response","314","388520","0.0-13.0-0.64","612d5712d75b6c46b4cefc63","64b003020eef62ee308107cc","64b0205ee3b71102ab721a27","null","null","<p style=""font-size: 60px; font-family: BACS"">KAERMtAY</p>","","","","","","","",""
"html-keyboard-response","315","389521","0.0-13.0-0.65","612d5712d75b6c46b4cefc63","64b003020eef62ee308107cc","64b0205ee3b71102ab721a27","null","null","<p style=""font-size: 60px; font-family: BACS"">KTDTBYBO</p>","","","","","","","",""
"html-keyboard-response","316","390528","0.0-13.0-0.66","612d5712d75b6c46b4cefc63","64b003020eef62ee308107cc","64b0205ee3b71102ab721a27","null","null","<p style=""font-size: 60px; font-family: BACS"">kZUbrkra</p>","","","","","","","",""
"html-keyboard-response","317","391540","0.0-13.0-0.67","612d5712d75b6c46b4cefc63","64b003020eef62ee308107cc","64b0205ee3b71102ab721a27","null","null","<p style=""font-size: 60px; font-family: BACS"">ZcGdNGlu</p>","","","","","","","",""
"html-keyboard-response","318","392555","0.0-13.0-0.68","612d5712d75b6c46b4cefc63","64b003020eef62ee308107cc","64b0205ee3b71102ab721a27","null","null","<p style=""font-size: 60px; font-family: BACS"">KdARTbk</p>","","","","","","","",""
"html-keyboard-response","319","393560","0.0-13.0-0.69","612d5712d75b6c46b4cefc63","64b003020eef62ee308107cc","64b0205ee3b71102ab721a27","null","null","<p style=""font-size: 60px; font-family: BACS"">GumLlvcb</p>","","","","","","","",""
"html-keyboard-response","320","394565","0.0-13.0-0.70","612d5712d75b6c46b4cefc63","64b003020eef62ee308107cc","64b0205ee3b71102ab721a27","null","null","<p style=""font-size: 60px; font-family: BACS"">hAROKtAY</p>","","","","","","","",""
"html-keyboard-response","321","395567","0.0-13.0-0.71","612d5712d75b6c46b4cefc63","64b003020eef62ee308107cc","64b0205ee3b71102ab721a27","null","null","<p style=""font-size: 60px; font-family: BACS"">NbmQUGlu</p>","","","","","","","",""
"html-keyboard-response","322","396576","0.0-13.0-0.72","612d5712d75b6c46b4cefc63","64b003020eef62ee308107cc","64b0205ee3b71102ab721a27","null","null","<p style=""font-size: 60px; font-family: BACS"">lkAkmZb</p>","","","","","","","",""
"html-keyboard-response","323","397584","0.0-13.0-0.73","612d5712d75b6c46b4cefc63","64b003020eef62ee308107cc","64b0205ee3b71102ab721a27","null","null","<p style=""font-size: 60px; font-family: BACS"">GumLlrkra</p>","","","","","","","",""
"html-keyboard-response","324","398589","0.0-13.0-0.74","612d5712d75b6c46b4cefc63","64b003020eef62ee308107cc","64b0205ee3b71102ab721a27","null","null","<p style=""font-size: 60px; font-family: BACS"">NaAQdvcb</p>","","","","","","","",""
"html-keyboard-response","325","399590","0.0-13.0-0.75","612d5712d75b6c46b4cefc63","64b003020eef62ee308107cc","64b0205ee3b71102ab721a27","null","null","<p style=""font-size: 60px; font-family: BACS"">DOchltAY</p>","","","","","","","",""
"html-keyboard-response","326","400596","0.0-13.0-0.76","612d5712d75b6c46b4cefc63","64b003020eef62ee308107cc","64b0205ee3b71102ab721a27","null","null","<p style=""font-size: 60px; font-family: BACS"">JdOAYvcb</p>","","","","","","","",""
"html-keyboard-response","327","401599","0.0-13.0-0.77","612d5712d75b6c46b4cefc63","64b003020eef62ee308107cc","64b0205ee3b71102ab721a27","null","null","<p style=""font-size: 60px; font-family: BACS"">NaAQdrkra</p>","","","","","","","",""
"html-keyboard-response","328","402604","0.0-13.0-0.78","612d5712d75b6c46b4cefc63","64b003020eef62ee308107cc","64b0205ee3b71102ab721a27","null","null","<p style=""font-size: 60px; font-family: BACS"">KAERMYBO</p>","","","","","","","",""
"html-keyboard-response","329","403608","0.0-13.0-0.79","612d5712d75b6c46b4cefc63","64b003020eef62ee308107cc","64b0205ee3b71102ab721a27","null","null","<p style=""font-size: 60px; font-family: BACS"">lcOcLkNc</p>","","","","","","","",""
"html-keyboard-response","330","409439","0.0-14.0","612d5712d75b6c46b4cefc63","64b003020eef62ee308107cc","64b0205ee3b71102ab721a27","5831"," ","<p>Ottimo, hai visto il quarto blocco di parole. Ora puoi prenderti una piccola pausa.</p>
      <p>Premi la barra quando sei pronta/o per riprendere.</p>","","","","","","","",""
"html-keyboard-response","331","410455","0.0-15.0-0.0","612d5712d75b6c46b4cefc63","64b003020eef62ee308107cc","64b0205ee3b71102ab721a27","null","null","<p style=""font-size: 60px; font-family: BACS"">GumLlvcb</p>","","","","","","","",""
"html-keyboard-response","332","411466","0.0-15.0-0.1","612d5712d75b6c46b4cefc63","64b003020eef62ee308107cc","64b0205ee3b71102ab721a27","null","null","<p style=""font-size: 60px; font-family: BACS"">GumLlvcb</p>","","","","","","","",""
"html-keyboard-response","333","412480","0.0-15.0-0.2","612d5712d75b6c46b4cefc63","64b003020eef62ee308107cc","64b0205ee3b71102ab721a27","null","null","<p style=""font-size: 60px; font-family: BACS"">GumLlvcb</p>","","","","","","","",""
"html-keyboard-response","334","413489","0.0-15.0-0.3","612d5712d75b6c46b4cefc63","64b003020eef62ee308107cc","64b0205ee3b71102ab721a27","null","null","<p style=""font-size: 60px; font-family: BACS"">GumLlvcb</p>","","","","","","","",""
"html-keyboard-response","335","414498","0.0-15.0-0.4","612d5712d75b6c46b4cefc63","64b003020eef62ee308107cc","64b0205ee3b71102ab721a27","null","null","<p style=""font-size: 60px; font-family: BACS"">GumLlvcb</p>","","","","","","","",""
"html-keyboard-response","336","415505","0.0-15.0-0.5","612d5712d75b6c46b4cefc63","64b003020eef62ee308107cc","64b0205ee3b71102ab721a27","null","null","<p style=""font-size: 60px; font-family: BACS"">GumLlvcb</p>","","","","","","","",""
"html-keyboard-response","337","416518","0.0-15.0-0.6","612d5712d75b6c46b4cefc63","64b003020eef62ee308107cc","64b0205ee3b71102ab721a27","null","null","<p style=""font-size: 60px; font-family: BACS"">GumLlvcb</p>","","","","","","","",""
"html-keyboard-response","338","417525","0.0-15.0-0.7","612d5712d75b6c46b4cefc63","64b003020eef62ee308107cc","64b0205ee3b71102ab721a27","null","null","<p style=""font-size: 60px; font-family: BACS"">GumLlvcb</p>","","","","","","","",""
"html-keyboard-response","339","418533","0.0-15.0-0.8","612d5712d75b6c46b4cefc63","64b003020eef62ee308107cc","64b0205ee3b71102ab721a27","null","null","<p style=""font-size: 60px; font-family: BACS"">GumLlvcb</p>","","","","","","","",""
"html-keyboard-response","340","419544","0.0-15.0-0.9","612d5712d75b6c46b4cefc63","64b003020eef62ee308107cc","64b0205ee3b71102ab721a27","null","null","<p style=""font-size: 60px; font-family: BACS"">GumLlvcb</p>","","","","","","","",""
"html-keyboard-response","341","420554","0.0-15.0-0.10","612d5712d75b6c46b4cefc63","64b003020eef62ee308107cc","64b0205ee3b71102ab721a27","null","null","<p style=""font-size: 60px; font-family: BACS"">GumLlvcb</p>","","","","","","","",""
"html-keyboard-response","342","421568","0.0-15.0-0.11","612d5712d75b6c46b4cefc63","64b003020eef62ee308107cc","64b0205ee3b71102ab721a27","null","null","<p style=""font-size: 60px; font-family: BACS"">GumLlvcb</p>","","","","","","","",""
"html-keyboard-response","343","422580","0.0-15.0-0.12","612d5712d75b6c46b4cefc63","64b003020eef62ee308107cc","64b0205ee3b71102ab721a27","null","null","<p style=""font-size: 60px; font-family: BACS"">GumLlvcb</p>","","","","","","","",""
"html-keyboard-response","344","423589","0.0-15.0-0.13","612d5712d75b6c46b4cefc63","64b003020eef62ee308107cc","64b0205ee3b71102ab721a27","null","null","<p style=""font-size: 60px; font-family: BACS"">GumLlvcb</p>","","","","","","","",""
"html-keyboard-response","345","424597","0.0-15.0-0.14","612d5712d75b6c46b4cefc63","64b003020eef62ee308107cc","64b0205ee3b71102ab721a27","null","null","<p style=""font-size: 60px; font-family: BACS"">GumLlvcb</p>","","","","","","","",""
"html-keyboard-response","346","425607","0.0-15.0-0.15","612d5712d75b6c46b4cefc63","64b003020eef62ee308107cc","64b0205ee3b71102ab721a27","null","null","<p style=""font-size: 60px; font-family: BACS"">GumLlvcb</p>","","","","","","","",""
"html-keyboard-response","347","426616","0.0-15.0-0.16","612d5712d75b6c46b4cefc63","64b003020eef62ee308107cc","64b0205ee3b71102ab721a27","null","null","<p style=""font-size: 60px; font-family: BACS"">GumLlvcb</p>","","","","","","","",""
"html-keyboard-response","348","427624","0.0-15.0-0.17","612d5712d75b6c46b4cefc63","64b003020eef62ee308107cc","64b0205ee3b71102ab721a27","null","null","<p style=""font-size: 60px; font-family: BACS"">GumLlvcb</p>","","","","","","","",""
"html-keyboard-response","349","428631","0.0-15.0-0.18","612d5712d75b6c46b4cefc63","64b003020eef62ee308107cc","64b0205ee3b71102ab721a27","null","null","<p style=""font-size: 60px; font-family: BACS"">GumLlvcb</p>","","","","","","","",""
"html-keyboard-response","350","429636","0.0-15.0-0.19","612d5712d75b6c46b4cefc63","64b003020eef62ee308107cc","64b0205ee3b71102ab721a27","null","null","<p style=""font-size: 60px; font-family: BACS"">GumLlvcb</p>","","","","","","","",""
"html-keyboard-response","351","430647","0.0-15.0-0.20","612d5712d75b6c46b4cefc63","64b003020eef62ee308107cc","64b0205ee3b71102ab721a27","null","null","<p style=""font-size: 60px; font-family: BACS"">GumLlvcb</p>","","","","","","","",""
"html-keyboard-response","352","431660","0.0-15.0-0.21","612d5712d75b6c46b4cefc63","64b003020eef62ee308107cc","64b0205ee3b71102ab721a27","null","null","<p style=""font-size: 60px; font-family: BACS"">GumLlvcb</p>","","","","","","","",""
"html-keyboard-response","353","432671","0.0-15.0-0.22","612d5712d75b6c46b4cefc63","64b003020eef62ee308107cc","64b0205ee3b71102ab721a27","null","null","<p style=""font-size: 60px; font-family: BACS"">GumLlvcb</p>","","","","","","","",""
"html-keyboard-response","354","433684","0.0-15.0-0.23","612d5712d75b6c46b4cefc63","64b003020eef62ee308107cc","64b0205ee3b71102ab721a27","null","null","<p style=""font-size: 60px; font-family: BACS"">GumLlvcb</p>","","","","","","","",""
"html-keyboard-response","355","434692","0.0-15.0-0.24","612d5712d75b6c46b4cefc63","64b003020eef62ee308107cc","64b0205ee3b71102ab721a27","null","null","<p style=""font-size: 60px; font-family: BACS"">GumLlvcb</p>","","","","","","","",""
"html-keyboard-response","356","435700","0.0-15.0-0.25","612d5712d75b6c46b4cefc63","64b003020eef62ee308107cc","64b0205ee3b71102ab721a27","null","null","<p style=""font-size: 60px; font-family: BACS"">GumLlvcb</p>","","","","","","","",""
"html-keyboard-response","357","436709","0.0-15.0-0.26","612d5712d75b6c46b4cefc63","64b003020eef62ee308107cc","64b0205ee3b71102ab721a27","null","null","<p style=""font-size: 60px; font-family: BACS"">GumLlvcb</p>","","","","","","","",""
"html-keyboard-response","358","437718","0.0-15.0-0.27","612d5712d75b6c46b4cefc63","64b003020eef62ee308107cc","64b0205ee3b71102ab721a27","null","null","<p style=""font-size: 60px; font-family: BACS"">GumLlvcb</p>","","","","","","","",""
"html-keyboard-response","359","438722","0.0-15.0-0.28","612d5712d75b6c46b4cefc63","64b003020eef62ee308107cc","64b0205ee3b71102ab721a27","null","null","<p style=""font-size: 60px; font-family: BACS"">GumLlvcb</p>","","","","","","","",""
"html-keyboard-response","360","439730","0.0-15.0-0.29","612d5712d75b6c46b4cefc63","64b003020eef62ee308107cc","64b0205ee3b71102ab721a27","null","null","<p style=""font-size: 60px; font-family: BACS"">GumLlvcb</p>","","","","","","","",""
"html-keyboard-response","361","440741","0.0-15.0-0.30","612d5712d75b6c46b4cefc63","64b003020eef62ee308107cc","64b0205ee3b71102ab721a27","null","null","<p style=""font-size: 60px; font-family: BACS"">GumLlvcb</p>","","","","","","","",""
"html-keyboard-response","362","441755","0.0-15.0-0.31","612d5712d75b6c46b4cefc63","64b003020eef62ee308107cc","64b0205ee3b71102ab721a27","null","null","<p style=""font-size: 60px; font-family: BACS"">GumLlvcb</p>","","","","","","","",""
"html-keyboard-response","363","442768","0.0-15.0-0.32","612d5712d75b6c46b4cefc63","64b003020eef62ee308107cc","64b0205ee3b71102ab721a27","null","null","<p style=""font-size: 60px; font-family: BACS"">GumLlvcb</p>","","","","","","","",""
"html-keyboard-response","364","443778","0.0-15.0-0.33","612d5712d75b6c46b4cefc63","64b003020eef62ee308107cc","64b0205ee3b71102ab721a27","null","null","<p style=""font-size: 60px; font-family: BACS"">GumLlvcb</p>","","","","","","","",""
"html-keyboard-response","365","444785","0.0-15.0-0.34","612d5712d75b6c46b4cefc63","64b003020eef62ee308107cc","64b0205ee3b71102ab721a27","null","null","<p style=""font-size: 60px; font-family: BACS"">GumLlvcb</p>","","","","","","","",""
"html-keyboard-response","366","445793","0.0-15.0-0.35","612d5712d75b6c46b4cefc63","64b003020eef62ee308107cc","64b0205ee3b71102ab721a27","null","null","<p style=""font-size: 60px; font-family: BACS"">GumLlvcb</p>","","","","","","","",""
"html-keyboard-response","367","446800","0.0-15.0-0.36","612d5712d75b6c46b4cefc63","64b003020eef62ee308107cc","64b0205ee3b71102ab721a27","null","null","<p style=""font-size: 60px; font-family: BACS"">GumLlvcb</p>","","","","","","","",""
"html-keyboard-response","368","447811","0.0-15.0-0.37","612d5712d75b6c46b4cefc63","64b003020eef62ee308107cc","64b0205ee3b71102ab721a27","null","null","<p style=""font-size: 60px; font-family: BACS"">GumLlvcb</p>","","","","","","","",""
"html-keyboard-response","369","448820","0.0-15.0-0.38","612d5712d75b6c46b4cefc63","64b003020eef62ee308107cc","64b0205ee3b71102ab721a27","null","null","<p style=""font-size: 60px; font-family: BACS"">GumLlvcb</p>","","","","","","","",""
"html-keyboard-response","370","449835","0.0-15.0-0.39","612d5712d75b6c46b4cefc63","64b003020eef62ee308107cc","64b0205ee3b71102ab721a27","null","null","<p style=""font-size: 60px; font-family: BACS"">GumLlvcb</p>","","","","","","","",""
"html-keyboard-response","371","450845","0.0-15.0-0.40","612d5712d75b6c46b4cefc63","64b003020eef62ee308107cc","64b0205ee3b71102ab721a27","null","null","<p style=""font-size: 60px; font-family: BACS"">GumLlvcb</p>","","","","","","","",""
"html-keyboard-response","372","451857","0.0-15.0-0.41","612d5712d75b6c46b4cefc63","64b003020eef62ee308107cc","64b0205ee3b71102ab721a27","null","null","<p style=""font-size: 60px; font-family: BACS"">GumLlvcb</p>","","","","","","","",""
"html-keyboard-response","373","452869","0.0-15.0-0.42","612d5712d75b6c46b4cefc63","64b003020eef62ee308107cc","64b0205ee3b71102ab721a27","null","null","<p style=""font-size: 60px; font-family: BACS"">GumLlvcb</p>","","","","","","","",""
"html-keyboard-response","374","453875","0.0-15.0-0.43","612d5712d75b6c46b4cefc63","64b003020eef62ee308107cc","64b0205ee3b71102ab721a27","null","null","<p style=""font-size: 60px; font-family: BACS"">GumLlvcb</p>","","","","","","","",""
"html-keyboard-response","375","454885","0.0-15.0-0.44","612d5712d75b6c46b4cefc63","64b003020eef62ee308107cc","64b0205ee3b71102ab721a27","null","null","<p style=""font-size: 60px; font-family: BACS"">GumLlvcb</p>","","","","","","","",""
"html-keyboard-response","376","455892","0.0-15.0-0.45","612d5712d75b6c46b4cefc63","64b003020eef62ee308107cc","64b0205ee3b71102ab721a27","null","null","<p style=""font-size: 60px; font-family: BACS"">GumLlvcb</p>","","","","","","","",""
"html-keyboard-response","377","456903","0.0-15.0-0.46","612d5712d75b6c46b4cefc63","64b003020eef62ee308107cc","64b0205ee3b71102ab721a27","null","null","<p style=""font-size: 60px; font-family: BACS"">GumLlvcb</p>","","","","","","","",""
"html-keyboard-response","378","457909","0.0-15.0-0.47","612d5712d75b6c46b4cefc63","64b003020eef62ee308107cc","64b0205ee3b71102ab721a27","null","null","<p style=""font-size: 60px; font-family: BACS"">GumLlvcb</p>","","","","","","","",""
"html-keyboard-response","379","458917","0.0-15.0-0.48","612d5712d75b6c46b4cefc63","64b003020eef62ee308107cc","64b0205ee3b71102ab721a27","null","null","<p style=""font-size: 60px; font-family: BACS"">GumLlvcb</p>","","","","","","","",""
"html-keyboard-response","380","459926","0.0-15.0-0.49","612d5712d75b6c46b4cefc63","64b003020eef62ee308107cc","64b0205ee3b71102ab721a27","null","null","<p style=""font-size: 60px; font-family: BACS"">GumLlvcb</p>","","","","","","","",""
"html-keyboard-response","381","460937","0.0-15.0-0.50","612d5712d75b6c46b4cefc63","64b003020eef62ee308107cc","64b0205ee3b71102ab721a27","null","null","<p style=""font-size: 60px; font-family: BACS"">GumLlvcb</p>","","","","","","","",""
"html-keyboard-response","382","461949","0.0-15.0-0.51","612d5712d75b6c46b4cefc63","64b003020eef62ee308107cc","64b0205ee3b71102ab721a27","null","null","<p style=""font-size: 60px; font-family: BACS"">GumLlvcb</p>","","","","","","","",""
"html-keyboard-response","383","462957","0.0-15.0-0.52","612d5712d75b6c46b4cefc63","64b003020eef62ee308107cc","64b0205ee3b71102ab721a27","null","null","<p style=""font-size: 60px; font-family: BACS"">GumLlvcb</p>","","","","","","","",""
"html-keyboard-response","384","463965","0.0-15.0-0.53","612d5712d75b6c46b4cefc63","64b003020eef62ee308107cc","64b0205ee3b71102ab721a27","null","null","<p style=""font-size: 60px; font-family: BACS"">GumLlvcb</p>","","","","","","","",""
"html-keyboard-response","385","464976","0.0-15.0-0.54","612d5712d75b6c46b4cefc63","64b003020eef62ee308107cc","64b0205ee3b71102ab721a27","null","null","<p style=""font-size: 60px; font-family: BACS"">GumLlvcb</p>","","","","","","","",""
"html-keyboard-response","386","465991","0.0-15.0-0.55","612d5712d75b6c46b4cefc63","64b003020eef62ee308107cc","64b0205ee3b71102ab721a27","null","null","<p style=""font-size: 60px; font-family: BACS"">GumLlvcb</p>","","","","","","","",""
"html-keyboard-response","387","467000","0.0-15.0-0.56","612d5712d75b6c46b4cefc63","64b003020eef62ee308107cc","64b0205ee3b71102ab721a27","null","null","<p style=""font-size: 60px; font-family: BACS"">GumLlvcb</p>","","","","","","","",""
"html-keyboard-response","388","468008","0.0-15.0-0.57","612d5712d75b6c46b4cefc63","64b003020eef62ee308107cc","64b0205ee3b71102ab721a27","null","null","<p style=""font-size: 60px; font-family: BACS"">GumLlvcb</p>","","","","","","","",""
"html-keyboard-response","389","469013","0.0-15.0-0.58","612d5712d75b6c46b4cefc63","64b003020eef62ee308107cc","64b0205ee3b71102ab721a27","null","null","<p style=""font-size: 60px; font-family: BACS"">GumLlvcb</p>","","","","","","","",""
"html-keyboard-response","390","470028","0.0-15.0-0.59","612d5712d75b6c46b4cefc63","64b003020eef62ee308107cc","64b0205ee3b71102ab721a27","null","null","<p style=""font-size: 60px; font-family: BACS"">GumLlvcb</p>","","","","","","","",""
"html-keyboard-response","391","471035","0.0-15.0-0.60","612d5712d75b6c46b4cefc63","64b003020eef62ee308107cc","64b0205ee3b71102ab721a27","null","null","<p style=""font-size: 60px; font-family: BACS"">GumLlvcb</p>","","","","","","","",""
"html-keyboard-response","392","472050","0.0-15.0-0.61","612d5712d75b6c46b4cefc63","64b003020eef62ee308107cc","64b0205ee3b71102ab721a27","null","null","<p style=""font-size: 60px; font-family: BACS"">GumLlvcb</p>","","","","","","","",""
"html-keyboard-response","393","473063","0.0-15.0-0.62","612d5712d75b6c46b4cefc63","64b003020eef62ee308107cc","64b0205ee3b71102ab721a27","null","null","<p style=""font-size: 60px; font-family: BACS"">GumLlvcb</p>","","","","","","","",""
"html-keyboard-response","394","474074","0.0-15.0-0.63","612d5712d75b6c46b4cefc63","64b003020eef62ee308107cc","64b0205ee3b71102ab721a27","null","null","<p style=""font-size: 60px; font-family: BACS"">GumLlvcb</p>","","","","","","","",""
"html-keyboard-response","395","475083","0.0-15.0-0.64","612d5712d75b6c46b4cefc63","64b003020eef62ee308107cc","64b0205ee3b71102ab721a27","null","null","<p style=""font-size: 60px; font-family: BACS"">GumLlvcb</p>","","","","","","","",""
"html-keyboard-response","396","476091","0.0-15.0-0.65","612d5712d75b6c46b4cefc63","64b003020eef62ee308107cc","64b0205ee3b71102ab721a27","null","null","<p style=""font-size: 60px; font-family: BACS"">GumLlvcb</p>","","","","","","","",""
"html-keyboard-response","397","477100","0.0-15.0-0.66","612d5712d75b6c46b4cefc63","64b003020eef62ee308107cc","64b0205ee3b71102ab721a27","null","null","<p style=""font-size: 60px; font-family: BACS"">GumLlvcb</p>","","","","","","","",""
"html-keyboard-response","398","478104","0.0-15.0-0.67","612d5712d75b6c46b4cefc63","64b003020eef62ee308107cc","64b0205ee3b71102ab721a27","null","null","<p style=""font-size: 60px; font-family: BACS"">GumLlvcb</p>","","","","","","","",""
"html-keyboard-response","399","479113","0.0-15.0-0.68","612d5712d75b6c46b4cefc63","64b003020eef62ee308107cc","64b0205ee3b71102ab721a27","null","null","<p style=""font-size: 60px; font-family: BACS"">GumLlvcb</p>","","","","","","","",""
"html-keyboard-response","400","480123","0.0-15.0-0.69","612d5712d75b6c46b4cefc63","64b003020eef62ee308107cc","64b0205ee3b71102ab721a27","null","null","<p style=""font-size: 60px; font-family: BACS"">GumLlvcb</p>","","","","","","","",""
"html-keyboard-response","401","481134","0.0-15.0-0.70","612d5712d75b6c46b4cefc63","64b003020eef62ee308107cc","64b0205ee3b71102ab721a27","null","null","<p style=""font-size: 60px; font-family: BACS"">GumLlvcb</p>","","","","","","","",""
"html-keyboard-response","402","482139","0.0-15.0-0.71","612d5712d75b6c46b4cefc63","64b003020eef62ee308107cc","64b0205ee3b71102ab721a27","null","null","<p style=""font-size: 60px; font-family: BACS"">GumLlvcb</p>","","","","","","","",""
