"trial_type","trial_index","time_elapsed","internal_node_id","subject_id","study_id","session_id","rt","response","stimulus","success","item","task","correct_response","testing_condition","correct","target","confound","name"
"pavlovia","0","704","0.0-0.0","5ea171c1a8782801263e7540","650c16f0f2faf8d7a0d14c09","651c1d321ab7ee0f3832df56","","","","","","","","","","","",""
"survey-html-form","1","37423","0.0-1.0","5ea171c1a8782801263e7540","650c16f0f2faf8d7a0d14c09","651c1d321ab7ee0f3832df56","36716","{""ID"":""5ea171c1a8782801263e7540""}","","","","","","","","","",""
"html-keyboard-response","2","101941","0.0-2.0","5ea171c1a8782801263e7540","650c16f0f2faf8d7a0d14c09","651c1d321ab7ee0f3832df56","64518"," ","<p style=""font-size: 15px;"">Before beginning, we ask that you read the consent information and confirm your agreement to participate in the experiment.</p>
      <p style=""font-size: 15px;""> We ask that you remember that this is a research project and that your participation is entirely voluntary. You can stop your participation at any time, without needing to provide any explanation. The study we're asking you to participate in aims at examining how readers process written words. You will be engaged in a session of apprximately 20 minutes, followed by a brief questionnaire. You will have the opportunity to take a few breaks during the experiment. You will be paid £4 for your participation, corresponding to a rate of £8/hour. While this experiment looks at cognitive faculties, this experiment doesn't constitute clinical proof of eventual pathologies.</p>
      <p style=""font-size: 15px;"">All of the information collected thanks to yours and others' participation will be held in a secure password-protected server, and will not be shared with anyone not authorised to view it. Your personal information will be kept with an arbitrary participant ID. Thanks to this data anonymity process, any researcher analysing the data won't be able to track the information back to a specific participant. Therefore, this process will make identifying you impossibile, even when results from the study will be published in scientific reviews, presented at congresses, or at any other public forum. More generally, the collected data will be treated in accordance with the laws on privacy and conformity to the Legislative Degree n. 196 ""Code regarding the protection of personal data"" of the 30th of June 2003 and to the European Regulation 2016/670 (General Data Protection Regulation - GDPR). The Data Protection Officer is Avv. Valentina Carollo, who can be contacted at the following email addresses: <a href=""mailto:dpo@sissa.it"">dpo@sissa.it</a> or <a href=""mailto:rpd@sissa.it"">rpd@sissa.it</a> - PEC: <a href=""mailto:protocollo@pec.sissa.it"">protocollo@pec.sissa.it</a>.</p>
      <p style=""font-size: 15px;""> Before expressing your consent to participate, we would like to remind you again that in case you need explanations on any aspect of the experimental procedure, the researcher is at your disposition (<a href=""mailto:aliebelt@sissa.it"">aliebelt@sissa.it</a>, <a href=""mailto:davide.crepaldi@sissa.it"">davide.crepaldi@sissa.it</a>).</p>
      <p style=""font-size: 15px;"">If you would like to download the informed consent form, you can do so here: <a href=""BASL-Informed_Consent.pdf"" download>informed consent form</a>.</p>
      <p style=""font-size: 15px;"">We ask that you press the spacebar to proceed to the consent section.</p>","","","","","","","","",""
"survey-html-form","3","111121","0.0-3.0","5ea171c1a8782801263e7540","650c16f0f2faf8d7a0d14c09","651c1d321ab7ee0f3832df56","9178","{""consent1"":""YES"",""consent2"":""YES"",""consent3"":""YES"",""consent4"":""YES"",""consent5"":""YES"",""consent6"":""YES""}","","","","","","","","","",""
"fullscreen","4","117662","0.0-4.0","5ea171c1a8782801263e7540","650c16f0f2faf8d7a0d14c09","651c1d321ab7ee0f3832df56","","","","true","","","","","","","",""
"html-keyboard-response","5","139984","0.0-5.0","5ea171c1a8782801263e7540","650c16f0f2faf8d7a0d14c09","651c1d321ab7ee0f3832df56","22320"," ","<p>Welcome, and thank you very much for your time!</p>
      <p>In this experiment, you'll be a language expert who's been asked to take a look at words that Earth has received in its first communication with aliens. Your task, in this first part of the experiment, is to pay close attention to the words you'll be shown; later, world leaders will ask you questions on what you saw. The words will be shown to you quite quickly; it seems that the aliens were in a hurry :-)</p>
      <p>Press the spacebar to continue.<p>","","","","","","","","",""
"html-keyboard-response","6","140036","0.0-6.0","5ea171c1a8782801263e7540","650c16f0f2faf8d7a0d14c09","651c1d321ab7ee0f3832df56","null","null","<p style=""font-size: 120px; font-family: BACS""> </p>","","","","","","","","",""
"html-keyboard-response","7","162782","0.0-7.0","5ea171c1a8782801263e7540","650c16f0f2faf8d7a0d14c09","651c1d321ab7ee0f3832df56","22745"," ","<p>Here is an example of the words you'll see:</p>
      <img src='esempio.png' height='400px'>
      <p>When you're ready to begin, press the spacebar.</p></div>","","","","","","","","",""
"html-keyboard-response","8","163798","0.0-8.0-0.0","5ea171c1a8782801263e7540","650c16f0f2faf8d7a0d14c09","651c1d321ab7ee0f3832df56","null","null","<p style=""font-size: 60px; font-family: BACS"">dvNvALaA</p>","","","","","","","","",""
"html-keyboard-response","9","164814","0.0-8.0-0.1","5ea171c1a8782801263e7540","650c16f0f2faf8d7a0d14c09","651c1d321ab7ee0f3832df56","null","null","<p style=""font-size: 60px; font-family: BACS"">mBbKEcR</p>","","","","","","","","",""
"html-keyboard-response","10","165828","0.0-8.0-0.2","5ea171c1a8782801263e7540","650c16f0f2faf8d7a0d14c09","651c1d321ab7ee0f3832df56","null","null","<p style=""font-size: 60px; font-family: BACS"">lBKtbdtK</p>","","","","","","","","",""
"html-keyboard-response","11","166839","0.0-8.0-0.3","5ea171c1a8782801263e7540","650c16f0f2faf8d7a0d14c09","651c1d321ab7ee0f3832df56","null","null","<p style=""font-size: 60px; font-family: BACS"">hmKPMABb</p>","","","","","","","","",""
"html-keyboard-response","12","167855","0.0-8.0-0.4","5ea171c1a8782801263e7540","650c16f0f2faf8d7a0d14c09","651c1d321ab7ee0f3832df56","null","null","<p style=""font-size: 60px; font-family: BACS"">ObZbAYLU</p>","","","","","","","","",""
"html-keyboard-response","13","168867","0.0-8.0-0.5","5ea171c1a8782801263e7540","650c16f0f2faf8d7a0d14c09","651c1d321ab7ee0f3832df56","null","null","<p style=""font-size: 60px; font-family: BACS"">bcORbdtK</p>","","","","","","","","",""
"html-keyboard-response","14","169881","0.0-8.0-0.6","5ea171c1a8782801263e7540","650c16f0f2faf8d7a0d14c09","651c1d321ab7ee0f3832df56","null","null","<p style=""font-size: 60px; font-family: BACS"">OmtlDABb</p>","","","","","","","","",""
"html-keyboard-response","15","170893","0.0-8.0-0.7","5ea171c1a8782801263e7540","650c16f0f2faf8d7a0d14c09","651c1d321ab7ee0f3832df56","null","null","<p style=""font-size: 60px; font-family: BACS"">NAacQlGc</p>","","","","","","","","",""
"html-keyboard-response","16","171894","0.0-8.0-0.8","5ea171c1a8782801263e7540","650c16f0f2faf8d7a0d14c09","651c1d321ab7ee0f3832df56","null","null","<p style=""font-size: 60px; font-family: BACS"">NulkJUG</p>","","","","","","","","",""
"html-keyboard-response","17","172907","0.0-8.0-0.9","5ea171c1a8782801263e7540","650c16f0f2faf8d7a0d14c09","651c1d321ab7ee0f3832df56","null","null","<p style=""font-size: 60px; font-family: BACS"">tmYhEcR</p>","","","","","","","","",""
"html-keyboard-response","18","173918","0.0-8.0-0.10","5ea171c1a8782801263e7540","650c16f0f2faf8d7a0d14c09","651c1d321ab7ee0f3832df56","null","null","<p style=""font-size: 60px; font-family: BACS"">ZdlOLcO</p>","","","","","","","","",""
"html-keyboard-response","19","174931","0.0-8.0-0.11","5ea171c1a8782801263e7540","650c16f0f2faf8d7a0d14c09","651c1d321ab7ee0f3832df56","null","null","<p style=""font-size: 60px; font-family: BACS"">tmYhbdtK</p>","","","","","","","","",""
"html-keyboard-response","20","175934","0.0-8.0-0.12","5ea171c1a8782801263e7540","650c16f0f2faf8d7a0d14c09","651c1d321ab7ee0f3832df56","null","null","<p style=""font-size: 60px; font-family: BACS"">vblrLaA</p>","","","","","","","","",""
"html-keyboard-response","21","176936","0.0-8.0-0.13","5ea171c1a8782801263e7540","650c16f0f2faf8d7a0d14c09","651c1d321ab7ee0f3832df56","null","null","<p style=""font-size: 60px; font-family: BACS"">OmtlDEcR</p>","","","","","","","","",""
"html-keyboard-response","22","177951","0.0-8.0-0.14","5ea171c1a8782801263e7540","650c16f0f2faf8d7a0d14c09","651c1d321ab7ee0f3832df56","null","null","<p style=""font-size: 60px; font-family: BACS"">LuNZYLU</p>","","","","","","","","",""
"html-keyboard-response","23","178964","0.0-8.0-0.15","5ea171c1a8782801263e7540","650c16f0f2faf8d7a0d14c09","651c1d321ab7ee0f3832df56","null","null","<p style=""font-size: 60px; font-family: BACS"">NulkLaA</p>","","","","","","","","",""
"html-keyboard-response","24","179965","0.0-8.0-0.16","5ea171c1a8782801263e7540","650c16f0f2faf8d7a0d14c09","651c1d321ab7ee0f3832df56","null","null","<p style=""font-size: 60px; font-family: BACS"">btlckbdtK</p>","","","","","","","","",""
"html-keyboard-response","25","180969","0.0-8.0-0.17","5ea171c1a8782801263e7540","650c16f0f2faf8d7a0d14c09","651c1d321ab7ee0f3832df56","null","null","<p style=""font-size: 60px; font-family: BACS"">ZJLmrJUG</p>","","","","","","","","",""
"html-keyboard-response","26","181970","0.0-8.0-0.18","5ea171c1a8782801263e7540","650c16f0f2faf8d7a0d14c09","651c1d321ab7ee0f3832df56","null","null","<p style=""font-size: 60px; font-family: BACS"">dvNvALcO</p>","","","","","","","","",""
"html-keyboard-response","27","182976","0.0-8.0-0.19","5ea171c1a8782801263e7540","650c16f0f2faf8d7a0d14c09","651c1d321ab7ee0f3832df56","null","null","<p style=""font-size: 60px; font-family: BACS"">ZJLmrLaA</p>","","","","","","","","",""
"html-keyboard-response","28","183978","0.0-8.0-0.20","5ea171c1a8782801263e7540","650c16f0f2faf8d7a0d14c09","651c1d321ab7ee0f3832df56","null","null","<p style=""font-size: 60px; font-family: BACS"">lBKtEcR</p>","","","","","","","","",""
"html-keyboard-response","29","184979","0.0-8.0-0.21","5ea171c1a8782801263e7540","650c16f0f2faf8d7a0d14c09","651c1d321ab7ee0f3832df56","null","null","<p style=""font-size: 60px; font-family: BACS"">NulkLcO</p>","","","","","","","","",""
"html-keyboard-response","30","185981","0.0-8.0-0.22","5ea171c1a8782801263e7540","650c16f0f2faf8d7a0d14c09","651c1d321ab7ee0f3832df56","null","null","<p style=""font-size: 60px; font-family: BACS"">btlckbTE</p>","","","","","","","","",""
"html-keyboard-response","31","186982","0.0-8.0-0.23","5ea171c1a8782801263e7540","650c16f0f2faf8d7a0d14c09","651c1d321ab7ee0f3832df56","null","null","<p style=""font-size: 60px; font-family: BACS"">mBbKbdtK</p>","","","","","","","","",""
"html-keyboard-response","32","187984","0.0-8.0-0.24","5ea171c1a8782801263e7540","650c16f0f2faf8d7a0d14c09","651c1d321ab7ee0f3832df56","null","null","<p style=""font-size: 60px; font-family: BACS"">ZdlOLaA</p>","","","","","","","","",""
"html-keyboard-response","33","188986","0.0-8.0-0.25","5ea171c1a8782801263e7540","650c16f0f2faf8d7a0d14c09","651c1d321ab7ee0f3832df56","null","null","<p style=""font-size: 60px; font-family: BACS"">NbmQUlGc</p>","","","","","","","","",""
"html-keyboard-response","34","189998","0.0-8.0-0.26","5ea171c1a8782801263e7540","650c16f0f2faf8d7a0d14c09","651c1d321ab7ee0f3832df56","null","null","<p style=""font-size: 60px; font-family: BACS"">kDRKcbTE</p>","","","","","","","","",""
"html-keyboard-response","35","190999","0.0-8.0-0.27","5ea171c1a8782801263e7540","650c16f0f2faf8d7a0d14c09","651c1d321ab7ee0f3832df56","null","null","<p style=""font-size: 60px; font-family: BACS"">lBKtABb</p>","","","","","","","","",""
"html-keyboard-response","36","192000","0.0-8.0-0.28","5ea171c1a8782801263e7540","650c16f0f2faf8d7a0d14c09","651c1d321ab7ee0f3832df56","null","null","<p style=""font-size: 60px; font-family: BACS"">PCMPKbdtK</p>","","","","","","","","",""
"html-keyboard-response","37","193001","0.0-8.0-0.29","5ea171c1a8782801263e7540","650c16f0f2faf8d7a0d14c09","651c1d321ab7ee0f3832df56","null","null","<p style=""font-size: 60px; font-family: BACS"">hmKPMbTE</p>","","","","","","","","",""
"html-keyboard-response","38","194018","0.0-8.0-0.30","5ea171c1a8782801263e7540","650c16f0f2faf8d7a0d14c09","651c1d321ab7ee0f3832df56","null","null","<p style=""font-size: 60px; font-family: BACS"">dvNvAJUG</p>","","","","","","","","",""
"html-keyboard-response","39","195032","0.0-8.0-0.31","5ea171c1a8782801263e7540","650c16f0f2faf8d7a0d14c09","651c1d321ab7ee0f3832df56","null","null","<p style=""font-size: 60px; font-family: BACS"">PCMPKbTE</p>","","","","","","","","",""
"html-keyboard-response","40","196042","0.0-8.0-0.32","5ea171c1a8782801263e7540","650c16f0f2faf8d7a0d14c09","651c1d321ab7ee0f3832df56","null","null","<p style=""font-size: 60px; font-family: BACS"">mBbKABb</p>","","","","","","","","",""
"html-keyboard-response","41","197055","0.0-8.0-0.33","5ea171c1a8782801263e7540","650c16f0f2faf8d7a0d14c09","651c1d321ab7ee0f3832df56","null","null","<p style=""font-size: 60px; font-family: BACS"">ObZbALaA</p>","","","","","","","","",""
"html-keyboard-response","42","198067","0.0-8.0-0.34","5ea171c1a8782801263e7540","650c16f0f2faf8d7a0d14c09","651c1d321ab7ee0f3832df56","null","null","<p style=""font-size: 60px; font-family: BACS"">ZJLmrlGc</p>","","","","","","","","",""
"html-keyboard-response","43","199069","0.0-8.0-0.35","5ea171c1a8782801263e7540","650c16f0f2faf8d7a0d14c09","651c1d321ab7ee0f3832df56","null","null","<p style=""font-size: 60px; font-family: BACS"">NbmQUYLU</p>","","","","","","","","",""
"html-keyboard-response","44","200081","0.0-8.0-0.36","5ea171c1a8782801263e7540","650c16f0f2faf8d7a0d14c09","651c1d321ab7ee0f3832df56","null","null","<p style=""font-size: 60px; font-family: BACS"">OmtlDCPMl</p>","","","","","","","","",""
"html-keyboard-response","45","201082","0.0-8.0-0.37","5ea171c1a8782801263e7540","650c16f0f2faf8d7a0d14c09","651c1d321ab7ee0f3832df56","null","null","<p style=""font-size: 60px; font-family: BACS"">NbmQULaA</p>","","","","","","","","",""
"html-keyboard-response","46","202085","0.0-8.0-0.38","5ea171c1a8782801263e7540","650c16f0f2faf8d7a0d14c09","651c1d321ab7ee0f3832df56","null","null","<p style=""font-size: 60px; font-family: BACS"">lBKtCPMl</p>","","","","","","","","",""
"html-keyboard-response","47","203095","0.0-8.0-0.39","5ea171c1a8782801263e7540","650c16f0f2faf8d7a0d14c09","651c1d321ab7ee0f3832df56","null","null","<p style=""font-size: 60px; font-family: BACS"">MkmEdbdtK</p>","","","","","","","","",""
"html-keyboard-response","48","204098","0.0-8.0-0.40","5ea171c1a8782801263e7540","650c16f0f2faf8d7a0d14c09","651c1d321ab7ee0f3832df56","null","null","<p style=""font-size: 60px; font-family: BACS"">kDRKcCPMl</p>","","","","","","","","",""
"html-keyboard-response","49","205108","0.0-8.0-0.41","5ea171c1a8782801263e7540","650c16f0f2faf8d7a0d14c09","651c1d321ab7ee0f3832df56","null","null","<p style=""font-size: 60px; font-family: BACS"">ObZbAlGc</p>","","","","","","","","",""
"html-keyboard-response","50","206120","0.0-8.0-0.42","5ea171c1a8782801263e7540","650c16f0f2faf8d7a0d14c09","651c1d321ab7ee0f3832df56","null","null","<p style=""font-size: 60px; font-family: BACS"">LuNZLcO</p>","","","","","","","","",""
"html-keyboard-response","51","207131","0.0-8.0-0.43","5ea171c1a8782801263e7540","650c16f0f2faf8d7a0d14c09","651c1d321ab7ee0f3832df56","null","null","<p style=""font-size: 60px; font-family: BACS"">ZvalvJUG</p>","","","","","","","","",""
"html-keyboard-response","52","208144","0.0-8.0-0.44","5ea171c1a8782801263e7540","650c16f0f2faf8d7a0d14c09","651c1d321ab7ee0f3832df56","null","null","<p style=""font-size: 60px; font-family: BACS"">vblrLcO</p>","","","","","","","","",""
"html-keyboard-response","53","209145","0.0-8.0-0.45","5ea171c1a8782801263e7540","650c16f0f2faf8d7a0d14c09","651c1d321ab7ee0f3832df56","null","null","<p style=""font-size: 60px; font-family: BACS"">OmtlDbTE</p>","","","","","","","","",""
"html-keyboard-response","54","210157","0.0-8.0-0.46","5ea171c1a8782801263e7540","650c16f0f2faf8d7a0d14c09","651c1d321ab7ee0f3832df56","null","null","<p style=""font-size: 60px; font-family: BACS"">ZdlOYLU</p>","","","","","","","","",""
"html-keyboard-response","55","211174","0.0-8.0-0.47","5ea171c1a8782801263e7540","650c16f0f2faf8d7a0d14c09","651c1d321ab7ee0f3832df56","null","null","<p style=""font-size: 60px; font-family: BACS"">bcOREcR</p>","","","","","","","","",""
"html-keyboard-response","56","212176","0.0-8.0-0.48","5ea171c1a8782801263e7540","650c16f0f2faf8d7a0d14c09","651c1d321ab7ee0f3832df56","null","null","<p style=""font-size: 60px; font-family: BACS"">btlckCPMl</p>","","","","","","","","",""
"html-keyboard-response","57","213177","0.0-8.0-0.49","5ea171c1a8782801263e7540","650c16f0f2faf8d7a0d14c09","651c1d321ab7ee0f3832df56","null","null","<p style=""font-size: 60px; font-family: BACS"">kDRKcEcR</p>","","","","","","","","",""
"html-keyboard-response","58","214178","0.0-8.0-0.50","5ea171c1a8782801263e7540","650c16f0f2faf8d7a0d14c09","651c1d321ab7ee0f3832df56","null","null","<p style=""font-size: 60px; font-family: BACS"">ZvalvYLU</p>","","","","","","","","",""
"html-keyboard-response","59","215190","0.0-8.0-0.51","5ea171c1a8782801263e7540","650c16f0f2faf8d7a0d14c09","651c1d321ab7ee0f3832df56","null","null","<p style=""font-size: 60px; font-family: BACS"">vblrJUG</p>","","","","","","","","",""
"html-keyboard-response","60","216207","0.0-8.0-0.52","5ea171c1a8782801263e7540","650c16f0f2faf8d7a0d14c09","651c1d321ab7ee0f3832df56","null","null","<p style=""font-size: 60px; font-family: BACS"">PCMPKABb</p>","","","","","","","","",""
"html-keyboard-response","61","217208","0.0-8.0-0.53","5ea171c1a8782801263e7540","650c16f0f2faf8d7a0d14c09","651c1d321ab7ee0f3832df56","null","null","<p style=""font-size: 60px; font-family: BACS"">MkmEdbTE</p>","","","","","","","","",""
"html-keyboard-response","62","218217","0.0-8.0-0.54","5ea171c1a8782801263e7540","650c16f0f2faf8d7a0d14c09","651c1d321ab7ee0f3832df56","null","null","<p style=""font-size: 60px; font-family: BACS"">btlckEcR</p>","","","","","","","","",""
"html-keyboard-response","63","219231","0.0-8.0-0.55","5ea171c1a8782801263e7540","650c16f0f2faf8d7a0d14c09","651c1d321ab7ee0f3832df56","null","null","<p style=""font-size: 60px; font-family: BACS"">ZdlOlGc</p>","","","","","","","","",""
"html-keyboard-response","64","220232","0.0-8.0-0.56","5ea171c1a8782801263e7540","650c16f0f2faf8d7a0d14c09","651c1d321ab7ee0f3832df56","null","null","<p style=""font-size: 60px; font-family: BACS"">ZJLmrLcO</p>","","","","","","","","",""
"html-keyboard-response","65","221243","0.0-8.0-0.57","5ea171c1a8782801263e7540","650c16f0f2faf8d7a0d14c09","651c1d321ab7ee0f3832df56","null","null","<p style=""font-size: 60px; font-family: BACS"">LuNZJUG</p>","","","","","","","","",""
"html-keyboard-response","66","222258","0.0-8.0-0.58","5ea171c1a8782801263e7540","650c16f0f2faf8d7a0d14c09","651c1d321ab7ee0f3832df56","null","null","<p style=""font-size: 60px; font-family: BACS"">ZvalvlGc</p>","","","","","","","","",""
"html-keyboard-response","67","223272","0.0-8.0-0.59","5ea171c1a8782801263e7540","650c16f0f2faf8d7a0d14c09","651c1d321ab7ee0f3832df56","null","null","<p style=""font-size: 60px; font-family: BACS"">tmYhCPMl</p>","","","","","","","","",""
"html-keyboard-response","68","224273","0.0-8.0-0.60","5ea171c1a8782801263e7540","650c16f0f2faf8d7a0d14c09","651c1d321ab7ee0f3832df56","null","null","<p style=""font-size: 60px; font-family: BACS"">bcORbTE</p>","","","","","","","","",""
"html-keyboard-response","69","225282","0.0-8.0-0.61","5ea171c1a8782801263e7540","650c16f0f2faf8d7a0d14c09","651c1d321ab7ee0f3832df56","null","null","<p style=""font-size: 60px; font-family: BACS"">vblrlGc</p>","","","","","","","","",""
"html-keyboard-response","70","226297","0.0-8.0-0.62","5ea171c1a8782801263e7540","650c16f0f2faf8d7a0d14c09","651c1d321ab7ee0f3832df56","null","null","<p style=""font-size: 60px; font-family: BACS"">NulkYLU</p>","","","","","","","","",""
"html-keyboard-response","71","227312","0.0-8.0-0.63","5ea171c1a8782801263e7540","650c16f0f2faf8d7a0d14c09","651c1d321ab7ee0f3832df56","null","null","<p style=""font-size: 60px; font-family: BACS"">NAacQJUG</p>","","","","","","","","",""
"html-keyboard-response","72","228313","0.0-8.0-0.64","5ea171c1a8782801263e7540","650c16f0f2faf8d7a0d14c09","651c1d321ab7ee0f3832df56","null","null","<p style=""font-size: 60px; font-family: BACS"">mBbKbTE</p>","","","","","","","","",""
"html-keyboard-response","73","229320","0.0-8.0-0.65","5ea171c1a8782801263e7540","650c16f0f2faf8d7a0d14c09","651c1d321ab7ee0f3832df56","null","null","<p style=""font-size: 60px; font-family: BACS"">MkmEdEcR</p>","","","","","","","","",""
"html-keyboard-response","74","230332","0.0-8.0-0.66","5ea171c1a8782801263e7540","650c16f0f2faf8d7a0d14c09","651c1d321ab7ee0f3832df56","null","null","<p style=""font-size: 60px; font-family: BACS"">bcORABb</p>","","","","","","","","",""
"html-keyboard-response","75","231334","0.0-8.0-0.67","5ea171c1a8782801263e7540","650c16f0f2faf8d7a0d14c09","651c1d321ab7ee0f3832df56","null","null","<p style=""font-size: 60px; font-family: BACS"">hmKPMCPMl</p>","","","","","","","","",""
"html-keyboard-response","76","232343","0.0-8.0-0.68","5ea171c1a8782801263e7540","650c16f0f2faf8d7a0d14c09","651c1d321ab7ee0f3832df56","null","null","<p style=""font-size: 60px; font-family: BACS"">tmYhABb</p>","","","","","","","","",""
"html-keyboard-response","77","233357","0.0-8.0-0.69","5ea171c1a8782801263e7540","650c16f0f2faf8d7a0d14c09","651c1d321ab7ee0f3832df56","null","null","<p style=""font-size: 60px; font-family: BACS"">NAacQLaA</p>","","","","","","","","",""
"html-keyboard-response","78","234357","0.0-8.0-0.70","5ea171c1a8782801263e7540","650c16f0f2faf8d7a0d14c09","651c1d321ab7ee0f3832df56","null","null","<p style=""font-size: 60px; font-family: BACS"">ZvalvLcO</p>","","","","","","","","",""
"html-keyboard-response","79","235364","0.0-8.0-0.71","5ea171c1a8782801263e7540","650c16f0f2faf8d7a0d14c09","651c1d321ab7ee0f3832df56","null","null","<p style=""font-size: 60px; font-family: BACS"">dvNvAYLU</p>","","","","","","","","",""
"html-keyboard-response","80","236365","0.0-8.0-0.72","5ea171c1a8782801263e7540","650c16f0f2faf8d7a0d14c09","651c1d321ab7ee0f3832df56","null","null","<p style=""font-size: 60px; font-family: BACS"">NbmQULcO</p>","","","","","","","","",""
"html-keyboard-response","81","237366","0.0-8.0-0.73","5ea171c1a8782801263e7540","650c16f0f2faf8d7a0d14c09","651c1d321ab7ee0f3832df56","null","null","<p style=""font-size: 60px; font-family: BACS"">kDRKcABb</p>","","","","","","","","",""
"html-keyboard-response","82","238368","0.0-8.0-0.74","5ea171c1a8782801263e7540","650c16f0f2faf8d7a0d14c09","651c1d321ab7ee0f3832df56","null","null","<p style=""font-size: 60px; font-family: BACS"">PCMPKCPMl</p>","","","","","","","","",""
"html-keyboard-response","83","239374","0.0-8.0-0.75","5ea171c1a8782801263e7540","650c16f0f2faf8d7a0d14c09","651c1d321ab7ee0f3832df56","null","null","<p style=""font-size: 60px; font-family: BACS"">NAacQYLU</p>","","","","","","","","",""
"html-keyboard-response","84","240376","0.0-8.0-0.76","5ea171c1a8782801263e7540","650c16f0f2faf8d7a0d14c09","651c1d321ab7ee0f3832df56","null","null","<p style=""font-size: 60px; font-family: BACS"">hmKPMbdtK</p>","","","","","","","","",""
"html-keyboard-response","85","241378","0.0-8.0-0.77","5ea171c1a8782801263e7540","650c16f0f2faf8d7a0d14c09","651c1d321ab7ee0f3832df56","null","null","<p style=""font-size: 60px; font-family: BACS"">LuNZlGc</p>","","","","","","","","",""
"html-keyboard-response","86","242390","0.0-8.0-0.78","5ea171c1a8782801263e7540","650c16f0f2faf8d7a0d14c09","651c1d321ab7ee0f3832df56","null","null","<p style=""font-size: 60px; font-family: BACS"">ObZbAJUG</p>","","","","","","","","",""
"html-keyboard-response","87","243406","0.0-8.0-0.79","5ea171c1a8782801263e7540","650c16f0f2faf8d7a0d14c09","651c1d321ab7ee0f3832df56","null","null","<p style=""font-size: 60px; font-family: BACS"">MkmEdCPMl</p>","","","","","","","","",""
"html-keyboard-response","88","249886","0.0-9.0","5ea171c1a8782801263e7540","650c16f0f2faf8d7a0d14c09","651c1d321ab7ee0f3832df56","6479"," ","<p>Great, you've seen the first block of words. You may now take a short break.</p>
      <p>Press the spacebar when you're ready to continue.</p>","","","","","","","","",""
"html-keyboard-response","89","250887","0.0-10.0-0.0","5ea171c1a8782801263e7540","650c16f0f2faf8d7a0d14c09","651c1d321ab7ee0f3832df56","null","null","<p style=""font-size: 60px; font-family: BACS"">ObZbALaA</p>","","","","","","","","",""
"html-keyboard-response","90","251899","0.0-10.0-0.1","5ea171c1a8782801263e7540","650c16f0f2faf8d7a0d14c09","651c1d321ab7ee0f3832df56","null","null","<p style=""font-size: 60px; font-family: BACS"">NulkLcO</p>","","","","","","","","",""
"html-keyboard-response","91","252913","0.0-10.0-0.2","5ea171c1a8782801263e7540","650c16f0f2faf8d7a0d14c09","651c1d321ab7ee0f3832df56","null","null","<p style=""font-size: 60px; font-family: BACS"">dvNvAJUG</p>","","","","","","","","",""
"html-keyboard-response","92","253915","0.0-10.0-0.3","5ea171c1a8782801263e7540","650c16f0f2faf8d7a0d14c09","651c1d321ab7ee0f3832df56","null","null","<p style=""font-size: 60px; font-family: BACS"">ZdlOlGc</p>","","","","","","","","",""
"html-keyboard-response","93","254916","0.0-10.0-0.4","5ea171c1a8782801263e7540","650c16f0f2faf8d7a0d14c09","651c1d321ab7ee0f3832df56","null","null","<p style=""font-size: 60px; font-family: BACS"">NAacQJUG</p>","","","","","","","","",""
"html-keyboard-response","94","255918","0.0-10.0-0.5","5ea171c1a8782801263e7540","650c16f0f2faf8d7a0d14c09","651c1d321ab7ee0f3832df56","null","null","<p style=""font-size: 60px; font-family: BACS"">PCMPKbdtK</p>","","","","","","","","",""
"html-keyboard-response","95","256923","0.0-10.0-0.6","5ea171c1a8782801263e7540","650c16f0f2faf8d7a0d14c09","651c1d321ab7ee0f3832df56","null","null","<p style=""font-size: 60px; font-family: BACS"">dvNvALcO</p>","","","","","","","","",""
"html-keyboard-response","96","257937","0.0-10.0-0.7","5ea171c1a8782801263e7540","650c16f0f2faf8d7a0d14c09","651c1d321ab7ee0f3832df56","null","null","<p style=""font-size: 60px; font-family: BACS"">bcORABb</p>","","","","","","","","",""
"html-keyboard-response","97","258947","0.0-10.0-0.8","5ea171c1a8782801263e7540","650c16f0f2faf8d7a0d14c09","651c1d321ab7ee0f3832df56","null","null","<p style=""font-size: 60px; font-family: BACS"">lBKtCPMl</p>","","","","","","","","",""
"html-keyboard-response","98","259949","0.0-10.0-0.9","5ea171c1a8782801263e7540","650c16f0f2faf8d7a0d14c09","651c1d321ab7ee0f3832df56","null","null","<p style=""font-size: 60px; font-family: BACS"">ZdlOLcO</p>","","","","","","","","",""
"html-keyboard-response","99","260961","0.0-10.0-0.10","5ea171c1a8782801263e7540","650c16f0f2faf8d7a0d14c09","651c1d321ab7ee0f3832df56","null","null","<p style=""font-size: 60px; font-family: BACS"">MkmEdbdtK</p>","","","","","","","","",""
"html-keyboard-response","100","261976","0.0-10.0-0.11","5ea171c1a8782801263e7540","650c16f0f2faf8d7a0d14c09","651c1d321ab7ee0f3832df56","null","null","<p style=""font-size: 60px; font-family: BACS"">ObZbAYLU</p>","","","","","","","","",""
"html-keyboard-response","101","262978","0.0-10.0-0.12","5ea171c1a8782801263e7540","650c16f0f2faf8d7a0d14c09","651c1d321ab7ee0f3832df56","null","null","<p style=""font-size: 60px; font-family: BACS"">tmYhCPMl</p>","","","","","","","","",""
"html-keyboard-response","102","263980","0.0-10.0-0.13","5ea171c1a8782801263e7540","650c16f0f2faf8d7a0d14c09","651c1d321ab7ee0f3832df56","null","null","<p style=""font-size: 60px; font-family: BACS"">mBbKEcR</p>","","","","","","","","",""
"html-keyboard-response","103","264984","0.0-10.0-0.14","5ea171c1a8782801263e7540","650c16f0f2faf8d7a0d14c09","651c1d321ab7ee0f3832df56","null","null","<p style=""font-size: 60px; font-family: BACS"">hmKPMCPMl</p>","","","","","","","","",""
"html-keyboard-response","104","265996","0.0-10.0-0.15","5ea171c1a8782801263e7540","650c16f0f2faf8d7a0d14c09","651c1d321ab7ee0f3832df56","null","null","<p style=""font-size: 60px; font-family: BACS"">dvNvALaA</p>","","","","","","","","",""
"html-keyboard-response","105","266997","0.0-10.0-0.16","5ea171c1a8782801263e7540","650c16f0f2faf8d7a0d14c09","651c1d321ab7ee0f3832df56","null","null","<p style=""font-size: 60px; font-family: BACS"">bcORbTE</p>","","","","","","","","",""
"html-keyboard-response","106","267999","0.0-10.0-0.17","5ea171c1a8782801263e7540","650c16f0f2faf8d7a0d14c09","651c1d321ab7ee0f3832df56","null","null","<p style=""font-size: 60px; font-family: BACS"">hmKPMABb</p>","","","","","","","","",""
"html-keyboard-response","107","269012","0.0-10.0-0.18","5ea171c1a8782801263e7540","650c16f0f2faf8d7a0d14c09","651c1d321ab7ee0f3832df56","null","null","<p style=""font-size: 60px; font-family: BACS"">MkmEdEcR</p>","","","","","","","","",""
"html-keyboard-response","108","270014","0.0-10.0-0.19","5ea171c1a8782801263e7540","650c16f0f2faf8d7a0d14c09","651c1d321ab7ee0f3832df56","null","null","<p style=""font-size: 60px; font-family: BACS"">mBbKbTE</p>","","","","","","","","",""
"html-keyboard-response","109","271016","0.0-10.0-0.20","5ea171c1a8782801263e7540","650c16f0f2faf8d7a0d14c09","651c1d321ab7ee0f3832df56","null","null","<p style=""font-size: 60px; font-family: BACS"">NbmQUYLU</p>","","","","","","","","",""
"html-keyboard-response","110","272032","0.0-10.0-0.21","5ea171c1a8782801263e7540","650c16f0f2faf8d7a0d14c09","651c1d321ab7ee0f3832df56","null","null","<p style=""font-size: 60px; font-family: BACS"">lBKtEcR</p>","","","","","","","","",""
"html-keyboard-response","111","273042","0.0-10.0-0.22","5ea171c1a8782801263e7540","650c16f0f2faf8d7a0d14c09","651c1d321ab7ee0f3832df56","null","null","<p style=""font-size: 60px; font-family: BACS"">ZvalvlGc</p>","","","","","","","","",""
"html-keyboard-response","112","274051","0.0-10.0-0.23","5ea171c1a8782801263e7540","650c16f0f2faf8d7a0d14c09","651c1d321ab7ee0f3832df56","null","null","<p style=""font-size: 60px; font-family: BACS"">dvNvAYLU</p>","","","","","","","","",""
"html-keyboard-response","113","275064","0.0-10.0-0.24","5ea171c1a8782801263e7540","650c16f0f2faf8d7a0d14c09","651c1d321ab7ee0f3832df56","null","null","<p style=""font-size: 60px; font-family: BACS"">PCMPKbTE</p>","","","","","","","","",""
"html-keyboard-response","114","276066","0.0-10.0-0.25","5ea171c1a8782801263e7540","650c16f0f2faf8d7a0d14c09","651c1d321ab7ee0f3832df56","null","null","<p style=""font-size: 60px; font-family: BACS"">ZvalvYLU</p>","","","","","","","","",""
"html-keyboard-response","115","277082","0.0-10.0-0.26","5ea171c1a8782801263e7540","650c16f0f2faf8d7a0d14c09","651c1d321ab7ee0f3832df56","null","null","<p style=""font-size: 60px; font-family: BACS"">btlckCPMl</p>","","","","","","","","",""
"html-keyboard-response","116","278097","0.0-10.0-0.27","5ea171c1a8782801263e7540","650c16f0f2faf8d7a0d14c09","651c1d321ab7ee0f3832df56","null","null","<p style=""font-size: 60px; font-family: BACS"">bcORbdtK</p>","","","","","","","","",""
"html-keyboard-response","117","279098","0.0-10.0-0.28","5ea171c1a8782801263e7540","650c16f0f2faf8d7a0d14c09","651c1d321ab7ee0f3832df56","null","null","<p style=""font-size: 60px; font-family: BACS"">btlckbTE</p>","","","","","","","","",""
"html-keyboard-response","118","280111","0.0-10.0-0.29","5ea171c1a8782801263e7540","650c16f0f2faf8d7a0d14c09","651c1d321ab7ee0f3832df56","null","null","<p style=""font-size: 60px; font-family: BACS"">NulkYLU</p>","","","","","","","","",""
"html-keyboard-response","119","281125","0.0-10.0-0.30","5ea171c1a8782801263e7540","650c16f0f2faf8d7a0d14c09","651c1d321ab7ee0f3832df56","null","null","<p style=""font-size: 60px; font-family: BACS"">btlckEcR</p>","","","","","","","","",""
"html-keyboard-response","120","282127","0.0-10.0-0.31","5ea171c1a8782801263e7540","650c16f0f2faf8d7a0d14c09","651c1d321ab7ee0f3832df56","null","null","<p style=""font-size: 60px; font-family: BACS"">lBKtABb</p>","","","","","","","","",""
"html-keyboard-response","121","283129","0.0-10.0-0.32","5ea171c1a8782801263e7540","650c16f0f2faf8d7a0d14c09","651c1d321ab7ee0f3832df56","null","null","<p style=""font-size: 60px; font-family: BACS"">tmYhbdtK</p>","","","","","","","","",""
"html-keyboard-response","122","284130","0.0-10.0-0.33","5ea171c1a8782801263e7540","650c16f0f2faf8d7a0d14c09","651c1d321ab7ee0f3832df56","null","null","<p style=""font-size: 60px; font-family: BACS"">NulkJUG</p>","","","","","","","","",""
"html-keyboard-response","123","285131","0.0-10.0-0.34","5ea171c1a8782801263e7540","650c16f0f2faf8d7a0d14c09","651c1d321ab7ee0f3832df56","null","null","<p style=""font-size: 60px; font-family: BACS"">ObZbAlGc</p>","","","","","","","","",""
"html-keyboard-response","124","286133","0.0-10.0-0.35","5ea171c1a8782801263e7540","650c16f0f2faf8d7a0d14c09","651c1d321ab7ee0f3832df56","null","null","<p style=""font-size: 60px; font-family: BACS"">OmtlDbTE</p>","","","","","","","","",""
"html-keyboard-response","125","287136","0.0-10.0-0.36","5ea171c1a8782801263e7540","650c16f0f2faf8d7a0d14c09","651c1d321ab7ee0f3832df56","null","null","<p style=""font-size: 60px; font-family: BACS"">NbmQUlGc</p>","","","","","","","","",""
"html-keyboard-response","126","288137","0.0-10.0-0.37","5ea171c1a8782801263e7540","650c16f0f2faf8d7a0d14c09","651c1d321ab7ee0f3832df56","null","null","<p style=""font-size: 60px; font-family: BACS"">mBbKABb</p>","","","","","","","","",""
"html-keyboard-response","127","289139","0.0-10.0-0.38","5ea171c1a8782801263e7540","650c16f0f2faf8d7a0d14c09","651c1d321ab7ee0f3832df56","null","null","<p style=""font-size: 60px; font-family: BACS"">tmYhEcR</p>","","","","","","","","",""
"html-keyboard-response","128","290147","0.0-10.0-0.39","5ea171c1a8782801263e7540","650c16f0f2faf8d7a0d14c09","651c1d321ab7ee0f3832df56","null","null","<p style=""font-size: 60px; font-family: BACS"">PCMPKABb</p>","","","","","","","","",""
"html-keyboard-response","129","291149","0.0-10.0-0.40","5ea171c1a8782801263e7540","650c16f0f2faf8d7a0d14c09","651c1d321ab7ee0f3832df56","null","null","<p style=""font-size: 60px; font-family: BACS"">kDRKcbTE</p>","","","","","","","","",""
"html-keyboard-response","130","292151","0.0-10.0-0.41","5ea171c1a8782801263e7540","650c16f0f2faf8d7a0d14c09","651c1d321ab7ee0f3832df56","null","null","<p style=""font-size: 60px; font-family: BACS"">btlckbdtK</p>","","","","","","","","",""
"html-keyboard-response","131","293154","0.0-10.0-0.42","5ea171c1a8782801263e7540","650c16f0f2faf8d7a0d14c09","651c1d321ab7ee0f3832df56","null","null","<p style=""font-size: 60px; font-family: BACS"">ZJLmrLaA</p>","","","","","","","","",""
"html-keyboard-response","132","294167","0.0-10.0-0.43","5ea171c1a8782801263e7540","650c16f0f2faf8d7a0d14c09","651c1d321ab7ee0f3832df56","null","null","<p style=""font-size: 60px; font-family: BACS"">hmKPMbTE</p>","","","","","","","","",""
"html-keyboard-response","133","295180","0.0-10.0-0.44","5ea171c1a8782801263e7540","650c16f0f2faf8d7a0d14c09","651c1d321ab7ee0f3832df56","null","null","<p style=""font-size: 60px; font-family: BACS"">NAacQLaA</p>","","","","","","","","",""
"html-keyboard-response","134","296190","0.0-10.0-0.45","5ea171c1a8782801263e7540","650c16f0f2faf8d7a0d14c09","651c1d321ab7ee0f3832df56","null","null","<p style=""font-size: 60px; font-family: BACS"">OmtlDCPMl</p>","","","","","","","","",""
"html-keyboard-response","135","297200","0.0-10.0-0.46","5ea171c1a8782801263e7540","650c16f0f2faf8d7a0d14c09","651c1d321ab7ee0f3832df56","null","null","<p style=""font-size: 60px; font-family: BACS"">tmYhABb</p>","","","","","","","","",""
"html-keyboard-response","136","298214","0.0-10.0-0.47","5ea171c1a8782801263e7540","650c16f0f2faf8d7a0d14c09","651c1d321ab7ee0f3832df56","null","null","<p style=""font-size: 60px; font-family: BACS"">NbmQULcO</p>","","","","","","","","",""
"html-keyboard-response","137","299228","0.0-10.0-0.48","5ea171c1a8782801263e7540","650c16f0f2faf8d7a0d14c09","651c1d321ab7ee0f3832df56","null","null","<p style=""font-size: 60px; font-family: BACS"">LuNZJUG</p>","","","","","","","","",""
"html-keyboard-response","138","300243","0.0-10.0-0.49","5ea171c1a8782801263e7540","650c16f0f2faf8d7a0d14c09","651c1d321ab7ee0f3832df56","null","null","<p style=""font-size: 60px; font-family: BACS"">kDRKcCPMl</p>","","","","","","","","",""
"html-keyboard-response","139","301253","0.0-10.0-0.50","5ea171c1a8782801263e7540","650c16f0f2faf8d7a0d14c09","651c1d321ab7ee0f3832df56","null","null","<p style=""font-size: 60px; font-family: BACS"">ZJLmrlGc</p>","","","","","","","","",""
"html-keyboard-response","140","302267","0.0-10.0-0.51","5ea171c1a8782801263e7540","650c16f0f2faf8d7a0d14c09","651c1d321ab7ee0f3832df56","null","null","<p style=""font-size: 60px; font-family: BACS"">bcOREcR</p>","","","","","","","","",""
"html-keyboard-response","141","303281","0.0-10.0-0.52","5ea171c1a8782801263e7540","650c16f0f2faf8d7a0d14c09","651c1d321ab7ee0f3832df56","null","null","<p style=""font-size: 60px; font-family: BACS"">NAacQlGc</p>","","","","","","","","",""
"html-keyboard-response","142","304296","0.0-10.0-0.53","5ea171c1a8782801263e7540","650c16f0f2faf8d7a0d14c09","651c1d321ab7ee0f3832df56","null","null","<p style=""font-size: 60px; font-family: BACS"">ZdlOYLU</p>","","","","","","","","",""
"html-keyboard-response","143","305297","0.0-10.0-0.54","5ea171c1a8782801263e7540","650c16f0f2faf8d7a0d14c09","651c1d321ab7ee0f3832df56","null","null","<p style=""font-size: 60px; font-family: BACS"">NbmQULaA</p>","","","","","","","","",""
"html-keyboard-response","144","306309","0.0-10.0-0.55","5ea171c1a8782801263e7540","650c16f0f2faf8d7a0d14c09","651c1d321ab7ee0f3832df56","null","null","<p style=""font-size: 60px; font-family: BACS"">LuNZYLU</p>","","","","","","","","",""
"html-keyboard-response","145","307310","0.0-10.0-0.56","5ea171c1a8782801263e7540","650c16f0f2faf8d7a0d14c09","651c1d321ab7ee0f3832df56","null","null","<p style=""font-size: 60px; font-family: BACS"">ObZbAJUG</p>","","","","","","","","",""
"html-keyboard-response","146","308314","0.0-10.0-0.57","5ea171c1a8782801263e7540","650c16f0f2faf8d7a0d14c09","651c1d321ab7ee0f3832df56","null","null","<p style=""font-size: 60px; font-family: BACS"">PCMPKCPMl</p>","","","","","","","","",""
"html-keyboard-response","147","309329","0.0-10.0-0.58","5ea171c1a8782801263e7540","650c16f0f2faf8d7a0d14c09","651c1d321ab7ee0f3832df56","null","null","<p style=""font-size: 60px; font-family: BACS"">OmtlDEcR</p>","","","","","","","","",""
"html-keyboard-response","148","310343","0.0-10.0-0.59","5ea171c1a8782801263e7540","650c16f0f2faf8d7a0d14c09","651c1d321ab7ee0f3832df56","null","null","<p style=""font-size: 60px; font-family: BACS"">LuNZLcO</p>","","","","","","","","",""
"html-keyboard-response","149","311351","0.0-10.0-0.60","5ea171c1a8782801263e7540","650c16f0f2faf8d7a0d14c09","651c1d321ab7ee0f3832df56","null","null","<p style=""font-size: 60px; font-family: BACS"">kDRKcABb</p>","","","","","","","","",""
"html-keyboard-response","150","312358","0.0-10.0-0.61","5ea171c1a8782801263e7540","650c16f0f2faf8d7a0d14c09","651c1d321ab7ee0f3832df56","null","null","<p style=""font-size: 60px; font-family: BACS"">NulkLaA</p>","","","","","","","","",""
"html-keyboard-response","151","313371","0.0-10.0-0.62","5ea171c1a8782801263e7540","650c16f0f2faf8d7a0d14c09","651c1d321ab7ee0f3832df56","null","null","<p style=""font-size: 60px; font-family: BACS"">vblrlGc</p>","","","","","","","","",""
"html-keyboard-response","152","314373","0.0-10.0-0.63","5ea171c1a8782801263e7540","650c16f0f2faf8d7a0d14c09","651c1d321ab7ee0f3832df56","null","null","<p style=""font-size: 60px; font-family: BACS"">ZvalvLcO</p>","","","","","","","","",""
"html-keyboard-response","153","315378","0.0-10.0-0.64","5ea171c1a8782801263e7540","650c16f0f2faf8d7a0d14c09","651c1d321ab7ee0f3832df56","null","null","<p style=""font-size: 60px; font-family: BACS"">mBbKbdtK</p>","","","","","","","","",""
"html-keyboard-response","154","316394","0.0-10.0-0.65","5ea171c1a8782801263e7540","650c16f0f2faf8d7a0d14c09","651c1d321ab7ee0f3832df56","null","null","<p style=""font-size: 60px; font-family: BACS"">NAacQYLU</p>","","","","","","","","",""
"html-keyboard-response","155","317395","0.0-10.0-0.66","5ea171c1a8782801263e7540","650c16f0f2faf8d7a0d14c09","651c1d321ab7ee0f3832df56","null","null","<p style=""font-size: 60px; font-family: BACS"">ZdlOLaA</p>","","","","","","","","",""
"html-keyboard-response","156","318405","0.0-10.0-0.67","5ea171c1a8782801263e7540","650c16f0f2faf8d7a0d14c09","651c1d321ab7ee0f3832df56","null","null","<p style=""font-size: 60px; font-family: BACS"">MkmEdCPMl</p>","","","","","","","","",""
"html-keyboard-response","157","319417","0.0-10.0-0.68","5ea171c1a8782801263e7540","650c16f0f2faf8d7a0d14c09","651c1d321ab7ee0f3832df56","null","null","<p style=""font-size: 60px; font-family: BACS"">vblrJUG</p>","","","","","","","","",""
"html-keyboard-response","158","320428","0.0-10.0-0.69","5ea171c1a8782801263e7540","650c16f0f2faf8d7a0d14c09","651c1d321ab7ee0f3832df56","null","null","<p style=""font-size: 60px; font-family: BACS"">LuNZlGc</p>","","","","","","","","",""
"html-keyboard-response","159","321442","0.0-10.0-0.70","5ea171c1a8782801263e7540","650c16f0f2faf8d7a0d14c09","651c1d321ab7ee0f3832df56","null","null","<p style=""font-size: 60px; font-family: BACS"">ZvalvJUG</p>","","","","","","","","",""
"html-keyboard-response","160","322458","0.0-10.0-0.71","5ea171c1a8782801263e7540","650c16f0f2faf8d7a0d14c09","651c1d321ab7ee0f3832df56","null","null","<p style=""font-size: 60px; font-family: BACS"">lBKtbdtK</p>","","","","","","","","",""
"html-keyboard-response","161","323467","0.0-10.0-0.72","5ea171c1a8782801263e7540","650c16f0f2faf8d7a0d14c09","651c1d321ab7ee0f3832df56","null","null","<p style=""font-size: 60px; font-family: BACS"">MkmEdbTE</p>","","","","","","","","",""
"html-keyboard-response","162","324479","0.0-10.0-0.73","5ea171c1a8782801263e7540","650c16f0f2faf8d7a0d14c09","651c1d321ab7ee0f3832df56","null","null","<p style=""font-size: 60px; font-family: BACS"">OmtlDABb</p>","","","","","","","","",""
"html-keyboard-response","163","325495","0.0-10.0-0.74","5ea171c1a8782801263e7540","650c16f0f2faf8d7a0d14c09","651c1d321ab7ee0f3832df56","null","null","<p style=""font-size: 60px; font-family: BACS"">vblrLaA</p>","","","","","","","","",""
"html-keyboard-response","164","326506","0.0-10.0-0.75","5ea171c1a8782801263e7540","650c16f0f2faf8d7a0d14c09","651c1d321ab7ee0f3832df56","null","null","<p style=""font-size: 60px; font-family: BACS"">hmKPMbdtK</p>","","","","","","","","",""
"html-keyboard-response","165","327518","0.0-10.0-0.76","5ea171c1a8782801263e7540","650c16f0f2faf8d7a0d14c09","651c1d321ab7ee0f3832df56","null","null","<p style=""font-size: 60px; font-family: BACS"">vblrLcO</p>","","","","","","","","",""
"html-keyboard-response","166","328532","0.0-10.0-0.77","5ea171c1a8782801263e7540","650c16f0f2faf8d7a0d14c09","651c1d321ab7ee0f3832df56","null","null","<p style=""font-size: 60px; font-family: BACS"">ZJLmrJUG</p>","","","","","","","","",""
"html-keyboard-response","167","329547","0.0-10.0-0.78","5ea171c1a8782801263e7540","650c16f0f2faf8d7a0d14c09","651c1d321ab7ee0f3832df56","null","null","<p style=""font-size: 60px; font-family: BACS"">kDRKcEcR</p>","","","","","","","","",""
"html-keyboard-response","168","330556","0.0-10.0-0.79","5ea171c1a8782801263e7540","650c16f0f2faf8d7a0d14c09","651c1d321ab7ee0f3832df56","null","null","<p style=""font-size: 60px; font-family: BACS"">ZJLmrLcO</p>","","","","","","","","",""
"html-keyboard-response","169","357067","0.0-11.0","5ea171c1a8782801263e7540","650c16f0f2faf8d7a0d14c09","651c1d321ab7ee0f3832df56","26510"," ","<p>Great, you've seen the second block of words. You may now take a short break.</p>
      <p>Press the spacebar when you're ready to continue.</p>","","","","","","","","",""
"html-keyboard-response","170","358083","0.0-12.0-0.0","5ea171c1a8782801263e7540","650c16f0f2faf8d7a0d14c09","651c1d321ab7ee0f3832df56","null","null","<p style=""font-size: 60px; font-family: BACS"">ZvalvJUG</p>","","","","","","","","",""
"html-keyboard-response","171","359085","0.0-12.0-0.1","5ea171c1a8782801263e7540","650c16f0f2faf8d7a0d14c09","651c1d321ab7ee0f3832df56","null","null","<p style=""font-size: 60px; font-family: BACS"">hmKPMCPMl</p>","","","","","","","","",""
"html-keyboard-response","172","360096","0.0-12.0-0.2","5ea171c1a8782801263e7540","650c16f0f2faf8d7a0d14c09","651c1d321ab7ee0f3832df56","null","null","<p style=""font-size: 60px; font-family: BACS"">NulkYLU</p>","","","","","","","","",""
"html-keyboard-response","173","361100","0.0-12.0-0.3","5ea171c1a8782801263e7540","650c16f0f2faf8d7a0d14c09","651c1d321ab7ee0f3832df56","null","null","<p style=""font-size: 60px; font-family: BACS"">btlckbdtK</p>","","","","","","","","",""
"html-keyboard-response","174","362110","0.0-12.0-0.4","5ea171c1a8782801263e7540","650c16f0f2faf8d7a0d14c09","651c1d321ab7ee0f3832df56","null","null","<p style=""font-size: 60px; font-family: BACS"">ObZbALaA</p>","","","","","","","","",""
"html-keyboard-response","175","363113","0.0-12.0-0.5","5ea171c1a8782801263e7540","650c16f0f2faf8d7a0d14c09","651c1d321ab7ee0f3832df56","null","null","<p style=""font-size: 60px; font-family: BACS"">bcORbTE</p>","","","","","","","","",""
"html-keyboard-response","176","364129","0.0-12.0-0.6","5ea171c1a8782801263e7540","650c16f0f2faf8d7a0d14c09","651c1d321ab7ee0f3832df56","null","null","<p style=""font-size: 60px; font-family: BACS"">ObZbAlGc</p>","","","","","","","","",""
"html-keyboard-response","177","365144","0.0-12.0-0.7","5ea171c1a8782801263e7540","650c16f0f2faf8d7a0d14c09","651c1d321ab7ee0f3832df56","null","null","<p style=""font-size: 60px; font-family: BACS"">NAacQLaA</p>","","","","","","","","",""
"html-keyboard-response","178","366195","0.0-12.0-0.8","5ea171c1a8782801263e7540","650c16f0f2faf8d7a0d14c09","651c1d321ab7ee0f3832df56","null","null","<p style=""font-size: 60px; font-family: BACS"">kDRKcEcR</p>","","","","","","","","",""
"html-keyboard-response","179","367215","0.0-12.0-0.9","5ea171c1a8782801263e7540","650c16f0f2faf8d7a0d14c09","651c1d321ab7ee0f3832df56","null","null","<p style=""font-size: 60px; font-family: BACS"">lBKtABb</p>","","","","","","","","",""
"html-keyboard-response","180","368223","0.0-12.0-0.10","5ea171c1a8782801263e7540","650c16f0f2faf8d7a0d14c09","651c1d321ab7ee0f3832df56","null","null","<p style=""font-size: 60px; font-family: BACS"">dvNvALcO</p>","","","","","","","","",""
"html-keyboard-response","181","369225","0.0-12.0-0.11","5ea171c1a8782801263e7540","650c16f0f2faf8d7a0d14c09","651c1d321ab7ee0f3832df56","null","null","<p style=""font-size: 60px; font-family: BACS"">lBKtEcR</p>","","","","","","","","",""
"html-keyboard-response","182","370235","0.0-12.0-0.12","5ea171c1a8782801263e7540","650c16f0f2faf8d7a0d14c09","651c1d321ab7ee0f3832df56","null","null","<p style=""font-size: 60px; font-family: BACS"">vblrLcO</p>","","","","","","","","",""
"html-keyboard-response","183","371237","0.0-12.0-0.13","5ea171c1a8782801263e7540","650c16f0f2faf8d7a0d14c09","651c1d321ab7ee0f3832df56","null","null","<p style=""font-size: 60px; font-family: BACS"">NbmQULaA</p>","","","","","","","","",""
"html-keyboard-response","184","372247","0.0-12.0-0.14","5ea171c1a8782801263e7540","650c16f0f2faf8d7a0d14c09","651c1d321ab7ee0f3832df56","null","null","<p style=""font-size: 60px; font-family: BACS"">bcOREcR</p>","","","","","","","","",""
"html-keyboard-response","185","373260","0.0-12.0-0.15","5ea171c1a8782801263e7540","650c16f0f2faf8d7a0d14c09","651c1d321ab7ee0f3832df56","null","null","<p style=""font-size: 60px; font-family: BACS"">btlckCPMl</p>","","","","","","","","",""
"html-keyboard-response","186","374274","0.0-12.0-0.16","5ea171c1a8782801263e7540","650c16f0f2faf8d7a0d14c09","651c1d321ab7ee0f3832df56","null","null","<p style=""font-size: 60px; font-family: BACS"">mBbKbdtK</p>","","","","","","","","",""
"html-keyboard-response","187","375280","0.0-12.0-0.17","5ea171c1a8782801263e7540","650c16f0f2faf8d7a0d14c09","651c1d321ab7ee0f3832df56","null","null","<p style=""font-size: 60px; font-family: BACS"">ZdlOlGc</p>","","","","","","","","",""
"html-keyboard-response","188","376294","0.0-12.0-0.18","5ea171c1a8782801263e7540","650c16f0f2faf8d7a0d14c09","651c1d321ab7ee0f3832df56","null","null","<p style=""font-size: 60px; font-family: BACS"">PCMPKbTE</p>","","","","","","","","",""
"html-keyboard-response","189","377307","0.0-12.0-0.19","5ea171c1a8782801263e7540","650c16f0f2faf8d7a0d14c09","651c1d321ab7ee0f3832df56","null","null","<p style=""font-size: 60px; font-family: BACS"">vblrlGc</p>","","","","","","","","",""
"html-keyboard-response","190","378308","0.0-12.0-0.20","5ea171c1a8782801263e7540","650c16f0f2faf8d7a0d14c09","651c1d321ab7ee0f3832df56","null","null","<p style=""font-size: 60px; font-family: BACS"">MkmEdCPMl</p>","","","","","","","","",""
"html-keyboard-response","191","379317","0.0-12.0-0.21","5ea171c1a8782801263e7540","650c16f0f2faf8d7a0d14c09","651c1d321ab7ee0f3832df56","null","null","<p style=""font-size: 60px; font-family: BACS"">PCMPKbdtK</p>","","","","","","","","",""
"html-keyboard-response","192","380334","0.0-12.0-0.22","5ea171c1a8782801263e7540","650c16f0f2faf8d7a0d14c09","651c1d321ab7ee0f3832df56","null","null","<p style=""font-size: 60px; font-family: BACS"">LuNZLcO</p>","","","","","","","","",""
"html-keyboard-response","193","381337","0.0-12.0-0.23","5ea171c1a8782801263e7540","650c16f0f2faf8d7a0d14c09","651c1d321ab7ee0f3832df56","null","null","<p style=""font-size: 60px; font-family: BACS"">ObZbAYLU</p>","","","","","","","","",""
"html-keyboard-response","194","382343","0.0-12.0-0.24","5ea171c1a8782801263e7540","650c16f0f2faf8d7a0d14c09","651c1d321ab7ee0f3832df56","null","null","<p style=""font-size: 60px; font-family: BACS"">dvNvAJUG</p>","","","","","","","","",""
"html-keyboard-response","195","383352","0.0-12.0-0.25","5ea171c1a8782801263e7540","650c16f0f2faf8d7a0d14c09","651c1d321ab7ee0f3832df56","null","null","<p style=""font-size: 60px; font-family: BACS"">hmKPMbTE</p>","","","","","","","","",""
"html-keyboard-response","196","384366","0.0-12.0-0.26","5ea171c1a8782801263e7540","650c16f0f2faf8d7a0d14c09","651c1d321ab7ee0f3832df56","null","null","<p style=""font-size: 60px; font-family: BACS"">bcORABb</p>","","","","","","","","",""
"html-keyboard-response","197","385380","0.0-12.0-0.27","5ea171c1a8782801263e7540","650c16f0f2faf8d7a0d14c09","651c1d321ab7ee0f3832df56","null","null","<p style=""font-size: 60px; font-family: BACS"">mBbKbTE</p>","","","","","","","","",""
"html-keyboard-response","198","386394","0.0-12.0-0.28","5ea171c1a8782801263e7540","650c16f0f2faf8d7a0d14c09","651c1d321ab7ee0f3832df56","null","null","<p style=""font-size: 60px; font-family: BACS"">ZJLmrLcO</p>","","","","","","","","",""
"html-keyboard-response","199","387395","0.0-12.0-0.29","5ea171c1a8782801263e7540","650c16f0f2faf8d7a0d14c09","651c1d321ab7ee0f3832df56","null","null","<p style=""font-size: 60px; font-family: BACS"">kDRKcCPMl</p>","","","","","","","","",""
"html-keyboard-response","200","388396","0.0-12.0-0.30","5ea171c1a8782801263e7540","650c16f0f2faf8d7a0d14c09","651c1d321ab7ee0f3832df56","null","null","<p style=""font-size: 60px; font-family: BACS"">tmYhEcR</p>","","","","","","","","",""
"html-keyboard-response","201","389406","0.0-12.0-0.31","5ea171c1a8782801263e7540","650c16f0f2faf8d7a0d14c09","651c1d321ab7ee0f3832df56","null","null","<p style=""font-size: 60px; font-family: BACS"">mBbKABb</p>","","","","","","","","",""
"html-keyboard-response","202","390420","0.0-12.0-0.32","5ea171c1a8782801263e7540","650c16f0f2faf8d7a0d14c09","651c1d321ab7ee0f3832df56","null","null","<p style=""font-size: 60px; font-family: BACS"">bcORbdtK</p>","","","","","","","","",""
"html-keyboard-response","203","391432","0.0-12.0-0.33","5ea171c1a8782801263e7540","650c16f0f2faf8d7a0d14c09","651c1d321ab7ee0f3832df56","null","null","<p style=""font-size: 60px; font-family: BACS"">vblrJUG</p>","","","","","","","","",""
"html-keyboard-response","204","392447","0.0-12.0-0.34","5ea171c1a8782801263e7540","650c16f0f2faf8d7a0d14c09","651c1d321ab7ee0f3832df56","null","null","<p style=""font-size: 60px; font-family: BACS"">OmtlDEcR</p>","","","","","","","","",""
"html-keyboard-response","205","393459","0.0-12.0-0.35","5ea171c1a8782801263e7540","650c16f0f2faf8d7a0d14c09","651c1d321ab7ee0f3832df56","null","null","<p style=""font-size: 60px; font-family: BACS"">NAacQJUG</p>","","","","","","","","",""
"html-keyboard-response","206","394475","0.0-12.0-0.36","5ea171c1a8782801263e7540","650c16f0f2faf8d7a0d14c09","651c1d321ab7ee0f3832df56","null","null","<p style=""font-size: 60px; font-family: BACS"">lBKtCPMl</p>","","","","","","","","",""
"html-keyboard-response","207","395476","0.0-12.0-0.37","5ea171c1a8782801263e7540","650c16f0f2faf8d7a0d14c09","651c1d321ab7ee0f3832df56","null","null","<p style=""font-size: 60px; font-family: BACS"">MkmEdbdtK</p>","","","","","","","","",""
"html-keyboard-response","208","396487","0.0-12.0-0.38","5ea171c1a8782801263e7540","650c16f0f2faf8d7a0d14c09","651c1d321ab7ee0f3832df56","null","null","<p style=""font-size: 60px; font-family: BACS"">NAacQYLU</p>","","","","","","","","",""
"html-keyboard-response","209","397502","0.0-12.0-0.39","5ea171c1a8782801263e7540","650c16f0f2faf8d7a0d14c09","651c1d321ab7ee0f3832df56","null","null","<p style=""font-size: 60px; font-family: BACS"">LuNZlGc</p>","","","","","","","","",""
"html-keyboard-response","210","398511","0.0-12.0-0.40","5ea171c1a8782801263e7540","650c16f0f2faf8d7a0d14c09","651c1d321ab7ee0f3832df56","null","null","<p style=""font-size: 60px; font-family: BACS"">NbmQULcO</p>","","","","","","","","",""
"html-keyboard-response","211","399512","0.0-12.0-0.41","5ea171c1a8782801263e7540","650c16f0f2faf8d7a0d14c09","651c1d321ab7ee0f3832df56","null","null","<p style=""font-size: 60px; font-family: BACS"">kDRKcbTE</p>","","","","","","","","",""
"html-keyboard-response","212","400517","0.0-12.0-0.42","5ea171c1a8782801263e7540","650c16f0f2faf8d7a0d14c09","651c1d321ab7ee0f3832df56","null","null","<p style=""font-size: 60px; font-family: BACS"">btlckEcR</p>","","","","","","","","",""
"html-keyboard-response","213","401530","0.0-12.0-0.43","5ea171c1a8782801263e7540","650c16f0f2faf8d7a0d14c09","651c1d321ab7ee0f3832df56","null","null","<p style=""font-size: 60px; font-family: BACS"">PCMPKABb</p>","","","","","","","","",""
"html-keyboard-response","214","402533","0.0-12.0-0.44","5ea171c1a8782801263e7540","650c16f0f2faf8d7a0d14c09","651c1d321ab7ee0f3832df56","null","null","<p style=""font-size: 60px; font-family: BACS"">OmtlDCPMl</p>","","","","","","","","",""
"html-keyboard-response","215","403536","0.0-12.0-0.45","5ea171c1a8782801263e7540","650c16f0f2faf8d7a0d14c09","651c1d321ab7ee0f3832df56","null","null","<p style=""font-size: 60px; font-family: BACS"">ZvalvLcO</p>","","","","","","","","",""
"html-keyboard-response","216","404546","0.0-12.0-0.46","5ea171c1a8782801263e7540","650c16f0f2faf8d7a0d14c09","651c1d321ab7ee0f3832df56","null","null","<p style=""font-size: 60px; font-family: BACS"">hmKPMbdtK</p>","","","","","","","","",""
"html-keyboard-response","217","405547","0.0-12.0-0.47","5ea171c1a8782801263e7540","650c16f0f2faf8d7a0d14c09","651c1d321ab7ee0f3832df56","null","null","<p style=""font-size: 60px; font-family: BACS"">MkmEdbTE</p>","","","","","","","","",""
"html-keyboard-response","218","406562","0.0-12.0-0.48","5ea171c1a8782801263e7540","650c16f0f2faf8d7a0d14c09","651c1d321ab7ee0f3832df56","null","null","<p style=""font-size: 60px; font-family: BACS"">dvNvAYLU</p>","","","","","","","","",""
"html-keyboard-response","219","407565","0.0-12.0-0.49","5ea171c1a8782801263e7540","650c16f0f2faf8d7a0d14c09","651c1d321ab7ee0f3832df56","null","null","<p style=""font-size: 60px; font-family: BACS"">NulkLaA</p>","","","","","","","","",""
"html-keyboard-response","220","408575","0.0-12.0-0.50","5ea171c1a8782801263e7540","650c16f0f2faf8d7a0d14c09","651c1d321ab7ee0f3832df56","null","null","<p style=""font-size: 60px; font-family: BACS"">NbmQUYLU</p>","","","","","","","","",""
"html-keyboard-response","221","409576","0.0-12.0-0.51","5ea171c1a8782801263e7540","650c16f0f2faf8d7a0d14c09","651c1d321ab7ee0f3832df56","null","null","<p style=""font-size: 60px; font-family: BACS"">OmtlDABb</p>","","","","","","","","",""
"html-keyboard-response","222","410585","0.0-12.0-0.52","5ea171c1a8782801263e7540","650c16f0f2faf8d7a0d14c09","651c1d321ab7ee0f3832df56","null","null","<p style=""font-size: 60px; font-family: BACS"">btlckbTE</p>","","","","","","","","",""
"html-keyboard-response","223","411598","0.0-12.0-0.53","5ea171c1a8782801263e7540","650c16f0f2faf8d7a0d14c09","651c1d321ab7ee0f3832df56","null","null","<p style=""font-size: 60px; font-family: BACS"">tmYhbdtK</p>","","","","","","","","",""
"html-keyboard-response","224","412599","0.0-12.0-0.54","5ea171c1a8782801263e7540","650c16f0f2faf8d7a0d14c09","651c1d321ab7ee0f3832df56","null","null","<p style=""font-size: 60px; font-family: BACS"">kDRKcABb</p>","","","","","","","","",""
"html-keyboard-response","225","413611","0.0-12.0-0.55","5ea171c1a8782801263e7540","650c16f0f2faf8d7a0d14c09","651c1d321ab7ee0f3832df56","null","null","<p style=""font-size: 60px; font-family: BACS"">tmYhCPMl</p>","","","","","","","","",""
"html-keyboard-response","226","414615","0.0-12.0-0.56","5ea171c1a8782801263e7540","650c16f0f2faf8d7a0d14c09","651c1d321ab7ee0f3832df56","null","null","<p style=""font-size: 60px; font-family: BACS"">hmKPMABb</p>","","","","","","","","",""
"html-keyboard-response","227","415618","0.0-12.0-0.57","5ea171c1a8782801263e7540","650c16f0f2faf8d7a0d14c09","651c1d321ab7ee0f3832df56","null","null","<p style=""font-size: 60px; font-family: BACS"">ZdlOLaA</p>","","","","","","","","",""
"html-keyboard-response","228","416620","0.0-12.0-0.58","5ea171c1a8782801263e7540","650c16f0f2faf8d7a0d14c09","651c1d321ab7ee0f3832df56","null","null","<p style=""font-size: 60px; font-family: BACS"">ZvalvYLU</p>","","","","","","","","",""
"html-keyboard-response","229","417634","0.0-12.0-0.59","5ea171c1a8782801263e7540","650c16f0f2faf8d7a0d14c09","651c1d321ab7ee0f3832df56","null","null","<p style=""font-size: 60px; font-family: BACS"">ZJLmrLaA</p>","","","","","","","","",""
"html-keyboard-response","230","418635","0.0-12.0-0.60","5ea171c1a8782801263e7540","650c16f0f2faf8d7a0d14c09","651c1d321ab7ee0f3832df56","null","null","<p style=""font-size: 60px; font-family: BACS"">ObZbAJUG</p>","","","","","","","","",""
"html-keyboard-response","231","419649","0.0-12.0-0.61","5ea171c1a8782801263e7540","650c16f0f2faf8d7a0d14c09","651c1d321ab7ee0f3832df56","null","null","<p style=""font-size: 60px; font-family: BACS"">ZJLmrlGc</p>","","","","","","","","",""
"html-keyboard-response","232","420650","0.0-12.0-0.62","5ea171c1a8782801263e7540","650c16f0f2faf8d7a0d14c09","651c1d321ab7ee0f3832df56","null","null","<p style=""font-size: 60px; font-family: BACS"">tmYhABb</p>","","","","","","","","",""
"html-keyboard-response","233","421659","0.0-12.0-0.63","5ea171c1a8782801263e7540","650c16f0f2faf8d7a0d14c09","651c1d321ab7ee0f3832df56","null","null","<p style=""font-size: 60px; font-family: BACS"">PCMPKCPMl</p>","","","","","","","","",""
"html-keyboard-response","234","422661","0.0-12.0-0.64","5ea171c1a8782801263e7540","650c16f0f2faf8d7a0d14c09","651c1d321ab7ee0f3832df56","null","null","<p style=""font-size: 60px; font-family: BACS"">lBKtbdtK</p>","","","","","","","","",""
"html-keyboard-response","235","423677","0.0-12.0-0.65","5ea171c1a8782801263e7540","650c16f0f2faf8d7a0d14c09","651c1d321ab7ee0f3832df56","null","null","<p style=""font-size: 60px; font-family: BACS"">vblrLaA</p>","","","","","","","","",""
"html-keyboard-response","236","424679","0.0-12.0-0.66","5ea171c1a8782801263e7540","650c16f0f2faf8d7a0d14c09","651c1d321ab7ee0f3832df56","null","null","<p style=""font-size: 60px; font-family: BACS"">ZJLmrJUG</p>","","","","","","","","",""
"html-keyboard-response","237","425689","0.0-12.0-0.67","5ea171c1a8782801263e7540","650c16f0f2faf8d7a0d14c09","651c1d321ab7ee0f3832df56","null","null","<p style=""font-size: 60px; font-family: BACS"">LuNZYLU</p>","","","","","","","","",""
"html-keyboard-response","238","426690","0.0-12.0-0.68","5ea171c1a8782801263e7540","650c16f0f2faf8d7a0d14c09","651c1d321ab7ee0f3832df56","null","null","<p style=""font-size: 60px; font-family: BACS"">MkmEdEcR</p>","","","","","","","","",""
"html-keyboard-response","239","427703","0.0-12.0-0.69","5ea171c1a8782801263e7540","650c16f0f2faf8d7a0d14c09","651c1d321ab7ee0f3832df56","null","null","<p style=""font-size: 60px; font-family: BACS"">NbmQUlGc</p>","","","","","","","","",""
"html-keyboard-response","240","428709","0.0-12.0-0.70","5ea171c1a8782801263e7540","650c16f0f2faf8d7a0d14c09","651c1d321ab7ee0f3832df56","null","null","<p style=""font-size: 60px; font-family: BACS"">NulkLcO</p>","","","","","","","","",""
"html-keyboard-response","241","429722","0.0-12.0-0.71","5ea171c1a8782801263e7540","650c16f0f2faf8d7a0d14c09","651c1d321ab7ee0f3832df56","null","null","<p style=""font-size: 60px; font-family: BACS"">mBbKEcR</p>","","","","","","","","",""
"html-keyboard-response","242","430726","0.0-12.0-0.72","5ea171c1a8782801263e7540","650c16f0f2faf8d7a0d14c09","651c1d321ab7ee0f3832df56","null","null","<p style=""font-size: 60px; font-family: BACS"">NAacQlGc</p>","","","","","","","","",""
"html-keyboard-response","243","431740","0.0-12.0-0.73","5ea171c1a8782801263e7540","650c16f0f2faf8d7a0d14c09","651c1d321ab7ee0f3832df56","null","null","<p style=""font-size: 60px; font-family: BACS"">ZdlOYLU</p>","","","","","","","","",""
"html-keyboard-response","244","432755","0.0-12.0-0.74","5ea171c1a8782801263e7540","650c16f0f2faf8d7a0d14c09","651c1d321ab7ee0f3832df56","null","null","<p style=""font-size: 60px; font-family: BACS"">ZvalvlGc</p>","","","","","","","","",""
"html-keyboard-response","245","433768","0.0-12.0-0.75","5ea171c1a8782801263e7540","650c16f0f2faf8d7a0d14c09","651c1d321ab7ee0f3832df56","null","null","<p style=""font-size: 60px; font-family: BACS"">dvNvALaA</p>","","","","","","","","",""
"html-keyboard-response","246","434770","0.0-12.0-0.76","5ea171c1a8782801263e7540","650c16f0f2faf8d7a0d14c09","651c1d321ab7ee0f3832df56","null","null","<p style=""font-size: 60px; font-family: BACS"">NulkJUG</p>","","","","","","","","",""
"html-keyboard-response","247","435772","0.0-12.0-0.77","5ea171c1a8782801263e7540","650c16f0f2faf8d7a0d14c09","651c1d321ab7ee0f3832df56","null","null","<p style=""font-size: 60px; font-family: BACS"">ZdlOLcO</p>","","","","","","","","",""
"html-keyboard-response","248","436774","0.0-12.0-0.78","5ea171c1a8782801263e7540","650c16f0f2faf8d7a0d14c09","651c1d321ab7ee0f3832df56","null","null","<p style=""font-size: 60px; font-family: BACS"">OmtlDbTE</p>","","","","","","","","",""
"html-keyboard-response","249","437783","0.0-12.0-0.79","5ea171c1a8782801263e7540","650c16f0f2faf8d7a0d14c09","651c1d321ab7ee0f3832df56","null","null","<p style=""font-size: 60px; font-family: BACS"">LuNZJUG</p>","","","","","","","","",""
"html-keyboard-response","250","445253","0.0-13.0","5ea171c1a8782801263e7540","650c16f0f2faf8d7a0d14c09","651c1d321ab7ee0f3832df56","7470"," ","<p>Great, you've seen the third block of words. You may now take a short break.</p>
      <p>Press the spacebar when you're ready to continue.</p>","","","","","","","","",""
"html-keyboard-response","251","446268","0.0-14.0-0.0","5ea171c1a8782801263e7540","650c16f0f2faf8d7a0d14c09","651c1d321ab7ee0f3832df56","null","null","<p style=""font-size: 60px; font-family: BACS"">vblrLcO</p>","","","","","","","","",""
"html-keyboard-response","252","447272","0.0-14.0-0.1","5ea171c1a8782801263e7540","650c16f0f2faf8d7a0d14c09","651c1d321ab7ee0f3832df56","null","null","<p style=""font-size: 60px; font-family: BACS"">PCMPKCPMl</p>","","","","","","","","",""
"html-keyboard-response","253","448275","0.0-14.0-0.2","5ea171c1a8782801263e7540","650c16f0f2faf8d7a0d14c09","651c1d321ab7ee0f3832df56","null","null","<p style=""font-size: 60px; font-family: BACS"">tmYhABb</p>","","","","","","","","",""
"html-keyboard-response","254","449276","0.0-14.0-0.3","5ea171c1a8782801263e7540","650c16f0f2faf8d7a0d14c09","651c1d321ab7ee0f3832df56","null","null","<p style=""font-size: 60px; font-family: BACS"">vblrLaA</p>","","","","","","","","",""
"html-keyboard-response","255","450291","0.0-14.0-0.4","5ea171c1a8782801263e7540","650c16f0f2faf8d7a0d14c09","651c1d321ab7ee0f3832df56","null","null","<p style=""font-size: 60px; font-family: BACS"">ZdlOLcO</p>","","","","","","","","",""
"html-keyboard-response","256","451294","0.0-14.0-0.5","5ea171c1a8782801263e7540","650c16f0f2faf8d7a0d14c09","651c1d321ab7ee0f3832df56","null","null","<p style=""font-size: 60px; font-family: BACS"">PCMPKbdtK</p>","","","","","","","","",""
"html-keyboard-response","257","452296","0.0-14.0-0.6","5ea171c1a8782801263e7540","650c16f0f2faf8d7a0d14c09","651c1d321ab7ee0f3832df56","null","null","<p style=""font-size: 60px; font-family: BACS"">lBKtABb</p>","","","","","","","","",""
"html-keyboard-response","258","453305","0.0-14.0-0.7","5ea171c1a8782801263e7540","650c16f0f2faf8d7a0d14c09","651c1d321ab7ee0f3832df56","null","null","<p style=""font-size: 60px; font-family: BACS"">kDRKcCPMl</p>","","","","","","","","",""
"html-keyboard-response","259","454314","0.0-14.0-0.8","5ea171c1a8782801263e7540","650c16f0f2faf8d7a0d14c09","651c1d321ab7ee0f3832df56","null","null","<p style=""font-size: 60px; font-family: BACS"">NAacQYLU</p>","","","","","","","","",""
"html-keyboard-response","260","455318","0.0-14.0-0.9","5ea171c1a8782801263e7540","650c16f0f2faf8d7a0d14c09","651c1d321ab7ee0f3832df56","null","null","<p style=""font-size: 60px; font-family: BACS"">ZJLmrLcO</p>","","","","","","","","",""
"html-keyboard-response","261","456319","0.0-14.0-0.10","5ea171c1a8782801263e7540","650c16f0f2faf8d7a0d14c09","651c1d321ab7ee0f3832df56","null","null","<p style=""font-size: 60px; font-family: BACS"">kDRKcEcR</p>","","","","","","","","",""
"html-keyboard-response","262","457325","0.0-14.0-0.11","5ea171c1a8782801263e7540","650c16f0f2faf8d7a0d14c09","651c1d321ab7ee0f3832df56","null","null","<p style=""font-size: 60px; font-family: BACS"">btlckbdtK</p>","","","","","","","","",""
"html-keyboard-response","263","458337","0.0-14.0-0.12","5ea171c1a8782801263e7540","650c16f0f2faf8d7a0d14c09","651c1d321ab7ee0f3832df56","null","null","<p style=""font-size: 60px; font-family: BACS"">vblrJUG</p>","","","","","","","","",""
"html-keyboard-response","264","459353","0.0-14.0-0.13","5ea171c1a8782801263e7540","650c16f0f2faf8d7a0d14c09","651c1d321ab7ee0f3832df56","null","null","<p style=""font-size: 60px; font-family: BACS"">LuNZYLU</p>","","","","","","","","",""
"html-keyboard-response","265","460367","0.0-14.0-0.14","5ea171c1a8782801263e7540","650c16f0f2faf8d7a0d14c09","651c1d321ab7ee0f3832df56","null","null","<p style=""font-size: 60px; font-family: BACS"">NulkLaA</p>","","","","","","","","",""
"html-keyboard-response","266","461368","0.0-14.0-0.15","5ea171c1a8782801263e7540","650c16f0f2faf8d7a0d14c09","651c1d321ab7ee0f3832df56","null","null","<p style=""font-size: 60px; font-family: BACS"">dvNvALcO</p>","","","","","","","","",""
"html-keyboard-response","267","462381","0.0-14.0-0.16","5ea171c1a8782801263e7540","650c16f0f2faf8d7a0d14c09","651c1d321ab7ee0f3832df56","null","null","<p style=""font-size: 60px; font-family: BACS"">hmKPMbTE</p>","","","","","","","","",""
"html-keyboard-response","268","463382","0.0-14.0-0.17","5ea171c1a8782801263e7540","650c16f0f2faf8d7a0d14c09","651c1d321ab7ee0f3832df56","null","null","<p style=""font-size: 60px; font-family: BACS"">dvNvALaA</p>","","","","","","","","",""
"html-keyboard-response","269","464384","0.0-14.0-0.18","5ea171c1a8782801263e7540","650c16f0f2faf8d7a0d14c09","651c1d321ab7ee0f3832df56","null","null","<p style=""font-size: 60px; font-family: BACS"">ZJLmrJUG</p>","","","","","","","","",""
"html-keyboard-response","270","465386","0.0-14.0-0.19","5ea171c1a8782801263e7540","650c16f0f2faf8d7a0d14c09","651c1d321ab7ee0f3832df56","null","null","<p style=""font-size: 60px; font-family: BACS"">MkmEdbTE</p>","","","","","","","","",""
"html-keyboard-response","271","466388","0.0-14.0-0.20","5ea171c1a8782801263e7540","650c16f0f2faf8d7a0d14c09","651c1d321ab7ee0f3832df56","null","null","<p style=""font-size: 60px; font-family: BACS"">bcOREcR</p>","","","","","","","","",""
"html-keyboard-response","272","467389","0.0-14.0-0.21","5ea171c1a8782801263e7540","650c16f0f2faf8d7a0d14c09","651c1d321ab7ee0f3832df56","null","null","<p style=""font-size: 60px; font-family: BACS"">NulkYLU</p>","","","","","","","","",""
"html-keyboard-response","273","468404","0.0-14.0-0.22","5ea171c1a8782801263e7540","650c16f0f2faf8d7a0d14c09","651c1d321ab7ee0f3832df56","null","null","<p style=""font-size: 60px; font-family: BACS"">OmtlDbTE</p>","","","","","","","","",""
"html-keyboard-response","274","469408","0.0-14.0-0.23","5ea171c1a8782801263e7540","650c16f0f2faf8d7a0d14c09","651c1d321ab7ee0f3832df56","null","null","<p style=""font-size: 60px; font-family: BACS"">dvNvAJUG</p>","","","","","","","","",""
"html-keyboard-response","275","470411","0.0-14.0-0.24","5ea171c1a8782801263e7540","650c16f0f2faf8d7a0d14c09","651c1d321ab7ee0f3832df56","null","null","<p style=""font-size: 60px; font-family: BACS"">MkmEdCPMl</p>","","","","","","","","",""
"html-keyboard-response","276","471424","0.0-14.0-0.25","5ea171c1a8782801263e7540","650c16f0f2faf8d7a0d14c09","651c1d321ab7ee0f3832df56","null","null","<p style=""font-size: 60px; font-family: BACS"">ObZbAlGc</p>","","","","","","","","",""
"html-keyboard-response","277","472428","0.0-14.0-0.26","5ea171c1a8782801263e7540","650c16f0f2faf8d7a0d14c09","651c1d321ab7ee0f3832df56","null","null","<p style=""font-size: 60px; font-family: BACS"">btlckEcR</p>","","","","","","","","",""
"html-keyboard-response","278","473431","0.0-14.0-0.27","5ea171c1a8782801263e7540","650c16f0f2faf8d7a0d14c09","651c1d321ab7ee0f3832df56","null","null","<p style=""font-size: 60px; font-family: BACS"">NAacQJUG</p>","","","","","","","","",""
"html-keyboard-response","279","474444","0.0-14.0-0.28","5ea171c1a8782801263e7540","650c16f0f2faf8d7a0d14c09","651c1d321ab7ee0f3832df56","null","null","<p style=""font-size: 60px; font-family: BACS"">OmtlDCPMl</p>","","","","","","","","",""
"html-keyboard-response","280","475446","0.0-14.0-0.29","5ea171c1a8782801263e7540","650c16f0f2faf8d7a0d14c09","651c1d321ab7ee0f3832df56","null","null","<p style=""font-size: 60px; font-family: BACS"">ObZbALaA</p>","","","","","","","","",""
"html-keyboard-response","281","476458","0.0-14.0-0.30","5ea171c1a8782801263e7540","650c16f0f2faf8d7a0d14c09","651c1d321ab7ee0f3832df56","null","null","<p style=""font-size: 60px; font-family: BACS"">tmYhbdtK</p>","","","","","","","","",""
"html-keyboard-response","282","477476","0.0-14.0-0.31","5ea171c1a8782801263e7540","650c16f0f2faf8d7a0d14c09","651c1d321ab7ee0f3832df56","null","null","<p style=""font-size: 60px; font-family: BACS"">kDRKcbTE</p>","","","","","","","","",""
"html-keyboard-response","283","478482","0.0-14.0-0.32","5ea171c1a8782801263e7540","650c16f0f2faf8d7a0d14c09","651c1d321ab7ee0f3832df56","null","null","<p style=""font-size: 60px; font-family: BACS"">ZdlOYLU</p>","","","","","","","","",""
"html-keyboard-response","284","479484","0.0-14.0-0.33","5ea171c1a8782801263e7540","650c16f0f2faf8d7a0d14c09","651c1d321ab7ee0f3832df56","null","null","<p style=""font-size: 60px; font-family: BACS"">NAacQLaA</p>","","","","","","","","",""
"html-keyboard-response","285","480489","0.0-14.0-0.34","5ea171c1a8782801263e7540","650c16f0f2faf8d7a0d14c09","651c1d321ab7ee0f3832df56","null","null","<p style=""font-size: 60px; font-family: BACS"">ZdlOlGc</p>","","","","","","","","",""
"html-keyboard-response","286","481489","0.0-14.0-0.35","5ea171c1a8782801263e7540","650c16f0f2faf8d7a0d14c09","651c1d321ab7ee0f3832df56","null","null","<p style=""font-size: 60px; font-family: BACS"">OmtlDEcR</p>","","","","","","","","",""
"html-keyboard-response","287","482505","0.0-14.0-0.36","5ea171c1a8782801263e7540","650c16f0f2faf8d7a0d14c09","651c1d321ab7ee0f3832df56","null","null","<p style=""font-size: 60px; font-family: BACS"">ZJLmrlGc</p>","","","","","","","","",""
"html-keyboard-response","288","484126","0.0-14.0-0.37","5ea171c1a8782801263e7540","650c16f0f2faf8d7a0d14c09","651c1d321ab7ee0f3832df56","null","null","<p style=""font-size: 60px; font-family: BACS"">mBbKEcR</p>","","","","","","","","",""
"html-keyboard-response","289","485129","0.0-14.0-0.38","5ea171c1a8782801263e7540","650c16f0f2faf8d7a0d14c09","651c1d321ab7ee0f3832df56","null","null","<p style=""font-size: 60px; font-family: BACS"">tmYhCPMl</p>","","","","","","","","",""
"html-keyboard-response","290","486139","0.0-14.0-0.39","5ea171c1a8782801263e7540","650c16f0f2faf8d7a0d14c09","651c1d321ab7ee0f3832df56","null","null","<p style=""font-size: 60px; font-family: BACS"">NulkJUG</p>","","","","","","","","",""
"html-keyboard-response","291","487140","0.0-14.0-0.40","5ea171c1a8782801263e7540","650c16f0f2faf8d7a0d14c09","651c1d321ab7ee0f3832df56","null","null","<p style=""font-size: 60px; font-family: BACS"">btlckCPMl</p>","","","","","","","","",""
"html-keyboard-response","292","488147","0.0-14.0-0.41","5ea171c1a8782801263e7540","650c16f0f2faf8d7a0d14c09","651c1d321ab7ee0f3832df56","null","null","<p style=""font-size: 60px; font-family: BACS"">MkmEdEcR</p>","","","","","","","","",""
"html-keyboard-response","293","489163","0.0-14.0-0.42","5ea171c1a8782801263e7540","650c16f0f2faf8d7a0d14c09","651c1d321ab7ee0f3832df56","null","null","<p style=""font-size: 60px; font-family: BACS"">kDRKcABb</p>","","","","","","","","",""
"html-keyboard-response","294","490172","0.0-14.0-0.43","5ea171c1a8782801263e7540","650c16f0f2faf8d7a0d14c09","651c1d321ab7ee0f3832df56","null","null","<p style=""font-size: 60px; font-family: BACS"">NAacQlGc</p>","","","","","","","","",""
"html-keyboard-response","295","491182","0.0-14.0-0.44","5ea171c1a8782801263e7540","650c16f0f2faf8d7a0d14c09","651c1d321ab7ee0f3832df56","null","null","<p style=""font-size: 60px; font-family: BACS"">NbmQULcO</p>","","","","","","","","",""
"html-keyboard-response","296","492196","0.0-14.0-0.45","5ea171c1a8782801263e7540","650c16f0f2faf8d7a0d14c09","651c1d321ab7ee0f3832df56","null","null","<p style=""font-size: 60px; font-family: BACS"">LuNZJUG</p>","","","","","","","","",""
"html-keyboard-response","297","493208","0.0-14.0-0.46","5ea171c1a8782801263e7540","650c16f0f2faf8d7a0d14c09","651c1d321ab7ee0f3832df56","null","null","<p style=""font-size: 60px; font-family: BACS"">vblrlGc</p>","","","","","","","","",""
"html-keyboard-response","298","494222","0.0-14.0-0.47","5ea171c1a8782801263e7540","650c16f0f2faf8d7a0d14c09","651c1d321ab7ee0f3832df56","null","null","<p style=""font-size: 60px; font-family: BACS"">lBKtCPMl</p>","","","","","","","","",""
"html-keyboard-response","299","495235","0.0-14.0-0.48","5ea171c1a8782801263e7540","650c16f0f2faf8d7a0d14c09","651c1d321ab7ee0f3832df56","null","null","<p style=""font-size: 60px; font-family: BACS"">ObZbAJUG</p>","","","","","","","","",""
"html-keyboard-response","300","496247","0.0-14.0-0.49","5ea171c1a8782801263e7540","650c16f0f2faf8d7a0d14c09","651c1d321ab7ee0f3832df56","null","null","<p style=""font-size: 60px; font-family: BACS"">hmKPMABb</p>","","","","","","","","",""
"html-keyboard-response","301","497263","0.0-14.0-0.50","5ea171c1a8782801263e7540","650c16f0f2faf8d7a0d14c09","651c1d321ab7ee0f3832df56","null","null","<p style=""font-size: 60px; font-family: BACS"">mBbKbdtK</p>","","","","","","","","",""
"html-keyboard-response","302","498279","0.0-14.0-0.51","5ea171c1a8782801263e7540","650c16f0f2faf8d7a0d14c09","651c1d321ab7ee0f3832df56","null","null","<p style=""font-size: 60px; font-family: BACS"">ZvalvJUG</p>","","","","","","","","",""
"html-keyboard-response","303","500130","0.0-14.0-0.52","5ea171c1a8782801263e7540","650c16f0f2faf8d7a0d14c09","651c1d321ab7ee0f3832df56","null","null","<p style=""font-size: 60px; font-family: BACS"">mBbKbTE</p>","","","","","","","","",""
"html-keyboard-response","304","501144","0.0-14.0-0.53","5ea171c1a8782801263e7540","650c16f0f2faf8d7a0d14c09","651c1d321ab7ee0f3832df56","null","null","<p style=""font-size: 60px; font-family: BACS"">tmYhEcR</p>","","","","","","","","",""
"html-keyboard-response","305","503125","0.0-14.0-0.54","5ea171c1a8782801263e7540","650c16f0f2faf8d7a0d14c09","651c1d321ab7ee0f3832df56","null","null","<p style=""font-size: 60px; font-family: BACS"">ZvalvlGc</p>","","","","","","","","",""
"html-keyboard-response","306","505136","0.0-14.0-0.55","5ea171c1a8782801263e7540","650c16f0f2faf8d7a0d14c09","651c1d321ab7ee0f3832df56","null","null","<p style=""font-size: 60px; font-family: BACS"">btlckbTE</p>","","","","","","","","",""
"html-keyboard-response","307","506149","0.0-14.0-0.56","5ea171c1a8782801263e7540","650c16f0f2faf8d7a0d14c09","651c1d321ab7ee0f3832df56","null","null","<p style=""font-size: 60px; font-family: BACS"">bcORABb</p>","","","","","","","","",""
"html-keyboard-response","308","508128","0.0-14.0-0.57","5ea171c1a8782801263e7540","650c16f0f2faf8d7a0d14c09","651c1d321ab7ee0f3832df56","null","null","<p style=""font-size: 60px; font-family: BACS"">MkmEdbdtK</p>","","","","","","","","",""
"html-keyboard-response","309","509130","0.0-14.0-0.58","5ea171c1a8782801263e7540","650c16f0f2faf8d7a0d14c09","651c1d321ab7ee0f3832df56","null","null","<p style=""font-size: 60px; font-family: BACS"">NbmQUYLU</p>","","","","","","","","",""
"html-keyboard-response","310","511127","0.0-14.0-0.59","5ea171c1a8782801263e7540","650c16f0f2faf8d7a0d14c09","651c1d321ab7ee0f3832df56","null","null","<p style=""font-size: 60px; font-family: BACS"">PCMPKABb</p>","","","","","","","","",""
"html-keyboard-response","311","512139","0.0-14.0-0.60","5ea171c1a8782801263e7540","650c16f0f2faf8d7a0d14c09","651c1d321ab7ee0f3832df56","null","null","<p style=""font-size: 60px; font-family: BACS"">lBKtEcR</p>","","","","","","","","",""
"html-keyboard-response","312","514131","0.0-14.0-0.61","5ea171c1a8782801263e7540","650c16f0f2faf8d7a0d14c09","651c1d321ab7ee0f3832df56","null","null","<p style=""font-size: 60px; font-family: BACS"">NbmQULaA</p>","","","","","","","","",""
"html-keyboard-response","313","515665","0.0-14.0-0.62","5ea171c1a8782801263e7540","650c16f0f2faf8d7a0d14c09","651c1d321ab7ee0f3832df56","null","null","<p style=""font-size: 60px; font-family: BACS"">bcORbdtK</p>","","","","","","","","",""
"html-keyboard-response","314","516673","0.0-14.0-0.63","5ea171c1a8782801263e7540","650c16f0f2faf8d7a0d14c09","651c1d321ab7ee0f3832df56","null","null","<p style=""font-size: 60px; font-family: BACS"">LuNZLcO</p>","","","","","","","","",""
"html-keyboard-response","315","517682","0.0-14.0-0.64","5ea171c1a8782801263e7540","650c16f0f2faf8d7a0d14c09","651c1d321ab7ee0f3832df56","null","null","<p style=""font-size: 60px; font-family: BACS"">OmtlDABb</p>","","","","","","","","",""
"html-keyboard-response","316","518696","0.0-14.0-0.65","5ea171c1a8782801263e7540","650c16f0f2faf8d7a0d14c09","651c1d321ab7ee0f3832df56","null","null","<p style=""font-size: 60px; font-family: BACS"">ObZbAYLU</p>","","","","","","","","",""
"html-keyboard-response","317","519707","0.0-14.0-0.66","5ea171c1a8782801263e7540","650c16f0f2faf8d7a0d14c09","651c1d321ab7ee0f3832df56","null","null","<p style=""font-size: 60px; font-family: BACS"">ZvalvLcO</p>","","","","","","","","",""
"html-keyboard-response","318","520718","0.0-14.0-0.67","5ea171c1a8782801263e7540","650c16f0f2faf8d7a0d14c09","651c1d321ab7ee0f3832df56","null","null","<p style=""font-size: 60px; font-family: BACS"">LuNZlGc</p>","","","","","","","","",""
"html-keyboard-response","319","521723","0.0-14.0-0.68","5ea171c1a8782801263e7540","650c16f0f2faf8d7a0d14c09","651c1d321ab7ee0f3832df56","null","null","<p style=""font-size: 60px; font-family: BACS"">ZvalvYLU</p>","","","","","","","","",""
"html-keyboard-response","320","522737","0.0-14.0-0.69","5ea171c1a8782801263e7540","650c16f0f2faf8d7a0d14c09","651c1d321ab7ee0f3832df56","null","null","<p style=""font-size: 60px; font-family: BACS"">mBbKABb</p>","","","","","","","","",""
"html-keyboard-response","321","523750","0.0-14.0-0.70","5ea171c1a8782801263e7540","650c16f0f2faf8d7a0d14c09","651c1d321ab7ee0f3832df56","null","null","<p style=""font-size: 60px; font-family: BACS"">lBKtbdtK</p>","","","","","","","","",""
"html-keyboard-response","322","524764","0.0-14.0-0.71","5ea171c1a8782801263e7540","650c16f0f2faf8d7a0d14c09","651c1d321ab7ee0f3832df56","null","null","<p style=""font-size: 60px; font-family: BACS"">dvNvAYLU</p>","","","","","","","","",""
"html-keyboard-response","323","525776","0.0-14.0-0.72","5ea171c1a8782801263e7540","650c16f0f2faf8d7a0d14c09","651c1d321ab7ee0f3832df56","null","null","<p style=""font-size: 60px; font-family: BACS"">hmKPMCPMl</p>","","","","","","","","",""
"html-keyboard-response","324","526793","0.0-14.0-0.73","5ea171c1a8782801263e7540","650c16f0f2faf8d7a0d14c09","651c1d321ab7ee0f3832df56","null","null","<p style=""font-size: 60px; font-family: BACS"">bcORbTE</p>","","","","","","","","",""
"html-keyboard-response","325","527807","0.0-14.0-0.74","5ea171c1a8782801263e7540","650c16f0f2faf8d7a0d14c09","651c1d321ab7ee0f3832df56","null","null","<p style=""font-size: 60px; font-family: BACS"">ZJLmrLaA</p>","","","","","","","","",""
"html-keyboard-response","326","528811","0.0-14.0-0.75","5ea171c1a8782801263e7540","650c16f0f2faf8d7a0d14c09","651c1d321ab7ee0f3832df56","null","null","<p style=""font-size: 60px; font-family: BACS"">NulkLcO</p>","","","","","","","","",""
"html-keyboard-response","327","529827","0.0-14.0-0.76","5ea171c1a8782801263e7540","650c16f0f2faf8d7a0d14c09","651c1d321ab7ee0f3832df56","null","null","<p style=""font-size: 60px; font-family: BACS"">ZdlOLaA</p>","","","","","","","","",""
"html-keyboard-response","328","530842","0.0-14.0-0.77","5ea171c1a8782801263e7540","650c16f0f2faf8d7a0d14c09","651c1d321ab7ee0f3832df56","null","null","<p style=""font-size: 60px; font-family: BACS"">PCMPKbTE</p>","","","","","","","","",""
"html-keyboard-response","329","531850","0.0-14.0-0.78","5ea171c1a8782801263e7540","650c16f0f2faf8d7a0d14c09","651c1d321ab7ee0f3832df56","null","null","<p style=""font-size: 60px; font-family: BACS"">NbmQUlGc</p>","","","","","","","","",""
"html-keyboard-response","330","532864","0.0-14.0-0.79","5ea171c1a8782801263e7540","650c16f0f2faf8d7a0d14c09","651c1d321ab7ee0f3832df56","null","null","<p style=""font-size: 60px; font-family: BACS"">hmKPMbdtK</p>","","","","","","","","",""
"html-keyboard-response","331","536381","0.0-15.0","5ea171c1a8782801263e7540","650c16f0f2faf8d7a0d14c09","651c1d321ab7ee0f3832df56","3516"," ","<p>Great, you've seen the fourth block of words. You may now take a short break.</p>
      <p>Press the spacebar when you're ready to continue.</p>","","","","","","","","",""
"html-keyboard-response","332","537383","0.0-16.0-0.0","5ea171c1a8782801263e7540","650c16f0f2faf8d7a0d14c09","651c1d321ab7ee0f3832df56","null","null","<p style=""font-size: 60px; font-family: BACS"">MkmEdCPMl</p>","","","","","","","","",""
"html-keyboard-response","333","538385","0.0-16.0-0.1","5ea171c1a8782801263e7540","650c16f0f2faf8d7a0d14c09","651c1d321ab7ee0f3832df56","null","null","<p style=""font-size: 60px; font-family: BACS"">MkmEdCPMl</p>","","","","","","","","",""
"html-keyboard-response","334","539394","0.0-16.0-0.2","5ea171c1a8782801263e7540","650c16f0f2faf8d7a0d14c09","651c1d321ab7ee0f3832df56","null","null","<p style=""font-size: 60px; font-family: BACS"">MkmEdCPMl</p>","","","","","","","","",""
"html-keyboard-response","335","540403","0.0-16.0-0.3","5ea171c1a8782801263e7540","650c16f0f2faf8d7a0d14c09","651c1d321ab7ee0f3832df56","null","null","<p style=""font-size: 60px; font-family: BACS"">MkmEdCPMl</p>","","","","","","","","",""
"html-keyboard-response","336","541406","0.0-16.0-0.4","5ea171c1a8782801263e7540","650c16f0f2faf8d7a0d14c09","651c1d321ab7ee0f3832df56","null","null","<p style=""font-size: 60px; font-family: BACS"">MkmEdCPMl</p>","","","","","","","","",""
"html-keyboard-response","337","542420","0.0-16.0-0.5","5ea171c1a8782801263e7540","650c16f0f2faf8d7a0d14c09","651c1d321ab7ee0f3832df56","null","null","<p style=""font-size: 60px; font-family: BACS"">MkmEdCPMl</p>","","","","","","","","",""
"html-keyboard-response","338","543433","0.0-16.0-0.6","5ea171c1a8782801263e7540","650c16f0f2faf8d7a0d14c09","651c1d321ab7ee0f3832df56","null","null","<p style=""font-size: 60px; font-family: BACS"">MkmEdCPMl</p>","","","","","","","","",""
"html-keyboard-response","339","544445","0.0-16.0-0.7","5ea171c1a8782801263e7540","650c16f0f2faf8d7a0d14c09","651c1d321ab7ee0f3832df56","null","null","<p style=""font-size: 60px; font-family: BACS"">MkmEdCPMl</p>","","","","","","","","",""
"html-keyboard-response","340","545456","0.0-16.0-0.8","5ea171c1a8782801263e7540","650c16f0f2faf8d7a0d14c09","651c1d321ab7ee0f3832df56","null","null","<p style=""font-size: 60px; font-family: BACS"">MkmEdCPMl</p>","","","","","","","","",""
"html-keyboard-response","341","546469","0.0-16.0-0.9","5ea171c1a8782801263e7540","650c16f0f2faf8d7a0d14c09","651c1d321ab7ee0f3832df56","null","null","<p style=""font-size: 60px; font-family: BACS"">MkmEdCPMl</p>","","","","","","","","",""
"html-keyboard-response","342","547476","0.0-16.0-0.10","5ea171c1a8782801263e7540","650c16f0f2faf8d7a0d14c09","651c1d321ab7ee0f3832df56","null","null","<p style=""font-size: 60px; font-family: BACS"">MkmEdCPMl</p>","","","","","","","","",""
"html-keyboard-response","343","548486","0.0-16.0-0.11","5ea171c1a8782801263e7540","650c16f0f2faf8d7a0d14c09","651c1d321ab7ee0f3832df56","null","null","<p style=""font-size: 60px; font-family: BACS"">MkmEdCPMl</p>","","","","","","","","",""
"html-keyboard-response","344","549500","0.0-16.0-0.12","5ea171c1a8782801263e7540","650c16f0f2faf8d7a0d14c09","651c1d321ab7ee0f3832df56","null","null","<p style=""font-size: 60px; font-family: BACS"">MkmEdCPMl</p>","","","","","","","","",""
"html-keyboard-response","345","550505","0.0-16.0-0.13","5ea171c1a8782801263e7540","650c16f0f2faf8d7a0d14c09","651c1d321ab7ee0f3832df56","null","null","<p style=""font-size: 60px; font-family: BACS"">MkmEdCPMl</p>","","","","","","","","",""
"html-keyboard-response","346","551509","0.0-16.0-0.14","5ea171c1a8782801263e7540","650c16f0f2faf8d7a0d14c09","651c1d321ab7ee0f3832df56","null","null","<p style=""font-size: 60px; font-family: BACS"">MkmEdCPMl</p>","","","","","","","","",""
"html-keyboard-response","347","552510","0.0-16.0-0.15","5ea171c1a8782801263e7540","650c16f0f2faf8d7a0d14c09","651c1d321ab7ee0f3832df56","null","null","<p style=""font-size: 60px; font-family: BACS"">MkmEdCPMl</p>","","","","","","","","",""
"html-keyboard-response","348","553523","0.0-16.0-0.16","5ea171c1a8782801263e7540","650c16f0f2faf8d7a0d14c09","651c1d321ab7ee0f3832df56","null","null","<p style=""font-size: 60px; font-family: BACS"">MkmEdCPMl</p>","","","","","","","","",""
"html-keyboard-response","349","554527","0.0-16.0-0.17","5ea171c1a8782801263e7540","650c16f0f2faf8d7a0d14c09","651c1d321ab7ee0f3832df56","null","null","<p style=""font-size: 60px; font-family: BACS"">MkmEdCPMl</p>","","","","","","","","",""
"html-keyboard-response","350","555529","0.0-16.0-0.18","5ea171c1a8782801263e7540","650c16f0f2faf8d7a0d14c09","651c1d321ab7ee0f3832df56","null","null","<p style=""font-size: 60px; font-family: BACS"">MkmEdCPMl</p>","","","","","","","","",""
"html-keyboard-response","351","556532","0.0-16.0-0.19","5ea171c1a8782801263e7540","650c16f0f2faf8d7a0d14c09","651c1d321ab7ee0f3832df56","null","null","<p style=""font-size: 60px; font-family: BACS"">MkmEdCPMl</p>","","","","","","","","",""
"html-keyboard-response","352","557537","0.0-16.0-0.20","5ea171c1a8782801263e7540","650c16f0f2faf8d7a0d14c09","651c1d321ab7ee0f3832df56","null","null","<p style=""font-size: 60px; font-family: BACS"">MkmEdCPMl</p>","","","","","","","","",""
"html-keyboard-response","353","558547","0.0-16.0-0.21","5ea171c1a8782801263e7540","650c16f0f2faf8d7a0d14c09","651c1d321ab7ee0f3832df56","null","null","<p style=""font-size: 60px; font-family: BACS"">MkmEdCPMl</p>","","","","","","","","",""
"html-keyboard-response","354","559562","0.0-16.0-0.22","5ea171c1a8782801263e7540","650c16f0f2faf8d7a0d14c09","651c1d321ab7ee0f3832df56","null","null","<p style=""font-size: 60px; font-family: BACS"">MkmEdCPMl</p>","","","","","","","","",""
"html-keyboard-response","355","560563","0.0-16.0-0.23","5ea171c1a8782801263e7540","650c16f0f2faf8d7a0d14c09","651c1d321ab7ee0f3832df56","null","null","<p style=""font-size: 60px; font-family: BACS"">MkmEdCPMl</p>","","","","","","","","",""
"html-keyboard-response","356","561579","0.0-16.0-0.24","5ea171c1a8782801263e7540","650c16f0f2faf8d7a0d14c09","651c1d321ab7ee0f3832df56","null","null","<p style=""font-size: 60px; font-family: BACS"">MkmEdCPMl</p>","","","","","","","","",""
"html-keyboard-response","357","562582","0.0-16.0-0.25","5ea171c1a8782801263e7540","650c16f0f2faf8d7a0d14c09","651c1d321ab7ee0f3832df56","null","null","<p style=""font-size: 60px; font-family: BACS"">MkmEdCPMl</p>","","","","","","","","",""
"html-keyboard-response","358","563583","0.0-16.0-0.26","5ea171c1a8782801263e7540","650c16f0f2faf8d7a0d14c09","651c1d321ab7ee0f3832df56","null","null","<p style=""font-size: 60px; font-family: BACS"">MkmEdCPMl</p>","","","","","","","","",""
"html-keyboard-response","359","564596","0.0-16.0-0.27","5ea171c1a8782801263e7540","650c16f0f2faf8d7a0d14c09","651c1d321ab7ee0f3832df56","null","null","<p style=""font-size: 60px; font-family: BACS"">MkmEdCPMl</p>","","","","","","","","",""
"html-keyboard-response","360","565610","0.0-16.0-0.28","5ea171c1a8782801263e7540","650c16f0f2faf8d7a0d14c09","651c1d321ab7ee0f3832df56","null","null","<p style=""font-size: 60px; font-family: BACS"">MkmEdCPMl</p>","","","","","","","","",""
"html-keyboard-response","361","566612","0.0-16.0-0.29","5ea171c1a8782801263e7540","650c16f0f2faf8d7a0d14c09","651c1d321ab7ee0f3832df56","null","null","<p style=""font-size: 60px; font-family: BACS"">MkmEdCPMl</p>","","","","","","","","",""
"html-keyboard-response","362","567620","0.0-16.0-0.30","5ea171c1a8782801263e7540","650c16f0f2faf8d7a0d14c09","651c1d321ab7ee0f3832df56","null","null","<p style=""font-size: 60px; font-family: BACS"">MkmEdCPMl</p>","","","","","","","","",""
"html-keyboard-response","363","568630","0.0-16.0-0.31","5ea171c1a8782801263e7540","650c16f0f2faf8d7a0d14c09","651c1d321ab7ee0f3832df56","null","null","<p style=""font-size: 60px; font-family: BACS"">MkmEdCPMl</p>","","","","","","","","",""
"html-keyboard-response","364","569641","0.0-16.0-0.32","5ea171c1a8782801263e7540","650c16f0f2faf8d7a0d14c09","651c1d321ab7ee0f3832df56","null","null","<p style=""font-size: 60px; font-family: BACS"">MkmEdCPMl</p>","","","","","","","","",""
"html-keyboard-response","365","570655","0.0-16.0-0.33","5ea171c1a8782801263e7540","650c16f0f2faf8d7a0d14c09","651c1d321ab7ee0f3832df56","null","null","<p style=""font-size: 60px; font-family: BACS"">MkmEdCPMl</p>","","","","","","","","",""
"html-keyboard-response","366","571667","0.0-16.0-0.34","5ea171c1a8782801263e7540","650c16f0f2faf8d7a0d14c09","651c1d321ab7ee0f3832df56","null","null","<p style=""font-size: 60px; font-family: BACS"">MkmEdCPMl</p>","","","","","","","","",""
"html-keyboard-response","367","572669","0.0-16.0-0.35","5ea171c1a8782801263e7540","650c16f0f2faf8d7a0d14c09","651c1d321ab7ee0f3832df56","null","null","<p style=""font-size: 60px; font-family: BACS"">MkmEdCPMl</p>","","","","","","","","",""
"html-keyboard-response","368","573678","0.0-16.0-0.36","5ea171c1a8782801263e7540","650c16f0f2faf8d7a0d14c09","651c1d321ab7ee0f3832df56","null","null","<p style=""font-size: 60px; font-family: BACS"">MkmEdCPMl</p>","","","","","","","","",""
"html-keyboard-response","369","574691","0.0-16.0-0.37","5ea171c1a8782801263e7540","650c16f0f2faf8d7a0d14c09","651c1d321ab7ee0f3832df56","null","null","<p style=""font-size: 60px; font-family: BACS"">MkmEdCPMl</p>","","","","","","","","",""
"html-keyboard-response","370","575702","0.0-16.0-0.38","5ea171c1a8782801263e7540","650c16f0f2faf8d7a0d14c09","651c1d321ab7ee0f3832df56","null","null","<p style=""font-size: 60px; font-family: BACS"">MkmEdCPMl</p>","","","","","","","","",""
"html-keyboard-response","371","576704","0.0-16.0-0.39","5ea171c1a8782801263e7540","650c16f0f2faf8d7a0d14c09","651c1d321ab7ee0f3832df56","null","null","<p style=""font-size: 60px; font-family: BACS"">MkmEdCPMl</p>","","","","","","","","",""
"html-keyboard-response","372","577711","0.0-16.0-0.40","5ea171c1a8782801263e7540","650c16f0f2faf8d7a0d14c09","651c1d321ab7ee0f3832df56","null","null","<p style=""font-size: 60px; font-family: BACS"">MkmEdCPMl</p>","","","","","","","","",""
"html-keyboard-response","373","578723","0.0-16.0-0.41","5ea171c1a8782801263e7540","650c16f0f2faf8d7a0d14c09","651c1d321ab7ee0f3832df56","null","null","<p style=""font-size: 60px; font-family: BACS"">MkmEdCPMl</p>","","","","","","","","",""
"html-keyboard-response","374","579736","0.0-16.0-0.42","5ea171c1a8782801263e7540","650c16f0f2faf8d7a0d14c09","651c1d321ab7ee0f3832df56","null","null","<p style=""font-size: 60px; font-family: BACS"">MkmEdCPMl</p>","","","","","","","","",""
"html-keyboard-response","375","580738","0.0-16.0-0.43","5ea171c1a8782801263e7540","650c16f0f2faf8d7a0d14c09","651c1d321ab7ee0f3832df56","null","null","<p style=""font-size: 60px; font-family: BACS"">MkmEdCPMl</p>","","","","","","","","",""
"html-keyboard-response","376","581751","0.0-16.0-0.44","5ea171c1a8782801263e7540","650c16f0f2faf8d7a0d14c09","651c1d321ab7ee0f3832df56","null","null","<p style=""font-size: 60px; font-family: BACS"">MkmEdCPMl</p>","","","","","","","","",""
"html-keyboard-response","377","582752","0.0-16.0-0.45","5ea171c1a8782801263e7540","650c16f0f2faf8d7a0d14c09","651c1d321ab7ee0f3832df56","null","null","<p style=""font-size: 60px; font-family: BACS"">MkmEdCPMl</p>","","","","","","","","",""
"html-keyboard-response","378","583760","0.0-16.0-0.46","5ea171c1a8782801263e7540","650c16f0f2faf8d7a0d14c09","651c1d321ab7ee0f3832df56","null","null","<p style=""font-size: 60px; font-family: BACS"">MkmEdCPMl</p>","","","","","","","","",""
"html-keyboard-response","379","584761","0.0-16.0-0.47","5ea171c1a8782801263e7540","650c16f0f2faf8d7a0d14c09","651c1d321ab7ee0f3832df56","null","null","<p style=""font-size: 60px; font-family: BACS"">MkmEdCPMl</p>","","","","","","","","",""
"html-keyboard-response","380","585770","0.0-16.0-0.48","5ea171c1a8782801263e7540","650c16f0f2faf8d7a0d14c09","651c1d321ab7ee0f3832df56","null","null","<p style=""font-size: 60px; font-family: BACS"">MkmEdCPMl</p>","","","","","","","","",""
"html-keyboard-response","381","586782","0.0-16.0-0.49","5ea171c1a8782801263e7540","650c16f0f2faf8d7a0d14c09","651c1d321ab7ee0f3832df56","null","null","<p style=""font-size: 60px; font-family: BACS"">MkmEdCPMl</p>","","","","","","","","",""
"html-keyboard-response","382","587784","0.0-16.0-0.50","5ea171c1a8782801263e7540","650c16f0f2faf8d7a0d14c09","651c1d321ab7ee0f3832df56","null","null","<p style=""font-size: 60px; font-family: BACS"">MkmEdCPMl</p>","","","","","","","","",""
"html-keyboard-response","383","588791","0.0-16.0-0.51","5ea171c1a8782801263e7540","650c16f0f2faf8d7a0d14c09","651c1d321ab7ee0f3832df56","null","null","<p style=""font-size: 60px; font-family: BACS"">MkmEdCPMl</p>","","","","","","","","",""
"html-keyboard-response","384","589805","0.0-16.0-0.52","5ea171c1a8782801263e7540","650c16f0f2faf8d7a0d14c09","651c1d321ab7ee0f3832df56","null","null","<p style=""font-size: 60px; font-family: BACS"">MkmEdCPMl</p>","","","","","","","","",""
"html-keyboard-response","385","590821","0.0-16.0-0.53","5ea171c1a8782801263e7540","650c16f0f2faf8d7a0d14c09","651c1d321ab7ee0f3832df56","null","null","<p style=""font-size: 60px; font-family: BACS"">MkmEdCPMl</p>","","","","","","","","",""
"html-keyboard-response","386","591832","0.0-16.0-0.54","5ea171c1a8782801263e7540","650c16f0f2faf8d7a0d14c09","651c1d321ab7ee0f3832df56","null","null","<p style=""font-size: 60px; font-family: BACS"">MkmEdCPMl</p>","","","","","","","","",""
"html-keyboard-response","387","592834","0.0-16.0-0.55","5ea171c1a8782801263e7540","650c16f0f2faf8d7a0d14c09","651c1d321ab7ee0f3832df56","null","null","<p style=""font-size: 60px; font-family: BACS"">MkmEdCPMl</p>","","","","","","","","",""
"html-keyboard-response","388","593842","0.0-16.0-0.56","5ea171c1a8782801263e7540","650c16f0f2faf8d7a0d14c09","651c1d321ab7ee0f3832df56","null","null","<p style=""font-size: 60px; font-family: BACS"">MkmEdCPMl</p>","","","","","","","","",""
"html-keyboard-response","389","594844","0.0-16.0-0.57","5ea171c1a8782801263e7540","650c16f0f2faf8d7a0d14c09","651c1d321ab7ee0f3832df56","null","null","<p style=""font-size: 60px; font-family: BACS"">MkmEdCPMl</p>","","","","","","","","",""
"html-keyboard-response","390","595850","0.0-16.0-0.58","5ea171c1a8782801263e7540","650c16f0f2faf8d7a0d14c09","651c1d321ab7ee0f3832df56","null","null","<p style=""font-size: 60px; font-family: BACS"">MkmEdCPMl</p>","","","","","","","","",""
"html-keyboard-response","391","596851","0.0-16.0-0.59","5ea171c1a8782801263e7540","650c16f0f2faf8d7a0d14c09","651c1d321ab7ee0f3832df56","null","null","<p style=""font-size: 60px; font-family: BACS"">MkmEdCPMl</p>","","","","","","","","",""
"html-keyboard-response","392","597859","0.0-16.0-0.60","5ea171c1a8782801263e7540","650c16f0f2faf8d7a0d14c09","651c1d321ab7ee0f3832df56","null","null","<p style=""font-size: 60px; font-family: BACS"">MkmEdCPMl</p>","","","","","","","","",""
"html-keyboard-response","393","598873","0.0-16.0-0.61","5ea171c1a8782801263e7540","650c16f0f2faf8d7a0d14c09","651c1d321ab7ee0f3832df56","null","null","<p style=""font-size: 60px; font-family: BACS"">MkmEdCPMl</p>","","","","","","","","",""
"html-keyboard-response","394","599890","0.0-16.0-0.62","5ea171c1a8782801263e7540","650c16f0f2faf8d7a0d14c09","651c1d321ab7ee0f3832df56","null","null","<p style=""font-size: 60px; font-family: BACS"">MkmEdCPMl</p>","","","","","","","","",""
"html-keyboard-response","395","600896","0.0-16.0-0.63","5ea171c1a8782801263e7540","650c16f0f2faf8d7a0d14c09","651c1d321ab7ee0f3832df56","null","null","<p style=""font-size: 60px; font-family: BACS"">MkmEdCPMl</p>","","","","","","","","",""
"html-keyboard-response","396","601911","0.0-16.0-0.64","5ea171c1a8782801263e7540","650c16f0f2faf8d7a0d14c09","651c1d321ab7ee0f3832df56","null","null","<p style=""font-size: 60px; font-family: BACS"">MkmEdCPMl</p>","","","","","","","","",""
"html-keyboard-response","397","602924","0.0-16.0-0.65","5ea171c1a8782801263e7540","650c16f0f2faf8d7a0d14c09","651c1d321ab7ee0f3832df56","null","null","<p style=""font-size: 60px; font-family: BACS"">MkmEdCPMl</p>","","","","","","","","",""
"html-keyboard-response","398","603926","0.0-16.0-0.66","5ea171c1a8782801263e7540","650c16f0f2faf8d7a0d14c09","651c1d321ab7ee0f3832df56","null","null","<p style=""font-size: 60px; font-family: BACS"">MkmEdCPMl</p>","","","","","","","","",""
"html-keyboard-response","399","604936","0.0-16.0-0.67","5ea171c1a8782801263e7540","650c16f0f2faf8d7a0d14c09","651c1d321ab7ee0f3832df56","null","null","<p style=""font-size: 60px; font-family: BACS"">MkmEdCPMl</p>","","","","","","","","",""
