"trial_type","trial_index","time_elapsed","internal_node_id","subject_id","study_id","session_id","rt","response","stimulus","success","item","task","correct_response","correct","target","confound","name"
"pavlovia","0","2959","0.0-0.0","5e82e99b37d333a1474dda93","64b003020eef62ee308107cc","64b10c58659cbb4789899654","","","","","","","","","","",""
"survey-html-form","1","13168","0.0-1.0","5e82e99b37d333a1474dda93","64b003020eef62ee308107cc","64b10c58659cbb4789899654","10208","{""ID"":""5e82e99b37d333a1474dda93""}","","","","","","","","",""
"html-keyboard-response","2","18061","0.0-2.0","5e82e99b37d333a1474dda93","64b003020eef62ee308107cc","64b10c58659cbb4789899654","4892"," ","<p style=""font-size: 15px;"">Prima di cominciare, le chiediamo di leggere il modulo di consenso informato e confermare la sua volontà di partecipare all'esperimento.</p>
      <p style=""font-size: 15px;""> La preghiamo di ricordare che questo è un progetto di ricerca e che la sua partecipazione è completamente volontaria. Lei si potra' ritirare in qualunque momento, senza necessariamente dover dare alcuna spiegazione. Lo studio al quale Le si chiede di partecipare ha lo scopo di esaminare come i lettori elaborano le parole scritte. La somministrazione delle prove è individuale. Lei sarà impegnato in una sessione di lavoro della durata media di 10 minuti, e un questionario di 10 minuti. L’ordine delle prove ed il loro svolgimento sono stabiliti in modo tale da evitare un eventuale affaticamento. Tutte le prove saranno precedute da un breve addestramento in modo tale che abbia la possibilità di familiarizzare con il compito. Sono previste alcune pause nel corso dello svolgimento dell’esperimento. Una ricompensa di £4 (£8 per ora) Le verrà consegnata al termine della sessione di testing. Nonostante il testing preveda delle prove cognitive, il presente esperimento non costituisce una prova clinica che permetta la diagnosi di eventuali patologie.</p>
      <p style=""font-size: 15px;"">Tutti i dati raccolti grazie alla partecipazione Sua e di altre persone volontarie saranno custoditi in server sicuri e protetti da password, e non sarà consentito ad alcuna persona non autorizzata di accedervi. Le Sue informazioni personali saranno conservate separatamente dai risultati della presente ricerca, cui saranno associati soltanto attraverso un ID arbitrario. Grazie a questo processo di anonimizzazione dei dati, a nessun ricercatore sarà possibile analizzare i risultati sapendo da quale specifico partecipante essi provengono. Inoltre, questa procedura renderà impossibile la Sua identificazione anche nel momento in cui i risultati della ricerca fossero pubblicati su riviste scientifiche, o presentati a congressi o in qualsiasi altro pubblico consesso. Più in generale, i dati raccolti saranno trattati in accordo con le leggi sulla privacy e in conformità al Decreto Legislativo 30 giugno 2003 n. 196 “Codice in materia di protezione dei dati personali” e al Regolamento Europeo 2016/679 (General Data Protection Regulation - GDPR). Il Responsabile della protezione dei dati (RPD) è l’Avv. Valentina Carollo che può essere contattato ai seguenti indirizzi email: <a href=""mailto:dpo@sissa.it"">dpo@sissa.it</a> oppure <a href=""mailto:rpd@sissa.it"">rpd@sissa.it</a> - PEC: <a href=""mailto:protocollo@pec.sissa.it"">protocollo@pec.sissa.it</a>.</p>
      <p style=""font-size: 15px;""> Prima di esprimere il suo consenso alla partecipazione, Le ricordiamo ancora che in caso Lei abbia bisogno di delucidazioni su qualunque aspetto della procedura sperimentale, il ricercatore è a Sua completa disposizione (<a href=""mailto:aliebelt@sissa.it"">aliebelt@sissa.it</a>, <a href=""mailto:davide.crepaldi@sissa.it"">davide.crepaldi@sissa.it</a>).</p>
      <p style=""font-size: 15px;"">Se vuole scaricare il modulo di consenso informato, clicca qui: <a href=""BASL_modulo_consenso.pdf"" download>modulo di consenso</a>.</p>
      <p style=""font-size: 15px;""> Le chiediamo di premere la barra per continuare al consenso.</p>","","","","","","","",""
"survey-html-form","3","42112","0.0-3.0","5e82e99b37d333a1474dda93","64b003020eef62ee308107cc","64b10c58659cbb4789899654","24049","{""consent1"":""YES"",""consent2"":""YES"",""consent3"":""YES"",""consent4"":""YES"",""consent5"":""YES"",""consent6"":""YES""}","","","","","","","","",""
"fullscreen","4","46076","0.0-4.0","5e82e99b37d333a1474dda93","64b003020eef62ee308107cc","64b10c58659cbb4789899654","","","","true","","","","","","",""
"html-keyboard-response","5","62488","0.0-5.0","5e82e99b37d333a1474dda93","64b003020eef62ee308107cc","64b10c58659cbb4789899654","16411"," ","<p>Benvenuta/o, e grazie mille del tuo tempo!</p>
      <p>In questo esperimento sarai un esperto/un'esperta di linguaggio cui è stato chiesto di dare un'occhiata ad alcuni messaggi che la Terra ha ricevuto dallo spazio. Il tuo compito, in questa prima parte dell'esperimento, sarà di fare molta attenzione alle parole che ti verranno mostrate; più tardi, i leader del mondo ti chiederanno qualche informazione su quello che hai visto. Le parole si susseguiranno abbastanza velocemente; sembra che questi alieni abbiano una certa fretta :-) </p>
      <p>Per favore, chiama lo sperimentatore se ha qualche domanda.</p><p>Premi la barra per continuare.</p>","","","","","","","",""
"html-keyboard-response","6","71551","0.0-6.0","5e82e99b37d333a1474dda93","64b003020eef62ee308107cc","64b10c58659cbb4789899654","9061"," ","<p>Ecco un esempio delle parole che vedrai:</p>
      <img src='esempio.png' height='400px'>
      <p>Quando sei pronti per iniziare, premi la barra.</p></div>","","","","","","","",""
"html-keyboard-response","7","72560","0.0-7.0-0.0","5e82e99b37d333a1474dda93","64b003020eef62ee308107cc","64b10c58659cbb4789899654","null","null","<p style=""font-size: 60px; font-family: BACS"">rvOvUOJNk</p>","","","","","","","",""
"html-keyboard-response","8","73563","0.0-7.0-0.1","5e82e99b37d333a1474dda93","64b003020eef62ee308107cc","64b10c58659cbb4789899654","null","null","<p style=""font-size: 60px; font-family: BACS"">PCMPKAkd</p>","","","","","","","",""
"html-keyboard-response","9","74566","0.0-7.0-0.2","5e82e99b37d333a1474dda93","64b003020eef62ee308107cc","64b10c58659cbb4789899654","null","null","<p style=""font-size: 60px; font-family: BACS"">PhktkbAMO</p>","","","","","","","",""
"html-keyboard-response","10","75571","0.0-7.0-0.3","5e82e99b37d333a1474dda93","64b003020eef62ee308107cc","64b10c58659cbb4789899654","null","null","<p style=""font-size: 60px; font-family: BACS"">DBlhPED</p>","","","","","","","",""
"html-keyboard-response","11","76604","0.0-7.0-0.4","5e82e99b37d333a1474dda93","64b003020eef62ee308107cc","64b10c58659cbb4789899654","null","null","<p style=""font-size: 60px; font-family: BACS"">KdARAkd</p>","","","","","","","",""
"html-keyboard-response","12","77627","0.0-7.0-0.5","5e82e99b37d333a1474dda93","64b003020eef62ee308107cc","64b10c58659cbb4789899654","null","null","<p style=""font-size: 60px; font-family: BACS"">khmhbAMO</p>","","","","","","","",""
"html-keyboard-response","13","78639","0.0-7.0-0.6","5e82e99b37d333a1474dda93","64b003020eef62ee308107cc","64b10c58659cbb4789899654","null","null","<p style=""font-size: 60px; font-family: BACS"">dKDthDbMR</p>","","","","","","","",""
"html-keyboard-response","14","79667","0.0-7.0-0.7","5e82e99b37d333a1474dda93","64b003020eef62ee308107cc","64b10c58659cbb4789899654","null","null","<p style=""font-size: 60px; font-family: BACS"">YuaNdbLd</p>","","","","","","","",""
"html-keyboard-response","15","80684","0.0-7.0-0.8","5e82e99b37d333a1474dda93","64b003020eef62ee308107cc","64b10c58659cbb4789899654","null","null","<p style=""font-size: 60px; font-family: BACS"">khmhAkd</p>","","","","","","","",""
"html-keyboard-response","16","81707","0.0-7.0-0.9","5e82e99b37d333a1474dda93","64b003020eef62ee308107cc","64b10c58659cbb4789899654","null","null","<p style=""font-size: 60px; font-family: BACS"">ukcYark</p>","","","","","","","",""
"html-keyboard-response","17","82723","0.0-7.0-0.10","5e82e99b37d333a1474dda93","64b003020eef62ee308107cc","64b10c58659cbb4789899654","null","null","<p style=""font-size: 60px; font-family: BACS"">dNZAOJNk</p>","","","","","","","",""
"html-keyboard-response","18","83746","0.0-7.0-0.11","5e82e99b37d333a1474dda93","64b003020eef62ee308107cc","64b10c58659cbb4789899654","null","null","<p style=""font-size: 60px; font-family: BACS"">UJmrlvk</p>","","","","","","","",""
"html-keyboard-response","19","84763","0.0-7.0-0.12","5e82e99b37d333a1474dda93","64b003020eef62ee308107cc","64b10c58659cbb4789899654","null","null","<p style=""font-size: 60px; font-family: BACS"">OAblcbLd</p>","","","","","","","",""
"html-keyboard-response","20","85788","0.0-7.0-0.13","5e82e99b37d333a1474dda93","64b003020eef62ee308107cc","64b10c58659cbb4789899654","null","null","<p style=""font-size: 60px; font-family: BACS"">ZdNmUJcUk</p>","","","","","","","",""
"html-keyboard-response","21","86799","0.0-7.0-0.14","5e82e99b37d333a1474dda93","64b003020eef62ee308107cc","64b10c58659cbb4789899654","null","null","<p style=""font-size: 60px; font-family: BACS"">DBlhTmTm</p>","","","","","","","",""
"html-keyboard-response","22","87825","0.0-7.0-0.15","5e82e99b37d333a1474dda93","64b003020eef62ee308107cc","64b10c58659cbb4789899654","null","null","<p style=""font-size: 60px; font-family: BACS"">rvOvUlvk</p>","","","","","","","",""
"html-keyboard-response","23","88843","0.0-7.0-0.16","5e82e99b37d333a1474dda93","64b003020eef62ee308107cc","64b10c58659cbb4789899654","null","null","<p style=""font-size: 60px; font-family: BACS"">bYuQark</p>","","","","","","","",""
"html-keyboard-response","24","89867","0.0-7.0-0.17","5e82e99b37d333a1474dda93","64b003020eef62ee308107cc","64b10c58659cbb4789899654","null","null","<p style=""font-size: 60px; font-family: BACS"">PhktkTmTm</p>","","","","","","","",""
"html-keyboard-response","25","90882","0.0-7.0-0.18","5e82e99b37d333a1474dda93","64b003020eef62ee308107cc","64b10c58659cbb4789899654","null","null","<p style=""font-size: 60px; font-family: BACS"">rvOvUark</p>","","","","","","","",""
"html-keyboard-response","26","91907","0.0-7.0-0.19","5e82e99b37d333a1474dda93","64b003020eef62ee308107cc","64b10c58659cbb4789899654","null","null","<p style=""font-size: 60px; font-family: BACS"">vblrbLd</p>","","","","","","","",""
"html-keyboard-response","27","92922","0.0-7.0-0.20","5e82e99b37d333a1474dda93","64b003020eef62ee308107cc","64b10c58659cbb4789899654","null","null","<p style=""font-size: 60px; font-family: BACS"">dKDthTmTm</p>","","","","","","","",""
"html-keyboard-response","28","93947","0.0-7.0-0.21","5e82e99b37d333a1474dda93","64b003020eef62ee308107cc","64b10c58659cbb4789899654","null","null","<p style=""font-size: 60px; font-family: BACS"">alJYlvk</p>","","","","","","","",""
"html-keyboard-response","29","94960","0.0-7.0-0.22","5e82e99b37d333a1474dda93","64b003020eef62ee308107cc","64b10c58659cbb4789899654","null","null","<p style=""font-size: 60px; font-family: BACS"">YuaNdark</p>","","","","","","","",""
"html-keyboard-response","30","95984","0.0-7.0-0.23","5e82e99b37d333a1474dda93","64b003020eef62ee308107cc","64b10c58659cbb4789899654","null","null","<p style=""font-size: 60px; font-family: BACS"">htmhCbAMO</p>","","","","","","","",""
"html-keyboard-response","31","97002","0.0-7.0-0.24","5e82e99b37d333a1474dda93","64b003020eef62ee308107cc","64b10c58659cbb4789899654","null","null","<p style=""font-size: 60px; font-family: BACS"">MBmEPED</p>","","","","","","","",""
"html-keyboard-response","32","98027","0.0-7.0-0.25","5e82e99b37d333a1474dda93","64b003020eef62ee308107cc","64b10c58659cbb4789899654","null","null","<p style=""font-size: 60px; font-family: BACS"">lRCBbAMO</p>","","","","","","","",""
"html-keyboard-response","33","99043","0.0-7.0-0.26","5e82e99b37d333a1474dda93","64b003020eef62ee308107cc","64b10c58659cbb4789899654","null","null","<p style=""font-size: 60px; font-family: BACS"">UJmrark</p>","","","","","","","",""
"html-keyboard-response","34","100064","0.0-7.0-0.27","5e82e99b37d333a1474dda93","64b003020eef62ee308107cc","64b10c58659cbb4789899654","null","null","<p style=""font-size: 60px; font-family: BACS"">DBlhAkd</p>","","","","","","","",""
"html-keyboard-response","35","101084","0.0-7.0-0.28","5e82e99b37d333a1474dda93","64b003020eef62ee308107cc","64b10c58659cbb4789899654","null","null","<p style=""font-size: 60px; font-family: BACS"">ZdNmUark</p>","","","","","","","",""
"html-keyboard-response","36","102106","0.0-7.0-0.29","5e82e99b37d333a1474dda93","64b003020eef62ee308107cc","64b10c58659cbb4789899654","null","null","<p style=""font-size: 60px; font-family: BACS"">PhktkPED</p>","","","","","","","",""
"html-keyboard-response","37","103123","0.0-7.0-0.30","5e82e99b37d333a1474dda93","64b003020eef62ee308107cc","64b10c58659cbb4789899654","null","null","<p style=""font-size: 60px; font-family: BACS"">MBmEbAMO</p>","","","","","","","",""
"html-keyboard-response","38","104147","0.0-7.0-0.31","5e82e99b37d333a1474dda93","64b003020eef62ee308107cc","64b10c58659cbb4789899654","null","null","<p style=""font-size: 60px; font-family: BACS"">ukcYOJNk</p>","","","","","","","",""
"html-keyboard-response","39","105162","0.0-7.0-0.32","5e82e99b37d333a1474dda93","64b003020eef62ee308107cc","64b10c58659cbb4789899654","null","null","<p style=""font-size: 60px; font-family: BACS"">YuaNdJcUk</p>","","","","","","","",""
"html-keyboard-response","40","106186","0.0-7.0-0.33","5e82e99b37d333a1474dda93","64b003020eef62ee308107cc","64b10c58659cbb4789899654","null","null","<p style=""font-size: 60px; font-family: BACS"">lRCBAkd</p>","","","","","","","",""
"html-keyboard-response","41","108128","0.0-7.0-0.34","5e82e99b37d333a1474dda93","64b003020eef62ee308107cc","64b10c58659cbb4789899654","null","null","<p style=""font-size: 60px; font-family: BACS"">ukcYlvk</p>","","","","","","","",""
"html-keyboard-response","42","109131","0.0-7.0-0.35","5e82e99b37d333a1474dda93","64b003020eef62ee308107cc","64b10c58659cbb4789899654","null","null","<p style=""font-size: 60px; font-family: BACS"">DBlhDbMR</p>","","","","","","","",""
"html-keyboard-response","43","110135","0.0-7.0-0.36","5e82e99b37d333a1474dda93","64b003020eef62ee308107cc","64b10c58659cbb4789899654","null","null","<p style=""font-size: 60px; font-family: BACS"">YKRkPED</p>","","","","","","","",""
"html-keyboard-response","44","111144","0.0-7.0-0.37","5e82e99b37d333a1474dda93","64b003020eef62ee308107cc","64b10c58659cbb4789899654","null","null","<p style=""font-size: 60px; font-family: BACS"">KdARbAMO</p>","","","","","","","",""
"html-keyboard-response","45","112155","0.0-7.0-0.38","5e82e99b37d333a1474dda93","64b003020eef62ee308107cc","64b10c58659cbb4789899654","null","null","<p style=""font-size: 60px; font-family: BACS"">dKDthAkd</p>","","","","","","","",""
"html-keyboard-response","46","113163","0.0-7.0-0.39","5e82e99b37d333a1474dda93","64b003020eef62ee308107cc","64b10c58659cbb4789899654","null","null","<p style=""font-size: 60px; font-family: BACS"">bYuQbLd</p>","","","","","","","",""
"html-keyboard-response","47","114172","0.0-7.0-0.40","5e82e99b37d333a1474dda93","64b003020eef62ee308107cc","64b10c58659cbb4789899654","null","null","<p style=""font-size: 60px; font-family: BACS"">PCMPKTmTm</p>","","","","","","","",""
"html-keyboard-response","48","115187","0.0-7.0-0.41","5e82e99b37d333a1474dda93","64b003020eef62ee308107cc","64b10c58659cbb4789899654","null","null","<p style=""font-size: 60px; font-family: BACS"">ZdNmUbLd</p>","","","","","","","",""
"html-keyboard-response","49","116203","0.0-7.0-0.42","5e82e99b37d333a1474dda93","64b003020eef62ee308107cc","64b10c58659cbb4789899654","null","null","<p style=""font-size: 60px; font-family: BACS"">htmhCAkd</p>","","","","","","","",""
"html-keyboard-response","50","117224","0.0-7.0-0.43","5e82e99b37d333a1474dda93","64b003020eef62ee308107cc","64b10c58659cbb4789899654","null","null","<p style=""font-size: 60px; font-family: BACS"">YKRkbAMO</p>","","","","","","","",""
"html-keyboard-response","51","118240","0.0-7.0-0.44","5e82e99b37d333a1474dda93","64b003020eef62ee308107cc","64b10c58659cbb4789899654","null","null","<p style=""font-size: 60px; font-family: BACS"">lRCBTmTm</p>","","","","","","","",""
"html-keyboard-response","52","119267","0.0-7.0-0.45","5e82e99b37d333a1474dda93","64b003020eef62ee308107cc","64b10c58659cbb4789899654","null","null","<p style=""font-size: 60px; font-family: BACS"">vblrark</p>","","","","","","","",""
"html-keyboard-response","53","120280","0.0-7.0-0.46","5e82e99b37d333a1474dda93","64b003020eef62ee308107cc","64b10c58659cbb4789899654","null","null","<p style=""font-size: 60px; font-family: BACS"">alJYJcUk</p>","","","","","","","",""
"html-keyboard-response","54","121307","0.0-7.0-0.47","5e82e99b37d333a1474dda93","64b003020eef62ee308107cc","64b10c58659cbb4789899654","null","null","<p style=""font-size: 60px; font-family: BACS"">dKDthbAMO</p>","","","","","","","",""
"html-keyboard-response","55","122321","0.0-7.0-0.48","5e82e99b37d333a1474dda93","64b003020eef62ee308107cc","64b10c58659cbb4789899654","null","null","<p style=""font-size: 60px; font-family: BACS"">ZdNmUOJNk</p>","","","","","","","",""
"html-keyboard-response","56","123346","0.0-7.0-0.49","5e82e99b37d333a1474dda93","64b003020eef62ee308107cc","64b10c58659cbb4789899654","null","null","<p style=""font-size: 60px; font-family: BACS"">MBmEAkd</p>","","","","","","","",""
"html-keyboard-response","57","124363","0.0-7.0-0.50","5e82e99b37d333a1474dda93","64b003020eef62ee308107cc","64b10c58659cbb4789899654","null","null","<p style=""font-size: 60px; font-family: BACS"">OAblcJcUk</p>","","","","","","","",""
"html-keyboard-response","58","125387","0.0-7.0-0.51","5e82e99b37d333a1474dda93","64b003020eef62ee308107cc","64b10c58659cbb4789899654","null","null","<p style=""font-size: 60px; font-family: BACS"">YuaNdOJNk</p>","","","","","","","",""
"html-keyboard-response","59","126400","0.0-7.0-0.52","5e82e99b37d333a1474dda93","64b003020eef62ee308107cc","64b10c58659cbb4789899654","null","null","<p style=""font-size: 60px; font-family: BACS"">lRCBDbMR</p>","","","","","","","",""
"html-keyboard-response","60","127424","0.0-7.0-0.53","5e82e99b37d333a1474dda93","64b003020eef62ee308107cc","64b10c58659cbb4789899654","null","null","<p style=""font-size: 60px; font-family: BACS"">rvOvUbLd</p>","","","","","","","",""
"html-keyboard-response","61","128443","0.0-7.0-0.54","5e82e99b37d333a1474dda93","64b003020eef62ee308107cc","64b10c58659cbb4789899654","null","null","<p style=""font-size: 60px; font-family: BACS"">OAblclvk</p>","","","","","","","",""
"html-keyboard-response","62","129463","0.0-7.0-0.55","5e82e99b37d333a1474dda93","64b003020eef62ee308107cc","64b10c58659cbb4789899654","null","null","<p style=""font-size: 60px; font-family: BACS"">ukcYJcUk</p>","","","","","","","",""
"html-keyboard-response","63","130481","0.0-7.0-0.56","5e82e99b37d333a1474dda93","64b003020eef62ee308107cc","64b10c58659cbb4789899654","null","null","<p style=""font-size: 60px; font-family: BACS"">KdARTmTm</p>","","","","","","","",""
"html-keyboard-response","64","131507","0.0-7.0-0.57","5e82e99b37d333a1474dda93","64b003020eef62ee308107cc","64b10c58659cbb4789899654","null","null","<p style=""font-size: 60px; font-family: BACS"">htmhCDbMR</p>","","","","","","","",""
"html-keyboard-response","65","132523","0.0-7.0-0.58","5e82e99b37d333a1474dda93","64b003020eef62ee308107cc","64b10c58659cbb4789899654","null","null","<p style=""font-size: 60px; font-family: BACS"">dNZAbLd</p>","","","","","","","",""
"html-keyboard-response","66","133547","0.0-7.0-0.59","5e82e99b37d333a1474dda93","64b003020eef62ee308107cc","64b10c58659cbb4789899654","null","null","<p style=""font-size: 60px; font-family: BACS"">khmhDbMR</p>","","","","","","","",""
"html-keyboard-response","67","134563","0.0-7.0-0.60","5e82e99b37d333a1474dda93","64b003020eef62ee308107cc","64b10c58659cbb4789899654","null","null","<p style=""font-size: 60px; font-family: BACS"">alJYark</p>","","","","","","","",""
"html-keyboard-response","68","135587","0.0-7.0-0.61","5e82e99b37d333a1474dda93","64b003020eef62ee308107cc","64b10c58659cbb4789899654","null","null","<p style=""font-size: 60px; font-family: BACS"">KdARPED</p>","","","","","","","",""
"html-keyboard-response","69","136603","0.0-7.0-0.62","5e82e99b37d333a1474dda93","64b003020eef62ee308107cc","64b10c58659cbb4789899654","null","null","<p style=""font-size: 60px; font-family: BACS"">UJmrJcUk</p>","","","","","","","",""
"html-keyboard-response","70","137627","0.0-7.0-0.63","5e82e99b37d333a1474dda93","64b003020eef62ee308107cc","64b10c58659cbb4789899654","null","null","<p style=""font-size: 60px; font-family: BACS"">MBmETmTm</p>","","","","","","","",""
"html-keyboard-response","71","138638","0.0-7.0-0.64","5e82e99b37d333a1474dda93","64b003020eef62ee308107cc","64b10c58659cbb4789899654","null","null","<p style=""font-size: 60px; font-family: BACS"">htmhCPED</p>","","","","","","","",""
"html-keyboard-response","72","139667","0.0-7.0-0.65","5e82e99b37d333a1474dda93","64b003020eef62ee308107cc","64b10c58659cbb4789899654","null","null","<p style=""font-size: 60px; font-family: BACS"">PCMPKDbMR</p>","","","","","","","",""
"html-keyboard-response","73","140683","0.0-7.0-0.66","5e82e99b37d333a1474dda93","64b003020eef62ee308107cc","64b10c58659cbb4789899654","null","null","<p style=""font-size: 60px; font-family: BACS"">alJYOJNk</p>","","","","","","","",""
"html-keyboard-response","74","141707","0.0-7.0-0.67","5e82e99b37d333a1474dda93","64b003020eef62ee308107cc","64b10c58659cbb4789899654","null","null","<p style=""font-size: 60px; font-family: BACS"">vblrlvk</p>","","","","","","","",""
"html-keyboard-response","75","142723","0.0-7.0-0.68","5e82e99b37d333a1474dda93","64b003020eef62ee308107cc","64b10c58659cbb4789899654","null","null","<p style=""font-size: 60px; font-family: BACS"">YKRkTmTm</p>","","","","","","","",""
"html-keyboard-response","76","143743","0.0-7.0-0.69","5e82e99b37d333a1474dda93","64b003020eef62ee308107cc","64b10c58659cbb4789899654","null","null","<p style=""font-size: 60px; font-family: BACS"">bYuQJcUk</p>","","","","","","","",""
"html-keyboard-response","77","145128","0.0-7.0-0.70","5e82e99b37d333a1474dda93","64b003020eef62ee308107cc","64b10c58659cbb4789899654","null","null","<p style=""font-size: 60px; font-family: BACS"">vblrOJNk</p>","","","","","","","",""
"html-keyboard-response","78","146131","0.0-7.0-0.71","5e82e99b37d333a1474dda93","64b003020eef62ee308107cc","64b10c58659cbb4789899654","null","null","<p style=""font-size: 60px; font-family: BACS"">YKRkDbMR</p>","","","","","","","",""
"html-keyboard-response","79","147132","0.0-7.0-0.72","5e82e99b37d333a1474dda93","64b003020eef62ee308107cc","64b10c58659cbb4789899654","null","null","<p style=""font-size: 60px; font-family: BACS"">dNZAJcUk</p>","","","","","","","",""
"html-keyboard-response","80","148134","0.0-7.0-0.73","5e82e99b37d333a1474dda93","64b003020eef62ee308107cc","64b10c58659cbb4789899654","null","null","<p style=""font-size: 60px; font-family: BACS"">UJmrbLd</p>","","","","","","","",""
"html-keyboard-response","81","150130","0.0-7.0-0.74","5e82e99b37d333a1474dda93","64b003020eef62ee308107cc","64b10c58659cbb4789899654","null","null","<p style=""font-size: 60px; font-family: BACS"">PhktkDbMR</p>","","","","","","","",""
"html-keyboard-response","82","152126","0.0-7.0-0.75","5e82e99b37d333a1474dda93","64b003020eef62ee308107cc","64b10c58659cbb4789899654","null","null","<p style=""font-size: 60px; font-family: BACS"">dNZAlvk</p>","","","","","","","",""
"html-keyboard-response","83","153128","0.0-7.0-0.76","5e82e99b37d333a1474dda93","64b003020eef62ee308107cc","64b10c58659cbb4789899654","null","null","<p style=""font-size: 60px; font-family: BACS"">PCMPKPED</p>","","","","","","","",""
"html-keyboard-response","84","154131","0.0-7.0-0.77","5e82e99b37d333a1474dda93","64b003020eef62ee308107cc","64b10c58659cbb4789899654","null","null","<p style=""font-size: 60px; font-family: BACS"">bYuQlvk</p>","","","","","","","",""
"html-keyboard-response","85","155134","0.0-7.0-0.78","5e82e99b37d333a1474dda93","64b003020eef62ee308107cc","64b10c58659cbb4789899654","null","null","<p style=""font-size: 60px; font-family: BACS"">khmhPED</p>","","","","","","","",""
"html-keyboard-response","86","157131","0.0-7.0-0.79","5e82e99b37d333a1474dda93","64b003020eef62ee308107cc","64b10c58659cbb4789899654","null","null","<p style=""font-size: 60px; font-family: BACS"">OAblcOJNk</p>","","","","","","","",""
"html-keyboard-response","87","162478","0.0-8.0","5e82e99b37d333a1474dda93","64b003020eef62ee308107cc","64b10c58659cbb4789899654","5345"," ","<p>Ottimo, hai visto il primo blocco di parole. Ora puoi prenderti una piccola pausa.</p>
      <p>Premi la barra quando sei pronta/o per riprendere.</p>","","","","","","","",""
"html-keyboard-response","88","163489","0.0-9.0-0.0","5e82e99b37d333a1474dda93","64b003020eef62ee308107cc","64b10c58659cbb4789899654","null","null","<p style=""font-size: 60px; font-family: BACS"">htmhCAkd</p>","","","","","","","",""
"html-keyboard-response","89","164499","0.0-9.0-0.1","5e82e99b37d333a1474dda93","64b003020eef62ee308107cc","64b10c58659cbb4789899654","null","null","<p style=""font-size: 60px; font-family: BACS"">MBmEbAMO</p>","","","","","","","",""
"html-keyboard-response","90","165506","0.0-9.0-0.2","5e82e99b37d333a1474dda93","64b003020eef62ee308107cc","64b10c58659cbb4789899654","null","null","<p style=""font-size: 60px; font-family: BACS"">KdARAkd</p>","","","","","","","",""
"html-keyboard-response","91","166512","0.0-9.0-0.3","5e82e99b37d333a1474dda93","64b003020eef62ee308107cc","64b10c58659cbb4789899654","null","null","<p style=""font-size: 60px; font-family: BACS"">OAblcbLd</p>","","","","","","","",""
"html-keyboard-response","92","167526","0.0-9.0-0.4","5e82e99b37d333a1474dda93","64b003020eef62ee308107cc","64b10c58659cbb4789899654","null","null","<p style=""font-size: 60px; font-family: BACS"">bYuQJcUk</p>","","","","","","","",""
"html-keyboard-response","93","168549","0.0-9.0-0.5","5e82e99b37d333a1474dda93","64b003020eef62ee308107cc","64b10c58659cbb4789899654","null","null","<p style=""font-size: 60px; font-family: BACS"">khmhAkd</p>","","","","","","","",""
"html-keyboard-response","94","169570","0.0-9.0-0.6","5e82e99b37d333a1474dda93","64b003020eef62ee308107cc","64b10c58659cbb4789899654","null","null","<p style=""font-size: 60px; font-family: BACS"">htmhCDbMR</p>","","","","","","","",""
"html-keyboard-response","95","170594","0.0-9.0-0.7","5e82e99b37d333a1474dda93","64b003020eef62ee308107cc","64b10c58659cbb4789899654","null","null","<p style=""font-size: 60px; font-family: BACS"">DBlhAkd</p>","","","","","","","",""
"html-keyboard-response","96","171611","0.0-9.0-0.8","5e82e99b37d333a1474dda93","64b003020eef62ee308107cc","64b10c58659cbb4789899654","null","null","<p style=""font-size: 60px; font-family: BACS"">YKRkPED</p>","","","","","","","",""
"html-keyboard-response","97","172633","0.0-9.0-0.9","5e82e99b37d333a1474dda93","64b003020eef62ee308107cc","64b10c58659cbb4789899654","null","null","<p style=""font-size: 60px; font-family: BACS"">YuaNdOJNk</p>","","","","","","","",""
"html-keyboard-response","98","173650","0.0-9.0-0.10","5e82e99b37d333a1474dda93","64b003020eef62ee308107cc","64b10c58659cbb4789899654","null","null","<p style=""font-size: 60px; font-family: BACS"">vblrbLd</p>","","","","","","","",""
"html-keyboard-response","99","174675","0.0-9.0-0.11","5e82e99b37d333a1474dda93","64b003020eef62ee308107cc","64b10c58659cbb4789899654","null","null","<p style=""font-size: 60px; font-family: BACS"">htmhCbAMO</p>","","","","","","","",""
"html-keyboard-response","100","175691","0.0-9.0-0.12","5e82e99b37d333a1474dda93","64b003020eef62ee308107cc","64b10c58659cbb4789899654","null","null","<p style=""font-size: 60px; font-family: BACS"">alJYJcUk</p>","","","","","","","",""
"html-keyboard-response","101","176715","0.0-9.0-0.13","5e82e99b37d333a1474dda93","64b003020eef62ee308107cc","64b10c58659cbb4789899654","null","null","<p style=""font-size: 60px; font-family: BACS"">YKRkDbMR</p>","","","","","","","",""
"html-keyboard-response","102","177729","0.0-9.0-0.14","5e82e99b37d333a1474dda93","64b003020eef62ee308107cc","64b10c58659cbb4789899654","null","null","<p style=""font-size: 60px; font-family: BACS"">DBlhPED</p>","","","","","","","",""
"html-keyboard-response","103","178755","0.0-9.0-0.15","5e82e99b37d333a1474dda93","64b003020eef62ee308107cc","64b10c58659cbb4789899654","null","null","<p style=""font-size: 60px; font-family: BACS"">rvOvUark</p>","","","","","","","",""
"html-keyboard-response","104","179771","0.0-9.0-0.16","5e82e99b37d333a1474dda93","64b003020eef62ee308107cc","64b10c58659cbb4789899654","null","null","<p style=""font-size: 60px; font-family: BACS"">ukcYlvk</p>","","","","","","","",""
"html-keyboard-response","105","180795","0.0-9.0-0.17","5e82e99b37d333a1474dda93","64b003020eef62ee308107cc","64b10c58659cbb4789899654","null","null","<p style=""font-size: 60px; font-family: BACS"">KdARPED</p>","","","","","","","",""
"html-keyboard-response","106","181810","0.0-9.0-0.18","5e82e99b37d333a1474dda93","64b003020eef62ee308107cc","64b10c58659cbb4789899654","null","null","<p style=""font-size: 60px; font-family: BACS"">YuaNdbLd</p>","","","","","","","",""
"html-keyboard-response","107","182834","0.0-9.0-0.19","5e82e99b37d333a1474dda93","64b003020eef62ee308107cc","64b10c58659cbb4789899654","null","null","<p style=""font-size: 60px; font-family: BACS"">MBmEAkd</p>","","","","","","","",""
"html-keyboard-response","108","183851","0.0-9.0-0.20","5e82e99b37d333a1474dda93","64b003020eef62ee308107cc","64b10c58659cbb4789899654","null","null","<p style=""font-size: 60px; font-family: BACS"">ukcYark</p>","","","","","","","",""
"html-keyboard-response","109","184874","0.0-9.0-0.21","5e82e99b37d333a1474dda93","64b003020eef62ee308107cc","64b10c58659cbb4789899654","null","null","<p style=""font-size: 60px; font-family: BACS"">khmhDbMR</p>","","","","","","","",""
"html-keyboard-response","110","185890","0.0-9.0-0.22","5e82e99b37d333a1474dda93","64b003020eef62ee308107cc","64b10c58659cbb4789899654","null","null","<p style=""font-size: 60px; font-family: BACS"">KdARbAMO</p>","","","","","","","",""
"html-keyboard-response","111","186912","0.0-9.0-0.23","5e82e99b37d333a1474dda93","64b003020eef62ee308107cc","64b10c58659cbb4789899654","null","null","<p style=""font-size: 60px; font-family: BACS"">ZdNmUJcUk</p>","","","","","","","",""
"html-keyboard-response","112","187930","0.0-9.0-0.24","5e82e99b37d333a1474dda93","64b003020eef62ee308107cc","64b10c58659cbb4789899654","null","null","<p style=""font-size: 60px; font-family: BACS"">YuaNdark</p>","","","","","","","",""
"html-keyboard-response","113","188953","0.0-9.0-0.25","5e82e99b37d333a1474dda93","64b003020eef62ee308107cc","64b10c58659cbb4789899654","null","null","<p style=""font-size: 60px; font-family: BACS"">dNZAlvk</p>","","","","","","","",""
"html-keyboard-response","114","189969","0.0-9.0-0.26","5e82e99b37d333a1474dda93","64b003020eef62ee308107cc","64b10c58659cbb4789899654","null","null","<p style=""font-size: 60px; font-family: BACS"">PhktkDbMR</p>","","","","","","","",""
"html-keyboard-response","115","190995","0.0-9.0-0.27","5e82e99b37d333a1474dda93","64b003020eef62ee308107cc","64b10c58659cbb4789899654","null","null","<p style=""font-size: 60px; font-family: BACS"">DBlhTmTm</p>","","","","","","","",""
"html-keyboard-response","116","192010","0.0-9.0-0.28","5e82e99b37d333a1474dda93","64b003020eef62ee308107cc","64b10c58659cbb4789899654","null","null","<p style=""font-size: 60px; font-family: BACS"">rvOvUlvk</p>","","","","","","","",""
"html-keyboard-response","117","193032","0.0-9.0-0.29","5e82e99b37d333a1474dda93","64b003020eef62ee308107cc","64b10c58659cbb4789899654","null","null","<p style=""font-size: 60px; font-family: BACS"">ZdNmUbLd</p>","","","","","","","",""
"html-keyboard-response","118","194051","0.0-9.0-0.30","5e82e99b37d333a1474dda93","64b003020eef62ee308107cc","64b10c58659cbb4789899654","null","null","<p style=""font-size: 60px; font-family: BACS"">UJmrlvk</p>","","","","","","","",""
"html-keyboard-response","119","195072","0.0-9.0-0.31","5e82e99b37d333a1474dda93","64b003020eef62ee308107cc","64b10c58659cbb4789899654","null","null","<p style=""font-size: 60px; font-family: BACS"">bYuQbLd</p>","","","","","","","",""
"html-keyboard-response","120","196086","0.0-9.0-0.32","5e82e99b37d333a1474dda93","64b003020eef62ee308107cc","64b10c58659cbb4789899654","null","null","<p style=""font-size: 60px; font-family: BACS"">dKDthDbMR</p>","","","","","","","",""
"html-keyboard-response","121","197114","0.0-9.0-0.33","5e82e99b37d333a1474dda93","64b003020eef62ee308107cc","64b10c58659cbb4789899654","null","null","<p style=""font-size: 60px; font-family: BACS"">ukcYJcUk</p>","","","","","","","",""
"html-keyboard-response","122","198131","0.0-9.0-0.34","5e82e99b37d333a1474dda93","64b003020eef62ee308107cc","64b10c58659cbb4789899654","null","null","<p style=""font-size: 60px; font-family: BACS"">KdARTmTm</p>","","","","","","","",""
"html-keyboard-response","123","199132","0.0-9.0-0.35","5e82e99b37d333a1474dda93","64b003020eef62ee308107cc","64b10c58659cbb4789899654","null","null","<p style=""font-size: 60px; font-family: BACS"">PCMPKPED</p>","","","","","","","",""
"html-keyboard-response","124","201129","0.0-9.0-0.36","5e82e99b37d333a1474dda93","64b003020eef62ee308107cc","64b10c58659cbb4789899654","null","null","<p style=""font-size: 60px; font-family: BACS"">alJYOJNk</p>","","","","","","","",""
"html-keyboard-response","125","202132","0.0-9.0-0.37","5e82e99b37d333a1474dda93","64b003020eef62ee308107cc","64b10c58659cbb4789899654","null","null","<p style=""font-size: 60px; font-family: BACS"">PCMPKAkd</p>","","","","","","","",""
"html-keyboard-response","126","204131","0.0-9.0-0.38","5e82e99b37d333a1474dda93","64b003020eef62ee308107cc","64b10c58659cbb4789899654","null","null","<p style=""font-size: 60px; font-family: BACS"">UJmrJcUk</p>","","","","","","","",""
"html-keyboard-response","127","205132","0.0-9.0-0.39","5e82e99b37d333a1474dda93","64b003020eef62ee308107cc","64b10c58659cbb4789899654","null","null","<p style=""font-size: 60px; font-family: BACS"">khmhbAMO</p>","","","","","","","",""
"html-keyboard-response","128","206132","0.0-9.0-0.40","5e82e99b37d333a1474dda93","64b003020eef62ee308107cc","64b10c58659cbb4789899654","null","null","<p style=""font-size: 60px; font-family: BACS"">vblrlvk</p>","","","","","","","",""
"html-keyboard-response","129","208127","0.0-9.0-0.41","5e82e99b37d333a1474dda93","64b003020eef62ee308107cc","64b10c58659cbb4789899654","null","null","<p style=""font-size: 60px; font-family: BACS"">UJmrbLd</p>","","","","","","","",""
"html-keyboard-response","130","209131","0.0-9.0-0.42","5e82e99b37d333a1474dda93","64b003020eef62ee308107cc","64b10c58659cbb4789899654","null","null","<p style=""font-size: 60px; font-family: BACS"">PhktkbAMO</p>","","","","","","","",""
"html-keyboard-response","131","211130","0.0-9.0-0.43","5e82e99b37d333a1474dda93","64b003020eef62ee308107cc","64b10c58659cbb4789899654","null","null","<p style=""font-size: 60px; font-family: BACS"">YuaNdJcUk</p>","","","","","","","",""
"html-keyboard-response","132","213130","0.0-9.0-0.44","5e82e99b37d333a1474dda93","64b003020eef62ee308107cc","64b10c58659cbb4789899654","null","null","<p style=""font-size: 60px; font-family: BACS"">dNZAbLd</p>","","","","","","","",""
"html-keyboard-response","133","214133","0.0-9.0-0.45","5e82e99b37d333a1474dda93","64b003020eef62ee308107cc","64b10c58659cbb4789899654","null","null","<p style=""font-size: 60px; font-family: BACS"">dKDthbAMO</p>","","","","","","","",""
"html-keyboard-response","134","216131","0.0-9.0-0.46","5e82e99b37d333a1474dda93","64b003020eef62ee308107cc","64b10c58659cbb4789899654","null","null","<p style=""font-size: 60px; font-family: BACS"">OAblclvk</p>","","","","","","","",""
"html-keyboard-response","135","218130","0.0-9.0-0.47","5e82e99b37d333a1474dda93","64b003020eef62ee308107cc","64b10c58659cbb4789899654","null","null","<p style=""font-size: 60px; font-family: BACS"">DBlhDbMR</p>","","","","","","","",""
"html-keyboard-response","136","220131","0.0-9.0-0.48","5e82e99b37d333a1474dda93","64b003020eef62ee308107cc","64b10c58659cbb4789899654","null","null","<p style=""font-size: 60px; font-family: BACS"">MBmETmTm</p>","","","","","","","",""
"html-keyboard-response","137","221132","0.0-9.0-0.49","5e82e99b37d333a1474dda93","64b003020eef62ee308107cc","64b10c58659cbb4789899654","null","null","<p style=""font-size: 60px; font-family: BACS"">rvOvUOJNk</p>","","","","","","","",""
"html-keyboard-response","138","223130","0.0-9.0-0.50","5e82e99b37d333a1474dda93","64b003020eef62ee308107cc","64b10c58659cbb4789899654","null","null","<p style=""font-size: 60px; font-family: BACS"">YKRkTmTm</p>","","","","","","","",""
"html-keyboard-response","139","225131","0.0-9.0-0.51","5e82e99b37d333a1474dda93","64b003020eef62ee308107cc","64b10c58659cbb4789899654","null","null","<p style=""font-size: 60px; font-family: BACS"">rvOvUbLd</p>","","","","","","","",""
"html-keyboard-response","140","227127","0.0-9.0-0.52","5e82e99b37d333a1474dda93","64b003020eef62ee308107cc","64b10c58659cbb4789899654","null","null","<p style=""font-size: 60px; font-family: BACS"">ZdNmUOJNk</p>","","","","","","","",""
"html-keyboard-response","141","228131","0.0-9.0-0.53","5e82e99b37d333a1474dda93","64b003020eef62ee308107cc","64b10c58659cbb4789899654","null","null","<p style=""font-size: 60px; font-family: BACS"">bYuQark</p>","","","","","","","",""
"html-keyboard-response","142","229133","0.0-9.0-0.54","5e82e99b37d333a1474dda93","64b003020eef62ee308107cc","64b10c58659cbb4789899654","null","null","<p style=""font-size: 60px; font-family: BACS"">alJYlvk</p>","","","","","","","",""
"html-keyboard-response","143","231130","0.0-9.0-0.55","5e82e99b37d333a1474dda93","64b003020eef62ee308107cc","64b10c58659cbb4789899654","null","null","<p style=""font-size: 60px; font-family: BACS"">PCMPKDbMR</p>","","","","","","","",""
"html-keyboard-response","144","232133","0.0-9.0-0.56","5e82e99b37d333a1474dda93","64b003020eef62ee308107cc","64b10c58659cbb4789899654","null","null","<p style=""font-size: 60px; font-family: BACS"">dNZAOJNk</p>","","","","","","","",""
"html-keyboard-response","145","234130","0.0-9.0-0.57","5e82e99b37d333a1474dda93","64b003020eef62ee308107cc","64b10c58659cbb4789899654","null","null","<p style=""font-size: 60px; font-family: BACS"">dKDthAkd</p>","","","","","","","",""
"html-keyboard-response","146","235132","0.0-9.0-0.58","5e82e99b37d333a1474dda93","64b003020eef62ee308107cc","64b10c58659cbb4789899654","null","null","<p style=""font-size: 60px; font-family: BACS"">PCMPKTmTm</p>","","","","","","","",""
"html-keyboard-response","147","237130","0.0-9.0-0.59","5e82e99b37d333a1474dda93","64b003020eef62ee308107cc","64b10c58659cbb4789899654","null","null","<p style=""font-size: 60px; font-family: BACS"">PhktkPED</p>","","","","","","","",""
"html-keyboard-response","148","238132","0.0-9.0-0.60","5e82e99b37d333a1474dda93","64b003020eef62ee308107cc","64b10c58659cbb4789899654","null","null","<p style=""font-size: 60px; font-family: BACS"">vblrark</p>","","","","","","","",""
"html-keyboard-response","149","240130","0.0-9.0-0.61","5e82e99b37d333a1474dda93","64b003020eef62ee308107cc","64b10c58659cbb4789899654","null","null","<p style=""font-size: 60px; font-family: BACS"">khmhPED</p>","","","","","","","",""
"html-keyboard-response","150","241133","0.0-9.0-0.62","5e82e99b37d333a1474dda93","64b003020eef62ee308107cc","64b10c58659cbb4789899654","null","null","<p style=""font-size: 60px; font-family: BACS"">lRCBDbMR</p>","","","","","","","",""
"html-keyboard-response","151","243131","0.0-9.0-0.63","5e82e99b37d333a1474dda93","64b003020eef62ee308107cc","64b10c58659cbb4789899654","null","null","<p style=""font-size: 60px; font-family: BACS"">bYuQlvk</p>","","","","","","","",""
"html-keyboard-response","152","244132","0.0-9.0-0.64","5e82e99b37d333a1474dda93","64b003020eef62ee308107cc","64b10c58659cbb4789899654","null","null","<p style=""font-size: 60px; font-family: BACS"">lRCBbAMO</p>","","","","","","","",""
"html-keyboard-response","153","246129","0.0-9.0-0.65","5e82e99b37d333a1474dda93","64b003020eef62ee308107cc","64b10c58659cbb4789899654","null","null","<p style=""font-size: 60px; font-family: BACS"">alJYark</p>","","","","","","","",""
"html-keyboard-response","154","247131","0.0-9.0-0.66","5e82e99b37d333a1474dda93","64b003020eef62ee308107cc","64b10c58659cbb4789899654","null","null","<p style=""font-size: 60px; font-family: BACS"">MBmEPED</p>","","","","","","","",""
"html-keyboard-response","155","248132","0.0-9.0-0.67","5e82e99b37d333a1474dda93","64b003020eef62ee308107cc","64b10c58659cbb4789899654","null","null","<p style=""font-size: 60px; font-family: BACS"">OAblcOJNk</p>","","","","","","","",""
"html-keyboard-response","156","249143","0.0-9.0-0.68","5e82e99b37d333a1474dda93","64b003020eef62ee308107cc","64b10c58659cbb4789899654","null","null","<p style=""font-size: 60px; font-family: BACS"">ZdNmUark</p>","","","","","","","",""
"html-keyboard-response","157","251127","0.0-9.0-0.69","5e82e99b37d333a1474dda93","64b003020eef62ee308107cc","64b10c58659cbb4789899654","null","null","<p style=""font-size: 60px; font-family: BACS"">dNZAJcUk</p>","","","","","","","",""
"html-keyboard-response","158","252130","0.0-9.0-0.70","5e82e99b37d333a1474dda93","64b003020eef62ee308107cc","64b10c58659cbb4789899654","null","null","<p style=""font-size: 60px; font-family: BACS"">dKDthTmTm</p>","","","","","","","",""
"html-keyboard-response","159","254127","0.0-9.0-0.71","5e82e99b37d333a1474dda93","64b003020eef62ee308107cc","64b10c58659cbb4789899654","null","null","<p style=""font-size: 60px; font-family: BACS"">UJmrark</p>","","","","","","","",""
"html-keyboard-response","160","255131","0.0-9.0-0.72","5e82e99b37d333a1474dda93","64b003020eef62ee308107cc","64b10c58659cbb4789899654","null","null","<p style=""font-size: 60px; font-family: BACS"">PhktkTmTm</p>","","","","","","","",""
"html-keyboard-response","161","256132","0.0-9.0-0.73","5e82e99b37d333a1474dda93","64b003020eef62ee308107cc","64b10c58659cbb4789899654","null","null","<p style=""font-size: 60px; font-family: BACS"">ukcYOJNk</p>","","","","","","","",""
"html-keyboard-response","162","258130","0.0-9.0-0.74","5e82e99b37d333a1474dda93","64b003020eef62ee308107cc","64b10c58659cbb4789899654","null","null","<p style=""font-size: 60px; font-family: BACS"">YKRkbAMO</p>","","","","","","","",""
"html-keyboard-response","163","259132","0.0-9.0-0.75","5e82e99b37d333a1474dda93","64b003020eef62ee308107cc","64b10c58659cbb4789899654","null","null","<p style=""font-size: 60px; font-family: BACS"">lRCBTmTm</p>","","","","","","","",""
"html-keyboard-response","164","261130","0.0-9.0-0.76","5e82e99b37d333a1474dda93","64b003020eef62ee308107cc","64b10c58659cbb4789899654","null","null","<p style=""font-size: 60px; font-family: BACS"">vblrOJNk</p>","","","","","","","",""
"html-keyboard-response","165","263130","0.0-9.0-0.77","5e82e99b37d333a1474dda93","64b003020eef62ee308107cc","64b10c58659cbb4789899654","null","null","<p style=""font-size: 60px; font-family: BACS"">lRCBAkd</p>","","","","","","","",""
"html-keyboard-response","166","264132","0.0-9.0-0.78","5e82e99b37d333a1474dda93","64b003020eef62ee308107cc","64b10c58659cbb4789899654","null","null","<p style=""font-size: 60px; font-family: BACS"">OAblcJcUk</p>","","","","","","","",""
"html-keyboard-response","167","266130","0.0-9.0-0.79","5e82e99b37d333a1474dda93","64b003020eef62ee308107cc","64b10c58659cbb4789899654","null","null","<p style=""font-size: 60px; font-family: BACS"">htmhCPED</p>","","","","","","","",""
"html-keyboard-response","168","270246","0.0-10.0","5e82e99b37d333a1474dda93","64b003020eef62ee308107cc","64b10c58659cbb4789899654","4114"," ","<p>Ottimo, hai visto il secondo blocco di parole. Ora puoi prenderti una piccola pausa.</p>
      <p>Premi la barra quando sei pronta/o per riprendere.</p>","","","","","","","",""
"html-keyboard-response","169","271254","0.0-11.0-0.0","5e82e99b37d333a1474dda93","64b003020eef62ee308107cc","64b10c58659cbb4789899654","null","null","<p style=""font-size: 60px; font-family: BACS"">KdARAkd</p>","","","","","","","",""
"html-keyboard-response","170","272266","0.0-11.0-0.1","5e82e99b37d333a1474dda93","64b003020eef62ee308107cc","64b10c58659cbb4789899654","null","null","<p style=""font-size: 60px; font-family: BACS"">MBmEPED</p>","","","","","","","",""
"html-keyboard-response","171","273274","0.0-11.0-0.2","5e82e99b37d333a1474dda93","64b003020eef62ee308107cc","64b10c58659cbb4789899654","null","null","<p style=""font-size: 60px; font-family: BACS"">OAblclvk</p>","","","","","","","",""
"html-keyboard-response","172","274278","0.0-11.0-0.3","5e82e99b37d333a1474dda93","64b003020eef62ee308107cc","64b10c58659cbb4789899654","null","null","<p style=""font-size: 60px; font-family: BACS"">ukcYark</p>","","","","","","","",""
"html-keyboard-response","173","275287","0.0-11.0-0.4","5e82e99b37d333a1474dda93","64b003020eef62ee308107cc","64b10c58659cbb4789899654","null","null","<p style=""font-size: 60px; font-family: BACS"">YuaNdbLd</p>","","","","","","","",""
"html-keyboard-response","174","276310","0.0-11.0-0.5","5e82e99b37d333a1474dda93","64b003020eef62ee308107cc","64b10c58659cbb4789899654","null","null","<p style=""font-size: 60px; font-family: BACS"">khmhbAMO</p>","","","","","","","",""
"html-keyboard-response","175","277328","0.0-11.0-0.6","5e82e99b37d333a1474dda93","64b003020eef62ee308107cc","64b10c58659cbb4789899654","null","null","<p style=""font-size: 60px; font-family: BACS"">htmhCDbMR</p>","","","","","","","",""
"html-keyboard-response","176","278353","0.0-11.0-0.7","5e82e99b37d333a1474dda93","64b003020eef62ee308107cc","64b10c58659cbb4789899654","null","null","<p style=""font-size: 60px; font-family: BACS"">DBlhTmTm</p>","","","","","","","",""
"html-keyboard-response","177","279370","0.0-11.0-0.8","5e82e99b37d333a1474dda93","64b003020eef62ee308107cc","64b10c58659cbb4789899654","null","null","<p style=""font-size: 60px; font-family: BACS"">ZdNmUbLd</p>","","","","","","","",""
"html-keyboard-response","178","280394","0.0-11.0-0.9","5e82e99b37d333a1474dda93","64b003020eef62ee308107cc","64b10c58659cbb4789899654","null","null","<p style=""font-size: 60px; font-family: BACS"">UJmrJcUk</p>","","","","","","","",""
"html-keyboard-response","179","281410","0.0-11.0-0.10","5e82e99b37d333a1474dda93","64b003020eef62ee308107cc","64b10c58659cbb4789899654","null","null","<p style=""font-size: 60px; font-family: BACS"">KdARbAMO</p>","","","","","","","",""
"html-keyboard-response","180","282433","0.0-11.0-0.11","5e82e99b37d333a1474dda93","64b003020eef62ee308107cc","64b10c58659cbb4789899654","null","null","<p style=""font-size: 60px; font-family: BACS"">YuaNdark</p>","","","","","","","",""
"html-keyboard-response","181","283450","0.0-11.0-0.12","5e82e99b37d333a1474dda93","64b003020eef62ee308107cc","64b10c58659cbb4789899654","null","null","<p style=""font-size: 60px; font-family: BACS"">htmhCbAMO</p>","","","","","","","",""
"html-keyboard-response","182","284474","0.0-11.0-0.13","5e82e99b37d333a1474dda93","64b003020eef62ee308107cc","64b10c58659cbb4789899654","null","null","<p style=""font-size: 60px; font-family: BACS"">ZdNmUOJNk</p>","","","","","","","",""
"html-keyboard-response","183","285490","0.0-11.0-0.14","5e82e99b37d333a1474dda93","64b003020eef62ee308107cc","64b10c58659cbb4789899654","null","null","<p style=""font-size: 60px; font-family: BACS"">dKDthbAMO</p>","","","","","","","",""
"html-keyboard-response","184","286514","0.0-11.0-0.15","5e82e99b37d333a1474dda93","64b003020eef62ee308107cc","64b10c58659cbb4789899654","null","null","<p style=""font-size: 60px; font-family: BACS"">YKRkPED</p>","","","","","","","",""
"html-keyboard-response","185","287525","0.0-11.0-0.16","5e82e99b37d333a1474dda93","64b003020eef62ee308107cc","64b10c58659cbb4789899654","null","null","<p style=""font-size: 60px; font-family: BACS"">OAblcOJNk</p>","","","","","","","",""
"html-keyboard-response","186","288553","0.0-11.0-0.17","5e82e99b37d333a1474dda93","64b003020eef62ee308107cc","64b10c58659cbb4789899654","null","null","<p style=""font-size: 60px; font-family: BACS"">khmhDbMR</p>","","","","","","","",""
"html-keyboard-response","187","289565","0.0-11.0-0.18","5e82e99b37d333a1474dda93","64b003020eef62ee308107cc","64b10c58659cbb4789899654","null","null","<p style=""font-size: 60px; font-family: BACS"">YuaNdJcUk</p>","","","","","","","",""
"html-keyboard-response","188","290591","0.0-11.0-0.19","5e82e99b37d333a1474dda93","64b003020eef62ee308107cc","64b10c58659cbb4789899654","null","null","<p style=""font-size: 60px; font-family: BACS"">PCMPKAkd</p>","","","","","","","",""
"html-keyboard-response","189","291609","0.0-11.0-0.20","5e82e99b37d333a1474dda93","64b003020eef62ee308107cc","64b10c58659cbb4789899654","null","null","<p style=""font-size: 60px; font-family: BACS"">rvOvUOJNk</p>","","","","","","","",""
"html-keyboard-response","190","292634","0.0-11.0-0.21","5e82e99b37d333a1474dda93","64b003020eef62ee308107cc","64b10c58659cbb4789899654","null","null","<p style=""font-size: 60px; font-family: BACS"">DBlhAkd</p>","","","","","","","",""
"html-keyboard-response","191","293650","0.0-11.0-0.22","5e82e99b37d333a1474dda93","64b003020eef62ee308107cc","64b10c58659cbb4789899654","null","null","<p style=""font-size: 60px; font-family: BACS"">PhktkPED</p>","","","","","","","",""
"html-keyboard-response","192","294669","0.0-11.0-0.23","5e82e99b37d333a1474dda93","64b003020eef62ee308107cc","64b10c58659cbb4789899654","null","null","<p style=""font-size: 60px; font-family: BACS"">dKDthAkd</p>","","","","","","","",""
"html-keyboard-response","193","295690","0.0-11.0-0.24","5e82e99b37d333a1474dda93","64b003020eef62ee308107cc","64b10c58659cbb4789899654","null","null","<p style=""font-size: 60px; font-family: BACS"">ukcYJcUk</p>","","","","","","","",""
"html-keyboard-response","194","296714","0.0-11.0-0.25","5e82e99b37d333a1474dda93","64b003020eef62ee308107cc","64b10c58659cbb4789899654","null","null","<p style=""font-size: 60px; font-family: BACS"">rvOvUlvk</p>","","","","","","","",""
"html-keyboard-response","195","297730","0.0-11.0-0.26","5e82e99b37d333a1474dda93","64b003020eef62ee308107cc","64b10c58659cbb4789899654","null","null","<p style=""font-size: 60px; font-family: BACS"">UJmrark</p>","","","","","","","",""
"html-keyboard-response","196","298753","0.0-11.0-0.27","5e82e99b37d333a1474dda93","64b003020eef62ee308107cc","64b10c58659cbb4789899654","null","null","<p style=""font-size: 60px; font-family: BACS"">lRCBDbMR</p>","","","","","","","",""
"html-keyboard-response","197","299770","0.0-11.0-0.28","5e82e99b37d333a1474dda93","64b003020eef62ee308107cc","64b10c58659cbb4789899654","null","null","<p style=""font-size: 60px; font-family: BACS"">OAblcJcUk</p>","","","","","","","",""
"html-keyboard-response","198","300794","0.0-11.0-0.29","5e82e99b37d333a1474dda93","64b003020eef62ee308107cc","64b10c58659cbb4789899654","null","null","<p style=""font-size: 60px; font-family: BACS"">MBmEAkd</p>","","","","","","","",""
"html-keyboard-response","199","301808","0.0-11.0-0.30","5e82e99b37d333a1474dda93","64b003020eef62ee308107cc","64b10c58659cbb4789899654","null","null","<p style=""font-size: 60px; font-family: BACS"">dKDthTmTm</p>","","","","","","","",""
"html-keyboard-response","200","302833","0.0-11.0-0.31","5e82e99b37d333a1474dda93","64b003020eef62ee308107cc","64b10c58659cbb4789899654","null","null","<p style=""font-size: 60px; font-family: BACS"">ukcYlvk</p>","","","","","","","",""
"html-keyboard-response","201","303850","0.0-11.0-0.32","5e82e99b37d333a1474dda93","64b003020eef62ee308107cc","64b10c58659cbb4789899654","null","null","<p style=""font-size: 60px; font-family: BACS"">PCMPKTmTm</p>","","","","","","","",""
"html-keyboard-response","202","304869","0.0-11.0-0.33","5e82e99b37d333a1474dda93","64b003020eef62ee308107cc","64b10c58659cbb4789899654","null","null","<p style=""font-size: 60px; font-family: BACS"">bYuQark</p>","","","","","","","",""
"html-keyboard-response","203","306127","0.0-11.0-0.34","5e82e99b37d333a1474dda93","64b003020eef62ee308107cc","64b10c58659cbb4789899654","null","null","<p style=""font-size: 60px; font-family: BACS"">vblrlvk</p>","","","","","","","",""
"html-keyboard-response","204","307129","0.0-11.0-0.35","5e82e99b37d333a1474dda93","64b003020eef62ee308107cc","64b10c58659cbb4789899654","null","null","<p style=""font-size: 60px; font-family: BACS"">ZdNmUJcUk</p>","","","","","","","",""
"html-keyboard-response","205","308130","0.0-11.0-0.36","5e82e99b37d333a1474dda93","64b003020eef62ee308107cc","64b10c58659cbb4789899654","null","null","<p style=""font-size: 60px; font-family: BACS"">alJYark</p>","","","","","","","",""
"html-keyboard-response","206","309132","0.0-11.0-0.37","5e82e99b37d333a1474dda93","64b003020eef62ee308107cc","64b10c58659cbb4789899654","null","null","<p style=""font-size: 60px; font-family: BACS"">PhktkbAMO</p>","","","","","","","",""
"html-keyboard-response","207","311129","0.0-11.0-0.38","5e82e99b37d333a1474dda93","64b003020eef62ee308107cc","64b10c58659cbb4789899654","null","null","<p style=""font-size: 60px; font-family: BACS"">UJmrbLd</p>","","","","","","","",""
"html-keyboard-response","208","312131","0.0-11.0-0.39","5e82e99b37d333a1474dda93","64b003020eef62ee308107cc","64b10c58659cbb4789899654","null","null","<p style=""font-size: 60px; font-family: BACS"">ukcYOJNk</p>","","","","","","","",""
"html-keyboard-response","209","314126","0.0-11.0-0.40","5e82e99b37d333a1474dda93","64b003020eef62ee308107cc","64b10c58659cbb4789899654","null","null","<p style=""font-size: 60px; font-family: BACS"">dNZAbLd</p>","","","","","","","",""
"html-keyboard-response","210","315130","0.0-11.0-0.41","5e82e99b37d333a1474dda93","64b003020eef62ee308107cc","64b10c58659cbb4789899654","null","null","<p style=""font-size: 60px; font-family: BACS"">UJmrlvk</p>","","","","","","","",""
"html-keyboard-response","211","316132","0.0-11.0-0.42","5e82e99b37d333a1474dda93","64b003020eef62ee308107cc","64b10c58659cbb4789899654","null","null","<p style=""font-size: 60px; font-family: BACS"">KdARPED</p>","","","","","","","",""
"html-keyboard-response","212","318127","0.0-11.0-0.43","5e82e99b37d333a1474dda93","64b003020eef62ee308107cc","64b10c58659cbb4789899654","null","null","<p style=""font-size: 60px; font-family: BACS"">DBlhDbMR</p>","","","","","","","",""
"html-keyboard-response","213","319130","0.0-11.0-0.44","5e82e99b37d333a1474dda93","64b003020eef62ee308107cc","64b10c58659cbb4789899654","null","null","<p style=""font-size: 60px; font-family: BACS"">alJYlvk</p>","","","","","","","",""
"html-keyboard-response","214","321128","0.0-11.0-0.45","5e82e99b37d333a1474dda93","64b003020eef62ee308107cc","64b10c58659cbb4789899654","null","null","<p style=""font-size: 60px; font-family: BACS"">YuaNdOJNk</p>","","","","","","","",""
"html-keyboard-response","215","322130","0.0-11.0-0.46","5e82e99b37d333a1474dda93","64b003020eef62ee308107cc","64b10c58659cbb4789899654","null","null","<p style=""font-size: 60px; font-family: BACS"">bYuQbLd</p>","","","","","","","",""
"html-keyboard-response","216","323132","0.0-11.0-0.47","5e82e99b37d333a1474dda93","64b003020eef62ee308107cc","64b10c58659cbb4789899654","null","null","<p style=""font-size: 60px; font-family: BACS"">ZdNmUark</p>","","","","","","","",""
"html-keyboard-response","217","324133","0.0-11.0-0.48","5e82e99b37d333a1474dda93","64b003020eef62ee308107cc","64b10c58659cbb4789899654","null","null","<p style=""font-size: 60px; font-family: BACS"">DBlhPED</p>","","","","","","","",""
"html-keyboard-response","218","326129","0.0-11.0-0.49","5e82e99b37d333a1474dda93","64b003020eef62ee308107cc","64b10c58659cbb4789899654","null","null","<p style=""font-size: 60px; font-family: BACS"">dKDthDbMR</p>","","","","","","","",""
"html-keyboard-response","219","327132","0.0-11.0-0.50","5e82e99b37d333a1474dda93","64b003020eef62ee308107cc","64b10c58659cbb4789899654","null","null","<p style=""font-size: 60px; font-family: BACS"">YKRkTmTm</p>","","","","","","","",""
"html-keyboard-response","220","329127","0.0-11.0-0.51","5e82e99b37d333a1474dda93","64b003020eef62ee308107cc","64b10c58659cbb4789899654","null","null","<p style=""font-size: 60px; font-family: BACS"">htmhCAkd</p>","","","","","","","",""
"html-keyboard-response","221","330130","0.0-11.0-0.52","5e82e99b37d333a1474dda93","64b003020eef62ee308107cc","64b10c58659cbb4789899654","null","null","<p style=""font-size: 60px; font-family: BACS"">dNZAlvk</p>","","","","","","","",""
"html-keyboard-response","222","332128","0.0-11.0-0.53","5e82e99b37d333a1474dda93","64b003020eef62ee308107cc","64b10c58659cbb4789899654","null","null","<p style=""font-size: 60px; font-family: BACS"">PCMPKPED</p>","","","","","","","",""
"html-keyboard-response","223","333130","0.0-11.0-0.54","5e82e99b37d333a1474dda93","64b003020eef62ee308107cc","64b10c58659cbb4789899654","null","null","<p style=""font-size: 60px; font-family: BACS"">OAblcbLd</p>","","","","","","","",""
"html-keyboard-response","224","334131","0.0-11.0-0.55","5e82e99b37d333a1474dda93","64b003020eef62ee308107cc","64b10c58659cbb4789899654","null","null","<p style=""font-size: 60px; font-family: BACS"">rvOvUark</p>","","","","","","","",""
"html-keyboard-response","225","336125","0.0-11.0-0.56","5e82e99b37d333a1474dda93","64b003020eef62ee308107cc","64b10c58659cbb4789899654","null","null","<p style=""font-size: 60px; font-family: BACS"">KdARTmTm</p>","","","","","","","",""
"html-keyboard-response","226","337129","0.0-11.0-0.57","5e82e99b37d333a1474dda93","64b003020eef62ee308107cc","64b10c58659cbb4789899654","null","null","<p style=""font-size: 60px; font-family: BACS"">alJYJcUk</p>","","","","","","","",""
"html-keyboard-response","227","338131","0.0-11.0-0.58","5e82e99b37d333a1474dda93","64b003020eef62ee308107cc","64b10c58659cbb4789899654","null","null","<p style=""font-size: 60px; font-family: BACS"">PhktkDbMR</p>","","","","","","","",""
"html-keyboard-response","228","340129","0.0-11.0-0.59","5e82e99b37d333a1474dda93","64b003020eef62ee308107cc","64b10c58659cbb4789899654","null","null","<p style=""font-size: 60px; font-family: BACS"">alJYOJNk</p>","","","","","","","",""
"html-keyboard-response","229","342129","0.0-11.0-0.60","5e82e99b37d333a1474dda93","64b003020eef62ee308107cc","64b10c58659cbb4789899654","null","null","<p style=""font-size: 60px; font-family: BACS"">rvOvUbLd</p>","","","","","","","",""
"html-keyboard-response","230","343132","0.0-11.0-0.61","5e82e99b37d333a1474dda93","64b003020eef62ee308107cc","64b10c58659cbb4789899654","null","null","<p style=""font-size: 60px; font-family: BACS"">PCMPKDbMR</p>","","","","","","","",""
"html-keyboard-response","231","345130","0.0-11.0-0.62","5e82e99b37d333a1474dda93","64b003020eef62ee308107cc","64b10c58659cbb4789899654","null","null","<p style=""font-size: 60px; font-family: BACS"">YKRkbAMO</p>","","","","","","","",""
"html-keyboard-response","232","346132","0.0-11.0-0.63","5e82e99b37d333a1474dda93","64b003020eef62ee308107cc","64b10c58659cbb4789899654","null","null","<p style=""font-size: 60px; font-family: BACS"">lRCBTmTm</p>","","","","","","","",""
"html-keyboard-response","233","347134","0.0-11.0-0.64","5e82e99b37d333a1474dda93","64b003020eef62ee308107cc","64b10c58659cbb4789899654","null","null","<p style=""font-size: 60px; font-family: BACS"">vblrark</p>","","","","","","","",""
"html-keyboard-response","234","349128","0.0-11.0-0.65","5e82e99b37d333a1474dda93","64b003020eef62ee308107cc","64b10c58659cbb4789899654","null","null","<p style=""font-size: 60px; font-family: BACS"">htmhCPED</p>","","","","","","","",""
"html-keyboard-response","235","350129","0.0-11.0-0.66","5e82e99b37d333a1474dda93","64b003020eef62ee308107cc","64b10c58659cbb4789899654","null","null","<p style=""font-size: 60px; font-family: BACS"">vblrbLd</p>","","","","","","","",""
"html-keyboard-response","236","351132","0.0-11.0-0.67","5e82e99b37d333a1474dda93","64b003020eef62ee308107cc","64b10c58659cbb4789899654","null","null","<p style=""font-size: 60px; font-family: BACS"">khmhAkd</p>","","","","","","","",""
"html-keyboard-response","237","353125","0.0-11.0-0.68","5e82e99b37d333a1474dda93","64b003020eef62ee308107cc","64b10c58659cbb4789899654","null","null","<p style=""font-size: 60px; font-family: BACS"">dNZAOJNk</p>","","","","","","","",""
"html-keyboard-response","238","354130","0.0-11.0-0.69","5e82e99b37d333a1474dda93","64b003020eef62ee308107cc","64b10c58659cbb4789899654","null","null","<p style=""font-size: 60px; font-family: BACS"">MBmETmTm</p>","","","","","","","",""
"html-keyboard-response","239","355132","0.0-11.0-0.70","5e82e99b37d333a1474dda93","64b003020eef62ee308107cc","64b10c58659cbb4789899654","null","null","<p style=""font-size: 60px; font-family: BACS"">vblrOJNk</p>","","","","","","","",""
"html-keyboard-response","240","357129","0.0-11.0-0.71","5e82e99b37d333a1474dda93","64b003020eef62ee308107cc","64b10c58659cbb4789899654","null","null","<p style=""font-size: 60px; font-family: BACS"">YKRkDbMR</p>","","","","","","","",""
"html-keyboard-response","241","358130","0.0-11.0-0.72","5e82e99b37d333a1474dda93","64b003020eef62ee308107cc","64b10c58659cbb4789899654","null","null","<p style=""font-size: 60px; font-family: BACS"">khmhPED</p>","","","","","","","",""
"html-keyboard-response","242","360129","0.0-11.0-0.73","5e82e99b37d333a1474dda93","64b003020eef62ee308107cc","64b10c58659cbb4789899654","null","null","<p style=""font-size: 60px; font-family: BACS"">bYuQJcUk</p>","","","","","","","",""
"html-keyboard-response","243","361131","0.0-11.0-0.74","5e82e99b37d333a1474dda93","64b003020eef62ee308107cc","64b10c58659cbb4789899654","null","null","<p style=""font-size: 60px; font-family: BACS"">lRCBbAMO</p>","","","","","","","",""
"html-keyboard-response","244","363129","0.0-11.0-0.75","5e82e99b37d333a1474dda93","64b003020eef62ee308107cc","64b10c58659cbb4789899654","null","null","<p style=""font-size: 60px; font-family: BACS"">bYuQlvk</p>","","","","","","","",""
"html-keyboard-response","245","364131","0.0-11.0-0.76","5e82e99b37d333a1474dda93","64b003020eef62ee308107cc","64b10c58659cbb4789899654","null","null","<p style=""font-size: 60px; font-family: BACS"">PhktkTmTm</p>","","","","","","","",""
"html-keyboard-response","246","366129","0.0-11.0-0.77","5e82e99b37d333a1474dda93","64b003020eef62ee308107cc","64b10c58659cbb4789899654","null","null","<p style=""font-size: 60px; font-family: BACS"">MBmEbAMO</p>","","","","","","","",""
"html-keyboard-response","247","367131","0.0-11.0-0.78","5e82e99b37d333a1474dda93","64b003020eef62ee308107cc","64b10c58659cbb4789899654","null","null","<p style=""font-size: 60px; font-family: BACS"">lRCBAkd</p>","","","","","","","",""
"html-keyboard-response","248","368134","0.0-11.0-0.79","5e82e99b37d333a1474dda93","64b003020eef62ee308107cc","64b10c58659cbb4789899654","null","null","<p style=""font-size: 60px; font-family: BACS"">dNZAJcUk</p>","","","","","","","",""
"html-keyboard-response","249","371161","0.0-12.0","5e82e99b37d333a1474dda93","64b003020eef62ee308107cc","64b10c58659cbb4789899654","3026"," ","<p>Ottimo, hai visto il terzo blocco di parole. Ora puoi prenderti una piccola pausa.</p>
      <p>Premi la barra quando sei pronta/o per riprendere.</p>","","","","","","","",""
"html-keyboard-response","250","372167","0.0-13.0-0.0","5e82e99b37d333a1474dda93","64b003020eef62ee308107cc","64b10c58659cbb4789899654","null","null","<p style=""font-size: 60px; font-family: BACS"">ZdNmUJcUk</p>","","","","","","","",""
"html-keyboard-response","251","373169","0.0-13.0-0.1","5e82e99b37d333a1474dda93","64b003020eef62ee308107cc","64b10c58659cbb4789899654","null","null","<p style=""font-size: 60px; font-family: BACS"">bYuQbLd</p>","","","","","","","",""
"html-keyboard-response","252","374172","0.0-13.0-0.2","5e82e99b37d333a1474dda93","64b003020eef62ee308107cc","64b10c58659cbb4789899654","null","null","<p style=""font-size: 60px; font-family: BACS"">OAblclvk</p>","","","","","","","",""
"html-keyboard-response","253","375184","0.0-13.0-0.3","5e82e99b37d333a1474dda93","64b003020eef62ee308107cc","64b10c58659cbb4789899654","null","null","<p style=""font-size: 60px; font-family: BACS"">PCMPKPED</p>","","","","","","","",""
"html-keyboard-response","254","376207","0.0-13.0-0.4","5e82e99b37d333a1474dda93","64b003020eef62ee308107cc","64b10c58659cbb4789899654","null","null","<p style=""font-size: 60px; font-family: BACS"">KdARAkd</p>","","","","","","","",""
"html-keyboard-response","255","377233","0.0-13.0-0.5","5e82e99b37d333a1474dda93","64b003020eef62ee308107cc","64b10c58659cbb4789899654","null","null","<p style=""font-size: 60px; font-family: BACS"">khmhPED</p>","","","","","","","",""
"html-keyboard-response","256","378249","0.0-13.0-0.6","5e82e99b37d333a1474dda93","64b003020eef62ee308107cc","64b10c58659cbb4789899654","null","null","<p style=""font-size: 60px; font-family: BACS"">MBmEbAMO</p>","","","","","","","",""
"html-keyboard-response","257","379270","0.0-13.0-0.7","5e82e99b37d333a1474dda93","64b003020eef62ee308107cc","64b10c58659cbb4789899654","null","null","<p style=""font-size: 60px; font-family: BACS"">UJmrbLd</p>","","","","","","","",""
"html-keyboard-response","258","380289","0.0-13.0-0.8","5e82e99b37d333a1474dda93","64b003020eef62ee308107cc","64b10c58659cbb4789899654","null","null","<p style=""font-size: 60px; font-family: BACS"">dKDthTmTm</p>","","","","","","","",""
"html-keyboard-response","259","381305","0.0-13.0-0.9","5e82e99b37d333a1474dda93","64b003020eef62ee308107cc","64b10c58659cbb4789899654","null","null","<p style=""font-size: 60px; font-family: BACS"">PCMPKAkd</p>","","","","","","","",""
"html-keyboard-response","260","382326","0.0-13.0-0.10","5e82e99b37d333a1474dda93","64b003020eef62ee308107cc","64b10c58659cbb4789899654","null","null","<p style=""font-size: 60px; font-family: BACS"">YuaNdOJNk</p>","","","","","","","",""
"html-keyboard-response","261","383351","0.0-13.0-0.11","5e82e99b37d333a1474dda93","64b003020eef62ee308107cc","64b10c58659cbb4789899654","null","null","<p style=""font-size: 60px; font-family: BACS"">DBlhAkd</p>","","","","","","","",""
"html-keyboard-response","262","384369","0.0-13.0-0.12","5e82e99b37d333a1474dda93","64b003020eef62ee308107cc","64b10c58659cbb4789899654","null","null","<p style=""font-size: 60px; font-family: BACS"">dNZAlvk</p>","","","","","","","",""
"html-keyboard-response","263","385394","0.0-13.0-0.13","5e82e99b37d333a1474dda93","64b003020eef62ee308107cc","64b10c58659cbb4789899654","null","null","<p style=""font-size: 60px; font-family: BACS"">ZdNmUbLd</p>","","","","","","","",""
"html-keyboard-response","264","386409","0.0-13.0-0.14","5e82e99b37d333a1474dda93","64b003020eef62ee308107cc","64b10c58659cbb4789899654","null","null","<p style=""font-size: 60px; font-family: BACS"">MBmEAkd</p>","","","","","","","",""
"html-keyboard-response","265","387430","0.0-13.0-0.15","5e82e99b37d333a1474dda93","64b003020eef62ee308107cc","64b10c58659cbb4789899654","null","null","<p style=""font-size: 60px; font-family: BACS"">htmhCbAMO</p>","","","","","","","",""
"html-keyboard-response","266","388448","0.0-13.0-0.16","5e82e99b37d333a1474dda93","64b003020eef62ee308107cc","64b10c58659cbb4789899654","null","null","<p style=""font-size: 60px; font-family: BACS"">rvOvUbLd</p>","","","","","","","",""
"html-keyboard-response","267","389471","0.0-13.0-0.17","5e82e99b37d333a1474dda93","64b003020eef62ee308107cc","64b10c58659cbb4789899654","null","null","<p style=""font-size: 60px; font-family: BACS"">bYuQJcUk</p>","","","","","","","",""
"html-keyboard-response","268","390489","0.0-13.0-0.18","5e82e99b37d333a1474dda93","64b003020eef62ee308107cc","64b10c58659cbb4789899654","null","null","<p style=""font-size: 60px; font-family: BACS"">htmhCPED</p>","","","","","","","",""
"html-keyboard-response","269","391512","0.0-13.0-0.19","5e82e99b37d333a1474dda93","64b003020eef62ee308107cc","64b10c58659cbb4789899654","null","null","<p style=""font-size: 60px; font-family: BACS"">vblrOJNk</p>","","","","","","","",""
"html-keyboard-response","270","392527","0.0-13.0-0.20","5e82e99b37d333a1474dda93","64b003020eef62ee308107cc","64b10c58659cbb4789899654","null","null","<p style=""font-size: 60px; font-family: BACS"">YuaNdark</p>","","","","","","","",""
"html-keyboard-response","271","393548","0.0-13.0-0.21","5e82e99b37d333a1474dda93","64b003020eef62ee308107cc","64b10c58659cbb4789899654","null","null","<p style=""font-size: 60px; font-family: BACS"">khmhbAMO</p>","","","","","","","",""
"html-keyboard-response","272","394569","0.0-13.0-0.22","5e82e99b37d333a1474dda93","64b003020eef62ee308107cc","64b10c58659cbb4789899654","null","null","<p style=""font-size: 60px; font-family: BACS"">OAblcOJNk</p>","","","","","","","",""
"html-keyboard-response","273","395593","0.0-13.0-0.23","5e82e99b37d333a1474dda93","64b003020eef62ee308107cc","64b10c58659cbb4789899654","null","null","<p style=""font-size: 60px; font-family: BACS"">YKRkbAMO</p>","","","","","","","",""
"html-keyboard-response","274","396609","0.0-13.0-0.24","5e82e99b37d333a1474dda93","64b003020eef62ee308107cc","64b10c58659cbb4789899654","null","null","<p style=""font-size: 60px; font-family: BACS"">rvOvUark</p>","","","","","","","",""
"html-keyboard-response","275","397633","0.0-13.0-0.25","5e82e99b37d333a1474dda93","64b003020eef62ee308107cc","64b10c58659cbb4789899654","null","null","<p style=""font-size: 60px; font-family: BACS"">bYuQlvk</p>","","","","","","","",""
"html-keyboard-response","276","398649","0.0-13.0-0.26","5e82e99b37d333a1474dda93","64b003020eef62ee308107cc","64b10c58659cbb4789899654","null","null","<p style=""font-size: 60px; font-family: BACS"">YuaNdJcUk</p>","","","","","","","",""
"html-keyboard-response","277","399668","0.0-13.0-0.27","5e82e99b37d333a1474dda93","64b003020eef62ee308107cc","64b10c58659cbb4789899654","null","null","<p style=""font-size: 60px; font-family: BACS"">dNZAOJNk</p>","","","","","","","",""
"html-keyboard-response","278","400690","0.0-13.0-0.28","5e82e99b37d333a1474dda93","64b003020eef62ee308107cc","64b10c58659cbb4789899654","null","null","<p style=""font-size: 60px; font-family: BACS"">alJYark</p>","","","","","","","",""
"html-keyboard-response","279","401708","0.0-13.0-0.29","5e82e99b37d333a1474dda93","64b003020eef62ee308107cc","64b10c58659cbb4789899654","null","null","<p style=""font-size: 60px; font-family: BACS"">khmhAkd</p>","","","","","","","",""
"html-keyboard-response","280","402729","0.0-13.0-0.30","5e82e99b37d333a1474dda93","64b003020eef62ee308107cc","64b10c58659cbb4789899654","null","null","<p style=""font-size: 60px; font-family: BACS"">dKDthbAMO</p>","","","","","","","",""
"html-keyboard-response","281","403752","0.0-13.0-0.31","5e82e99b37d333a1474dda93","64b003020eef62ee308107cc","64b10c58659cbb4789899654","null","null","<p style=""font-size: 60px; font-family: BACS"">OAblcJcUk</p>","","","","","","","",""
"html-keyboard-response","282","404767","0.0-13.0-0.32","5e82e99b37d333a1474dda93","64b003020eef62ee308107cc","64b10c58659cbb4789899654","null","null","<p style=""font-size: 60px; font-family: BACS"">KdARPED</p>","","","","","","","",""
"html-keyboard-response","283","405793","0.0-13.0-0.33","5e82e99b37d333a1474dda93","64b003020eef62ee308107cc","64b10c58659cbb4789899654","null","null","<p style=""font-size: 60px; font-family: BACS"">vblrark</p>","","","","","","","",""
"html-keyboard-response","284","407129","0.0-13.0-0.34","5e82e99b37d333a1474dda93","64b003020eef62ee308107cc","64b10c58659cbb4789899654","null","null","<p style=""font-size: 60px; font-family: BACS"">PhktkDbMR</p>","","","","","","","",""
"html-keyboard-response","285","409129","0.0-13.0-0.35","5e82e99b37d333a1474dda93","64b003020eef62ee308107cc","64b10c58659cbb4789899654","null","null","<p style=""font-size: 60px; font-family: BACS"">ukcYlvk</p>","","","","","","","",""
"html-keyboard-response","286","410131","0.0-13.0-0.36","5e82e99b37d333a1474dda93","64b003020eef62ee308107cc","64b10c58659cbb4789899654","null","null","<p style=""font-size: 60px; font-family: BACS"">htmhCDbMR</p>","","","","","","","",""
"html-keyboard-response","287","412126","0.0-13.0-0.37","5e82e99b37d333a1474dda93","64b003020eef62ee308107cc","64b10c58659cbb4789899654","null","null","<p style=""font-size: 60px; font-family: BACS"">KdARbAMO</p>","","","","","","","",""
"html-keyboard-response","288","413129","0.0-13.0-0.38","5e82e99b37d333a1474dda93","64b003020eef62ee308107cc","64b10c58659cbb4789899654","null","null","<p style=""font-size: 60px; font-family: BACS"">UJmrark</p>","","","","","","","",""
"html-keyboard-response","289","414132","0.0-13.0-0.39","5e82e99b37d333a1474dda93","64b003020eef62ee308107cc","64b10c58659cbb4789899654","null","null","<p style=""font-size: 60px; font-family: BACS"">DBlhTmTm</p>","","","","","","","",""
"html-keyboard-response","290","416129","0.0-13.0-0.40","5e82e99b37d333a1474dda93","64b003020eef62ee308107cc","64b10c58659cbb4789899654","null","null","<p style=""font-size: 60px; font-family: BACS"">dNZAbLd</p>","","","","","","","",""
"html-keyboard-response","291","417130","0.0-13.0-0.41","5e82e99b37d333a1474dda93","64b003020eef62ee308107cc","64b10c58659cbb4789899654","null","null","<p style=""font-size: 60px; font-family: BACS"">ZdNmUOJNk</p>","","","","","","","",""
"html-keyboard-response","292","418132","0.0-13.0-0.42","5e82e99b37d333a1474dda93","64b003020eef62ee308107cc","64b10c58659cbb4789899654","null","null","<p style=""font-size: 60px; font-family: BACS"">PCMPKDbMR</p>","","","","","","","",""
"html-keyboard-response","293","420129","0.0-13.0-0.43","5e82e99b37d333a1474dda93","64b003020eef62ee308107cc","64b10c58659cbb4789899654","null","null","<p style=""font-size: 60px; font-family: BACS"">PhktkPED</p>","","","","","","","",""
"html-keyboard-response","294","421132","0.0-13.0-0.44","5e82e99b37d333a1474dda93","64b003020eef62ee308107cc","64b10c58659cbb4789899654","null","null","<p style=""font-size: 60px; font-family: BACS"">ukcYark</p>","","","","","","","",""
"html-keyboard-response","295","423125","0.0-13.0-0.45","5e82e99b37d333a1474dda93","64b003020eef62ee308107cc","64b10c58659cbb4789899654","null","null","<p style=""font-size: 60px; font-family: BACS"">lRCBTmTm</p>","","","","","","","",""
"html-keyboard-response","296","424128","0.0-13.0-0.46","5e82e99b37d333a1474dda93","64b003020eef62ee308107cc","64b10c58659cbb4789899654","null","null","<p style=""font-size: 60px; font-family: BACS"">OAblcbLd</p>","","","","","","","",""
"html-keyboard-response","297","425130","0.0-13.0-0.47","5e82e99b37d333a1474dda93","64b003020eef62ee308107cc","64b10c58659cbb4789899654","null","null","<p style=""font-size: 60px; font-family: BACS"">ZdNmUark</p>","","","","","","","",""
"html-keyboard-response","298","426132","0.0-13.0-0.48","5e82e99b37d333a1474dda93","64b003020eef62ee308107cc","64b10c58659cbb4789899654","null","null","<p style=""font-size: 60px; font-family: BACS"">vblrlvk</p>","","","","","","","",""
"html-keyboard-response","299","428128","0.0-13.0-0.49","5e82e99b37d333a1474dda93","64b003020eef62ee308107cc","64b10c58659cbb4789899654","null","null","<p style=""font-size: 60px; font-family: BACS"">MBmETmTm</p>","","","","","","","",""
"html-keyboard-response","300","430125","0.0-13.0-0.50","5e82e99b37d333a1474dda93","64b003020eef62ee308107cc","64b10c58659cbb4789899654","null","null","<p style=""font-size: 60px; font-family: BACS"">khmhDbMR</p>","","","","","","","",""
"html-keyboard-response","301","431130","0.0-13.0-0.51","5e82e99b37d333a1474dda93","64b003020eef62ee308107cc","64b10c58659cbb4789899654","null","null","<p style=""font-size: 60px; font-family: BACS"">UJmrJcUk</p>","","","","","","","",""
"html-keyboard-response","302","432132","0.0-13.0-0.52","5e82e99b37d333a1474dda93","64b003020eef62ee308107cc","64b10c58659cbb4789899654","null","null","<p style=""font-size: 60px; font-family: BACS"">lRCBAkd</p>","","","","","","","",""
"html-keyboard-response","303","434128","0.0-13.0-0.53","5e82e99b37d333a1474dda93","64b003020eef62ee308107cc","64b10c58659cbb4789899654","null","null","<p style=""font-size: 60px; font-family: BACS"">PhktkbAMO</p>","","","","","","","",""
"html-keyboard-response","304","435130","0.0-13.0-0.54","5e82e99b37d333a1474dda93","64b003020eef62ee308107cc","64b10c58659cbb4789899654","null","null","<p style=""font-size: 60px; font-family: BACS"">alJYOJNk</p>","","","","","","","",""
"html-keyboard-response","305","436131","0.0-13.0-0.55","5e82e99b37d333a1474dda93","64b003020eef62ee308107cc","64b10c58659cbb4789899654","null","null","<p style=""font-size: 60px; font-family: BACS"">lRCBbAMO</p>","","","","","","","",""
"html-keyboard-response","306","438127","0.0-13.0-0.56","5e82e99b37d333a1474dda93","64b003020eef62ee308107cc","64b10c58659cbb4789899654","null","null","<p style=""font-size: 60px; font-family: BACS"">ukcYJcUk</p>","","","","","","","",""
"html-keyboard-response","307","440129","0.0-13.0-0.57","5e82e99b37d333a1474dda93","64b003020eef62ee308107cc","64b10c58659cbb4789899654","null","null","<p style=""font-size: 60px; font-family: BACS"">bYuQark</p>","","","","","","","",""
"html-keyboard-response","308","441131","0.0-13.0-0.58","5e82e99b37d333a1474dda93","64b003020eef62ee308107cc","64b10c58659cbb4789899654","null","null","<p style=""font-size: 60px; font-family: BACS"">lRCBDbMR</p>","","","","","","","",""
"html-keyboard-response","309","443129","0.0-13.0-0.59","5e82e99b37d333a1474dda93","64b003020eef62ee308107cc","64b10c58659cbb4789899654","null","null","<p style=""font-size: 60px; font-family: BACS"">KdARTmTm</p>","","","","","","","",""
"html-keyboard-response","310","444131","0.0-13.0-0.60","5e82e99b37d333a1474dda93","64b003020eef62ee308107cc","64b10c58659cbb4789899654","null","null","<p style=""font-size: 60px; font-family: BACS"">DBlhDbMR</p>","","","","","","","",""
"html-keyboard-response","311","446128","0.0-13.0-0.61","5e82e99b37d333a1474dda93","64b003020eef62ee308107cc","64b10c58659cbb4789899654","null","null","<p style=""font-size: 60px; font-family: BACS"">rvOvUlvk</p>","","","","","","","",""
"html-keyboard-response","312","447131","0.0-13.0-0.62","5e82e99b37d333a1474dda93","64b003020eef62ee308107cc","64b10c58659cbb4789899654","null","null","<p style=""font-size: 60px; font-family: BACS"">YKRkPED</p>","","","","","","","",""
"html-keyboard-response","313","449128","0.0-13.0-0.63","5e82e99b37d333a1474dda93","64b003020eef62ee308107cc","64b10c58659cbb4789899654","null","null","<p style=""font-size: 60px; font-family: BACS"">alJYJcUk</p>","","","","","","","",""
"html-keyboard-response","314","450130","0.0-13.0-0.64","5e82e99b37d333a1474dda93","64b003020eef62ee308107cc","64b10c58659cbb4789899654","null","null","<p style=""font-size: 60px; font-family: BACS"">DBlhPED</p>","","","","","","","",""
"html-keyboard-response","315","452125","0.0-13.0-0.65","5e82e99b37d333a1474dda93","64b003020eef62ee308107cc","64b10c58659cbb4789899654","null","null","<p style=""font-size: 60px; font-family: BACS"">rvOvUOJNk</p>","","","","","","","",""
"html-keyboard-response","316","453129","0.0-13.0-0.66","5e82e99b37d333a1474dda93","64b003020eef62ee308107cc","64b10c58659cbb4789899654","null","null","<p style=""font-size: 60px; font-family: BACS"">dKDthDbMR</p>","","","","","","","",""
"html-keyboard-response","317","455128","0.0-13.0-0.67","5e82e99b37d333a1474dda93","64b003020eef62ee308107cc","64b10c58659cbb4789899654","null","null","<p style=""font-size: 60px; font-family: BACS"">YKRkTmTm</p>","","","","","","","",""
"html-keyboard-response","318","457128","0.0-13.0-0.68","5e82e99b37d333a1474dda93","64b003020eef62ee308107cc","64b10c58659cbb4789899654","null","null","<p style=""font-size: 60px; font-family: BACS"">vblrbLd</p>","","","","","","","",""
"html-keyboard-response","319","458130","0.0-13.0-0.69","5e82e99b37d333a1474dda93","64b003020eef62ee308107cc","64b10c58659cbb4789899654","null","null","<p style=""font-size: 60px; font-family: BACS"">htmhCAkd</p>","","","","","","","",""
"html-keyboard-response","320","459132","0.0-13.0-0.70","5e82e99b37d333a1474dda93","64b003020eef62ee308107cc","64b10c58659cbb4789899654","null","null","<p style=""font-size: 60px; font-family: BACS"">PhktkTmTm</p>","","","","","","","",""
"html-keyboard-response","321","461125","0.0-13.0-0.71","5e82e99b37d333a1474dda93","64b003020eef62ee308107cc","64b10c58659cbb4789899654","null","null","<p style=""font-size: 60px; font-family: BACS"">dKDthAkd</p>","","","","","","","",""
"html-keyboard-response","322","462127","0.0-13.0-0.72","5e82e99b37d333a1474dda93","64b003020eef62ee308107cc","64b10c58659cbb4789899654","null","null","<p style=""font-size: 60px; font-family: BACS"">UJmrlvk</p>","","","","","","","",""
"html-keyboard-response","323","463129","0.0-13.0-0.73","5e82e99b37d333a1474dda93","64b003020eef62ee308107cc","64b10c58659cbb4789899654","null","null","<p style=""font-size: 60px; font-family: BACS"">YuaNdbLd</p>","","","","","","","",""
"html-keyboard-response","324","464130","0.0-13.0-0.74","5e82e99b37d333a1474dda93","64b003020eef62ee308107cc","64b10c58659cbb4789899654","null","null","<p style=""font-size: 60px; font-family: BACS"">PCMPKTmTm</p>","","","","","","","",""
"html-keyboard-response","325","466129","0.0-13.0-0.75","5e82e99b37d333a1474dda93","64b003020eef62ee308107cc","64b10c58659cbb4789899654","null","null","<p style=""font-size: 60px; font-family: BACS"">MBmEPED</p>","","","","","","","",""
"html-keyboard-response","326","467131","0.0-13.0-0.76","5e82e99b37d333a1474dda93","64b003020eef62ee308107cc","64b10c58659cbb4789899654","null","null","<p style=""font-size: 60px; font-family: BACS"">dNZAJcUk</p>","","","","","","","",""
"html-keyboard-response","327","469127","0.0-13.0-0.77","5e82e99b37d333a1474dda93","64b003020eef62ee308107cc","64b10c58659cbb4789899654","null","null","<p style=""font-size: 60px; font-family: BACS"">alJYlvk</p>","","","","","","","",""
"html-keyboard-response","328","470129","0.0-13.0-0.78","5e82e99b37d333a1474dda93","64b003020eef62ee308107cc","64b10c58659cbb4789899654","null","null","<p style=""font-size: 60px; font-family: BACS"">YKRkDbMR</p>","","","","","","","",""
"html-keyboard-response","329","471130","0.0-13.0-0.79","5e82e99b37d333a1474dda93","64b003020eef62ee308107cc","64b10c58659cbb4789899654","null","null","<p style=""font-size: 60px; font-family: BACS"">ukcYOJNk</p>","","","","","","","",""
"html-keyboard-response","330","513817","0.0-14.0","5e82e99b37d333a1474dda93","64b003020eef62ee308107cc","64b10c58659cbb4789899654","39474"," ","<p>Ottimo, hai visto il quarto blocco di parole. Ora puoi prenderti una piccola pausa.</p>
      <p>Premi la barra quando sei pronta/o per riprendere.</p>","","","","","","","",""
"html-keyboard-response","331","514825","0.0-15.0-0.0","5e82e99b37d333a1474dda93","64b003020eef62ee308107cc","64b10c58659cbb4789899654","null","null","<p style=""font-size: 60px; font-family: BACS"">OAblcOJNk</p>","","","","","","","",""
"html-keyboard-response","332","515833","0.0-15.0-0.1","5e82e99b37d333a1474dda93","64b003020eef62ee308107cc","64b10c58659cbb4789899654","null","null","<p style=""font-size: 60px; font-family: BACS"">OAblcOJNk</p>","","","","","","","",""
"html-keyboard-response","333","516845","0.0-15.0-0.2","5e82e99b37d333a1474dda93","64b003020eef62ee308107cc","64b10c58659cbb4789899654","null","null","<p style=""font-size: 60px; font-family: BACS"">OAblcOJNk</p>","","","","","","","",""
"html-keyboard-response","334","517876","0.0-15.0-0.3","5e82e99b37d333a1474dda93","64b003020eef62ee308107cc","64b10c58659cbb4789899654","null","null","<p style=""font-size: 60px; font-family: BACS"">OAblcOJNk</p>","","","","","","","",""
"html-keyboard-response","335","518890","0.0-15.0-0.4","5e82e99b37d333a1474dda93","64b003020eef62ee308107cc","64b10c58659cbb4789899654","null","null","<p style=""font-size: 60px; font-family: BACS"">OAblcOJNk</p>","","","","","","","",""
"html-keyboard-response","336","519915","0.0-15.0-0.5","5e82e99b37d333a1474dda93","64b003020eef62ee308107cc","64b10c58659cbb4789899654","null","null","<p style=""font-size: 60px; font-family: BACS"">OAblcOJNk</p>","","","","","","","",""
"html-keyboard-response","337","520933","0.0-15.0-0.6","5e82e99b37d333a1474dda93","64b003020eef62ee308107cc","64b10c58659cbb4789899654","null","null","<p style=""font-size: 60px; font-family: BACS"">OAblcOJNk</p>","","","","","","","",""
"html-keyboard-response","338","521958","0.0-15.0-0.7","5e82e99b37d333a1474dda93","64b003020eef62ee308107cc","64b10c58659cbb4789899654","null","null","<p style=""font-size: 60px; font-family: BACS"">OAblcOJNk</p>","","","","","","","",""
"html-keyboard-response","339","522972","0.0-15.0-0.8","5e82e99b37d333a1474dda93","64b003020eef62ee308107cc","64b10c58659cbb4789899654","null","null","<p style=""font-size: 60px; font-family: BACS"">OAblcOJNk</p>","","","","","","","",""
"html-keyboard-response","340","523996","0.0-15.0-0.9","5e82e99b37d333a1474dda93","64b003020eef62ee308107cc","64b10c58659cbb4789899654","null","null","<p style=""font-size: 60px; font-family: BACS"">OAblcOJNk</p>","","","","","","","",""
"html-keyboard-response","341","525013","0.0-15.0-0.10","5e82e99b37d333a1474dda93","64b003020eef62ee308107cc","64b10c58659cbb4789899654","null","null","<p style=""font-size: 60px; font-family: BACS"">OAblcOJNk</p>","","","","","","","",""
"html-keyboard-response","342","526037","0.0-15.0-0.11","5e82e99b37d333a1474dda93","64b003020eef62ee308107cc","64b10c58659cbb4789899654","null","null","<p style=""font-size: 60px; font-family: BACS"">OAblcOJNk</p>","","","","","","","",""
"html-keyboard-response","343","527052","0.0-15.0-0.12","5e82e99b37d333a1474dda93","64b003020eef62ee308107cc","64b10c58659cbb4789899654","null","null","<p style=""font-size: 60px; font-family: BACS"">OAblcOJNk</p>","","","","","","","",""
"html-keyboard-response","344","528074","0.0-15.0-0.13","5e82e99b37d333a1474dda93","64b003020eef62ee308107cc","64b10c58659cbb4789899654","null","null","<p style=""font-size: 60px; font-family: BACS"">OAblcOJNk</p>","","","","","","","",""
"html-keyboard-response","345","529091","0.0-15.0-0.14","5e82e99b37d333a1474dda93","64b003020eef62ee308107cc","64b10c58659cbb4789899654","null","null","<p style=""font-size: 60px; font-family: BACS"">OAblcOJNk</p>","","","","","","","",""
"html-keyboard-response","346","530117","0.0-15.0-0.15","5e82e99b37d333a1474dda93","64b003020eef62ee308107cc","64b10c58659cbb4789899654","null","null","<p style=""font-size: 60px; font-family: BACS"">OAblcOJNk</p>","","","","","","","",""
"html-keyboard-response","347","531128","0.0-15.0-0.16","5e82e99b37d333a1474dda93","64b003020eef62ee308107cc","64b10c58659cbb4789899654","null","null","<p style=""font-size: 60px; font-family: BACS"">OAblcOJNk</p>","","","","","","","",""
"html-keyboard-response","348","532157","0.0-15.0-0.17","5e82e99b37d333a1474dda93","64b003020eef62ee308107cc","64b10c58659cbb4789899654","null","null","<p style=""font-size: 60px; font-family: BACS"">OAblcOJNk</p>","","","","","","","",""
"html-keyboard-response","349","533171","0.0-15.0-0.18","5e82e99b37d333a1474dda93","64b003020eef62ee308107cc","64b10c58659cbb4789899654","null","null","<p style=""font-size: 60px; font-family: BACS"">OAblcOJNk</p>","","","","","","","",""
"html-keyboard-response","350","534197","0.0-15.0-0.19","5e82e99b37d333a1474dda93","64b003020eef62ee308107cc","64b10c58659cbb4789899654","null","null","<p style=""font-size: 60px; font-family: BACS"">OAblcOJNk</p>","","","","","","","",""
"html-keyboard-response","351","535209","0.0-15.0-0.20","5e82e99b37d333a1474dda93","64b003020eef62ee308107cc","64b10c58659cbb4789899654","null","null","<p style=""font-size: 60px; font-family: BACS"">OAblcOJNk</p>","","","","","","","",""
"html-keyboard-response","352","536237","0.0-15.0-0.21","5e82e99b37d333a1474dda93","64b003020eef62ee308107cc","64b10c58659cbb4789899654","null","null","<p style=""font-size: 60px; font-family: BACS"">OAblcOJNk</p>","","","","","","","",""
"html-keyboard-response","353","537248","0.0-15.0-0.22","5e82e99b37d333a1474dda93","64b003020eef62ee308107cc","64b10c58659cbb4789899654","null","null","<p style=""font-size: 60px; font-family: BACS"">OAblcOJNk</p>","","","","","","","",""
"html-keyboard-response","354","538275","0.0-15.0-0.23","5e82e99b37d333a1474dda93","64b003020eef62ee308107cc","64b10c58659cbb4789899654","null","null","<p style=""font-size: 60px; font-family: BACS"">OAblcOJNk</p>","","","","","","","",""
"html-keyboard-response","355","539293","0.0-15.0-0.24","5e82e99b37d333a1474dda93","64b003020eef62ee308107cc","64b10c58659cbb4789899654","null","null","<p style=""font-size: 60px; font-family: BACS"">OAblcOJNk</p>","","","","","","","",""
"html-keyboard-response","356","540312","0.0-15.0-0.25","5e82e99b37d333a1474dda93","64b003020eef62ee308107cc","64b10c58659cbb4789899654","null","null","<p style=""font-size: 60px; font-family: BACS"">OAblcOJNk</p>","","","","","","","",""
"html-keyboard-response","357","541330","0.0-15.0-0.26","5e82e99b37d333a1474dda93","64b003020eef62ee308107cc","64b10c58659cbb4789899654","null","null","<p style=""font-size: 60px; font-family: BACS"">OAblcOJNk</p>","","","","","","","",""
"html-keyboard-response","358","542357","0.0-15.0-0.27","5e82e99b37d333a1474dda93","64b003020eef62ee308107cc","64b10c58659cbb4789899654","null","null","<p style=""font-size: 60px; font-family: BACS"">OAblcOJNk</p>","","","","","","","",""
"html-keyboard-response","359","543370","0.0-15.0-0.28","5e82e99b37d333a1474dda93","64b003020eef62ee308107cc","64b10c58659cbb4789899654","null","null","<p style=""font-size: 60px; font-family: BACS"">OAblcOJNk</p>","","","","","","","",""
"html-keyboard-response","360","544395","0.0-15.0-0.29","5e82e99b37d333a1474dda93","64b003020eef62ee308107cc","64b10c58659cbb4789899654","null","null","<p style=""font-size: 60px; font-family: BACS"">OAblcOJNk</p>","","","","","","","",""
"html-keyboard-response","361","545410","0.0-15.0-0.30","5e82e99b37d333a1474dda93","64b003020eef62ee308107cc","64b10c58659cbb4789899654","null","null","<p style=""font-size: 60px; font-family: BACS"">OAblcOJNk</p>","","","","","","","",""
"html-keyboard-response","362","546435","0.0-15.0-0.31","5e82e99b37d333a1474dda93","64b003020eef62ee308107cc","64b10c58659cbb4789899654","null","null","<p style=""font-size: 60px; font-family: BACS"">OAblcOJNk</p>","","","","","","","",""
"html-keyboard-response","363","547453","0.0-15.0-0.32","5e82e99b37d333a1474dda93","64b003020eef62ee308107cc","64b10c58659cbb4789899654","null","null","<p style=""font-size: 60px; font-family: BACS"">OAblcOJNk</p>","","","","","","","",""
"html-keyboard-response","364","549341","0.0-15.0-0.33","5e82e99b37d333a1474dda93","64b003020eef62ee308107cc","64b10c58659cbb4789899654","null","null","<p style=""font-size: 60px; font-family: BACS"">OAblcOJNk</p>","","","","","","","",""
"html-keyboard-response","365","550342","0.0-15.0-0.34","5e82e99b37d333a1474dda93","64b003020eef62ee308107cc","64b10c58659cbb4789899654","null","null","<p style=""font-size: 60px; font-family: BACS"">OAblcOJNk</p>","","","","","","","",""
"html-keyboard-response","366","551344","0.0-15.0-0.35","5e82e99b37d333a1474dda93","64b003020eef62ee308107cc","64b10c58659cbb4789899654","null","null","<p style=""font-size: 60px; font-family: BACS"">OAblcOJNk</p>","","","","","","","",""
"html-keyboard-response","367","553337","0.0-15.0-0.36","5e82e99b37d333a1474dda93","64b003020eef62ee308107cc","64b10c58659cbb4789899654","null","null","<p style=""font-size: 60px; font-family: BACS"">OAblcOJNk</p>","","","","","","","",""
"html-keyboard-response","368","554341","0.0-15.0-0.37","5e82e99b37d333a1474dda93","64b003020eef62ee308107cc","64b10c58659cbb4789899654","null","null","<p style=""font-size: 60px; font-family: BACS"">OAblcOJNk</p>","","","","","","","",""
"html-keyboard-response","369","556341","0.0-15.0-0.38","5e82e99b37d333a1474dda93","64b003020eef62ee308107cc","64b10c58659cbb4789899654","null","null","<p style=""font-size: 60px; font-family: BACS"">OAblcOJNk</p>","","","","","","","",""
"html-keyboard-response","370","557342","0.0-15.0-0.39","5e82e99b37d333a1474dda93","64b003020eef62ee308107cc","64b10c58659cbb4789899654","null","null","<p style=""font-size: 60px; font-family: BACS"">OAblcOJNk</p>","","","","","","","",""
"html-keyboard-response","371","559340","0.0-15.0-0.40","5e82e99b37d333a1474dda93","64b003020eef62ee308107cc","64b10c58659cbb4789899654","null","null","<p style=""font-size: 60px; font-family: BACS"">OAblcOJNk</p>","","","","","","","",""
"html-keyboard-response","372","560343","0.0-15.0-0.41","5e82e99b37d333a1474dda93","64b003020eef62ee308107cc","64b10c58659cbb4789899654","null","null","<p style=""font-size: 60px; font-family: BACS"">OAblcOJNk</p>","","","","","","","",""
"html-keyboard-response","373","562338","0.0-15.0-0.42","5e82e99b37d333a1474dda93","64b003020eef62ee308107cc","64b10c58659cbb4789899654","null","null","<p style=""font-size: 60px; font-family: BACS"">OAblcOJNk</p>","","","","","","","",""
"html-keyboard-response","374","563340","0.0-15.0-0.43","5e82e99b37d333a1474dda93","64b003020eef62ee308107cc","64b10c58659cbb4789899654","null","null","<p style=""font-size: 60px; font-family: BACS"">OAblcOJNk</p>","","","","","","","",""
"html-keyboard-response","375","565337","0.0-15.0-0.44","5e82e99b37d333a1474dda93","64b003020eef62ee308107cc","64b10c58659cbb4789899654","null","null","<p style=""font-size: 60px; font-family: BACS"">OAblcOJNk</p>","","","","","","","",""
"html-keyboard-response","376","566340","0.0-15.0-0.45","5e82e99b37d333a1474dda93","64b003020eef62ee308107cc","64b10c58659cbb4789899654","null","null","<p style=""font-size: 60px; font-family: BACS"">OAblcOJNk</p>","","","","","","","",""
"html-keyboard-response","377","567341","0.0-15.0-0.46","5e82e99b37d333a1474dda93","64b003020eef62ee308107cc","64b10c58659cbb4789899654","null","null","<p style=""font-size: 60px; font-family: BACS"">OAblcOJNk</p>","","","","","","","",""
"html-keyboard-response","378","569338","0.0-15.0-0.47","5e82e99b37d333a1474dda93","64b003020eef62ee308107cc","64b10c58659cbb4789899654","null","null","<p style=""font-size: 60px; font-family: BACS"">OAblcOJNk</p>","","","","","","","",""
"html-keyboard-response","379","570341","0.0-15.0-0.48","5e82e99b37d333a1474dda93","64b003020eef62ee308107cc","64b10c58659cbb4789899654","null","null","<p style=""font-size: 60px; font-family: BACS"">OAblcOJNk</p>","","","","","","","",""
"html-keyboard-response","380","571343","0.0-15.0-0.49","5e82e99b37d333a1474dda93","64b003020eef62ee308107cc","64b10c58659cbb4789899654","null","null","<p style=""font-size: 60px; font-family: BACS"">OAblcOJNk</p>","","","","","","","",""
"html-keyboard-response","381","573341","0.0-15.0-0.50","5e82e99b37d333a1474dda93","64b003020eef62ee308107cc","64b10c58659cbb4789899654","null","null","<p style=""font-size: 60px; font-family: BACS"">OAblcOJNk</p>","","","","","","","",""
"html-keyboard-response","382","575340","0.0-15.0-0.51","5e82e99b37d333a1474dda93","64b003020eef62ee308107cc","64b10c58659cbb4789899654","null","null","<p style=""font-size: 60px; font-family: BACS"">OAblcOJNk</p>","","","","","","","",""
"html-keyboard-response","383","576343","0.0-15.0-0.52","5e82e99b37d333a1474dda93","64b003020eef62ee308107cc","64b10c58659cbb4789899654","null","null","<p style=""font-size: 60px; font-family: BACS"">OAblcOJNk</p>","","","","","","","",""
"html-keyboard-response","384","578340","0.0-15.0-0.53","5e82e99b37d333a1474dda93","64b003020eef62ee308107cc","64b10c58659cbb4789899654","null","null","<p style=""font-size: 60px; font-family: BACS"">OAblcOJNk</p>","","","","","","","",""
"html-keyboard-response","385","579342","0.0-15.0-0.54","5e82e99b37d333a1474dda93","64b003020eef62ee308107cc","64b10c58659cbb4789899654","null","null","<p style=""font-size: 60px; font-family: BACS"">OAblcOJNk</p>","","","","","","","",""
"html-keyboard-response","386","581339","0.0-15.0-0.55","5e82e99b37d333a1474dda93","64b003020eef62ee308107cc","64b10c58659cbb4789899654","null","null","<p style=""font-size: 60px; font-family: BACS"">OAblcOJNk</p>","","","","","","","",""
"html-keyboard-response","387","582344","0.0-15.0-0.56","5e82e99b37d333a1474dda93","64b003020eef62ee308107cc","64b10c58659cbb4789899654","null","null","<p style=""font-size: 60px; font-family: BACS"">OAblcOJNk</p>","","","","","","","",""
"html-keyboard-response","388","584340","0.0-15.0-0.57","5e82e99b37d333a1474dda93","64b003020eef62ee308107cc","64b10c58659cbb4789899654","null","null","<p style=""font-size: 60px; font-family: BACS"">OAblcOJNk</p>","","","","","","","",""
"html-keyboard-response","389","585341","0.0-15.0-0.58","5e82e99b37d333a1474dda93","64b003020eef62ee308107cc","64b10c58659cbb4789899654","null","null","<p style=""font-size: 60px; font-family: BACS"">OAblcOJNk</p>","","","","","","","",""
"html-keyboard-response","390","587340","0.0-15.0-0.59","5e82e99b37d333a1474dda93","64b003020eef62ee308107cc","64b10c58659cbb4789899654","null","null","<p style=""font-size: 60px; font-family: BACS"">OAblcOJNk</p>","","","","","","","",""
"html-keyboard-response","391","588342","0.0-15.0-0.60","5e82e99b37d333a1474dda93","64b003020eef62ee308107cc","64b10c58659cbb4789899654","null","null","<p style=""font-size: 60px; font-family: BACS"">OAblcOJNk</p>","","","","","","","",""
"html-keyboard-response","392","590339","0.0-15.0-0.61","5e82e99b37d333a1474dda93","64b003020eef62ee308107cc","64b10c58659cbb4789899654","null","null","<p style=""font-size: 60px; font-family: BACS"">OAblcOJNk</p>","","","","","","","",""
"html-keyboard-response","393","591342","0.0-15.0-0.62","5e82e99b37d333a1474dda93","64b003020eef62ee308107cc","64b10c58659cbb4789899654","null","null","<p style=""font-size: 60px; font-family: BACS"">OAblcOJNk</p>","","","","","","","",""
"html-keyboard-response","394","592352","0.0-15.0-0.63","5e82e99b37d333a1474dda93","64b003020eef62ee308107cc","64b10c58659cbb4789899654","null","null","<p style=""font-size: 60px; font-family: BACS"">OAblcOJNk</p>","","","","","","","",""
"html-keyboard-response","395","594340","0.0-15.0-0.64","5e82e99b37d333a1474dda93","64b003020eef62ee308107cc","64b10c58659cbb4789899654","null","null","<p style=""font-size: 60px; font-family: BACS"">OAblcOJNk</p>","","","","","","","",""
"html-keyboard-response","396","595343","0.0-15.0-0.65","5e82e99b37d333a1474dda93","64b003020eef62ee308107cc","64b10c58659cbb4789899654","null","null","<p style=""font-size: 60px; font-family: BACS"">OAblcOJNk</p>","","","","","","","",""
"html-keyboard-response","397","597336","0.0-15.0-0.66","5e82e99b37d333a1474dda93","64b003020eef62ee308107cc","64b10c58659cbb4789899654","null","null","<p style=""font-size: 60px; font-family: BACS"">OAblcOJNk</p>","","","","","","","",""
"html-keyboard-response","398","598341","0.0-15.0-0.67","5e82e99b37d333a1474dda93","64b003020eef62ee308107cc","64b10c58659cbb4789899654","null","null","<p style=""font-size: 60px; font-family: BACS"">OAblcOJNk</p>","","","","","","","",""
"html-keyboard-response","399","600340","0.0-15.0-0.68","5e82e99b37d333a1474dda93","64b003020eef62ee308107cc","64b10c58659cbb4789899654","null","null","<p style=""font-size: 60px; font-family: BACS"">OAblcOJNk</p>","","","","","","","",""
"html-keyboard-response","400","601342","0.0-15.0-0.69","5e82e99b37d333a1474dda93","64b003020eef62ee308107cc","64b10c58659cbb4789899654","null","null","<p style=""font-size: 60px; font-family: BACS"">OAblcOJNk</p>","","","","","","","",""
"html-keyboard-response","401","603340","0.0-15.0-0.70","5e82e99b37d333a1474dda93","64b003020eef62ee308107cc","64b10c58659cbb4789899654","null","null","<p style=""font-size: 60px; font-family: BACS"">OAblcOJNk</p>","","","","","","","",""
"html-keyboard-response","402","604342","0.0-15.0-0.71","5e82e99b37d333a1474dda93","64b003020eef62ee308107cc","64b10c58659cbb4789899654","null","null","<p style=""font-size: 60px; font-family: BACS"">OAblcOJNk</p>","","","","","","","",""
