"trial_type","trial_index","time_elapsed","internal_node_id","subject_id","study_id","session_id","rt","response","stimulus","success","item","task","correct_response","testing_condition","correct","target","confound","name"
"pavlovia","0","664","0.0-0.0","608c64e14968cdd8dcbe1be4","650c16f0f2faf8d7a0d14c09","651c0a61c73b6eea8fa96e52","","","","","","","","","","","",""
"survey-html-form","1","14400","0.0-1.0","608c64e14968cdd8dcbe1be4","650c16f0f2faf8d7a0d14c09","651c0a61c73b6eea8fa96e52","13735","{""ID"":""608c64e14968cdd8dcbe1be4""}","","","","","","","","","",""
"html-keyboard-response","2","23746","0.0-2.0","608c64e14968cdd8dcbe1be4","650c16f0f2faf8d7a0d14c09","651c0a61c73b6eea8fa96e52","9346"," ","<p style=""font-size: 15px;"">Before beginning, we ask that you read the consent information and confirm your agreement to participate in the experiment.</p>
      <p style=""font-size: 15px;""> We ask that you remember that this is a research project and that your participation is entirely voluntary. You can stop your participation at any time, without needing to provide any explanation. The study we're asking you to participate in aims at examining how readers process written words. You will be engaged in a session of apprximately 20 minutes, followed by a brief questionnaire. You will have the opportunity to take a few breaks during the experiment. You will be paid £4 for your participation, corresponding to a rate of £8/hour. While this experiment looks at cognitive faculties, this experiment doesn't constitute clinical proof of eventual pathologies.</p>
      <p style=""font-size: 15px;"">All of the information collected thanks to yours and others' participation will be held in a secure password-protected server, and will not be shared with anyone not authorised to view it. Your personal information will be kept with an arbitrary participant ID. Thanks to this data anonymity process, any researcher analysing the data won't be able to track the information back to a specific participant. Therefore, this process will make identifying you impossibile, even when results from the study will be published in scientific reviews, presented at congresses, or at any other public forum. More generally, the collected data will be treated in accordance with the laws on privacy and conformity to the Legislative Degree n. 196 ""Code regarding the protection of personal data"" of the 30th of June 2003 and to the European Regulation 2016/670 (General Data Protection Regulation - GDPR). The Data Protection Officer is Avv. Valentina Carollo, who can be contacted at the following email addresses: <a href=""mailto:dpo@sissa.it"">dpo@sissa.it</a> or <a href=""mailto:rpd@sissa.it"">rpd@sissa.it</a> - PEC: <a href=""mailto:protocollo@pec.sissa.it"">protocollo@pec.sissa.it</a>.</p>
      <p style=""font-size: 15px;""> Before expressing your consent to participate, we would like to remind you again that in case you need explanations on any aspect of the experimental procedure, the researcher is at your disposition (<a href=""mailto:aliebelt@sissa.it"">aliebelt@sissa.it</a>, <a href=""mailto:davide.crepaldi@sissa.it"">davide.crepaldi@sissa.it</a>).</p>
      <p style=""font-size: 15px;"">If you would like to download the informed consent form, you can do so here: <a href=""BASL-Informed_Consent.pdf"" download>informed consent form</a>.</p>
      <p style=""font-size: 15px;"">We ask that you press the spacebar to proceed to the consent section.</p>","","","","","","","","",""
"survey-html-form","3","34475","0.0-3.0","608c64e14968cdd8dcbe1be4","650c16f0f2faf8d7a0d14c09","651c0a61c73b6eea8fa96e52","10727","{""consent1"":""YES"",""consent2"":""YES"",""consent3"":""YES"",""consent4"":""YES"",""consent5"":""YES"",""consent6"":""YES""}","","","","","","","","","",""
"fullscreen","4","44974","0.0-4.0","608c64e14968cdd8dcbe1be4","650c16f0f2faf8d7a0d14c09","651c0a61c73b6eea8fa96e52","","","","true","","","","","","","",""
"html-keyboard-response","5","61566","0.0-5.0","608c64e14968cdd8dcbe1be4","650c16f0f2faf8d7a0d14c09","651c0a61c73b6eea8fa96e52","16592"," ","<p>Welcome, and thank you very much for your time!</p>
      <p>In this experiment, you'll be a language expert who's been asked to take a look at words that Earth has received in its first communication with aliens. Your task, in this first part of the experiment, is to pay close attention to the words you'll be shown; later, world leaders will ask you questions on what you saw. The words will be shown to you quite quickly; it seems that the aliens were in a hurry :-)</p>
      <p>Press the spacebar to continue.<p>","","","","","","","","",""
"html-keyboard-response","6","61618","0.0-6.0","608c64e14968cdd8dcbe1be4","650c16f0f2faf8d7a0d14c09","651c0a61c73b6eea8fa96e52","null","null","<p style=""font-size: 120px; font-family: BACS""> </p>","","","","","","","","",""
"html-keyboard-response","7","64889","0.0-7.0","608c64e14968cdd8dcbe1be4","650c16f0f2faf8d7a0d14c09","651c0a61c73b6eea8fa96e52","3270"," ","<p>Here is an example of the words you'll see:</p>
      <img src='esempio.png' height='400px'>
      <p>When you're ready to begin, press the spacebar.</p></div>","","","","","","","","",""
"html-keyboard-response","8","65898","0.0-8.0-0.0","608c64e14968cdd8dcbe1be4","650c16f0f2faf8d7a0d14c09","651c0a61c73b6eea8fa96e52","null","null","<p style=""font-size: 60px; font-family: BACS"">hlkTDmh</p>","","","","","","","","",""
"html-keyboard-response","9","66907","0.0-8.0-0.1","608c64e14968cdd8dcbe1be4","650c16f0f2faf8d7a0d14c09","651c0a61c73b6eea8fa96e52","null","null","<p style=""font-size: 60px; font-family: BACS"">AmaclLcO</p>","","","","","","","","",""
"html-keyboard-response","10","67919","0.0-8.0-0.2","608c64e14968cdd8dcbe1be4","650c16f0f2faf8d7a0d14c09","651c0a61c73b6eea8fa96e52","null","null","<p style=""font-size: 60px; font-family: BACS"">hbkdDmh</p>","","","","","","","","",""
"html-keyboard-response","11","68931","0.0-8.0-0.3","608c64e14968cdd8dcbe1be4","650c16f0f2faf8d7a0d14c09","651c0a61c73b6eea8fa96e52","null","null","<p style=""font-size: 60px; font-family: BACS"">dkLlmZb</p>","","","","","","","","",""
"html-keyboard-response","12","69938","0.0-8.0-0.4","608c64e14968cdd8dcbe1be4","650c16f0f2faf8d7a0d14c09","651c0a61c73b6eea8fa96e52","null","null","<p style=""font-size: 60px; font-family: BACS"">UAcdubLd</p>","","","","","","","","",""
"html-keyboard-response","13","70953","0.0-8.0-0.5","608c64e14968cdd8dcbe1be4","650c16f0f2faf8d7a0d14c09","651c0a61c73b6eea8fa96e52","null","null","<p style=""font-size: 60px; font-family: BACS"">KMDYtDmh</p>","","","","","","","","",""
"html-keyboard-response","14","71977","0.0-8.0-0.6","608c64e14968cdd8dcbe1be4","650c16f0f2faf8d7a0d14c09","651c0a61c73b6eea8fa96e52","null","null","<p style=""font-size: 60px; font-family: BACS"">hbkdOYK</p>","","","","","","","","",""
"html-keyboard-response","15","72990","0.0-8.0-0.7","608c64e14968cdd8dcbe1be4","650c16f0f2faf8d7a0d14c09","651c0a61c73b6eea8fa96e52","null","null","<p style=""font-size: 60px; font-family: BACS"">hlkTCdt</p>","","","","","","","","",""
"html-keyboard-response","16","73999","0.0-8.0-0.8","608c64e14968cdd8dcbe1be4","650c16f0f2faf8d7a0d14c09","651c0a61c73b6eea8fa96e52","null","null","<p style=""font-size: 60px; font-family: BACS"">AmaclmvG</p>","","","","","","","","",""
"html-keyboard-response","17","75004","0.0-8.0-0.9","608c64e14968cdd8dcbe1be4","650c16f0f2faf8d7a0d14c09","651c0a61c73b6eea8fa96e52","null","null","<p style=""font-size: 60px; font-family: BACS"">EMYKCdt</p>","","","","","","","","",""
"html-keyboard-response","18","76013","0.0-8.0-0.10","608c64e14968cdd8dcbe1be4","650c16f0f2faf8d7a0d14c09","651c0a61c73b6eea8fa96e52","null","null","<p style=""font-size: 60px; font-family: BACS"">OAmAdbTE</p>","","","","","","","","",""
"html-keyboard-response","19","77037","0.0-8.0-0.11","608c64e14968cdd8dcbe1be4","650c16f0f2faf8d7a0d14c09","651c0a61c73b6eea8fa96e52","null","null","<p style=""font-size: 60px; font-family: BACS"">NbmQUbLd</p>","","","","","","","","",""
"html-keyboard-response","20","78046","0.0-8.0-0.12","608c64e14968cdd8dcbe1be4","650c16f0f2faf8d7a0d14c09","651c0a61c73b6eea8fa96e52","null","null","<p style=""font-size: 60px; font-family: BACS"">dMYBPDmh</p>","","","","","","","","",""
"html-keyboard-response","21","79058","0.0-8.0-0.13","608c64e14968cdd8dcbe1be4","650c16f0f2faf8d7a0d14c09","651c0a61c73b6eea8fa96e52","null","null","<p style=""font-size: 60px; font-family: BACS"">adkrbLd</p>","","","","","","","","",""
"html-keyboard-response","22","80069","0.0-8.0-0.14","608c64e14968cdd8dcbe1be4","650c16f0f2faf8d7a0d14c09","651c0a61c73b6eea8fa96e52","null","null","<p style=""font-size: 60px; font-family: BACS"">UAcduLcO</p>","","","","","","","","",""
"html-keyboard-response","23","81081","0.0-8.0-0.15","608c64e14968cdd8dcbe1be4","650c16f0f2faf8d7a0d14c09","651c0a61c73b6eea8fa96e52","null","null","<p style=""font-size: 60px; font-family: BACS"">OAmAdOYK</p>","","","","","","","","",""
"html-keyboard-response","24","82090","0.0-8.0-0.16","608c64e14968cdd8dcbe1be4","650c16f0f2faf8d7a0d14c09","651c0a61c73b6eea8fa96e52","null","null","<p style=""font-size: 60px; font-family: BACS"">dMYBPCdt</p>","","","","","","","","",""
"html-keyboard-response","25","83102","0.0-8.0-0.17","608c64e14968cdd8dcbe1be4","650c16f0f2faf8d7a0d14c09","651c0a61c73b6eea8fa96e52","null","null","<p style=""font-size: 60px; font-family: BACS"">JuamlYbN</p>","","","","","","","","",""
"html-keyboard-response","26","84108","0.0-8.0-0.18","608c64e14968cdd8dcbe1be4","650c16f0f2faf8d7a0d14c09","651c0a61c73b6eea8fa96e52","null","null","<p style=""font-size: 60px; font-family: BACS"">dkLlLcO</p>","","","","","","","","",""
"html-keyboard-response","27","85115","0.0-8.0-0.19","608c64e14968cdd8dcbe1be4","650c16f0f2faf8d7a0d14c09","651c0a61c73b6eea8fa96e52","null","null","<p style=""font-size: 60px; font-family: BACS"">hlkTCmYA</p>","","","","","","","","",""
"html-keyboard-response","28","86123","0.0-8.0-0.20","608c64e14968cdd8dcbe1be4","650c16f0f2faf8d7a0d14c09","651c0a61c73b6eea8fa96e52","null","null","<p style=""font-size: 60px; font-family: BACS"">NkUAmZb</p>","","","","","","","","",""
"html-keyboard-response","29","87133","0.0-8.0-0.21","608c64e14968cdd8dcbe1be4","650c16f0f2faf8d7a0d14c09","651c0a61c73b6eea8fa96e52","null","null","<p style=""font-size: 60px; font-family: BACS"">BMEMAbTE</p>","","","","","","","","",""
"html-keyboard-response","30","88137","0.0-8.0-0.22","608c64e14968cdd8dcbe1be4","650c16f0f2faf8d7a0d14c09","651c0a61c73b6eea8fa96e52","null","null","<p style=""font-size: 60px; font-family: BACS"">AlQaQmZb</p>","","","","","","","","",""
"html-keyboard-response","31","89146","0.0-8.0-0.23","608c64e14968cdd8dcbe1be4","650c16f0f2faf8d7a0d14c09","651c0a61c73b6eea8fa96e52","null","null","<p style=""font-size: 60px; font-family: BACS"">UAcduYbN</p>","","","","","","","","",""
"html-keyboard-response","32","90154","0.0-8.0-0.24","608c64e14968cdd8dcbe1be4","650c16f0f2faf8d7a0d14c09","651c0a61c73b6eea8fa96e52","null","null","<p style=""font-size: 60px; font-family: BACS"">PCPDhCdt</p>","","","","","","","","",""
"html-keyboard-response","33","91166","0.0-8.0-0.25","608c64e14968cdd8dcbe1be4","650c16f0f2faf8d7a0d14c09","651c0a61c73b6eea8fa96e52","null","null","<p style=""font-size: 60px; font-family: BACS"">OAmAdCmYA</p>","","","","","","","","",""
"html-keyboard-response","34","92171","0.0-8.0-0.26","608c64e14968cdd8dcbe1be4","650c16f0f2faf8d7a0d14c09","651c0a61c73b6eea8fa96e52","null","null","<p style=""font-size: 60px; font-family: BACS"">EMbDPCdt</p>","","","","","","","","",""
"html-keyboard-response","35","93178","0.0-8.0-0.27","608c64e14968cdd8dcbe1be4","650c16f0f2faf8d7a0d14c09","651c0a61c73b6eea8fa96e52","null","null","<p style=""font-size: 60px; font-family: BACS"">YJLcAmvG</p>","","","","","","","","",""
"html-keyboard-response","36","94185","0.0-8.0-0.28","608c64e14968cdd8dcbe1be4","650c16f0f2faf8d7a0d14c09","651c0a61c73b6eea8fa96e52","null","null","<p style=""font-size: 60px; font-family: BACS"">AmaclbLd</p>","","","","","","","","",""
"html-keyboard-response","37","95195","0.0-8.0-0.29","608c64e14968cdd8dcbe1be4","650c16f0f2faf8d7a0d14c09","651c0a61c73b6eea8fa96e52","null","null","<p style=""font-size: 60px; font-family: BACS"">ukYZmvG</p>","","","","","","","","",""
"html-keyboard-response","38","96218","0.0-8.0-0.30","608c64e14968cdd8dcbe1be4","650c16f0f2faf8d7a0d14c09","651c0a61c73b6eea8fa96e52","null","null","<p style=""font-size: 60px; font-family: BACS"">hbkdCdt</p>","","","","","","","","",""
"html-keyboard-response","39","97232","0.0-8.0-0.31","608c64e14968cdd8dcbe1be4","650c16f0f2faf8d7a0d14c09","651c0a61c73b6eea8fa96e52","null","null","<p style=""font-size: 60px; font-family: BACS"">OAmAdDmh</p>","","","","","","","","",""
"html-keyboard-response","40","98256","0.0-8.0-0.32","608c64e14968cdd8dcbe1be4","650c16f0f2faf8d7a0d14c09","651c0a61c73b6eea8fa96e52","null","null","<p style=""font-size: 60px; font-family: BACS"">AmaclmZb</p>","","","","","","","","",""
"html-keyboard-response","41","99264","0.0-8.0-0.33","608c64e14968cdd8dcbe1be4","650c16f0f2faf8d7a0d14c09","651c0a61c73b6eea8fa96e52","null","null","<p style=""font-size: 60px; font-family: BACS"">JuamlmvG</p>","","","","","","","","",""
"html-keyboard-response","42","100287","0.0-8.0-0.34","608c64e14968cdd8dcbe1be4","650c16f0f2faf8d7a0d14c09","651c0a61c73b6eea8fa96e52","null","null","<p style=""font-size: 60px; font-family: BACS"">PCPDhCmYA</p>","","","","","","","","",""
"html-keyboard-response","43","101299","0.0-8.0-0.35","608c64e14968cdd8dcbe1be4","650c16f0f2faf8d7a0d14c09","651c0a61c73b6eea8fa96e52","null","null","<p style=""font-size: 60px; font-family: BACS"">NkUAbLd</p>","","","","","","","","",""
"html-keyboard-response","44","102326","0.0-8.0-0.36","608c64e14968cdd8dcbe1be4","650c16f0f2faf8d7a0d14c09","651c0a61c73b6eea8fa96e52","null","null","<p style=""font-size: 60px; font-family: BACS"">dkLlmvG</p>","","","","","","","","",""
"html-keyboard-response","45","103340","0.0-8.0-0.37","608c64e14968cdd8dcbe1be4","650c16f0f2faf8d7a0d14c09","651c0a61c73b6eea8fa96e52","null","null","<p style=""font-size: 60px; font-family: BACS"">KMDYtbTE</p>","","","","","","","","",""
"html-keyboard-response","46","104360","0.0-8.0-0.38","608c64e14968cdd8dcbe1be4","650c16f0f2faf8d7a0d14c09","651c0a61c73b6eea8fa96e52","null","null","<p style=""font-size: 60px; font-family: BACS"">JuamlLcO</p>","","","","","","","","",""
"html-keyboard-response","47","105368","0.0-8.0-0.39","608c64e14968cdd8dcbe1be4","650c16f0f2faf8d7a0d14c09","651c0a61c73b6eea8fa96e52","null","null","<p style=""font-size: 60px; font-family: BACS"">AlQaQYbN</p>","","","","","","","","",""
"html-keyboard-response","48","106388","0.0-8.0-0.40","608c64e14968cdd8dcbe1be4","650c16f0f2faf8d7a0d14c09","651c0a61c73b6eea8fa96e52","null","null","<p style=""font-size: 60px; font-family: BACS"">KMDYtOYK</p>","","","","","","","","",""
"html-keyboard-response","49","107397","0.0-8.0-0.41","608c64e14968cdd8dcbe1be4","650c16f0f2faf8d7a0d14c09","651c0a61c73b6eea8fa96e52","null","null","<p style=""font-size: 60px; font-family: BACS"">adkrYbN</p>","","","","","","","","",""
"html-keyboard-response","50","108425","0.0-8.0-0.42","608c64e14968cdd8dcbe1be4","650c16f0f2faf8d7a0d14c09","651c0a61c73b6eea8fa96e52","null","null","<p style=""font-size: 60px; font-family: BACS"">PCPDhbTE</p>","","","","","","","","",""
"html-keyboard-response","51","109434","0.0-8.0-0.43","608c64e14968cdd8dcbe1be4","650c16f0f2faf8d7a0d14c09","651c0a61c73b6eea8fa96e52","null","null","<p style=""font-size: 60px; font-family: BACS"">EMbDPCmYA</p>","","","","","","","","",""
"html-keyboard-response","52","110462","0.0-8.0-0.44","608c64e14968cdd8dcbe1be4","650c16f0f2faf8d7a0d14c09","651c0a61c73b6eea8fa96e52","null","null","<p style=""font-size: 60px; font-family: BACS"">YJLcAbLd</p>","","","","","","","","",""
"html-keyboard-response","53","111471","0.0-8.0-0.45","608c64e14968cdd8dcbe1be4","650c16f0f2faf8d7a0d14c09","651c0a61c73b6eea8fa96e52","null","null","<p style=""font-size: 60px; font-family: BACS"">EPMDkDmh</p>","","","","","","","","",""
"html-keyboard-response","54","112492","0.0-8.0-0.46","608c64e14968cdd8dcbe1be4","650c16f0f2faf8d7a0d14c09","651c0a61c73b6eea8fa96e52","null","null","<p style=""font-size: 60px; font-family: BACS"">JuamlmZb</p>","","","","","","","","",""
"html-keyboard-response","55","113504","0.0-8.0-0.47","608c64e14968cdd8dcbe1be4","650c16f0f2faf8d7a0d14c09","651c0a61c73b6eea8fa96e52","null","null","<p style=""font-size: 60px; font-family: BACS"">adkrLcO</p>","","","","","","","","",""
"html-keyboard-response","56","114524","0.0-8.0-0.48","608c64e14968cdd8dcbe1be4","650c16f0f2faf8d7a0d14c09","651c0a61c73b6eea8fa96e52","null","null","<p style=""font-size: 60px; font-family: BACS"">KMDYtCmYA</p>","","","","","","","","",""
"html-keyboard-response","57","115529","0.0-8.0-0.49","608c64e14968cdd8dcbe1be4","650c16f0f2faf8d7a0d14c09","651c0a61c73b6eea8fa96e52","null","null","<p style=""font-size: 60px; font-family: BACS"">YJLcALcO</p>","","","","","","","","",""
"html-keyboard-response","58","116553","0.0-8.0-0.50","608c64e14968cdd8dcbe1be4","650c16f0f2faf8d7a0d14c09","651c0a61c73b6eea8fa96e52","null","null","<p style=""font-size: 60px; font-family: BACS"">adkrmZb</p>","","","","","","","","",""
"html-keyboard-response","59","117558","0.0-8.0-0.51","608c64e14968cdd8dcbe1be4","650c16f0f2faf8d7a0d14c09","651c0a61c73b6eea8fa96e52","null","null","<p style=""font-size: 60px; font-family: BACS"">BMEMACdt</p>","","","","","","","","",""
"html-keyboard-response","60","118584","0.0-8.0-0.52","608c64e14968cdd8dcbe1be4","650c16f0f2faf8d7a0d14c09","651c0a61c73b6eea8fa96e52","null","null","<p style=""font-size: 60px; font-family: BACS"">dMYBPOYK</p>","","","","","","","","",""
"html-keyboard-response","61","119592","0.0-8.0-0.53","608c64e14968cdd8dcbe1be4","650c16f0f2faf8d7a0d14c09","651c0a61c73b6eea8fa96e52","null","null","<p style=""font-size: 60px; font-family: BACS"">EPMDkCdt</p>","","","","","","","","",""
"html-keyboard-response","62","120614","0.0-8.0-0.54","608c64e14968cdd8dcbe1be4","650c16f0f2faf8d7a0d14c09","651c0a61c73b6eea8fa96e52","null","null","<p style=""font-size: 60px; font-family: BACS"">NbmQULcO</p>","","","","","","","","",""
"html-keyboard-response","63","121626","0.0-8.0-0.55","608c64e14968cdd8dcbe1be4","650c16f0f2faf8d7a0d14c09","651c0a61c73b6eea8fa96e52","null","null","<p style=""font-size: 60px; font-family: BACS"">EMYKDmh</p>","","","","","","","","",""
"html-keyboard-response","64","122657","0.0-8.0-0.56","608c64e14968cdd8dcbe1be4","650c16f0f2faf8d7a0d14c09","651c0a61c73b6eea8fa96e52","null","null","<p style=""font-size: 60px; font-family: BACS"">EPMDkCmYA</p>","","","","","","","","",""
"html-keyboard-response","65","123668","0.0-8.0-0.57","608c64e14968cdd8dcbe1be4","650c16f0f2faf8d7a0d14c09","651c0a61c73b6eea8fa96e52","null","null","<p style=""font-size: 60px; font-family: BACS"">EMbDPOYK</p>","","","","","","","","",""
"html-keyboard-response","66","124691","0.0-8.0-0.58","608c64e14968cdd8dcbe1be4","650c16f0f2faf8d7a0d14c09","651c0a61c73b6eea8fa96e52","null","null","<p style=""font-size: 60px; font-family: BACS"">NkUAYbN</p>","","","","","","","","",""
"html-keyboard-response","67","125705","0.0-8.0-0.59","608c64e14968cdd8dcbe1be4","650c16f0f2faf8d7a0d14c09","651c0a61c73b6eea8fa96e52","null","null","<p style=""font-size: 60px; font-family: BACS"">NbmQUmZb</p>","","","","","","","","",""
"html-keyboard-response","68","126714","0.0-8.0-0.60","608c64e14968cdd8dcbe1be4","650c16f0f2faf8d7a0d14c09","651c0a61c73b6eea8fa96e52","null","null","<p style=""font-size: 60px; font-family: BACS"">AlQaQbLd</p>","","","","","","","","",""
"html-keyboard-response","69","127720","0.0-8.0-0.61","608c64e14968cdd8dcbe1be4","650c16f0f2faf8d7a0d14c09","651c0a61c73b6eea8fa96e52","null","null","<p style=""font-size: 60px; font-family: BACS"">hlkTOYK</p>","","","","","","","","",""
"html-keyboard-response","70","128731","0.0-8.0-0.62","608c64e14968cdd8dcbe1be4","650c16f0f2faf8d7a0d14c09","651c0a61c73b6eea8fa96e52","null","null","<p style=""font-size: 60px; font-family: BACS"">BMEMADmh</p>","","","","","","","","",""
"html-keyboard-response","71","129743","0.0-8.0-0.63","608c64e14968cdd8dcbe1be4","650c16f0f2faf8d7a0d14c09","651c0a61c73b6eea8fa96e52","null","null","<p style=""font-size: 60px; font-family: BACS"">dMYBPbTE</p>","","","","","","","","",""
"html-keyboard-response","72","130757","0.0-8.0-0.64","608c64e14968cdd8dcbe1be4","650c16f0f2faf8d7a0d14c09","651c0a61c73b6eea8fa96e52","null","null","<p style=""font-size: 60px; font-family: BACS"">BMEMAOYK</p>","","","","","","","","",""
"html-keyboard-response","73","131764","0.0-8.0-0.65","608c64e14968cdd8dcbe1be4","650c16f0f2faf8d7a0d14c09","651c0a61c73b6eea8fa96e52","null","null","<p style=""font-size: 60px; font-family: BACS"">NkUAmvG</p>","","","","","","","","",""
"html-keyboard-response","74","132773","0.0-8.0-0.66","608c64e14968cdd8dcbe1be4","650c16f0f2faf8d7a0d14c09","651c0a61c73b6eea8fa96e52","null","null","<p style=""font-size: 60px; font-family: BACS"">hbkdCmYA</p>","","","","","","","","",""
"html-keyboard-response","75","133786","0.0-8.0-0.67","608c64e14968cdd8dcbe1be4","650c16f0f2faf8d7a0d14c09","651c0a61c73b6eea8fa96e52","null","null","<p style=""font-size: 60px; font-family: BACS"">EMbDPbTE</p>","","","","","","","","",""
"html-keyboard-response","76","134796","0.0-8.0-0.68","608c64e14968cdd8dcbe1be4","650c16f0f2faf8d7a0d14c09","651c0a61c73b6eea8fa96e52","null","null","<p style=""font-size: 60px; font-family: BACS"">AlQaQLcO</p>","","","","","","","","",""
"html-keyboard-response","77","135811","0.0-8.0-0.69","608c64e14968cdd8dcbe1be4","650c16f0f2faf8d7a0d14c09","651c0a61c73b6eea8fa96e52","null","null","<p style=""font-size: 60px; font-family: BACS"">PCPDhOYK</p>","","","","","","","","",""
"html-keyboard-response","78","136831","0.0-8.0-0.70","608c64e14968cdd8dcbe1be4","650c16f0f2faf8d7a0d14c09","651c0a61c73b6eea8fa96e52","null","null","<p style=""font-size: 60px; font-family: BACS"">ukYZbLd</p>","","","","","","","","",""
"html-keyboard-response","79","137839","0.0-8.0-0.71","608c64e14968cdd8dcbe1be4","650c16f0f2faf8d7a0d14c09","651c0a61c73b6eea8fa96e52","null","null","<p style=""font-size: 60px; font-family: BACS"">YJLcAYbN</p>","","","","","","","","",""
"html-keyboard-response","80","138867","0.0-8.0-0.72","608c64e14968cdd8dcbe1be4","650c16f0f2faf8d7a0d14c09","651c0a61c73b6eea8fa96e52","null","null","<p style=""font-size: 60px; font-family: BACS"">UAcdumvG</p>","","","","","","","","",""
"html-keyboard-response","81","139874","0.0-8.0-0.73","608c64e14968cdd8dcbe1be4","650c16f0f2faf8d7a0d14c09","651c0a61c73b6eea8fa96e52","null","null","<p style=""font-size: 60px; font-family: BACS"">dkLlYbN</p>","","","","","","","","",""
"html-keyboard-response","82","140903","0.0-8.0-0.74","608c64e14968cdd8dcbe1be4","650c16f0f2faf8d7a0d14c09","651c0a61c73b6eea8fa96e52","null","null","<p style=""font-size: 60px; font-family: BACS"">EPMDkbTE</p>","","","","","","","","",""
"html-keyboard-response","83","141912","0.0-8.0-0.75","608c64e14968cdd8dcbe1be4","650c16f0f2faf8d7a0d14c09","651c0a61c73b6eea8fa96e52","null","null","<p style=""font-size: 60px; font-family: BACS"">ukYZYbN</p>","","","","","","","","",""
"html-keyboard-response","84","142934","0.0-8.0-0.76","608c64e14968cdd8dcbe1be4","650c16f0f2faf8d7a0d14c09","651c0a61c73b6eea8fa96e52","null","null","<p style=""font-size: 60px; font-family: BACS"">EMYKbTE</p>","","","","","","","","",""
"html-keyboard-response","85","143944","0.0-8.0-0.77","608c64e14968cdd8dcbe1be4","650c16f0f2faf8d7a0d14c09","651c0a61c73b6eea8fa96e52","null","null","<p style=""font-size: 60px; font-family: BACS"">NbmQUmvG</p>","","","","","","","","",""
"html-keyboard-response","86","144966","0.0-8.0-0.78","608c64e14968cdd8dcbe1be4","650c16f0f2faf8d7a0d14c09","651c0a61c73b6eea8fa96e52","null","null","<p style=""font-size: 60px; font-family: BACS"">ukYZmZb</p>","","","","","","","","",""
"html-keyboard-response","87","145974","0.0-8.0-0.79","608c64e14968cdd8dcbe1be4","650c16f0f2faf8d7a0d14c09","651c0a61c73b6eea8fa96e52","null","null","<p style=""font-size: 60px; font-family: BACS"">EMYKCmYA</p>","","","","","","","","",""
"html-keyboard-response","88","153794","0.0-9.0","608c64e14968cdd8dcbe1be4","650c16f0f2faf8d7a0d14c09","651c0a61c73b6eea8fa96e52","7819"," ","<p>Great, you've seen the first block of words. You may now take a short break.</p>
      <p>Press the spacebar when you're ready to continue.</p>","","","","","","","","",""
"html-keyboard-response","89","154796","0.0-10.0-0.0","608c64e14968cdd8dcbe1be4","650c16f0f2faf8d7a0d14c09","651c0a61c73b6eea8fa96e52","null","null","<p style=""font-size: 60px; font-family: BACS"">JuamlLcO</p>","","","","","","","","",""
"html-keyboard-response","90","155806","0.0-10.0-0.1","608c64e14968cdd8dcbe1be4","650c16f0f2faf8d7a0d14c09","651c0a61c73b6eea8fa96e52","null","null","<p style=""font-size: 60px; font-family: BACS"">dMYBPbTE</p>","","","","","","","","",""
"html-keyboard-response","91","156815","0.0-10.0-0.2","608c64e14968cdd8dcbe1be4","650c16f0f2faf8d7a0d14c09","651c0a61c73b6eea8fa96e52","null","null","<p style=""font-size: 60px; font-family: BACS"">UAcdumvG</p>","","","","","","","","",""
"html-keyboard-response","92","157824","0.0-10.0-0.3","608c64e14968cdd8dcbe1be4","650c16f0f2faf8d7a0d14c09","651c0a61c73b6eea8fa96e52","null","null","<p style=""font-size: 60px; font-family: BACS"">BMEMAOYK</p>","","","","","","","","",""
"html-keyboard-response","93","158832","0.0-10.0-0.4","608c64e14968cdd8dcbe1be4","650c16f0f2faf8d7a0d14c09","651c0a61c73b6eea8fa96e52","null","null","<p style=""font-size: 60px; font-family: BACS"">PCPDhbTE</p>","","","","","","","","",""
"html-keyboard-response","94","159837","0.0-10.0-0.5","608c64e14968cdd8dcbe1be4","650c16f0f2faf8d7a0d14c09","651c0a61c73b6eea8fa96e52","null","null","<p style=""font-size: 60px; font-family: BACS"">dkLlYbN</p>","","","","","","","","",""
"html-keyboard-response","95","160846","0.0-10.0-0.6","608c64e14968cdd8dcbe1be4","650c16f0f2faf8d7a0d14c09","651c0a61c73b6eea8fa96e52","null","null","<p style=""font-size: 60px; font-family: BACS"">ukYZbLd</p>","","","","","","","","",""
"html-keyboard-response","96","161856","0.0-10.0-0.7","608c64e14968cdd8dcbe1be4","650c16f0f2faf8d7a0d14c09","651c0a61c73b6eea8fa96e52","null","null","<p style=""font-size: 60px; font-family: BACS"">AmaclmvG</p>","","","","","","","","",""
"html-keyboard-response","97","162881","0.0-10.0-0.8","608c64e14968cdd8dcbe1be4","650c16f0f2faf8d7a0d14c09","651c0a61c73b6eea8fa96e52","null","null","<p style=""font-size: 60px; font-family: BACS"">EMbDPCmYA</p>","","","","","","","","",""
"html-keyboard-response","98","163894","0.0-10.0-0.9","608c64e14968cdd8dcbe1be4","650c16f0f2faf8d7a0d14c09","651c0a61c73b6eea8fa96e52","null","null","<p style=""font-size: 60px; font-family: BACS"">AmaclmZb</p>","","","","","","","","",""
"html-keyboard-response","99","164914","0.0-10.0-0.10","608c64e14968cdd8dcbe1be4","650c16f0f2faf8d7a0d14c09","651c0a61c73b6eea8fa96e52","null","null","<p style=""font-size: 60px; font-family: BACS"">OAmAdCmYA</p>","","","","","","","","",""
"html-keyboard-response","100","165925","0.0-10.0-0.11","608c64e14968cdd8dcbe1be4","650c16f0f2faf8d7a0d14c09","651c0a61c73b6eea8fa96e52","null","null","<p style=""font-size: 60px; font-family: BACS"">adkrbLd</p>","","","","","","","","",""
"html-keyboard-response","101","166948","0.0-10.0-0.12","608c64e14968cdd8dcbe1be4","650c16f0f2faf8d7a0d14c09","651c0a61c73b6eea8fa96e52","null","null","<p style=""font-size: 60px; font-family: BACS"">BMEMADmh</p>","","","","","","","","",""
"html-keyboard-response","102","167959","0.0-10.0-0.13","608c64e14968cdd8dcbe1be4","650c16f0f2faf8d7a0d14c09","651c0a61c73b6eea8fa96e52","null","null","<p style=""font-size: 60px; font-family: BACS"">YJLcAbLd</p>","","","","","","","","",""
"html-keyboard-response","103","168986","0.0-10.0-0.14","608c64e14968cdd8dcbe1be4","650c16f0f2faf8d7a0d14c09","651c0a61c73b6eea8fa96e52","null","null","<p style=""font-size: 60px; font-family: BACS"">ukYZmvG</p>","","","","","","","","",""
"html-keyboard-response","104","169993","0.0-10.0-0.15","608c64e14968cdd8dcbe1be4","650c16f0f2faf8d7a0d14c09","651c0a61c73b6eea8fa96e52","null","null","<p style=""font-size: 60px; font-family: BACS"">JuamlYbN</p>","","","","","","","","",""
"html-keyboard-response","105","171020","0.0-10.0-0.16","608c64e14968cdd8dcbe1be4","650c16f0f2faf8d7a0d14c09","651c0a61c73b6eea8fa96e52","null","null","<p style=""font-size: 60px; font-family: BACS"">KMDYtCmYA</p>","","","","","","","","",""
"html-keyboard-response","106","172030","0.0-10.0-0.17","608c64e14968cdd8dcbe1be4","650c16f0f2faf8d7a0d14c09","651c0a61c73b6eea8fa96e52","null","null","<p style=""font-size: 60px; font-family: BACS"">UAcdubLd</p>","","","","","","","","",""
"html-keyboard-response","107","173058","0.0-10.0-0.18","608c64e14968cdd8dcbe1be4","650c16f0f2faf8d7a0d14c09","651c0a61c73b6eea8fa96e52","null","null","<p style=""font-size: 60px; font-family: BACS"">EMbDPOYK</p>","","","","","","","","",""
"html-keyboard-response","108","174070","0.0-10.0-0.19","608c64e14968cdd8dcbe1be4","650c16f0f2faf8d7a0d14c09","651c0a61c73b6eea8fa96e52","null","null","<p style=""font-size: 60px; font-family: BACS"">adkrmZb</p>","","","","","","","","",""
"html-keyboard-response","109","175094","0.0-10.0-0.20","608c64e14968cdd8dcbe1be4","650c16f0f2faf8d7a0d14c09","651c0a61c73b6eea8fa96e52","null","null","<p style=""font-size: 60px; font-family: BACS"">AmaclbLd</p>","","","","","","","","",""
"html-keyboard-response","110","176105","0.0-10.0-0.21","608c64e14968cdd8dcbe1be4","650c16f0f2faf8d7a0d14c09","651c0a61c73b6eea8fa96e52","null","null","<p style=""font-size: 60px; font-family: BACS"">dkLlLcO</p>","","","","","","","","",""
"html-keyboard-response","111","177133","0.0-10.0-0.22","608c64e14968cdd8dcbe1be4","650c16f0f2faf8d7a0d14c09","651c0a61c73b6eea8fa96e52","null","null","<p style=""font-size: 60px; font-family: BACS"">JuamlmZb</p>","","","","","","","","",""
"html-keyboard-response","112","178141","0.0-10.0-0.23","608c64e14968cdd8dcbe1be4","650c16f0f2faf8d7a0d14c09","651c0a61c73b6eea8fa96e52","null","null","<p style=""font-size: 60px; font-family: BACS"">OAmAdbTE</p>","","","","","","","","",""
"html-keyboard-response","113","179165","0.0-10.0-0.24","608c64e14968cdd8dcbe1be4","650c16f0f2faf8d7a0d14c09","651c0a61c73b6eea8fa96e52","null","null","<p style=""font-size: 60px; font-family: BACS"">PCPDhCdt</p>","","","","","","","","",""
"html-keyboard-response","114","180176","0.0-10.0-0.25","608c64e14968cdd8dcbe1be4","650c16f0f2faf8d7a0d14c09","651c0a61c73b6eea8fa96e52","null","null","<p style=""font-size: 60px; font-family: BACS"">ukYZYbN</p>","","","","","","","","",""
"html-keyboard-response","115","181198","0.0-10.0-0.26","608c64e14968cdd8dcbe1be4","650c16f0f2faf8d7a0d14c09","651c0a61c73b6eea8fa96e52","null","null","<p style=""font-size: 60px; font-family: BACS"">hlkTOYK</p>","","","","","","","","",""
"html-keyboard-response","116","182204","0.0-10.0-0.27","608c64e14968cdd8dcbe1be4","650c16f0f2faf8d7a0d14c09","651c0a61c73b6eea8fa96e52","null","null","<p style=""font-size: 60px; font-family: BACS"">NbmQUmvG</p>","","","","","","","","",""
"html-keyboard-response","117","183231","0.0-10.0-0.28","608c64e14968cdd8dcbe1be4","650c16f0f2faf8d7a0d14c09","651c0a61c73b6eea8fa96e52","null","null","<p style=""font-size: 60px; font-family: BACS"">adkrYbN</p>","","","","","","","","",""
"html-keyboard-response","118","184238","0.0-10.0-0.29","608c64e14968cdd8dcbe1be4","650c16f0f2faf8d7a0d14c09","651c0a61c73b6eea8fa96e52","null","null","<p style=""font-size: 60px; font-family: BACS"">dMYBPOYK</p>","","","","","","","","",""
"html-keyboard-response","119","185264","0.0-10.0-0.30","608c64e14968cdd8dcbe1be4","650c16f0f2faf8d7a0d14c09","651c0a61c73b6eea8fa96e52","null","null","<p style=""font-size: 60px; font-family: BACS"">YJLcAYbN</p>","","","","","","","","",""
"html-keyboard-response","120","186271","0.0-10.0-0.31","608c64e14968cdd8dcbe1be4","650c16f0f2faf8d7a0d14c09","651c0a61c73b6eea8fa96e52","null","null","<p style=""font-size: 60px; font-family: BACS"">EPMDkDmh</p>","","","","","","","","",""
"html-keyboard-response","121","187273","0.0-10.0-0.32","608c64e14968cdd8dcbe1be4","650c16f0f2faf8d7a0d14c09","651c0a61c73b6eea8fa96e52","null","null","<p style=""font-size: 60px; font-family: BACS"">NbmQUmZb</p>","","","","","","","","",""
"html-keyboard-response","122","188284","0.0-10.0-0.33","608c64e14968cdd8dcbe1be4","650c16f0f2faf8d7a0d14c09","651c0a61c73b6eea8fa96e52","null","null","<p style=""font-size: 60px; font-family: BACS"">hbkdCmYA</p>","","","","","","","","",""
"html-keyboard-response","123","189294","0.0-10.0-0.34","608c64e14968cdd8dcbe1be4","650c16f0f2faf8d7a0d14c09","651c0a61c73b6eea8fa96e52","null","null","<p style=""font-size: 60px; font-family: BACS"">NkUAYbN</p>","","","","","","","","",""
"html-keyboard-response","124","190302","0.0-10.0-0.35","608c64e14968cdd8dcbe1be4","650c16f0f2faf8d7a0d14c09","651c0a61c73b6eea8fa96e52","null","null","<p style=""font-size: 60px; font-family: BACS"">EMYKDmh</p>","","","","","","","","",""
"html-keyboard-response","125","191309","0.0-10.0-0.36","608c64e14968cdd8dcbe1be4","650c16f0f2faf8d7a0d14c09","651c0a61c73b6eea8fa96e52","null","null","<p style=""font-size: 60px; font-family: BACS"">NkUAmZb</p>","","","","","","","","",""
"html-keyboard-response","126","192319","0.0-10.0-0.37","608c64e14968cdd8dcbe1be4","650c16f0f2faf8d7a0d14c09","651c0a61c73b6eea8fa96e52","null","null","<p style=""font-size: 60px; font-family: BACS"">PCPDhOYK</p>","","","","","","","","",""
"html-keyboard-response","127","193329","0.0-10.0-0.38","608c64e14968cdd8dcbe1be4","650c16f0f2faf8d7a0d14c09","651c0a61c73b6eea8fa96e52","null","null","<p style=""font-size: 60px; font-family: BACS"">BMEMAbTE</p>","","","","","","","","",""
"html-keyboard-response","128","194340","0.0-10.0-0.39","608c64e14968cdd8dcbe1be4","650c16f0f2faf8d7a0d14c09","651c0a61c73b6eea8fa96e52","null","null","<p style=""font-size: 60px; font-family: BACS"">dkLlmZb</p>","","","","","","","","",""
"html-keyboard-response","129","195351","0.0-10.0-0.40","608c64e14968cdd8dcbe1be4","650c16f0f2faf8d7a0d14c09","651c0a61c73b6eea8fa96e52","null","null","<p style=""font-size: 60px; font-family: BACS"">AmaclLcO</p>","","","","","","","","",""
"html-keyboard-response","130","196361","0.0-10.0-0.41","608c64e14968cdd8dcbe1be4","650c16f0f2faf8d7a0d14c09","651c0a61c73b6eea8fa96e52","null","null","<p style=""font-size: 60px; font-family: BACS"">EMYKbTE</p>","","","","","","","","",""
"html-keyboard-response","131","197365","0.0-10.0-0.42","608c64e14968cdd8dcbe1be4","650c16f0f2faf8d7a0d14c09","651c0a61c73b6eea8fa96e52","null","null","<p style=""font-size: 60px; font-family: BACS"">BMEMACdt</p>","","","","","","","","",""
"html-keyboard-response","132","198377","0.0-10.0-0.43","608c64e14968cdd8dcbe1be4","650c16f0f2faf8d7a0d14c09","651c0a61c73b6eea8fa96e52","null","null","<p style=""font-size: 60px; font-family: BACS"">AlQaQmZb</p>","","","","","","","","",""
"html-keyboard-response","133","199389","0.0-10.0-0.44","608c64e14968cdd8dcbe1be4","650c16f0f2faf8d7a0d14c09","651c0a61c73b6eea8fa96e52","null","null","<p style=""font-size: 60px; font-family: BACS"">hbkdDmh</p>","","","","","","","","",""
"html-keyboard-response","134","200400","0.0-10.0-0.45","608c64e14968cdd8dcbe1be4","650c16f0f2faf8d7a0d14c09","651c0a61c73b6eea8fa96e52","null","null","<p style=""font-size: 60px; font-family: BACS"">hlkTCdt</p>","","","","","","","","",""
"html-keyboard-response","135","201413","0.0-10.0-0.46","608c64e14968cdd8dcbe1be4","650c16f0f2faf8d7a0d14c09","651c0a61c73b6eea8fa96e52","null","null","<p style=""font-size: 60px; font-family: BACS"">ukYZmZb</p>","","","","","","","","",""
"html-keyboard-response","136","202423","0.0-10.0-0.47","608c64e14968cdd8dcbe1be4","650c16f0f2faf8d7a0d14c09","651c0a61c73b6eea8fa96e52","null","null","<p style=""font-size: 60px; font-family: BACS"">hbkdCdt</p>","","","","","","","","",""
"html-keyboard-response","137","203437","0.0-10.0-0.48","608c64e14968cdd8dcbe1be4","650c16f0f2faf8d7a0d14c09","651c0a61c73b6eea8fa96e52","null","null","<p style=""font-size: 60px; font-family: BACS"">EPMDkbTE</p>","","","","","","","","",""
"html-keyboard-response","138","204443","0.0-10.0-0.49","608c64e14968cdd8dcbe1be4","650c16f0f2faf8d7a0d14c09","651c0a61c73b6eea8fa96e52","null","null","<p style=""font-size: 60px; font-family: BACS"">EMYKCmYA</p>","","","","","","","","",""
"html-keyboard-response","139","205452","0.0-10.0-0.50","608c64e14968cdd8dcbe1be4","650c16f0f2faf8d7a0d14c09","651c0a61c73b6eea8fa96e52","null","null","<p style=""font-size: 60px; font-family: BACS"">AlQaQLcO</p>","","","","","","","","",""
"html-keyboard-response","140","206463","0.0-10.0-0.51","608c64e14968cdd8dcbe1be4","650c16f0f2faf8d7a0d14c09","651c0a61c73b6eea8fa96e52","null","null","<p style=""font-size: 60px; font-family: BACS"">dMYBPDmh</p>","","","","","","","","",""
"html-keyboard-response","141","207472","0.0-10.0-0.52","608c64e14968cdd8dcbe1be4","650c16f0f2faf8d7a0d14c09","651c0a61c73b6eea8fa96e52","null","null","<p style=""font-size: 60px; font-family: BACS"">hbkdOYK</p>","","","","","","","","",""
"html-keyboard-response","142","208478","0.0-10.0-0.53","608c64e14968cdd8dcbe1be4","650c16f0f2faf8d7a0d14c09","651c0a61c73b6eea8fa96e52","null","null","<p style=""font-size: 60px; font-family: BACS"">EMbDPCdt</p>","","","","","","","","",""
"html-keyboard-response","143","209488","0.0-10.0-0.54","608c64e14968cdd8dcbe1be4","650c16f0f2faf8d7a0d14c09","651c0a61c73b6eea8fa96e52","null","null","<p style=""font-size: 60px; font-family: BACS"">OAmAdOYK</p>","","","","","","","","",""
"html-keyboard-response","144","210495","0.0-10.0-0.55","608c64e14968cdd8dcbe1be4","650c16f0f2faf8d7a0d14c09","651c0a61c73b6eea8fa96e52","null","null","<p style=""font-size: 60px; font-family: BACS"">PCPDhCmYA</p>","","","","","","","","",""
"html-keyboard-response","145","211504","0.0-10.0-0.56","608c64e14968cdd8dcbe1be4","650c16f0f2faf8d7a0d14c09","651c0a61c73b6eea8fa96e52","null","null","<p style=""font-size: 60px; font-family: BACS"">hlkTDmh</p>","","","","","","","","",""
"html-keyboard-response","146","212511","0.0-10.0-0.57","608c64e14968cdd8dcbe1be4","650c16f0f2faf8d7a0d14c09","651c0a61c73b6eea8fa96e52","null","null","<p style=""font-size: 60px; font-family: BACS"">NbmQUbLd</p>","","","","","","","","",""
"html-keyboard-response","147","213517","0.0-10.0-0.58","608c64e14968cdd8dcbe1be4","650c16f0f2faf8d7a0d14c09","651c0a61c73b6eea8fa96e52","null","null","<p style=""font-size: 60px; font-family: BACS"">dMYBPCdt</p>","","","","","","","","",""
"html-keyboard-response","148","214527","0.0-10.0-0.59","608c64e14968cdd8dcbe1be4","650c16f0f2faf8d7a0d14c09","651c0a61c73b6eea8fa96e52","null","null","<p style=""font-size: 60px; font-family: BACS"">UAcduLcO</p>","","","","","","","","",""
"html-keyboard-response","149","215534","0.0-10.0-0.60","608c64e14968cdd8dcbe1be4","650c16f0f2faf8d7a0d14c09","651c0a61c73b6eea8fa96e52","null","null","<p style=""font-size: 60px; font-family: BACS"">EMbDPbTE</p>","","","","","","","","",""
"html-keyboard-response","150","216540","0.0-10.0-0.61","608c64e14968cdd8dcbe1be4","650c16f0f2faf8d7a0d14c09","651c0a61c73b6eea8fa96e52","null","null","<p style=""font-size: 60px; font-family: BACS"">hlkTCmYA</p>","","","","","","","","",""
"html-keyboard-response","151","217549","0.0-10.0-0.62","608c64e14968cdd8dcbe1be4","650c16f0f2faf8d7a0d14c09","651c0a61c73b6eea8fa96e52","null","null","<p style=""font-size: 60px; font-family: BACS"">JuamlmvG</p>","","","","","","","","",""
"html-keyboard-response","152","218554","0.0-10.0-0.63","608c64e14968cdd8dcbe1be4","650c16f0f2faf8d7a0d14c09","651c0a61c73b6eea8fa96e52","null","null","<p style=""font-size: 60px; font-family: BACS"">EPMDkCmYA</p>","","","","","","","","",""
"html-keyboard-response","153","219560","0.0-10.0-0.64","608c64e14968cdd8dcbe1be4","650c16f0f2faf8d7a0d14c09","651c0a61c73b6eea8fa96e52","null","null","<p style=""font-size: 60px; font-family: BACS"">NkUAbLd</p>","","","","","","","","",""
"html-keyboard-response","154","220564","0.0-10.0-0.65","608c64e14968cdd8dcbe1be4","650c16f0f2faf8d7a0d14c09","651c0a61c73b6eea8fa96e52","null","null","<p style=""font-size: 60px; font-family: BACS"">UAcduYbN</p>","","","","","","","","",""
"html-keyboard-response","155","221571","0.0-10.0-0.66","608c64e14968cdd8dcbe1be4","650c16f0f2faf8d7a0d14c09","651c0a61c73b6eea8fa96e52","null","null","<p style=""font-size: 60px; font-family: BACS"">YJLcAmvG</p>","","","","","","","","",""
"html-keyboard-response","156","222596","0.0-10.0-0.67","608c64e14968cdd8dcbe1be4","650c16f0f2faf8d7a0d14c09","651c0a61c73b6eea8fa96e52","null","null","<p style=""font-size: 60px; font-family: BACS"">EMYKCdt</p>","","","","","","","","",""
"html-keyboard-response","157","223606","0.0-10.0-0.68","608c64e14968cdd8dcbe1be4","650c16f0f2faf8d7a0d14c09","651c0a61c73b6eea8fa96e52","null","null","<p style=""font-size: 60px; font-family: BACS"">NbmQULcO</p>","","","","","","","","",""
"html-keyboard-response","158","224633","0.0-10.0-0.69","608c64e14968cdd8dcbe1be4","650c16f0f2faf8d7a0d14c09","651c0a61c73b6eea8fa96e52","null","null","<p style=""font-size: 60px; font-family: BACS"">EPMDkCdt</p>","","","","","","","","",""
"html-keyboard-response","159","225645","0.0-10.0-0.70","608c64e14968cdd8dcbe1be4","650c16f0f2faf8d7a0d14c09","651c0a61c73b6eea8fa96e52","null","null","<p style=""font-size: 60px; font-family: BACS"">YJLcALcO</p>","","","","","","","","",""
"html-keyboard-response","160","226666","0.0-10.0-0.71","608c64e14968cdd8dcbe1be4","650c16f0f2faf8d7a0d14c09","651c0a61c73b6eea8fa96e52","null","null","<p style=""font-size: 60px; font-family: BACS"">dkLlmvG</p>","","","","","","","","",""
"html-keyboard-response","161","227675","0.0-10.0-0.72","608c64e14968cdd8dcbe1be4","650c16f0f2faf8d7a0d14c09","651c0a61c73b6eea8fa96e52","null","null","<p style=""font-size: 60px; font-family: BACS"">OAmAdDmh</p>","","","","","","","","",""
"html-keyboard-response","162","228699","0.0-10.0-0.73","608c64e14968cdd8dcbe1be4","650c16f0f2faf8d7a0d14c09","651c0a61c73b6eea8fa96e52","null","null","<p style=""font-size: 60px; font-family: BACS"">adkrLcO</p>","","","","","","","","",""
"html-keyboard-response","163","229707","0.0-10.0-0.74","608c64e14968cdd8dcbe1be4","650c16f0f2faf8d7a0d14c09","651c0a61c73b6eea8fa96e52","null","null","<p style=""font-size: 60px; font-family: BACS"">AlQaQbLd</p>","","","","","","","","",""
"html-keyboard-response","164","230729","0.0-10.0-0.75","608c64e14968cdd8dcbe1be4","650c16f0f2faf8d7a0d14c09","651c0a61c73b6eea8fa96e52","null","null","<p style=""font-size: 60px; font-family: BACS"">KMDYtDmh</p>","","","","","","","","",""
"html-keyboard-response","165","231736","0.0-10.0-0.76","608c64e14968cdd8dcbe1be4","650c16f0f2faf8d7a0d14c09","651c0a61c73b6eea8fa96e52","null","null","<p style=""font-size: 60px; font-family: BACS"">NkUAmvG</p>","","","","","","","","",""
"html-keyboard-response","166","232741","0.0-10.0-0.77","608c64e14968cdd8dcbe1be4","650c16f0f2faf8d7a0d14c09","651c0a61c73b6eea8fa96e52","null","null","<p style=""font-size: 60px; font-family: BACS"">KMDYtOYK</p>","","","","","","","","",""
"html-keyboard-response","167","233750","0.0-10.0-0.78","608c64e14968cdd8dcbe1be4","650c16f0f2faf8d7a0d14c09","651c0a61c73b6eea8fa96e52","null","null","<p style=""font-size: 60px; font-family: BACS"">AlQaQYbN</p>","","","","","","","","",""
"html-keyboard-response","168","234761","0.0-10.0-0.79","608c64e14968cdd8dcbe1be4","650c16f0f2faf8d7a0d14c09","651c0a61c73b6eea8fa96e52","null","null","<p style=""font-size: 60px; font-family: BACS"">KMDYtbTE</p>","","","","","","","","",""
"html-keyboard-response","169","249801","0.0-11.0","608c64e14968cdd8dcbe1be4","650c16f0f2faf8d7a0d14c09","651c0a61c73b6eea8fa96e52","15040"," ","<p>Great, you've seen the second block of words. You may now take a short break.</p>
      <p>Press the spacebar when you're ready to continue.</p>","","","","","","","","",""
"html-keyboard-response","170","250809","0.0-12.0-0.0","608c64e14968cdd8dcbe1be4","650c16f0f2faf8d7a0d14c09","651c0a61c73b6eea8fa96e52","null","null","<p style=""font-size: 60px; font-family: BACS"">EMbDPCmYA</p>","","","","","","","","",""
"html-keyboard-response","171","251836","0.0-12.0-0.1","608c64e14968cdd8dcbe1be4","650c16f0f2faf8d7a0d14c09","651c0a61c73b6eea8fa96e52","null","null","<p style=""font-size: 60px; font-family: BACS"">PCPDhOYK</p>","","","","","","","","",""
"html-keyboard-response","172","252841","0.0-12.0-0.2","608c64e14968cdd8dcbe1be4","650c16f0f2faf8d7a0d14c09","651c0a61c73b6eea8fa96e52","null","null","<p style=""font-size: 60px; font-family: BACS"">dMYBPDmh</p>","","","","","","","","",""
"html-keyboard-response","173","253851","0.0-12.0-0.3","608c64e14968cdd8dcbe1be4","650c16f0f2faf8d7a0d14c09","651c0a61c73b6eea8fa96e52","null","null","<p style=""font-size: 60px; font-family: BACS"">EPMDkCdt</p>","","","","","","","","",""
"html-keyboard-response","174","254859","0.0-12.0-0.4","608c64e14968cdd8dcbe1be4","650c16f0f2faf8d7a0d14c09","651c0a61c73b6eea8fa96e52","null","null","<p style=""font-size: 60px; font-family: BACS"">AmaclmvG</p>","","","","","","","","",""
"html-keyboard-response","175","255868","0.0-12.0-0.5","608c64e14968cdd8dcbe1be4","650c16f0f2faf8d7a0d14c09","651c0a61c73b6eea8fa96e52","null","null","<p style=""font-size: 60px; font-family: BACS"">NkUAYbN</p>","","","","","","","","",""
"html-keyboard-response","176","256881","0.0-12.0-0.6","608c64e14968cdd8dcbe1be4","650c16f0f2faf8d7a0d14c09","651c0a61c73b6eea8fa96e52","null","null","<p style=""font-size: 60px; font-family: BACS"">NbmQULcO</p>","","","","","","","","",""
"html-keyboard-response","177","257891","0.0-12.0-0.7","608c64e14968cdd8dcbe1be4","650c16f0f2faf8d7a0d14c09","651c0a61c73b6eea8fa96e52","null","null","<p style=""font-size: 60px; font-family: BACS"">YJLcAmvG</p>","","","","","","","","",""
"html-keyboard-response","178","258898","0.0-12.0-0.8","608c64e14968cdd8dcbe1be4","650c16f0f2faf8d7a0d14c09","651c0a61c73b6eea8fa96e52","null","null","<p style=""font-size: 60px; font-family: BACS"">EPMDkbTE</p>","","","","","","","","",""
"html-keyboard-response","179","259913","0.0-12.0-0.9","608c64e14968cdd8dcbe1be4","650c16f0f2faf8d7a0d14c09","651c0a61c73b6eea8fa96e52","null","null","<p style=""font-size: 60px; font-family: BACS"">AmaclmZb</p>","","","","","","","","",""
"html-keyboard-response","180","260921","0.0-12.0-0.10","608c64e14968cdd8dcbe1be4","650c16f0f2faf8d7a0d14c09","651c0a61c73b6eea8fa96e52","null","null","<p style=""font-size: 60px; font-family: BACS"">YJLcALcO</p>","","","","","","","","",""
"html-keyboard-response","181","261933","0.0-12.0-0.11","608c64e14968cdd8dcbe1be4","650c16f0f2faf8d7a0d14c09","651c0a61c73b6eea8fa96e52","null","null","<p style=""font-size: 60px; font-family: BACS"">OAmAdOYK</p>","","","","","","","","",""
"html-keyboard-response","182","262938","0.0-12.0-0.12","608c64e14968cdd8dcbe1be4","650c16f0f2faf8d7a0d14c09","651c0a61c73b6eea8fa96e52","null","null","<p style=""font-size: 60px; font-family: BACS"">ukYZbLd</p>","","","","","","","","",""
"html-keyboard-response","183","263947","0.0-12.0-0.13","608c64e14968cdd8dcbe1be4","650c16f0f2faf8d7a0d14c09","651c0a61c73b6eea8fa96e52","null","null","<p style=""font-size: 60px; font-family: BACS"">adkrLcO</p>","","","","","","","","",""
"html-keyboard-response","184","264973","0.0-12.0-0.14","608c64e14968cdd8dcbe1be4","650c16f0f2faf8d7a0d14c09","651c0a61c73b6eea8fa96e52","null","null","<p style=""font-size: 60px; font-family: BACS"">NbmQUmvG</p>","","","","","","","","",""
"html-keyboard-response","185","265986","0.0-12.0-0.15","608c64e14968cdd8dcbe1be4","650c16f0f2faf8d7a0d14c09","651c0a61c73b6eea8fa96e52","null","null","<p style=""font-size: 60px; font-family: BACS"">NkUAbLd</p>","","","","","","","","",""
"html-keyboard-response","186","266996","0.0-12.0-0.16","608c64e14968cdd8dcbe1be4","650c16f0f2faf8d7a0d14c09","651c0a61c73b6eea8fa96e52","null","null","<p style=""font-size: 60px; font-family: BACS"">ukYZmvG</p>","","","","","","","","",""
"html-keyboard-response","187","268003","0.0-12.0-0.17","608c64e14968cdd8dcbe1be4","650c16f0f2faf8d7a0d14c09","651c0a61c73b6eea8fa96e52","null","null","<p style=""font-size: 60px; font-family: BACS"">EPMDkCmYA</p>","","","","","","","","",""
"html-keyboard-response","188","269013","0.0-12.0-0.18","608c64e14968cdd8dcbe1be4","650c16f0f2faf8d7a0d14c09","651c0a61c73b6eea8fa96e52","null","null","<p style=""font-size: 60px; font-family: BACS"">BMEMACdt</p>","","","","","","","","",""
"html-keyboard-response","189","270026","0.0-12.0-0.19","608c64e14968cdd8dcbe1be4","650c16f0f2faf8d7a0d14c09","651c0a61c73b6eea8fa96e52","null","null","<p style=""font-size: 60px; font-family: BACS"">dkLlmZb</p>","","","","","","","","",""
"html-keyboard-response","190","271033","0.0-12.0-0.20","608c64e14968cdd8dcbe1be4","650c16f0f2faf8d7a0d14c09","651c0a61c73b6eea8fa96e52","null","null","<p style=""font-size: 60px; font-family: BACS"">AmaclbLd</p>","","","","","","","","",""
"html-keyboard-response","191","272041","0.0-12.0-0.21","608c64e14968cdd8dcbe1be4","650c16f0f2faf8d7a0d14c09","651c0a61c73b6eea8fa96e52","null","null","<p style=""font-size: 60px; font-family: BACS"">hlkTCmYA</p>","","","","","","","","",""
"html-keyboard-response","192","273049","0.0-12.0-0.22","608c64e14968cdd8dcbe1be4","650c16f0f2faf8d7a0d14c09","651c0a61c73b6eea8fa96e52","null","null","<p style=""font-size: 60px; font-family: BACS"">PCPDhCdt</p>","","","","","","","","",""
"html-keyboard-response","193","274057","0.0-12.0-0.23","608c64e14968cdd8dcbe1be4","650c16f0f2faf8d7a0d14c09","651c0a61c73b6eea8fa96e52","null","null","<p style=""font-size: 60px; font-family: BACS"">UAcdubLd</p>","","","","","","","","",""
"html-keyboard-response","194","275064","0.0-12.0-0.24","608c64e14968cdd8dcbe1be4","650c16f0f2faf8d7a0d14c09","651c0a61c73b6eea8fa96e52","null","null","<p style=""font-size: 60px; font-family: BACS"">BMEMAbTE</p>","","","","","","","","",""
"html-keyboard-response","195","276068","0.0-12.0-0.25","608c64e14968cdd8dcbe1be4","650c16f0f2faf8d7a0d14c09","651c0a61c73b6eea8fa96e52","null","null","<p style=""font-size: 60px; font-family: BACS"">YJLcAbLd</p>","","","","","","","","",""
"html-keyboard-response","196","277073","0.0-12.0-0.26","608c64e14968cdd8dcbe1be4","650c16f0f2faf8d7a0d14c09","651c0a61c73b6eea8fa96e52","null","null","<p style=""font-size: 60px; font-family: BACS"">OAmAdbTE</p>","","","","","","","","",""
"html-keyboard-response","197","278083","0.0-12.0-0.27","608c64e14968cdd8dcbe1be4","650c16f0f2faf8d7a0d14c09","651c0a61c73b6eea8fa96e52","null","null","<p style=""font-size: 60px; font-family: BACS"">AmaclLcO</p>","","","","","","","","",""
"html-keyboard-response","198","279092","0.0-12.0-0.28","608c64e14968cdd8dcbe1be4","650c16f0f2faf8d7a0d14c09","651c0a61c73b6eea8fa96e52","null","null","<p style=""font-size: 60px; font-family: BACS"">BMEMADmh</p>","","","","","","","","",""
"html-keyboard-response","199","280105","0.0-12.0-0.29","608c64e14968cdd8dcbe1be4","650c16f0f2faf8d7a0d14c09","651c0a61c73b6eea8fa96e52","null","null","<p style=""font-size: 60px; font-family: BACS"">EMbDPCdt</p>","","","","","","","","",""
"html-keyboard-response","200","281110","0.0-12.0-0.30","608c64e14968cdd8dcbe1be4","650c16f0f2faf8d7a0d14c09","651c0a61c73b6eea8fa96e52","null","null","<p style=""font-size: 60px; font-family: BACS"">AlQaQLcO</p>","","","","","","","","",""
"html-keyboard-response","201","282120","0.0-12.0-0.31","608c64e14968cdd8dcbe1be4","650c16f0f2faf8d7a0d14c09","651c0a61c73b6eea8fa96e52","null","null","<p style=""font-size: 60px; font-family: BACS"">NbmQUmZb</p>","","","","","","","","",""
"html-keyboard-response","202","283134","0.0-12.0-0.32","608c64e14968cdd8dcbe1be4","650c16f0f2faf8d7a0d14c09","651c0a61c73b6eea8fa96e52","null","null","<p style=""font-size: 60px; font-family: BACS"">JuamlLcO</p>","","","","","","","","",""
"html-keyboard-response","203","284142","0.0-12.0-0.33","608c64e14968cdd8dcbe1be4","650c16f0f2faf8d7a0d14c09","651c0a61c73b6eea8fa96e52","null","null","<p style=""font-size: 60px; font-family: BACS"">hlkTDmh</p>","","","","","","","","",""
"html-keyboard-response","204","285151","0.0-12.0-0.34","608c64e14968cdd8dcbe1be4","650c16f0f2faf8d7a0d14c09","651c0a61c73b6eea8fa96e52","null","null","<p style=""font-size: 60px; font-family: BACS"">EMbDPbTE</p>","","","","","","","","",""
"html-keyboard-response","205","286159","0.0-12.0-0.35","608c64e14968cdd8dcbe1be4","650c16f0f2faf8d7a0d14c09","651c0a61c73b6eea8fa96e52","null","null","<p style=""font-size: 60px; font-family: BACS"">ukYZmZb</p>","","","","","","","","",""
"html-keyboard-response","206","287167","0.0-12.0-0.36","608c64e14968cdd8dcbe1be4","650c16f0f2faf8d7a0d14c09","651c0a61c73b6eea8fa96e52","null","null","<p style=""font-size: 60px; font-family: BACS"">hbkdCmYA</p>","","","","","","","","",""
"html-keyboard-response","207","288187","0.0-12.0-0.37","608c64e14968cdd8dcbe1be4","650c16f0f2faf8d7a0d14c09","651c0a61c73b6eea8fa96e52","null","null","<p style=""font-size: 60px; font-family: BACS"">UAcduLcO</p>","","","","","","","","",""
"html-keyboard-response","208","289201","0.0-12.0-0.38","608c64e14968cdd8dcbe1be4","650c16f0f2faf8d7a0d14c09","651c0a61c73b6eea8fa96e52","null","null","<p style=""font-size: 60px; font-family: BACS"">hbkdCdt</p>","","","","","","","","",""
"html-keyboard-response","209","290229","0.0-12.0-0.39","608c64e14968cdd8dcbe1be4","650c16f0f2faf8d7a0d14c09","651c0a61c73b6eea8fa96e52","null","null","<p style=""font-size: 60px; font-family: BACS"">UAcdumvG</p>","","","","","","","","",""
"html-keyboard-response","210","291237","0.0-12.0-0.40","608c64e14968cdd8dcbe1be4","650c16f0f2faf8d7a0d14c09","651c0a61c73b6eea8fa96e52","null","null","<p style=""font-size: 60px; font-family: BACS"">NkUAmZb</p>","","","","","","","","",""
"html-keyboard-response","211","292260","0.0-12.0-0.41","608c64e14968cdd8dcbe1be4","650c16f0f2faf8d7a0d14c09","651c0a61c73b6eea8fa96e52","null","null","<p style=""font-size: 60px; font-family: BACS"">AlQaQbLd</p>","","","","","","","","",""
"html-keyboard-response","212","293267","0.0-12.0-0.42","608c64e14968cdd8dcbe1be4","650c16f0f2faf8d7a0d14c09","651c0a61c73b6eea8fa96e52","null","null","<p style=""font-size: 60px; font-family: BACS"">NkUAmvG</p>","","","","","","","","",""
"html-keyboard-response","213","294294","0.0-12.0-0.43","608c64e14968cdd8dcbe1be4","650c16f0f2faf8d7a0d14c09","651c0a61c73b6eea8fa96e52","null","null","<p style=""font-size: 60px; font-family: BACS"">dkLlYbN</p>","","","","","","","","",""
"html-keyboard-response","214","295308","0.0-12.0-0.44","608c64e14968cdd8dcbe1be4","650c16f0f2faf8d7a0d14c09","651c0a61c73b6eea8fa96e52","null","null","<p style=""font-size: 60px; font-family: BACS"">BMEMAOYK</p>","","","","","","","","",""
"html-keyboard-response","215","296329","0.0-12.0-0.45","608c64e14968cdd8dcbe1be4","650c16f0f2faf8d7a0d14c09","651c0a61c73b6eea8fa96e52","null","null","<p style=""font-size: 60px; font-family: BACS"">adkrbLd</p>","","","","","","","","",""
"html-keyboard-response","216","297337","0.0-12.0-0.46","608c64e14968cdd8dcbe1be4","650c16f0f2faf8d7a0d14c09","651c0a61c73b6eea8fa96e52","null","null","<p style=""font-size: 60px; font-family: BACS"">OAmAdDmh</p>","","","","","","","","",""
"html-keyboard-response","217","298360","0.0-12.0-0.47","608c64e14968cdd8dcbe1be4","650c16f0f2faf8d7a0d14c09","651c0a61c73b6eea8fa96e52","null","null","<p style=""font-size: 60px; font-family: BACS"">hlkTCdt</p>","","","","","","","","",""
"html-keyboard-response","218","299370","0.0-12.0-0.48","608c64e14968cdd8dcbe1be4","650c16f0f2faf8d7a0d14c09","651c0a61c73b6eea8fa96e52","null","null","<p style=""font-size: 60px; font-family: BACS"">dkLlmvG</p>","","","","","","","","",""
"html-keyboard-response","219","300394","0.0-12.0-0.49","608c64e14968cdd8dcbe1be4","650c16f0f2faf8d7a0d14c09","651c0a61c73b6eea8fa96e52","null","null","<p style=""font-size: 60px; font-family: BACS"">KMDYtbTE</p>","","","","","","","","",""
"html-keyboard-response","220","301408","0.0-12.0-0.50","608c64e14968cdd8dcbe1be4","650c16f0f2faf8d7a0d14c09","651c0a61c73b6eea8fa96e52","null","null","<p style=""font-size: 60px; font-family: BACS"">YJLcAYbN</p>","","","","","","","","",""
"html-keyboard-response","221","302432","0.0-12.0-0.51","608c64e14968cdd8dcbe1be4","650c16f0f2faf8d7a0d14c09","651c0a61c73b6eea8fa96e52","null","null","<p style=""font-size: 60px; font-family: BACS"">EMYKCmYA</p>","","","","","","","","",""
"html-keyboard-response","222","303444","0.0-12.0-0.52","608c64e14968cdd8dcbe1be4","650c16f0f2faf8d7a0d14c09","651c0a61c73b6eea8fa96e52","null","null","<p style=""font-size: 60px; font-family: BACS"">ukYZYbN</p>","","","","","","","","",""
"html-keyboard-response","223","304463","0.0-12.0-0.53","608c64e14968cdd8dcbe1be4","650c16f0f2faf8d7a0d14c09","651c0a61c73b6eea8fa96e52","null","null","<p style=""font-size: 60px; font-family: BACS"">dMYBPCdt</p>","","","","","","","","",""
"html-keyboard-response","224","305476","0.0-12.0-0.54","608c64e14968cdd8dcbe1be4","650c16f0f2faf8d7a0d14c09","651c0a61c73b6eea8fa96e52","null","null","<p style=""font-size: 60px; font-family: BACS"">NbmQUbLd</p>","","","","","","","","",""
"html-keyboard-response","225","306501","0.0-12.0-0.55","608c64e14968cdd8dcbe1be4","650c16f0f2faf8d7a0d14c09","651c0a61c73b6eea8fa96e52","null","null","<p style=""font-size: 60px; font-family: BACS"">hbkdDmh</p>","","","","","","","","",""
"html-keyboard-response","226","307515","0.0-12.0-0.56","608c64e14968cdd8dcbe1be4","650c16f0f2faf8d7a0d14c09","651c0a61c73b6eea8fa96e52","null","null","<p style=""font-size: 60px; font-family: BACS"">adkrmZb</p>","","","","","","","","",""
"html-keyboard-response","227","308541","0.0-12.0-0.57","608c64e14968cdd8dcbe1be4","650c16f0f2faf8d7a0d14c09","651c0a61c73b6eea8fa96e52","null","null","<p style=""font-size: 60px; font-family: BACS"">EMYKCdt</p>","","","","","","","","",""
"html-keyboard-response","228","309549","0.0-12.0-0.58","608c64e14968cdd8dcbe1be4","650c16f0f2faf8d7a0d14c09","651c0a61c73b6eea8fa96e52","null","null","<p style=""font-size: 60px; font-family: BACS"">JuamlmvG</p>","","","","","","","","",""
"html-keyboard-response","229","310576","0.0-12.0-0.59","608c64e14968cdd8dcbe1be4","650c16f0f2faf8d7a0d14c09","651c0a61c73b6eea8fa96e52","null","null","<p style=""font-size: 60px; font-family: BACS"">AlQaQmZb</p>","","","","","","","","",""
"html-keyboard-response","230","311587","0.0-12.0-0.60","608c64e14968cdd8dcbe1be4","650c16f0f2faf8d7a0d14c09","651c0a61c73b6eea8fa96e52","null","null","<p style=""font-size: 60px; font-family: BACS"">JuamlYbN</p>","","","","","","","","",""
"html-keyboard-response","231","312610","0.0-12.0-0.61","608c64e14968cdd8dcbe1be4","650c16f0f2faf8d7a0d14c09","651c0a61c73b6eea8fa96e52","null","null","<p style=""font-size: 60px; font-family: BACS"">PCPDhCmYA</p>","","","","","","","","",""
"html-keyboard-response","232","313620","0.0-12.0-0.62","608c64e14968cdd8dcbe1be4","650c16f0f2faf8d7a0d14c09","651c0a61c73b6eea8fa96e52","null","null","<p style=""font-size: 60px; font-family: BACS"">dMYBPbTE</p>","","","","","","","","",""
"html-keyboard-response","233","314642","0.0-12.0-0.63","608c64e14968cdd8dcbe1be4","650c16f0f2faf8d7a0d14c09","651c0a61c73b6eea8fa96e52","null","null","<p style=""font-size: 60px; font-family: BACS"">KMDYtDmh</p>","","","","","","","","",""
"html-keyboard-response","234","315651","0.0-12.0-0.64","608c64e14968cdd8dcbe1be4","650c16f0f2faf8d7a0d14c09","651c0a61c73b6eea8fa96e52","null","null","<p style=""font-size: 60px; font-family: BACS"">hlkTOYK</p>","","","","","","","","",""
"html-keyboard-response","235","316676","0.0-12.0-0.65","608c64e14968cdd8dcbe1be4","650c16f0f2faf8d7a0d14c09","651c0a61c73b6eea8fa96e52","null","null","<p style=""font-size: 60px; font-family: BACS"">UAcduYbN</p>","","","","","","","","",""
"html-keyboard-response","236","317685","0.0-12.0-0.66","608c64e14968cdd8dcbe1be4","650c16f0f2faf8d7a0d14c09","651c0a61c73b6eea8fa96e52","null","null","<p style=""font-size: 60px; font-family: BACS"">PCPDhbTE</p>","","","","","","","","",""
"html-keyboard-response","237","318715","0.0-12.0-0.67","608c64e14968cdd8dcbe1be4","650c16f0f2faf8d7a0d14c09","651c0a61c73b6eea8fa96e52","null","null","<p style=""font-size: 60px; font-family: BACS"">EMbDPOYK</p>","","","","","","","","",""
"html-keyboard-response","238","319723","0.0-12.0-0.68","608c64e14968cdd8dcbe1be4","650c16f0f2faf8d7a0d14c09","651c0a61c73b6eea8fa96e52","null","null","<p style=""font-size: 60px; font-family: BACS"">JuamlmZb</p>","","","","","","","","",""
"html-keyboard-response","239","320744","0.0-12.0-0.69","608c64e14968cdd8dcbe1be4","650c16f0f2faf8d7a0d14c09","651c0a61c73b6eea8fa96e52","null","null","<p style=""font-size: 60px; font-family: BACS"">KMDYtCmYA</p>","","","","","","","","",""
"html-keyboard-response","240","321756","0.0-12.0-0.70","608c64e14968cdd8dcbe1be4","650c16f0f2faf8d7a0d14c09","651c0a61c73b6eea8fa96e52","null","null","<p style=""font-size: 60px; font-family: BACS"">AlQaQYbN</p>","","","","","","","","",""
"html-keyboard-response","241","322780","0.0-12.0-0.71","608c64e14968cdd8dcbe1be4","650c16f0f2faf8d7a0d14c09","651c0a61c73b6eea8fa96e52","null","null","<p style=""font-size: 60px; font-family: BACS"">hbkdOYK</p>","","","","","","","","",""
"html-keyboard-response","242","323789","0.0-12.0-0.72","608c64e14968cdd8dcbe1be4","650c16f0f2faf8d7a0d14c09","651c0a61c73b6eea8fa96e52","null","null","<p style=""font-size: 60px; font-family: BACS"">EPMDkDmh</p>","","","","","","","","",""
"html-keyboard-response","243","324815","0.0-12.0-0.73","608c64e14968cdd8dcbe1be4","650c16f0f2faf8d7a0d14c09","651c0a61c73b6eea8fa96e52","null","null","<p style=""font-size: 60px; font-family: BACS"">EMYKbTE</p>","","","","","","","","",""
"html-keyboard-response","244","325826","0.0-12.0-0.74","608c64e14968cdd8dcbe1be4","650c16f0f2faf8d7a0d14c09","651c0a61c73b6eea8fa96e52","null","null","<p style=""font-size: 60px; font-family: BACS"">dMYBPOYK</p>","","","","","","","","",""
"html-keyboard-response","245","326851","0.0-12.0-0.75","608c64e14968cdd8dcbe1be4","650c16f0f2faf8d7a0d14c09","651c0a61c73b6eea8fa96e52","null","null","<p style=""font-size: 60px; font-family: BACS"">dkLlLcO</p>","","","","","","","","",""
"html-keyboard-response","246","327853","0.0-12.0-0.76","608c64e14968cdd8dcbe1be4","650c16f0f2faf8d7a0d14c09","651c0a61c73b6eea8fa96e52","null","null","<p style=""font-size: 60px; font-family: BACS"">KMDYtOYK</p>","","","","","","","","",""
"html-keyboard-response","247","328873","0.0-12.0-0.77","608c64e14968cdd8dcbe1be4","650c16f0f2faf8d7a0d14c09","651c0a61c73b6eea8fa96e52","null","null","<p style=""font-size: 60px; font-family: BACS"">OAmAdCmYA</p>","","","","","","","","",""
"html-keyboard-response","248","329883","0.0-12.0-0.78","608c64e14968cdd8dcbe1be4","650c16f0f2faf8d7a0d14c09","651c0a61c73b6eea8fa96e52","null","null","<p style=""font-size: 60px; font-family: BACS"">adkrYbN</p>","","","","","","","","",""
"html-keyboard-response","249","330915","0.0-12.0-0.79","608c64e14968cdd8dcbe1be4","650c16f0f2faf8d7a0d14c09","651c0a61c73b6eea8fa96e52","null","null","<p style=""font-size: 60px; font-family: BACS"">EMYKDmh</p>","","","","","","","","",""
"html-keyboard-response","250","333145","0.0-13.0","608c64e14968cdd8dcbe1be4","650c16f0f2faf8d7a0d14c09","651c0a61c73b6eea8fa96e52","2228"," ","<p>Great, you've seen the third block of words. You may now take a short break.</p>
      <p>Press the spacebar when you're ready to continue.</p>","","","","","","","","",""
"html-keyboard-response","251","334156","0.0-14.0-0.0","608c64e14968cdd8dcbe1be4","650c16f0f2faf8d7a0d14c09","651c0a61c73b6eea8fa96e52","null","null","<p style=""font-size: 60px; font-family: BACS"">BMEMACdt</p>","","","","","","","","",""
"html-keyboard-response","252","335167","0.0-14.0-0.1","608c64e14968cdd8dcbe1be4","650c16f0f2faf8d7a0d14c09","651c0a61c73b6eea8fa96e52","null","null","<p style=""font-size: 60px; font-family: BACS"">NkUAmZb</p>","","","","","","","","",""
"html-keyboard-response","253","336174","0.0-14.0-0.2","608c64e14968cdd8dcbe1be4","650c16f0f2faf8d7a0d14c09","651c0a61c73b6eea8fa96e52","null","null","<p style=""font-size: 60px; font-family: BACS"">KMDYtOYK</p>","","","","","","","","",""
"html-keyboard-response","254","337196","0.0-14.0-0.3","608c64e14968cdd8dcbe1be4","650c16f0f2faf8d7a0d14c09","651c0a61c73b6eea8fa96e52","null","null","<p style=""font-size: 60px; font-family: BACS"">NbmQUmvG</p>","","","","","","","","",""
"html-keyboard-response","255","338207","0.0-14.0-0.4","608c64e14968cdd8dcbe1be4","650c16f0f2faf8d7a0d14c09","651c0a61c73b6eea8fa96e52","null","null","<p style=""font-size: 60px; font-family: BACS"">ukYZmZb</p>","","","","","","","","",""
"html-keyboard-response","256","339231","0.0-14.0-0.5","608c64e14968cdd8dcbe1be4","650c16f0f2faf8d7a0d14c09","651c0a61c73b6eea8fa96e52","null","null","<p style=""font-size: 60px; font-family: BACS"">AlQaQbLd</p>","","","","","","","","",""
"html-keyboard-response","257","340239","0.0-14.0-0.6","608c64e14968cdd8dcbe1be4","650c16f0f2faf8d7a0d14c09","651c0a61c73b6eea8fa96e52","null","null","<p style=""font-size: 60px; font-family: BACS"">NkUAYbN</p>","","","","","","","","",""
"html-keyboard-response","258","341264","0.0-14.0-0.7","608c64e14968cdd8dcbe1be4","650c16f0f2faf8d7a0d14c09","651c0a61c73b6eea8fa96e52","null","null","<p style=""font-size: 60px; font-family: BACS"">BMEMAOYK</p>","","","","","","","","",""
"html-keyboard-response","259","342271","0.0-14.0-0.8","608c64e14968cdd8dcbe1be4","650c16f0f2faf8d7a0d14c09","651c0a61c73b6eea8fa96e52","null","null","<p style=""font-size: 60px; font-family: BACS"">AmaclLcO</p>","","","","","","","","",""
"html-keyboard-response","260","343299","0.0-14.0-0.9","608c64e14968cdd8dcbe1be4","650c16f0f2faf8d7a0d14c09","651c0a61c73b6eea8fa96e52","null","null","<p style=""font-size: 60px; font-family: BACS"">hlkTDmh</p>","","","","","","","","",""
"html-keyboard-response","261","344309","0.0-14.0-0.10","608c64e14968cdd8dcbe1be4","650c16f0f2faf8d7a0d14c09","651c0a61c73b6eea8fa96e52","null","null","<p style=""font-size: 60px; font-family: BACS"">EMYKbTE</p>","","","","","","","","",""
"html-keyboard-response","262","345332","0.0-14.0-0.11","608c64e14968cdd8dcbe1be4","650c16f0f2faf8d7a0d14c09","651c0a61c73b6eea8fa96e52","null","null","<p style=""font-size: 60px; font-family: BACS"">AmaclmvG</p>","","","","","","","","",""
"html-keyboard-response","263","346341","0.0-14.0-0.12","608c64e14968cdd8dcbe1be4","650c16f0f2faf8d7a0d14c09","651c0a61c73b6eea8fa96e52","null","null","<p style=""font-size: 60px; font-family: BACS"">OAmAdbTE</p>","","","","","","","","",""
"html-keyboard-response","264","347364","0.0-14.0-0.13","608c64e14968cdd8dcbe1be4","650c16f0f2faf8d7a0d14c09","651c0a61c73b6eea8fa96e52","null","null","<p style=""font-size: 60px; font-family: BACS"">PCPDhOYK</p>","","","","","","","","",""
"html-keyboard-response","265","348374","0.0-14.0-0.14","608c64e14968cdd8dcbe1be4","650c16f0f2faf8d7a0d14c09","651c0a61c73b6eea8fa96e52","null","null","<p style=""font-size: 60px; font-family: BACS"">ukYZmvG</p>","","","","","","","","",""
"html-keyboard-response","266","349393","0.0-14.0-0.15","608c64e14968cdd8dcbe1be4","650c16f0f2faf8d7a0d14c09","651c0a61c73b6eea8fa96e52","null","null","<p style=""font-size: 60px; font-family: BACS"">YJLcALcO</p>","","","","","","","","",""
"html-keyboard-response","267","350401","0.0-14.0-0.16","608c64e14968cdd8dcbe1be4","650c16f0f2faf8d7a0d14c09","651c0a61c73b6eea8fa96e52","null","null","<p style=""font-size: 60px; font-family: BACS"">JuamlmZb</p>","","","","","","","","",""
"html-keyboard-response","268","351428","0.0-14.0-0.17","608c64e14968cdd8dcbe1be4","650c16f0f2faf8d7a0d14c09","651c0a61c73b6eea8fa96e52","null","null","<p style=""font-size: 60px; font-family: BACS"">OAmAdDmh</p>","","","","","","","","",""
"html-keyboard-response","269","352439","0.0-14.0-0.18","608c64e14968cdd8dcbe1be4","650c16f0f2faf8d7a0d14c09","651c0a61c73b6eea8fa96e52","null","null","<p style=""font-size: 60px; font-family: BACS"">hbkdOYK</p>","","","","","","","","",""
"html-keyboard-response","270","353464","0.0-14.0-0.19","608c64e14968cdd8dcbe1be4","650c16f0f2faf8d7a0d14c09","651c0a61c73b6eea8fa96e52","null","null","<p style=""font-size: 60px; font-family: BACS"">hlkTCdt</p>","","","","","","","","",""
"html-keyboard-response","271","354476","0.0-14.0-0.20","608c64e14968cdd8dcbe1be4","650c16f0f2faf8d7a0d14c09","651c0a61c73b6eea8fa96e52","null","null","<p style=""font-size: 60px; font-family: BACS"">hbkdDmh</p>","","","","","","","","",""
"html-keyboard-response","272","355503","0.0-14.0-0.21","608c64e14968cdd8dcbe1be4","650c16f0f2faf8d7a0d14c09","651c0a61c73b6eea8fa96e52","null","null","<p style=""font-size: 60px; font-family: BACS"">NkUAmvG</p>","","","","","","","","",""
"html-keyboard-response","273","356513","0.0-14.0-0.22","608c64e14968cdd8dcbe1be4","650c16f0f2faf8d7a0d14c09","651c0a61c73b6eea8fa96e52","null","null","<p style=""font-size: 60px; font-family: BACS"">YJLcAYbN</p>","","","","","","","","",""
"html-keyboard-response","274","357538","0.0-14.0-0.23","608c64e14968cdd8dcbe1be4","650c16f0f2faf8d7a0d14c09","651c0a61c73b6eea8fa96e52","null","null","<p style=""font-size: 60px; font-family: BACS"">EPMDkDmh</p>","","","","","","","","",""
"html-keyboard-response","275","358545","0.0-14.0-0.24","608c64e14968cdd8dcbe1be4","650c16f0f2faf8d7a0d14c09","651c0a61c73b6eea8fa96e52","null","null","<p style=""font-size: 60px; font-family: BACS"">EMYKCdt</p>","","","","","","","","",""
"html-keyboard-response","276","359572","0.0-14.0-0.25","608c64e14968cdd8dcbe1be4","650c16f0f2faf8d7a0d14c09","651c0a61c73b6eea8fa96e52","null","null","<p style=""font-size: 60px; font-family: BACS"">EPMDkCmYA</p>","","","","","","","","",""
"html-keyboard-response","277","360582","0.0-14.0-0.26","608c64e14968cdd8dcbe1be4","650c16f0f2faf8d7a0d14c09","651c0a61c73b6eea8fa96e52","null","null","<p style=""font-size: 60px; font-family: BACS"">YJLcAmvG</p>","","","","","","","","",""
"html-keyboard-response","278","361612","0.0-14.0-0.27","608c64e14968cdd8dcbe1be4","650c16f0f2faf8d7a0d14c09","651c0a61c73b6eea8fa96e52","null","null","<p style=""font-size: 60px; font-family: BACS"">UAcduYbN</p>","","","","","","","","",""
"html-keyboard-response","279","362619","0.0-14.0-0.28","608c64e14968cdd8dcbe1be4","650c16f0f2faf8d7a0d14c09","651c0a61c73b6eea8fa96e52","null","null","<p style=""font-size: 60px; font-family: BACS"">adkrbLd</p>","","","","","","","","",""
"html-keyboard-response","280","363643","0.0-14.0-0.29","608c64e14968cdd8dcbe1be4","650c16f0f2faf8d7a0d14c09","651c0a61c73b6eea8fa96e52","null","null","<p style=""font-size: 60px; font-family: BACS"">UAcdumvG</p>","","","","","","","","",""
"html-keyboard-response","281","364650","0.0-14.0-0.30","608c64e14968cdd8dcbe1be4","650c16f0f2faf8d7a0d14c09","651c0a61c73b6eea8fa96e52","null","null","<p style=""font-size: 60px; font-family: BACS"">dMYBPCdt</p>","","","","","","","","",""
"html-keyboard-response","282","365674","0.0-14.0-0.31","608c64e14968cdd8dcbe1be4","650c16f0f2faf8d7a0d14c09","651c0a61c73b6eea8fa96e52","null","null","<p style=""font-size: 60px; font-family: BACS"">BMEMAbTE</p>","","","","","","","","",""
"html-keyboard-response","283","366687","0.0-14.0-0.32","608c64e14968cdd8dcbe1be4","650c16f0f2faf8d7a0d14c09","651c0a61c73b6eea8fa96e52","null","null","<p style=""font-size: 60px; font-family: BACS"">hbkdCmYA</p>","","","","","","","","",""
"html-keyboard-response","284","367713","0.0-14.0-0.33","608c64e14968cdd8dcbe1be4","650c16f0f2faf8d7a0d14c09","651c0a61c73b6eea8fa96e52","null","null","<p style=""font-size: 60px; font-family: BACS"">OAmAdOYK</p>","","","","","","","","",""
"html-keyboard-response","285","368721","0.0-14.0-0.34","608c64e14968cdd8dcbe1be4","650c16f0f2faf8d7a0d14c09","651c0a61c73b6eea8fa96e52","null","null","<p style=""font-size: 60px; font-family: BACS"">AmaclbLd</p>","","","","","","","","",""
"html-keyboard-response","286","369749","0.0-14.0-0.35","608c64e14968cdd8dcbe1be4","650c16f0f2faf8d7a0d14c09","651c0a61c73b6eea8fa96e52","null","null","<p style=""font-size: 60px; font-family: BACS"">adkrLcO</p>","","","","","","","","",""
"html-keyboard-response","287","370757","0.0-14.0-0.36","608c64e14968cdd8dcbe1be4","650c16f0f2faf8d7a0d14c09","651c0a61c73b6eea8fa96e52","null","null","<p style=""font-size: 60px; font-family: BACS"">EMbDPCdt</p>","","","","","","","","",""
"html-keyboard-response","288","371779","0.0-14.0-0.37","608c64e14968cdd8dcbe1be4","650c16f0f2faf8d7a0d14c09","651c0a61c73b6eea8fa96e52","null","null","<p style=""font-size: 60px; font-family: BACS"">JuamlmvG</p>","","","","","","","","",""
"html-keyboard-response","289","372788","0.0-14.0-0.38","608c64e14968cdd8dcbe1be4","650c16f0f2faf8d7a0d14c09","651c0a61c73b6eea8fa96e52","null","null","<p style=""font-size: 60px; font-family: BACS"">EMbDPCmYA</p>","","","","","","","","",""
"html-keyboard-response","290","373794","0.0-14.0-0.39","608c64e14968cdd8dcbe1be4","650c16f0f2faf8d7a0d14c09","651c0a61c73b6eea8fa96e52","null","null","<p style=""font-size: 60px; font-family: BACS"">JuamlYbN</p>","","","","","","","","",""
"html-keyboard-response","291","374804","0.0-14.0-0.40","608c64e14968cdd8dcbe1be4","650c16f0f2faf8d7a0d14c09","651c0a61c73b6eea8fa96e52","null","null","<p style=""font-size: 60px; font-family: BACS"">dMYBPbTE</p>","","","","","","","","",""
"html-keyboard-response","292","375816","0.0-14.0-0.41","608c64e14968cdd8dcbe1be4","650c16f0f2faf8d7a0d14c09","651c0a61c73b6eea8fa96e52","null","null","<p style=""font-size: 60px; font-family: BACS"">EPMDkCdt</p>","","","","","","","","",""
"html-keyboard-response","293","376826","0.0-14.0-0.42","608c64e14968cdd8dcbe1be4","650c16f0f2faf8d7a0d14c09","651c0a61c73b6eea8fa96e52","null","null","<p style=""font-size: 60px; font-family: BACS"">EMYKCmYA</p>","","","","","","","","",""
"html-keyboard-response","294","377835","0.0-14.0-0.43","608c64e14968cdd8dcbe1be4","650c16f0f2faf8d7a0d14c09","651c0a61c73b6eea8fa96e52","null","null","<p style=""font-size: 60px; font-family: BACS"">NkUAbLd</p>","","","","","","","","",""
"html-keyboard-response","295","378841","0.0-14.0-0.44","608c64e14968cdd8dcbe1be4","650c16f0f2faf8d7a0d14c09","651c0a61c73b6eea8fa96e52","null","null","<p style=""font-size: 60px; font-family: BACS"">NbmQUmZb</p>","","","","","","","","",""
"html-keyboard-response","296","379871","0.0-14.0-0.45","608c64e14968cdd8dcbe1be4","650c16f0f2faf8d7a0d14c09","651c0a61c73b6eea8fa96e52","null","null","<p style=""font-size: 60px; font-family: BACS"">YJLcAbLd</p>","","","","","","","","",""
"html-keyboard-response","297","380882","0.0-14.0-0.46","608c64e14968cdd8dcbe1be4","650c16f0f2faf8d7a0d14c09","651c0a61c73b6eea8fa96e52","null","null","<p style=""font-size: 60px; font-family: BACS"">hlkTCmYA</p>","","","","","","","","",""
"html-keyboard-response","298","381910","0.0-14.0-0.47","608c64e14968cdd8dcbe1be4","650c16f0f2faf8d7a0d14c09","651c0a61c73b6eea8fa96e52","null","null","<p style=""font-size: 60px; font-family: BACS"">EPMDkbTE</p>","","","","","","","","",""
"html-keyboard-response","299","382921","0.0-14.0-0.48","608c64e14968cdd8dcbe1be4","650c16f0f2faf8d7a0d14c09","651c0a61c73b6eea8fa96e52","null","null","<p style=""font-size: 60px; font-family: BACS"">hlkTOYK</p>","","","","","","","","",""
"html-keyboard-response","300","383944","0.0-14.0-0.49","608c64e14968cdd8dcbe1be4","650c16f0f2faf8d7a0d14c09","651c0a61c73b6eea8fa96e52","null","null","<p style=""font-size: 60px; font-family: BACS"">JuamlLcO</p>","","","","","","","","",""
"html-keyboard-response","301","384954","0.0-14.0-0.50","608c64e14968cdd8dcbe1be4","650c16f0f2faf8d7a0d14c09","651c0a61c73b6eea8fa96e52","null","null","<p style=""font-size: 60px; font-family: BACS"">KMDYtbTE</p>","","","","","","","","",""
"html-keyboard-response","302","385977","0.0-14.0-0.51","608c64e14968cdd8dcbe1be4","650c16f0f2faf8d7a0d14c09","651c0a61c73b6eea8fa96e52","null","null","<p style=""font-size: 60px; font-family: BACS"">ukYZbLd</p>","","","","","","","","",""
"html-keyboard-response","303","386981","0.0-14.0-0.52","608c64e14968cdd8dcbe1be4","650c16f0f2faf8d7a0d14c09","651c0a61c73b6eea8fa96e52","null","null","<p style=""font-size: 60px; font-family: BACS"">hbkdCdt</p>","","","","","","","","",""
"html-keyboard-response","304","388006","0.0-14.0-0.53","608c64e14968cdd8dcbe1be4","650c16f0f2faf8d7a0d14c09","651c0a61c73b6eea8fa96e52","null","null","<p style=""font-size: 60px; font-family: BACS"">AmaclmZb</p>","","","","","","","","",""
"html-keyboard-response","305","389018","0.0-14.0-0.54","608c64e14968cdd8dcbe1be4","650c16f0f2faf8d7a0d14c09","651c0a61c73b6eea8fa96e52","null","null","<p style=""font-size: 60px; font-family: BACS"">KMDYtCmYA</p>","","","","","","","","",""
"html-keyboard-response","306","390029","0.0-14.0-0.55","608c64e14968cdd8dcbe1be4","650c16f0f2faf8d7a0d14c09","651c0a61c73b6eea8fa96e52","null","null","<p style=""font-size: 60px; font-family: BACS"">EMYKDmh</p>","","","","","","","","",""
"html-keyboard-response","307","391036","0.0-14.0-0.56","608c64e14968cdd8dcbe1be4","650c16f0f2faf8d7a0d14c09","651c0a61c73b6eea8fa96e52","null","null","<p style=""font-size: 60px; font-family: BACS"">dMYBPOYK</p>","","","","","","","","",""
"html-keyboard-response","308","392042","0.0-14.0-0.57","608c64e14968cdd8dcbe1be4","650c16f0f2faf8d7a0d14c09","651c0a61c73b6eea8fa96e52","null","null","<p style=""font-size: 60px; font-family: BACS"">NbmQULcO</p>","","","","","","","","",""
"html-keyboard-response","309","393052","0.0-14.0-0.58","608c64e14968cdd8dcbe1be4","650c16f0f2faf8d7a0d14c09","651c0a61c73b6eea8fa96e52","null","null","<p style=""font-size: 60px; font-family: BACS"">KMDYtDmh</p>","","","","","","","","",""
"html-keyboard-response","310","394063","0.0-14.0-0.59","608c64e14968cdd8dcbe1be4","650c16f0f2faf8d7a0d14c09","651c0a61c73b6eea8fa96e52","null","null","<p style=""font-size: 60px; font-family: BACS"">PCPDhCmYA</p>","","","","","","","","",""
"html-keyboard-response","311","395074","0.0-14.0-0.60","608c64e14968cdd8dcbe1be4","650c16f0f2faf8d7a0d14c09","651c0a61c73b6eea8fa96e52","null","null","<p style=""font-size: 60px; font-family: BACS"">dkLlYbN</p>","","","","","","","","",""
"html-keyboard-response","312","396100","0.0-14.0-0.61","608c64e14968cdd8dcbe1be4","650c16f0f2faf8d7a0d14c09","651c0a61c73b6eea8fa96e52","null","null","<p style=""font-size: 60px; font-family: BACS"">BMEMADmh</p>","","","","","","","","",""
"html-keyboard-response","313","397104","0.0-14.0-0.62","608c64e14968cdd8dcbe1be4","650c16f0f2faf8d7a0d14c09","651c0a61c73b6eea8fa96e52","null","null","<p style=""font-size: 60px; font-family: BACS"">dkLlmvG</p>","","","","","","","","",""
"html-keyboard-response","314","398115","0.0-14.0-0.63","608c64e14968cdd8dcbe1be4","650c16f0f2faf8d7a0d14c09","651c0a61c73b6eea8fa96e52","null","null","<p style=""font-size: 60px; font-family: BACS"">dMYBPDmh</p>","","","","","","","","",""
"html-keyboard-response","315","399119","0.0-14.0-0.64","608c64e14968cdd8dcbe1be4","650c16f0f2faf8d7a0d14c09","651c0a61c73b6eea8fa96e52","null","null","<p style=""font-size: 60px; font-family: BACS"">adkrmZb</p>","","","","","","","","",""
"html-keyboard-response","316","400131","0.0-14.0-0.65","608c64e14968cdd8dcbe1be4","650c16f0f2faf8d7a0d14c09","651c0a61c73b6eea8fa96e52","null","null","<p style=""font-size: 60px; font-family: BACS"">EMbDPOYK</p>","","","","","","","","",""
"html-keyboard-response","317","401153","0.0-14.0-0.66","608c64e14968cdd8dcbe1be4","650c16f0f2faf8d7a0d14c09","651c0a61c73b6eea8fa96e52","null","null","<p style=""font-size: 60px; font-family: BACS"">NbmQUbLd</p>","","","","","","","","",""
"html-keyboard-response","318","402164","0.0-14.0-0.67","608c64e14968cdd8dcbe1be4","650c16f0f2faf8d7a0d14c09","651c0a61c73b6eea8fa96e52","null","null","<p style=""font-size: 60px; font-family: BACS"">dkLlmZb</p>","","","","","","","","",""
"html-keyboard-response","319","403190","0.0-14.0-0.68","608c64e14968cdd8dcbe1be4","650c16f0f2faf8d7a0d14c09","651c0a61c73b6eea8fa96e52","null","null","<p style=""font-size: 60px; font-family: BACS"">UAcduLcO</p>","","","","","","","","",""
"html-keyboard-response","320","404201","0.0-14.0-0.69","608c64e14968cdd8dcbe1be4","650c16f0f2faf8d7a0d14c09","651c0a61c73b6eea8fa96e52","null","null","<p style=""font-size: 60px; font-family: BACS"">adkrYbN</p>","","","","","","","","",""
"html-keyboard-response","321","405224","0.0-14.0-0.70","608c64e14968cdd8dcbe1be4","650c16f0f2faf8d7a0d14c09","651c0a61c73b6eea8fa96e52","null","null","<p style=""font-size: 60px; font-family: BACS"">OAmAdCmYA</p>","","","","","","","","",""
"html-keyboard-response","322","406234","0.0-14.0-0.71","608c64e14968cdd8dcbe1be4","650c16f0f2faf8d7a0d14c09","651c0a61c73b6eea8fa96e52","null","null","<p style=""font-size: 60px; font-family: BACS"">AlQaQYbN</p>","","","","","","","","",""
"html-keyboard-response","323","407241","0.0-14.0-0.72","608c64e14968cdd8dcbe1be4","650c16f0f2faf8d7a0d14c09","651c0a61c73b6eea8fa96e52","null","null","<p style=""font-size: 60px; font-family: BACS"">EMbDPbTE</p>","","","","","","","","",""
"html-keyboard-response","324","408254","0.0-14.0-0.73","608c64e14968cdd8dcbe1be4","650c16f0f2faf8d7a0d14c09","651c0a61c73b6eea8fa96e52","null","null","<p style=""font-size: 60px; font-family: BACS"">PCPDhCdt</p>","","","","","","","","",""
"html-keyboard-response","325","409264","0.0-14.0-0.74","608c64e14968cdd8dcbe1be4","650c16f0f2faf8d7a0d14c09","651c0a61c73b6eea8fa96e52","null","null","<p style=""font-size: 60px; font-family: BACS"">AlQaQLcO</p>","","","","","","","","",""
"html-keyboard-response","326","410273","0.0-14.0-0.75","608c64e14968cdd8dcbe1be4","650c16f0f2faf8d7a0d14c09","651c0a61c73b6eea8fa96e52","null","null","<p style=""font-size: 60px; font-family: BACS"">PCPDhbTE</p>","","","","","","","","",""
"html-keyboard-response","327","411280","0.0-14.0-0.76","608c64e14968cdd8dcbe1be4","650c16f0f2faf8d7a0d14c09","651c0a61c73b6eea8fa96e52","null","null","<p style=""font-size: 60px; font-family: BACS"">ukYZYbN</p>","","","","","","","","",""
"html-keyboard-response","328","412305","0.0-14.0-0.77","608c64e14968cdd8dcbe1be4","650c16f0f2faf8d7a0d14c09","651c0a61c73b6eea8fa96e52","null","null","<p style=""font-size: 60px; font-family: BACS"">UAcdubLd</p>","","","","","","","","",""
"html-keyboard-response","329","413316","0.0-14.0-0.78","608c64e14968cdd8dcbe1be4","650c16f0f2faf8d7a0d14c09","651c0a61c73b6eea8fa96e52","null","null","<p style=""font-size: 60px; font-family: BACS"">dkLlLcO</p>","","","","","","","","",""
"html-keyboard-response","330","414335","0.0-14.0-0.79","608c64e14968cdd8dcbe1be4","650c16f0f2faf8d7a0d14c09","651c0a61c73b6eea8fa96e52","null","null","<p style=""font-size: 60px; font-family: BACS"">AlQaQmZb</p>","","","","","","","","",""
"html-keyboard-response","331","417254","0.0-15.0","608c64e14968cdd8dcbe1be4","650c16f0f2faf8d7a0d14c09","651c0a61c73b6eea8fa96e52","2917"," ","<p>Great, you've seen the fourth block of words. You may now take a short break.</p>
      <p>Press the spacebar when you're ready to continue.</p>","","","","","","","","",""
"html-keyboard-response","332","418265","0.0-16.0-0.0","608c64e14968cdd8dcbe1be4","650c16f0f2faf8d7a0d14c09","651c0a61c73b6eea8fa96e52","null","null","<p style=""font-size: 60px; font-family: BACS"">EMYKCmYA</p>","","","","","","","","",""
"html-keyboard-response","333","419271","0.0-16.0-0.1","608c64e14968cdd8dcbe1be4","650c16f0f2faf8d7a0d14c09","651c0a61c73b6eea8fa96e52","null","null","<p style=""font-size: 60px; font-family: BACS"">EMYKCmYA</p>","","","","","","","","",""
"html-keyboard-response","334","420282","0.0-16.0-0.2","608c64e14968cdd8dcbe1be4","650c16f0f2faf8d7a0d14c09","651c0a61c73b6eea8fa96e52","null","null","<p style=""font-size: 60px; font-family: BACS"">EMYKCmYA</p>","","","","","","","","",""
"html-keyboard-response","335","421292","0.0-16.0-0.3","608c64e14968cdd8dcbe1be4","650c16f0f2faf8d7a0d14c09","651c0a61c73b6eea8fa96e52","null","null","<p style=""font-size: 60px; font-family: BACS"">EMYKCmYA</p>","","","","","","","","",""
"html-keyboard-response","336","422318","0.0-16.0-0.4","608c64e14968cdd8dcbe1be4","650c16f0f2faf8d7a0d14c09","651c0a61c73b6eea8fa96e52","null","null","<p style=""font-size: 60px; font-family: BACS"">EMYKCmYA</p>","","","","","","","","",""
"html-keyboard-response","337","423330","0.0-16.0-0.5","608c64e14968cdd8dcbe1be4","650c16f0f2faf8d7a0d14c09","651c0a61c73b6eea8fa96e52","null","null","<p style=""font-size: 60px; font-family: BACS"">EMYKCmYA</p>","","","","","","","","",""
"html-keyboard-response","338","424356","0.0-16.0-0.6","608c64e14968cdd8dcbe1be4","650c16f0f2faf8d7a0d14c09","651c0a61c73b6eea8fa96e52","null","null","<p style=""font-size: 60px; font-family: BACS"">EMYKCmYA</p>","","","","","","","","",""
"html-keyboard-response","339","425361","0.0-16.0-0.7","608c64e14968cdd8dcbe1be4","650c16f0f2faf8d7a0d14c09","651c0a61c73b6eea8fa96e52","null","null","<p style=""font-size: 60px; font-family: BACS"">EMYKCmYA</p>","","","","","","","","",""
"html-keyboard-response","340","426368","0.0-16.0-0.8","608c64e14968cdd8dcbe1be4","650c16f0f2faf8d7a0d14c09","651c0a61c73b6eea8fa96e52","null","null","<p style=""font-size: 60px; font-family: BACS"">EMYKCmYA</p>","","","","","","","","",""
"html-keyboard-response","341","427377","0.0-16.0-0.9","608c64e14968cdd8dcbe1be4","650c16f0f2faf8d7a0d14c09","651c0a61c73b6eea8fa96e52","null","null","<p style=""font-size: 60px; font-family: BACS"">EMYKCmYA</p>","","","","","","","","",""
"html-keyboard-response","342","428384","0.0-16.0-0.10","608c64e14968cdd8dcbe1be4","650c16f0f2faf8d7a0d14c09","651c0a61c73b6eea8fa96e52","null","null","<p style=""font-size: 60px; font-family: BACS"">EMYKCmYA</p>","","","","","","","","",""
"html-keyboard-response","343","429392","0.0-16.0-0.11","608c64e14968cdd8dcbe1be4","650c16f0f2faf8d7a0d14c09","651c0a61c73b6eea8fa96e52","null","null","<p style=""font-size: 60px; font-family: BACS"">EMYKCmYA</p>","","","","","","","","",""
"html-keyboard-response","344","430399","0.0-16.0-0.12","608c64e14968cdd8dcbe1be4","650c16f0f2faf8d7a0d14c09","651c0a61c73b6eea8fa96e52","null","null","<p style=""font-size: 60px; font-family: BACS"">EMYKCmYA</p>","","","","","","","","",""
"html-keyboard-response","345","431425","0.0-16.0-0.13","608c64e14968cdd8dcbe1be4","650c16f0f2faf8d7a0d14c09","651c0a61c73b6eea8fa96e52","null","null","<p style=""font-size: 60px; font-family: BACS"">EMYKCmYA</p>","","","","","","","","",""
"html-keyboard-response","346","432435","0.0-16.0-0.14","608c64e14968cdd8dcbe1be4","650c16f0f2faf8d7a0d14c09","651c0a61c73b6eea8fa96e52","null","null","<p style=""font-size: 60px; font-family: BACS"">EMYKCmYA</p>","","","","","","","","",""
"html-keyboard-response","347","433459","0.0-16.0-0.15","608c64e14968cdd8dcbe1be4","650c16f0f2faf8d7a0d14c09","651c0a61c73b6eea8fa96e52","null","null","<p style=""font-size: 60px; font-family: BACS"">EMYKCmYA</p>","","","","","","","","",""
"html-keyboard-response","348","434466","0.0-16.0-0.16","608c64e14968cdd8dcbe1be4","650c16f0f2faf8d7a0d14c09","651c0a61c73b6eea8fa96e52","null","null","<p style=""font-size: 60px; font-family: BACS"">EMYKCmYA</p>","","","","","","","","",""
"html-keyboard-response","349","435489","0.0-16.0-0.17","608c64e14968cdd8dcbe1be4","650c16f0f2faf8d7a0d14c09","651c0a61c73b6eea8fa96e52","null","null","<p style=""font-size: 60px; font-family: BACS"">EMYKCmYA</p>","","","","","","","","",""
"html-keyboard-response","350","436495","0.0-16.0-0.18","608c64e14968cdd8dcbe1be4","650c16f0f2faf8d7a0d14c09","651c0a61c73b6eea8fa96e52","null","null","<p style=""font-size: 60px; font-family: BACS"">EMYKCmYA</p>","","","","","","","","",""
"html-keyboard-response","351","437516","0.0-16.0-0.19","608c64e14968cdd8dcbe1be4","650c16f0f2faf8d7a0d14c09","651c0a61c73b6eea8fa96e52","null","null","<p style=""font-size: 60px; font-family: BACS"">EMYKCmYA</p>","","","","","","","","",""
"html-keyboard-response","352","438525","0.0-16.0-0.20","608c64e14968cdd8dcbe1be4","650c16f0f2faf8d7a0d14c09","651c0a61c73b6eea8fa96e52","null","null","<p style=""font-size: 60px; font-family: BACS"">EMYKCmYA</p>","","","","","","","","",""
"html-keyboard-response","353","439547","0.0-16.0-0.21","608c64e14968cdd8dcbe1be4","650c16f0f2faf8d7a0d14c09","651c0a61c73b6eea8fa96e52","null","null","<p style=""font-size: 60px; font-family: BACS"">EMYKCmYA</p>","","","","","","","","",""
"html-keyboard-response","354","440558","0.0-16.0-0.22","608c64e14968cdd8dcbe1be4","650c16f0f2faf8d7a0d14c09","651c0a61c73b6eea8fa96e52","null","null","<p style=""font-size: 60px; font-family: BACS"">EMYKCmYA</p>","","","","","","","","",""
"html-keyboard-response","355","441585","0.0-16.0-0.23","608c64e14968cdd8dcbe1be4","650c16f0f2faf8d7a0d14c09","651c0a61c73b6eea8fa96e52","null","null","<p style=""font-size: 60px; font-family: BACS"">EMYKCmYA</p>","","","","","","","","",""
"html-keyboard-response","356","442591","0.0-16.0-0.24","608c64e14968cdd8dcbe1be4","650c16f0f2faf8d7a0d14c09","651c0a61c73b6eea8fa96e52","null","null","<p style=""font-size: 60px; font-family: BACS"">EMYKCmYA</p>","","","","","","","","",""
"html-keyboard-response","357","443621","0.0-16.0-0.25","608c64e14968cdd8dcbe1be4","650c16f0f2faf8d7a0d14c09","651c0a61c73b6eea8fa96e52","null","null","<p style=""font-size: 60px; font-family: BACS"">EMYKCmYA</p>","","","","","","","","",""
"html-keyboard-response","358","444630","0.0-16.0-0.26","608c64e14968cdd8dcbe1be4","650c16f0f2faf8d7a0d14c09","651c0a61c73b6eea8fa96e52","null","null","<p style=""font-size: 60px; font-family: BACS"">EMYKCmYA</p>","","","","","","","","",""
"html-keyboard-response","359","445652","0.0-16.0-0.27","608c64e14968cdd8dcbe1be4","650c16f0f2faf8d7a0d14c09","651c0a61c73b6eea8fa96e52","null","null","<p style=""font-size: 60px; font-family: BACS"">EMYKCmYA</p>","","","","","","","","",""
"html-keyboard-response","360","446660","0.0-16.0-0.28","608c64e14968cdd8dcbe1be4","650c16f0f2faf8d7a0d14c09","651c0a61c73b6eea8fa96e52","null","null","<p style=""font-size: 60px; font-family: BACS"">EMYKCmYA</p>","","","","","","","","",""
"html-keyboard-response","361","447689","0.0-16.0-0.29","608c64e14968cdd8dcbe1be4","650c16f0f2faf8d7a0d14c09","651c0a61c73b6eea8fa96e52","null","null","<p style=""font-size: 60px; font-family: BACS"">EMYKCmYA</p>","","","","","","","","",""
"html-keyboard-response","362","448698","0.0-16.0-0.30","608c64e14968cdd8dcbe1be4","650c16f0f2faf8d7a0d14c09","651c0a61c73b6eea8fa96e52","null","null","<p style=""font-size: 60px; font-family: BACS"">EMYKCmYA</p>","","","","","","","","",""
"html-keyboard-response","363","449721","0.0-16.0-0.31","608c64e14968cdd8dcbe1be4","650c16f0f2faf8d7a0d14c09","651c0a61c73b6eea8fa96e52","null","null","<p style=""font-size: 60px; font-family: BACS"">EMYKCmYA</p>","","","","","","","","",""
"html-keyboard-response","364","450734","0.0-16.0-0.32","608c64e14968cdd8dcbe1be4","650c16f0f2faf8d7a0d14c09","651c0a61c73b6eea8fa96e52","null","null","<p style=""font-size: 60px; font-family: BACS"">EMYKCmYA</p>","","","","","","","","",""
"html-keyboard-response","365","451759","0.0-16.0-0.33","608c64e14968cdd8dcbe1be4","650c16f0f2faf8d7a0d14c09","651c0a61c73b6eea8fa96e52","null","null","<p style=""font-size: 60px; font-family: BACS"">EMYKCmYA</p>","","","","","","","","",""
"html-keyboard-response","366","452767","0.0-16.0-0.34","608c64e14968cdd8dcbe1be4","650c16f0f2faf8d7a0d14c09","651c0a61c73b6eea8fa96e52","null","null","<p style=""font-size: 60px; font-family: BACS"">EMYKCmYA</p>","","","","","","","","",""
"html-keyboard-response","367","453773","0.0-16.0-0.35","608c64e14968cdd8dcbe1be4","650c16f0f2faf8d7a0d14c09","651c0a61c73b6eea8fa96e52","null","null","<p style=""font-size: 60px; font-family: BACS"">EMYKCmYA</p>","","","","","","","","",""
"html-keyboard-response","368","454777","0.0-16.0-0.36","608c64e14968cdd8dcbe1be4","650c16f0f2faf8d7a0d14c09","651c0a61c73b6eea8fa96e52","null","null","<p style=""font-size: 60px; font-family: BACS"">EMYKCmYA</p>","","","","","","","","",""
"html-keyboard-response","369","455784","0.0-16.0-0.37","608c64e14968cdd8dcbe1be4","650c16f0f2faf8d7a0d14c09","651c0a61c73b6eea8fa96e52","null","null","<p style=""font-size: 60px; font-family: BACS"">EMYKCmYA</p>","","","","","","","","",""
"html-keyboard-response","370","456797","0.0-16.0-0.38","608c64e14968cdd8dcbe1be4","650c16f0f2faf8d7a0d14c09","651c0a61c73b6eea8fa96e52","null","null","<p style=""font-size: 60px; font-family: BACS"">EMYKCmYA</p>","","","","","","","","",""
"html-keyboard-response","371","457803","0.0-16.0-0.39","608c64e14968cdd8dcbe1be4","650c16f0f2faf8d7a0d14c09","651c0a61c73b6eea8fa96e52","null","null","<p style=""font-size: 60px; font-family: BACS"">EMYKCmYA</p>","","","","","","","","",""
"html-keyboard-response","372","458827","0.0-16.0-0.40","608c64e14968cdd8dcbe1be4","650c16f0f2faf8d7a0d14c09","651c0a61c73b6eea8fa96e52","null","null","<p style=""font-size: 60px; font-family: BACS"">EMYKCmYA</p>","","","","","","","","",""
"html-keyboard-response","373","459839","0.0-16.0-0.41","608c64e14968cdd8dcbe1be4","650c16f0f2faf8d7a0d14c09","651c0a61c73b6eea8fa96e52","null","null","<p style=""font-size: 60px; font-family: BACS"">EMYKCmYA</p>","","","","","","","","",""
"html-keyboard-response","374","460862","0.0-16.0-0.42","608c64e14968cdd8dcbe1be4","650c16f0f2faf8d7a0d14c09","651c0a61c73b6eea8fa96e52","null","null","<p style=""font-size: 60px; font-family: BACS"">EMYKCmYA</p>","","","","","","","","",""
"html-keyboard-response","375","461872","0.0-16.0-0.43","608c64e14968cdd8dcbe1be4","650c16f0f2faf8d7a0d14c09","651c0a61c73b6eea8fa96e52","null","null","<p style=""font-size: 60px; font-family: BACS"">EMYKCmYA</p>","","","","","","","","",""
"html-keyboard-response","376","462896","0.0-16.0-0.44","608c64e14968cdd8dcbe1be4","650c16f0f2faf8d7a0d14c09","651c0a61c73b6eea8fa96e52","null","null","<p style=""font-size: 60px; font-family: BACS"">EMYKCmYA</p>","","","","","","","","",""
"html-keyboard-response","377","463908","0.0-16.0-0.45","608c64e14968cdd8dcbe1be4","650c16f0f2faf8d7a0d14c09","651c0a61c73b6eea8fa96e52","null","null","<p style=""font-size: 60px; font-family: BACS"">EMYKCmYA</p>","","","","","","","","",""
"html-keyboard-response","378","464935","0.0-16.0-0.46","608c64e14968cdd8dcbe1be4","650c16f0f2faf8d7a0d14c09","651c0a61c73b6eea8fa96e52","null","null","<p style=""font-size: 60px; font-family: BACS"">EMYKCmYA</p>","","","","","","","","",""
"html-keyboard-response","379","465938","0.0-16.0-0.47","608c64e14968cdd8dcbe1be4","650c16f0f2faf8d7a0d14c09","651c0a61c73b6eea8fa96e52","null","null","<p style=""font-size: 60px; font-family: BACS"">EMYKCmYA</p>","","","","","","","","",""
"html-keyboard-response","380","466947","0.0-16.0-0.48","608c64e14968cdd8dcbe1be4","650c16f0f2faf8d7a0d14c09","651c0a61c73b6eea8fa96e52","null","null","<p style=""font-size: 60px; font-family: BACS"">EMYKCmYA</p>","","","","","","","","",""
"html-keyboard-response","381","467957","0.0-16.0-0.49","608c64e14968cdd8dcbe1be4","650c16f0f2faf8d7a0d14c09","651c0a61c73b6eea8fa96e52","null","null","<p style=""font-size: 60px; font-family: BACS"">EMYKCmYA</p>","","","","","","","","",""
"html-keyboard-response","382","468967","0.0-16.0-0.50","608c64e14968cdd8dcbe1be4","650c16f0f2faf8d7a0d14c09","651c0a61c73b6eea8fa96e52","null","null","<p style=""font-size: 60px; font-family: BACS"">EMYKCmYA</p>","","","","","","","","",""
"html-keyboard-response","383","469978","0.0-16.0-0.51","608c64e14968cdd8dcbe1be4","650c16f0f2faf8d7a0d14c09","651c0a61c73b6eea8fa96e52","null","null","<p style=""font-size: 60px; font-family: BACS"">EMYKCmYA</p>","","","","","","","","",""
"html-keyboard-response","384","470987","0.0-16.0-0.52","608c64e14968cdd8dcbe1be4","650c16f0f2faf8d7a0d14c09","651c0a61c73b6eea8fa96e52","null","null","<p style=""font-size: 60px; font-family: BACS"">EMYKCmYA</p>","","","","","","","","",""
"html-keyboard-response","385","471997","0.0-16.0-0.53","608c64e14968cdd8dcbe1be4","650c16f0f2faf8d7a0d14c09","651c0a61c73b6eea8fa96e52","null","null","<p style=""font-size: 60px; font-family: BACS"">EMYKCmYA</p>","","","","","","","","",""
"html-keyboard-response","386","473005","0.0-16.0-0.54","608c64e14968cdd8dcbe1be4","650c16f0f2faf8d7a0d14c09","651c0a61c73b6eea8fa96e52","null","null","<p style=""font-size: 60px; font-family: BACS"">EMYKCmYA</p>","","","","","","","","",""
"html-keyboard-response","387","474017","0.0-16.0-0.55","608c64e14968cdd8dcbe1be4","650c16f0f2faf8d7a0d14c09","651c0a61c73b6eea8fa96e52","null","null","<p style=""font-size: 60px; font-family: BACS"">EMYKCmYA</p>","","","","","","","","",""
"html-keyboard-response","388","475028","0.0-16.0-0.56","608c64e14968cdd8dcbe1be4","650c16f0f2faf8d7a0d14c09","651c0a61c73b6eea8fa96e52","null","null","<p style=""font-size: 60px; font-family: BACS"">EMYKCmYA</p>","","","","","","","","",""
"html-keyboard-response","389","476036","0.0-16.0-0.57","608c64e14968cdd8dcbe1be4","650c16f0f2faf8d7a0d14c09","651c0a61c73b6eea8fa96e52","null","null","<p style=""font-size: 60px; font-family: BACS"">EMYKCmYA</p>","","","","","","","","",""
"html-keyboard-response","390","477043","0.0-16.0-0.58","608c64e14968cdd8dcbe1be4","650c16f0f2faf8d7a0d14c09","651c0a61c73b6eea8fa96e52","null","null","<p style=""font-size: 60px; font-family: BACS"">EMYKCmYA</p>","","","","","","","","",""
"html-keyboard-response","391","478053","0.0-16.0-0.59","608c64e14968cdd8dcbe1be4","650c16f0f2faf8d7a0d14c09","651c0a61c73b6eea8fa96e52","null","null","<p style=""font-size: 60px; font-family: BACS"">EMYKCmYA</p>","","","","","","","","",""
"html-keyboard-response","392","479059","0.0-16.0-0.60","608c64e14968cdd8dcbe1be4","650c16f0f2faf8d7a0d14c09","651c0a61c73b6eea8fa96e52","null","null","<p style=""font-size: 60px; font-family: BACS"">EMYKCmYA</p>","","","","","","","","",""
"html-keyboard-response","393","480071","0.0-16.0-0.61","608c64e14968cdd8dcbe1be4","650c16f0f2faf8d7a0d14c09","651c0a61c73b6eea8fa96e52","null","null","<p style=""font-size: 60px; font-family: BACS"">EMYKCmYA</p>","","","","","","","","",""
"html-keyboard-response","394","481078","0.0-16.0-0.62","608c64e14968cdd8dcbe1be4","650c16f0f2faf8d7a0d14c09","651c0a61c73b6eea8fa96e52","null","null","<p style=""font-size: 60px; font-family: BACS"">EMYKCmYA</p>","","","","","","","","",""
"html-keyboard-response","395","482090","0.0-16.0-0.63","608c64e14968cdd8dcbe1be4","650c16f0f2faf8d7a0d14c09","651c0a61c73b6eea8fa96e52","null","null","<p style=""font-size: 60px; font-family: BACS"">EMYKCmYA</p>","","","","","","","","",""
"html-keyboard-response","396","483097","0.0-16.0-0.64","608c64e14968cdd8dcbe1be4","650c16f0f2faf8d7a0d14c09","651c0a61c73b6eea8fa96e52","null","null","<p style=""font-size: 60px; font-family: BACS"">EMYKCmYA</p>","","","","","","","","",""
"html-keyboard-response","397","484121","0.0-16.0-0.65","608c64e14968cdd8dcbe1be4","650c16f0f2faf8d7a0d14c09","651c0a61c73b6eea8fa96e52","null","null","<p style=""font-size: 60px; font-family: BACS"">EMYKCmYA</p>","","","","","","","","",""
"html-keyboard-response","398","485131","0.0-16.0-0.66","608c64e14968cdd8dcbe1be4","650c16f0f2faf8d7a0d14c09","651c0a61c73b6eea8fa96e52","null","null","<p style=""font-size: 60px; font-family: BACS"">EMYKCmYA</p>","","","","","","","","",""
"html-keyboard-response","399","486153","0.0-16.0-0.67","608c64e14968cdd8dcbe1be4","650c16f0f2faf8d7a0d14c09","651c0a61c73b6eea8fa96e52","null","null","<p style=""font-size: 60px; font-family: BACS"">EMYKCmYA</p>","","","","","","","","",""
"html-keyboard-response","400","487166","0.0-16.0-0.68","608c64e14968cdd8dcbe1be4","650c16f0f2faf8d7a0d14c09","651c0a61c73b6eea8fa96e52","null","null","<p style=""font-size: 60px; font-family: BACS"">EMYKCmYA</p>","","","","","","","","",""
