"trial_type","trial_index","time_elapsed","internal_node_id","subject_id","study_id","session_id","rt","response","stimulus","success","item","task","correct_response","testing_condition","correct","target","confound","name"
"pavlovia","0","867","0.0-0.0","5fa4258658811d03fbc6ce8b","650c16f0f2faf8d7a0d14c09","651c1daa0e67b1fcb7bbb101","","","","","","","","","","","",""
"survey-html-form","1","6211","0.0-1.0","5fa4258658811d03fbc6ce8b","650c16f0f2faf8d7a0d14c09","651c1daa0e67b1fcb7bbb101","5343","{""ID"":""5fa4258658811d03fbc6ce8b""}","","","","","","","","","",""
"html-keyboard-response","2","10806","0.0-2.0","5fa4258658811d03fbc6ce8b","650c16f0f2faf8d7a0d14c09","651c1daa0e67b1fcb7bbb101","4594"," ","<p style=""font-size: 15px;"">Before beginning, we ask that you read the consent information and confirm your agreement to participate in the experiment.</p>
      <p style=""font-size: 15px;""> We ask that you remember that this is a research project and that your participation is entirely voluntary. You can stop your participation at any time, without needing to provide any explanation. The study we're asking you to participate in aims at examining how readers process written words. You will be engaged in a session of apprximately 20 minutes, followed by a brief questionnaire. You will have the opportunity to take a few breaks during the experiment. You will be paid £4 for your participation, corresponding to a rate of £8/hour. While this experiment looks at cognitive faculties, this experiment doesn't constitute clinical proof of eventual pathologies.</p>
      <p style=""font-size: 15px;"">All of the information collected thanks to yours and others' participation will be held in a secure password-protected server, and will not be shared with anyone not authorised to view it. Your personal information will be kept with an arbitrary participant ID. Thanks to this data anonymity process, any researcher analysing the data won't be able to track the information back to a specific participant. Therefore, this process will make identifying you impossibile, even when results from the study will be published in scientific reviews, presented at congresses, or at any other public forum. More generally, the collected data will be treated in accordance with the laws on privacy and conformity to the Legislative Degree n. 196 ""Code regarding the protection of personal data"" of the 30th of June 2003 and to the European Regulation 2016/670 (General Data Protection Regulation - GDPR). The Data Protection Officer is Avv. Valentina Carollo, who can be contacted at the following email addresses: <a href=""mailto:dpo@sissa.it"">dpo@sissa.it</a> or <a href=""mailto:rpd@sissa.it"">rpd@sissa.it</a> - PEC: <a href=""mailto:protocollo@pec.sissa.it"">protocollo@pec.sissa.it</a>.</p>
      <p style=""font-size: 15px;""> Before expressing your consent to participate, we would like to remind you again that in case you need explanations on any aspect of the experimental procedure, the researcher is at your disposition (<a href=""mailto:aliebelt@sissa.it"">aliebelt@sissa.it</a>, <a href=""mailto:davide.crepaldi@sissa.it"">davide.crepaldi@sissa.it</a>).</p>
      <p style=""font-size: 15px;"">If you would like to download the informed consent form, you can do so here: <a href=""BASL-Informed_Consent.pdf"" download>informed consent form</a>.</p>
      <p style=""font-size: 15px;"">We ask that you press the spacebar to proceed to the consent section.</p>","","","","","","","","",""
"survey-html-form","3","38528","0.0-3.0","5fa4258658811d03fbc6ce8b","650c16f0f2faf8d7a0d14c09","651c1daa0e67b1fcb7bbb101","27720","{""consent1"":""YES"",""consent2"":""YES"",""consent3"":""YES"",""consent4"":""YES"",""consent5"":""YES"",""consent6"":""YES""}","","","","","","","","","",""
"fullscreen","4","44691","0.0-4.0","5fa4258658811d03fbc6ce8b","650c16f0f2faf8d7a0d14c09","651c1daa0e67b1fcb7bbb101","","","","true","","","","","","","",""
"html-keyboard-response","5","62019","0.0-5.0","5fa4258658811d03fbc6ce8b","650c16f0f2faf8d7a0d14c09","651c1daa0e67b1fcb7bbb101","17326"," ","<p>Welcome, and thank you very much for your time!</p>
      <p>In this experiment, you'll be a language expert who's been asked to take a look at words that Earth has received in its first communication with aliens. Your task, in this first part of the experiment, is to pay close attention to the words you'll be shown; later, world leaders will ask you questions on what you saw. The words will be shown to you quite quickly; it seems that the aliens were in a hurry :-)</p>
      <p>Press the spacebar to continue.<p>","","","","","","","","",""
"html-keyboard-response","6","62072","0.0-6.0","5fa4258658811d03fbc6ce8b","650c16f0f2faf8d7a0d14c09","651c1daa0e67b1fcb7bbb101","null","null","<p style=""font-size: 120px; font-family: BACS""> </p>","","","","","","","","",""
"html-keyboard-response","7","68435","0.0-7.0","5fa4258658811d03fbc6ce8b","650c16f0f2faf8d7a0d14c09","651c1daa0e67b1fcb7bbb101","6362"," ","<p>Here is an example of the words you'll see:</p>
      <img src='esempio.png' height='400px'>
      <p>When you're ready to begin, press the spacebar.</p></div>","","","","","","","","",""
"html-keyboard-response","8","69442","0.0-8.0-0.0","5fa4258658811d03fbc6ce8b","650c16f0f2faf8d7a0d14c09","651c1daa0e67b1fcb7bbb101","null","null","<p style=""font-size: 60px; font-family: BACS"">chEDOYBO</p>","","","","","","","","",""
"html-keyboard-response","9","70444","0.0-8.0-0.1","5fa4258658811d03fbc6ce8b","650c16f0f2faf8d7a0d14c09","651c1daa0e67b1fcb7bbb101","null","null","<p style=""font-size: 60px; font-family: BACS"">mLdkZkmU</p>","","","","","","","","",""
"html-keyboard-response","10","71446","0.0-8.0-0.2","5fa4258658811d03fbc6ce8b","650c16f0f2faf8d7a0d14c09","651c1daa0e67b1fcb7bbb101","null","null","<p style=""font-size: 60px; font-family: BACS"">rvOvULUOk</p>","","","","","","","","",""
"html-keyboard-response","11","72447","0.0-8.0-0.3","5fa4258658811d03fbc6ce8b","650c16f0f2faf8d7a0d14c09","651c1daa0e67b1fcb7bbb101","null","null","<p style=""font-size: 60px; font-family: BACS"">McMDABb</p>","","","","","","","","",""
"html-keyboard-response","12","73454","0.0-8.0-0.4","5fa4258658811d03fbc6ce8b","650c16f0f2faf8d7a0d14c09","651c1daa0e67b1fcb7bbb101","null","null","<p style=""font-size: 60px; font-family: BACS"">rvOvUkmU</p>","","","","","","","","",""
"html-keyboard-response","13","74457","0.0-8.0-0.5","5fa4258658811d03fbc6ce8b","650c16f0f2faf8d7a0d14c09","651c1daa0e67b1fcb7bbb101","null","null","<p style=""font-size: 60px; font-family: BACS"">rdLJaukbY</p>","","","","","","","","",""
"html-keyboard-response","14","75462","0.0-8.0-0.6","5fa4258658811d03fbc6ce8b","650c16f0f2faf8d7a0d14c09","651c1daa0e67b1fcb7bbb101","null","null","<p style=""font-size: 60px; font-family: BACS"">EMYKmAM</p>","","","","","","","","",""
"html-keyboard-response","15","76465","0.0-8.0-0.7","5fa4258658811d03fbc6ce8b","650c16f0f2faf8d7a0d14c09","651c1daa0e67b1fcb7bbb101","null","null","<p style=""font-size: 60px; font-family: BACS"">lRCBmhc</p>","","","","","","","","",""
"html-keyboard-response","16","77469","0.0-8.0-0.8","5fa4258658811d03fbc6ce8b","650c16f0f2faf8d7a0d14c09","651c1daa0e67b1fcb7bbb101","null","null","<p style=""font-size: 60px; font-family: BACS"">TdTDABb</p>","","","","","","","","",""
"html-keyboard-response","17","78475","0.0-8.0-0.9","5fa4258658811d03fbc6ce8b","650c16f0f2faf8d7a0d14c09","651c1daa0e67b1fcb7bbb101","null","null","<p style=""font-size: 60px; font-family: BACS"">Ydudravu</p>","","","","","","","","",""
"html-keyboard-response","18","79481","0.0-8.0-0.10","5fa4258658811d03fbc6ce8b","650c16f0f2faf8d7a0d14c09","651c1daa0e67b1fcb7bbb101","null","null","<p style=""font-size: 60px; font-family: BACS"">DMRPABb</p>","","","","","","","","",""
"html-keyboard-response","19","80486","0.0-8.0-0.11","5fa4258658811d03fbc6ce8b","650c16f0f2faf8d7a0d14c09","651c1daa0e67b1fcb7bbb101","null","null","<p style=""font-size: 60px; font-family: BACS"">rdLJaNYZu</p>","","","","","","","","",""
"html-keyboard-response","20","81491","0.0-8.0-0.12","5fa4258658811d03fbc6ce8b","650c16f0f2faf8d7a0d14c09","651c1daa0e67b1fcb7bbb101","null","null","<p style=""font-size: 60px; font-family: BACS"">chEDOABb</p>","","","","","","","","",""
"html-keyboard-response","21","82497","0.0-8.0-0.13","5fa4258658811d03fbc6ce8b","650c16f0f2faf8d7a0d14c09","651c1daa0e67b1fcb7bbb101","null","null","<p style=""font-size: 60px; font-family: BACS"">tmAKYBO</p>","","","","","","","","",""
"html-keyboard-response","22","83502","0.0-8.0-0.14","5fa4258658811d03fbc6ce8b","650c16f0f2faf8d7a0d14c09","651c1daa0e67b1fcb7bbb101","null","null","<p style=""font-size: 60px; font-family: BACS"">ctktABb</p>","","","","","","","","",""
"html-keyboard-response","23","84507","0.0-8.0-0.15","5fa4258658811d03fbc6ce8b","650c16f0f2faf8d7a0d14c09","651c1daa0e67b1fcb7bbb101","null","null","<p style=""font-size: 60px; font-family: BACS"">TdTDYKPB</p>","","","","","","","","",""
"html-keyboard-response","24","85512","0.0-8.0-0.16","5fa4258658811d03fbc6ce8b","650c16f0f2faf8d7a0d14c09","651c1daa0e67b1fcb7bbb101","null","null","<p style=""font-size: 60px; font-family: BACS"">GZJYkmU</p>","","","","","","","","",""
"html-keyboard-response","25","86518","0.0-8.0-0.17","5fa4258658811d03fbc6ce8b","650c16f0f2faf8d7a0d14c09","651c1daa0e67b1fcb7bbb101","null","null","<p style=""font-size: 60px; font-family: BACS"">dkLlukbY</p>","","","","","","","","",""
"html-keyboard-response","26","87523","0.0-8.0-0.18","5fa4258658811d03fbc6ce8b","650c16f0f2faf8d7a0d14c09","651c1daa0e67b1fcb7bbb101","null","null","<p style=""font-size: 60px; font-family: BACS"">mLdkZLUOk</p>","","","","","","","","",""
"html-keyboard-response","27","88529","0.0-8.0-0.19","5fa4258658811d03fbc6ce8b","650c16f0f2faf8d7a0d14c09","651c1daa0e67b1fcb7bbb101","null","null","<p style=""font-size: 60px; font-family: BACS"">YcdONYZu</p>","","","","","","","","",""
"html-keyboard-response","28","89536","0.0-8.0-0.20","5fa4258658811d03fbc6ce8b","650c16f0f2faf8d7a0d14c09","651c1daa0e67b1fcb7bbb101","null","null","<p style=""font-size: 60px; font-family: BACS"">GZJYravu</p>","","","","","","","","",""
"html-keyboard-response","29","90542","0.0-8.0-0.21","5fa4258658811d03fbc6ce8b","650c16f0f2faf8d7a0d14c09","651c1daa0e67b1fcb7bbb101","null","null","<p style=""font-size: 60px; font-family: BACS"">COtBDYKPB</p>","","","","","","","","",""
"html-keyboard-response","30","91547","0.0-8.0-0.22","5fa4258658811d03fbc6ce8b","650c16f0f2faf8d7a0d14c09","651c1daa0e67b1fcb7bbb101","null","null","<p style=""font-size: 60px; font-family: BACS"">TdTDmhc</p>","","","","","","","","",""
"html-keyboard-response","31","92552","0.0-8.0-0.23","5fa4258658811d03fbc6ce8b","650c16f0f2faf8d7a0d14c09","651c1daa0e67b1fcb7bbb101","null","null","<p style=""font-size: 60px; font-family: BACS"">GZJYLUOk</p>","","","","","","","","",""
"html-keyboard-response","32","93558","0.0-8.0-0.24","5fa4258658811d03fbc6ce8b","650c16f0f2faf8d7a0d14c09","651c1daa0e67b1fcb7bbb101","null","null","<p style=""font-size: 60px; font-family: BACS"">DMRPYBO</p>","","","","","","","","",""
"html-keyboard-response","33","94563","0.0-8.0-0.25","5fa4258658811d03fbc6ce8b","650c16f0f2faf8d7a0d14c09","651c1daa0e67b1fcb7bbb101","null","null","<p style=""font-size: 60px; font-family: BACS"">dkLlLUOk</p>","","","","","","","","",""
"html-keyboard-response","34","95569","0.0-8.0-0.26","5fa4258658811d03fbc6ce8b","650c16f0f2faf8d7a0d14c09","651c1daa0e67b1fcb7bbb101","null","null","<p style=""font-size: 60px; font-family: BACS"">rvOvUravu</p>","","","","","","","","",""
"html-keyboard-response","35","96574","0.0-8.0-0.27","5fa4258658811d03fbc6ce8b","650c16f0f2faf8d7a0d14c09","651c1daa0e67b1fcb7bbb101","null","null","<p style=""font-size: 60px; font-family: BACS"">ctktYKPB</p>","","","","","","","","",""
"html-keyboard-response","36","97579","0.0-8.0-0.28","5fa4258658811d03fbc6ce8b","650c16f0f2faf8d7a0d14c09","651c1daa0e67b1fcb7bbb101","null","null","<p style=""font-size: 60px; font-family: BACS"">McMDYBO</p>","","","","","","","","",""
"html-keyboard-response","37","98586","0.0-8.0-0.29","5fa4258658811d03fbc6ce8b","650c16f0f2faf8d7a0d14c09","651c1daa0e67b1fcb7bbb101","null","null","<p style=""font-size: 60px; font-family: BACS"">Juamlravu</p>","","","","","","","","",""
"html-keyboard-response","38","99590","0.0-8.0-0.30","5fa4258658811d03fbc6ce8b","650c16f0f2faf8d7a0d14c09","651c1daa0e67b1fcb7bbb101","null","null","<p style=""font-size: 60px; font-family: BACS"">YcdOukbY</p>","","","","","","","","",""
"html-keyboard-response","39","100597","0.0-8.0-0.31","5fa4258658811d03fbc6ce8b","650c16f0f2faf8d7a0d14c09","651c1daa0e67b1fcb7bbb101","null","null","<p style=""font-size: 60px; font-family: BACS"">rdLJakmU</p>","","","","","","","","",""
"html-keyboard-response","40","101603","0.0-8.0-0.32","5fa4258658811d03fbc6ce8b","650c16f0f2faf8d7a0d14c09","651c1daa0e67b1fcb7bbb101","null","null","<p style=""font-size: 60px; font-family: BACS"">JuamlNYZu</p>","","","","","","","","",""
"html-keyboard-response","41","102609","0.0-8.0-0.33","5fa4258658811d03fbc6ce8b","650c16f0f2faf8d7a0d14c09","651c1daa0e67b1fcb7bbb101","null","null","<p style=""font-size: 60px; font-family: BACS"">ctktmhc</p>","","","","","","","","",""
"html-keyboard-response","42","103614","0.0-8.0-0.34","5fa4258658811d03fbc6ce8b","650c16f0f2faf8d7a0d14c09","651c1daa0e67b1fcb7bbb101","null","null","<p style=""font-size: 60px; font-family: BACS"">JrGvNYZu</p>","","","","","","","","",""
"html-keyboard-response","43","104619","0.0-8.0-0.35","5fa4258658811d03fbc6ce8b","650c16f0f2faf8d7a0d14c09","651c1daa0e67b1fcb7bbb101","null","null","<p style=""font-size: 60px; font-family: BACS"">chEDOYKPB</p>","","","","","","","","",""
"html-keyboard-response","44","105624","0.0-8.0-0.36","5fa4258658811d03fbc6ce8b","650c16f0f2faf8d7a0d14c09","651c1daa0e67b1fcb7bbb101","null","null","<p style=""font-size: 60px; font-family: BACS"">tmAKmhc</p>","","","","","","","","",""
"html-keyboard-response","45","106630","0.0-8.0-0.37","5fa4258658811d03fbc6ce8b","650c16f0f2faf8d7a0d14c09","651c1daa0e67b1fcb7bbb101","null","null","<p style=""font-size: 60px; font-family: BACS"">thbOMmAM</p>","","","","","","","","",""
"html-keyboard-response","46","107635","0.0-8.0-0.38","5fa4258658811d03fbc6ce8b","650c16f0f2faf8d7a0d14c09","651c1daa0e67b1fcb7bbb101","null","null","<p style=""font-size: 60px; font-family: BACS"">EMYKmhc</p>","","","","","","","","",""
"html-keyboard-response","47","108641","0.0-8.0-0.39","5fa4258658811d03fbc6ce8b","650c16f0f2faf8d7a0d14c09","651c1daa0e67b1fcb7bbb101","null","null","<p style=""font-size: 60px; font-family: BACS"">JuamlLUOk</p>","","","","","","","","",""
"html-keyboard-response","48","109646","0.0-8.0-0.40","5fa4258658811d03fbc6ce8b","650c16f0f2faf8d7a0d14c09","651c1daa0e67b1fcb7bbb101","null","null","<p style=""font-size: 60px; font-family: BACS"">lRCBYKPB</p>","","","","","","","","",""
"html-keyboard-response","49","110651","0.0-8.0-0.41","5fa4258658811d03fbc6ce8b","650c16f0f2faf8d7a0d14c09","651c1daa0e67b1fcb7bbb101","null","null","<p style=""font-size: 60px; font-family: BACS"">tmAKABb</p>","","","","","","","","",""
"html-keyboard-response","50","111656","0.0-8.0-0.42","5fa4258658811d03fbc6ce8b","650c16f0f2faf8d7a0d14c09","651c1daa0e67b1fcb7bbb101","null","null","<p style=""font-size: 60px; font-family: BACS"">ctktYBO</p>","","","","","","","","",""
"html-keyboard-response","51","112662","0.0-8.0-0.43","5fa4258658811d03fbc6ce8b","650c16f0f2faf8d7a0d14c09","651c1daa0e67b1fcb7bbb101","null","null","<p style=""font-size: 60px; font-family: BACS"">TdTDmAM</p>","","","","","","","","",""
"html-keyboard-response","52","113667","0.0-8.0-0.44","5fa4258658811d03fbc6ce8b","650c16f0f2faf8d7a0d14c09","651c1daa0e67b1fcb7bbb101","null","null","<p style=""font-size: 60px; font-family: BACS"">JuamlukbY</p>","","","","","","","","",""
"html-keyboard-response","53","114672","0.0-8.0-0.45","5fa4258658811d03fbc6ce8b","650c16f0f2faf8d7a0d14c09","651c1daa0e67b1fcb7bbb101","null","null","<p style=""font-size: 60px; font-family: BACS"">YcdOLUOk</p>","","","","","","","","",""
"html-keyboard-response","54","115677","0.0-8.0-0.46","5fa4258658811d03fbc6ce8b","650c16f0f2faf8d7a0d14c09","651c1daa0e67b1fcb7bbb101","null","null","<p style=""font-size: 60px; font-family: BACS"">DMRPYKPB</p>","","","","","","","","",""
"html-keyboard-response","55","116682","0.0-8.0-0.47","5fa4258658811d03fbc6ce8b","650c16f0f2faf8d7a0d14c09","651c1daa0e67b1fcb7bbb101","null","null","<p style=""font-size: 60px; font-family: BACS"">mLdkZravu</p>","","","","","","","","",""
"html-keyboard-response","56","117686","0.0-8.0-0.48","5fa4258658811d03fbc6ce8b","650c16f0f2faf8d7a0d14c09","651c1daa0e67b1fcb7bbb101","null","null","<p style=""font-size: 60px; font-family: BACS"">JrGvukbY</p>","","","","","","","","",""
"html-keyboard-response","57","118691","0.0-8.0-0.49","5fa4258658811d03fbc6ce8b","650c16f0f2faf8d7a0d14c09","651c1daa0e67b1fcb7bbb101","null","null","<p style=""font-size: 60px; font-family: BACS"">EMYKYBO</p>","","","","","","","","",""
"html-keyboard-response","58","119696","0.0-8.0-0.50","5fa4258658811d03fbc6ce8b","650c16f0f2faf8d7a0d14c09","651c1daa0e67b1fcb7bbb101","null","null","<p style=""font-size: 60px; font-family: BACS"">JrGvkmU</p>","","","","","","","","",""
"html-keyboard-response","59","120702","0.0-8.0-0.51","5fa4258658811d03fbc6ce8b","650c16f0f2faf8d7a0d14c09","651c1daa0e67b1fcb7bbb101","null","null","<p style=""font-size: 60px; font-family: BACS"">lRCBABb</p>","","","","","","","","",""
"html-keyboard-response","60","121707","0.0-8.0-0.52","5fa4258658811d03fbc6ce8b","650c16f0f2faf8d7a0d14c09","651c1daa0e67b1fcb7bbb101","null","null","<p style=""font-size: 60px; font-family: BACS"">McMDYKPB</p>","","","","","","","","",""
"html-keyboard-response","61","122712","0.0-8.0-0.53","5fa4258658811d03fbc6ce8b","650c16f0f2faf8d7a0d14c09","651c1daa0e67b1fcb7bbb101","null","null","<p style=""font-size: 60px; font-family: BACS"">GNAcaNYZu</p>","","","","","","","","",""
"html-keyboard-response","62","123718","0.0-8.0-0.54","5fa4258658811d03fbc6ce8b","650c16f0f2faf8d7a0d14c09","651c1daa0e67b1fcb7bbb101","null","null","<p style=""font-size: 60px; font-family: BACS"">YcdOravu</p>","","","","","","","","",""
"html-keyboard-response","63","124723","0.0-8.0-0.55","5fa4258658811d03fbc6ce8b","650c16f0f2faf8d7a0d14c09","651c1daa0e67b1fcb7bbb101","null","null","<p style=""font-size: 60px; font-family: BACS"">YdudLUOk</p>","","","","","","","","",""
"html-keyboard-response","64","125728","0.0-8.0-0.56","5fa4258658811d03fbc6ce8b","650c16f0f2faf8d7a0d14c09","651c1daa0e67b1fcb7bbb101","null","null","<p style=""font-size: 60px; font-family: BACS"">GNAcaukbY</p>","","","","","","","","",""
"html-keyboard-response","65","126738","0.0-8.0-0.57","5fa4258658811d03fbc6ce8b","650c16f0f2faf8d7a0d14c09","651c1daa0e67b1fcb7bbb101","null","null","<p style=""font-size: 60px; font-family: BACS"">thbOMmhc</p>","","","","","","","","",""
"html-keyboard-response","66","127747","0.0-8.0-0.58","5fa4258658811d03fbc6ce8b","650c16f0f2faf8d7a0d14c09","651c1daa0e67b1fcb7bbb101","null","null","<p style=""font-size: 60px; font-family: BACS"">DMRPmAM</p>","","","","","","","","",""
"html-keyboard-response","67","128752","0.0-8.0-0.59","5fa4258658811d03fbc6ce8b","650c16f0f2faf8d7a0d14c09","651c1daa0e67b1fcb7bbb101","null","null","<p style=""font-size: 60px; font-family: BACS"">rdLJaLUOk</p>","","","","","","","","",""
"html-keyboard-response","68","129758","0.0-8.0-0.60","5fa4258658811d03fbc6ce8b","650c16f0f2faf8d7a0d14c09","651c1daa0e67b1fcb7bbb101","null","null","<p style=""font-size: 60px; font-family: BACS"">COtBDYBO</p>","","","","","","","","",""
"html-keyboard-response","69","130763","0.0-8.0-0.61","5fa4258658811d03fbc6ce8b","650c16f0f2faf8d7a0d14c09","651c1daa0e67b1fcb7bbb101","null","null","<p style=""font-size: 60px; font-family: BACS"">dkLlNYZu</p>","","","","","","","","",""
"html-keyboard-response","70","131769","0.0-8.0-0.62","5fa4258658811d03fbc6ce8b","650c16f0f2faf8d7a0d14c09","651c1daa0e67b1fcb7bbb101","null","null","<p style=""font-size: 60px; font-family: BACS"">GZJYukbY</p>","","","","","","","","",""
"html-keyboard-response","71","132774","0.0-8.0-0.63","5fa4258658811d03fbc6ce8b","650c16f0f2faf8d7a0d14c09","651c1daa0e67b1fcb7bbb101","null","null","<p style=""font-size: 60px; font-family: BACS"">JrGvravu</p>","","","","","","","","",""
"html-keyboard-response","72","133779","0.0-8.0-0.64","5fa4258658811d03fbc6ce8b","650c16f0f2faf8d7a0d14c09","651c1daa0e67b1fcb7bbb101","null","null","<p style=""font-size: 60px; font-family: BACS"">YdudkmU</p>","","","","","","","","",""
"html-keyboard-response","73","134785","0.0-8.0-0.65","5fa4258658811d03fbc6ce8b","650c16f0f2faf8d7a0d14c09","651c1daa0e67b1fcb7bbb101","null","null","<p style=""font-size: 60px; font-family: BACS"">chEDOmAM</p>","","","","","","","","",""
"html-keyboard-response","74","135790","0.0-8.0-0.66","5fa4258658811d03fbc6ce8b","650c16f0f2faf8d7a0d14c09","651c1daa0e67b1fcb7bbb101","null","null","<p style=""font-size: 60px; font-family: BACS"">YdudukbY</p>","","","","","","","","",""
"html-keyboard-response","75","136795","0.0-8.0-0.67","5fa4258658811d03fbc6ce8b","650c16f0f2faf8d7a0d14c09","651c1daa0e67b1fcb7bbb101","null","null","<p style=""font-size: 60px; font-family: BACS"">dkLlkmU</p>","","","","","","","","",""
"html-keyboard-response","76","137801","0.0-8.0-0.68","5fa4258658811d03fbc6ce8b","650c16f0f2faf8d7a0d14c09","651c1daa0e67b1fcb7bbb101","null","null","<p style=""font-size: 60px; font-family: BACS"">thbOMYKPB</p>","","","","","","","","",""
"html-keyboard-response","77","138806","0.0-8.0-0.69","5fa4258658811d03fbc6ce8b","650c16f0f2faf8d7a0d14c09","651c1daa0e67b1fcb7bbb101","null","null","<p style=""font-size: 60px; font-family: BACS"">McMDmhc</p>","","","","","","","","",""
"html-keyboard-response","78","139811","0.0-8.0-0.70","5fa4258658811d03fbc6ce8b","650c16f0f2faf8d7a0d14c09","651c1daa0e67b1fcb7bbb101","null","null","<p style=""font-size: 60px; font-family: BACS"">thbOMYBO</p>","","","","","","","","",""
"html-keyboard-response","79","140817","0.0-8.0-0.71","5fa4258658811d03fbc6ce8b","650c16f0f2faf8d7a0d14c09","651c1daa0e67b1fcb7bbb101","null","null","<p style=""font-size: 60px; font-family: BACS"">COtBDmAM</p>","","","","","","","","",""
"html-keyboard-response","80","141822","0.0-8.0-0.72","5fa4258658811d03fbc6ce8b","650c16f0f2faf8d7a0d14c09","651c1daa0e67b1fcb7bbb101","null","null","<p style=""font-size: 60px; font-family: BACS"">EMYKABb</p>","","","","","","","","",""
"html-keyboard-response","81","142827","0.0-8.0-0.73","5fa4258658811d03fbc6ce8b","650c16f0f2faf8d7a0d14c09","651c1daa0e67b1fcb7bbb101","null","null","<p style=""font-size: 60px; font-family: BACS"">rvOvUNYZu</p>","","","","","","","","",""
"html-keyboard-response","82","143833","0.0-8.0-0.74","5fa4258658811d03fbc6ce8b","650c16f0f2faf8d7a0d14c09","651c1daa0e67b1fcb7bbb101","null","null","<p style=""font-size: 60px; font-family: BACS"">lRCBmAM</p>","","","","","","","","",""
"html-keyboard-response","83","144838","0.0-8.0-0.75","5fa4258658811d03fbc6ce8b","650c16f0f2faf8d7a0d14c09","651c1daa0e67b1fcb7bbb101","null","null","<p style=""font-size: 60px; font-family: BACS"">GNAcakmU</p>","","","","","","","","",""
"html-keyboard-response","84","145844","0.0-8.0-0.76","5fa4258658811d03fbc6ce8b","650c16f0f2faf8d7a0d14c09","651c1daa0e67b1fcb7bbb101","null","null","<p style=""font-size: 60px; font-family: BACS"">COtBDmhc</p>","","","","","","","","",""
"html-keyboard-response","85","146849","0.0-8.0-0.77","5fa4258658811d03fbc6ce8b","650c16f0f2faf8d7a0d14c09","651c1daa0e67b1fcb7bbb101","null","null","<p style=""font-size: 60px; font-family: BACS"">tmAKmAM</p>","","","","","","","","",""
"html-keyboard-response","86","147854","0.0-8.0-0.78","5fa4258658811d03fbc6ce8b","650c16f0f2faf8d7a0d14c09","651c1daa0e67b1fcb7bbb101","null","null","<p style=""font-size: 60px; font-family: BACS"">GNAcaravu</p>","","","","","","","","",""
"html-keyboard-response","87","148856","0.0-8.0-0.79","5fa4258658811d03fbc6ce8b","650c16f0f2faf8d7a0d14c09","651c1daa0e67b1fcb7bbb101","null","null","<p style=""font-size: 60px; font-family: BACS"">mLdkZNYZu</p>","","","","","","","","",""
"html-keyboard-response","88","154571","0.0-9.0","5fa4258658811d03fbc6ce8b","650c16f0f2faf8d7a0d14c09","651c1daa0e67b1fcb7bbb101","5714"," ","<p>Great, you've seen the first block of words. You may now take a short break.</p>
      <p>Press the spacebar when you're ready to continue.</p>","","","","","","","","",""
"html-keyboard-response","89","155577","0.0-10.0-0.0","5fa4258658811d03fbc6ce8b","650c16f0f2faf8d7a0d14c09","651c1daa0e67b1fcb7bbb101","null","null","<p style=""font-size: 60px; font-family: BACS"">thbOMYKPB</p>","","","","","","","","",""
"html-keyboard-response","90","156582","0.0-10.0-0.1","5fa4258658811d03fbc6ce8b","650c16f0f2faf8d7a0d14c09","651c1daa0e67b1fcb7bbb101","null","null","<p style=""font-size: 60px; font-family: BACS"">lRCBmAM</p>","","","","","","","","",""
"html-keyboard-response","91","157587","0.0-10.0-0.2","5fa4258658811d03fbc6ce8b","650c16f0f2faf8d7a0d14c09","651c1daa0e67b1fcb7bbb101","null","null","<p style=""font-size: 60px; font-family: BACS"">GZJYLUOk</p>","","","","","","","","",""
"html-keyboard-response","92","158593","0.0-10.0-0.3","5fa4258658811d03fbc6ce8b","650c16f0f2faf8d7a0d14c09","651c1daa0e67b1fcb7bbb101","null","null","<p style=""font-size: 60px; font-family: BACS"">ctktYBO</p>","","","","","","","","",""
"html-keyboard-response","93","159598","0.0-10.0-0.4","5fa4258658811d03fbc6ce8b","650c16f0f2faf8d7a0d14c09","651c1daa0e67b1fcb7bbb101","null","null","<p style=""font-size: 60px; font-family: BACS"">dkLlukbY</p>","","","","","","","","",""
"html-keyboard-response","94","160603","0.0-10.0-0.5","5fa4258658811d03fbc6ce8b","650c16f0f2faf8d7a0d14c09","651c1daa0e67b1fcb7bbb101","null","null","<p style=""font-size: 60px; font-family: BACS"">tmAKmhc</p>","","","","","","","","",""
"html-keyboard-response","95","161609","0.0-10.0-0.6","5fa4258658811d03fbc6ce8b","650c16f0f2faf8d7a0d14c09","651c1daa0e67b1fcb7bbb101","null","null","<p style=""font-size: 60px; font-family: BACS"">GZJYukbY</p>","","","","","","","","",""
"html-keyboard-response","96","162614","0.0-10.0-0.7","5fa4258658811d03fbc6ce8b","650c16f0f2faf8d7a0d14c09","651c1daa0e67b1fcb7bbb101","null","null","<p style=""font-size: 60px; font-family: BACS"">thbOMmhc</p>","","","","","","","","",""
"html-keyboard-response","97","163619","0.0-10.0-0.8","5fa4258658811d03fbc6ce8b","650c16f0f2faf8d7a0d14c09","651c1daa0e67b1fcb7bbb101","null","null","<p style=""font-size: 60px; font-family: BACS"">GNAcaNYZu</p>","","","","","","","","",""
"html-keyboard-response","98","164625","0.0-10.0-0.9","5fa4258658811d03fbc6ce8b","650c16f0f2faf8d7a0d14c09","651c1daa0e67b1fcb7bbb101","null","null","<p style=""font-size: 60px; font-family: BACS"">ctktABb</p>","","","","","","","","",""
"html-keyboard-response","99","165630","0.0-10.0-0.10","5fa4258658811d03fbc6ce8b","650c16f0f2faf8d7a0d14c09","651c1daa0e67b1fcb7bbb101","null","null","<p style=""font-size: 60px; font-family: BACS"">YcdOravu</p>","","","","","","","","",""
"html-keyboard-response","100","166635","0.0-10.0-0.11","5fa4258658811d03fbc6ce8b","650c16f0f2faf8d7a0d14c09","651c1daa0e67b1fcb7bbb101","null","null","<p style=""font-size: 60px; font-family: BACS"">rdLJakmU</p>","","","","","","","","",""
"html-keyboard-response","101","167641","0.0-10.0-0.12","5fa4258658811d03fbc6ce8b","650c16f0f2faf8d7a0d14c09","651c1daa0e67b1fcb7bbb101","null","null","<p style=""font-size: 60px; font-family: BACS"">EMYKABb</p>","","","","","","","","",""
"html-keyboard-response","102","168647","0.0-10.0-0.13","5fa4258658811d03fbc6ce8b","650c16f0f2faf8d7a0d14c09","651c1daa0e67b1fcb7bbb101","null","null","<p style=""font-size: 60px; font-family: BACS"">ctktYKPB</p>","","","","","","","","",""
"html-keyboard-response","103","169653","0.0-10.0-0.14","5fa4258658811d03fbc6ce8b","650c16f0f2faf8d7a0d14c09","651c1daa0e67b1fcb7bbb101","null","null","<p style=""font-size: 60px; font-family: BACS"">GZJYravu</p>","","","","","","","","",""
"html-keyboard-response","104","170659","0.0-10.0-0.15","5fa4258658811d03fbc6ce8b","650c16f0f2faf8d7a0d14c09","651c1daa0e67b1fcb7bbb101","null","null","<p style=""font-size: 60px; font-family: BACS"">JrGvukbY</p>","","","","","","","","",""
"html-keyboard-response","105","171664","0.0-10.0-0.16","5fa4258658811d03fbc6ce8b","650c16f0f2faf8d7a0d14c09","651c1daa0e67b1fcb7bbb101","null","null","<p style=""font-size: 60px; font-family: BACS"">EMYKmhc</p>","","","","","","","","",""
"html-keyboard-response","106","172670","0.0-10.0-0.17","5fa4258658811d03fbc6ce8b","650c16f0f2faf8d7a0d14c09","651c1daa0e67b1fcb7bbb101","null","null","<p style=""font-size: 60px; font-family: BACS"">chEDOABb</p>","","","","","","","","",""
"html-keyboard-response","107","173675","0.0-10.0-0.18","5fa4258658811d03fbc6ce8b","650c16f0f2faf8d7a0d14c09","651c1daa0e67b1fcb7bbb101","null","null","<p style=""font-size: 60px; font-family: BACS"">lRCBmhc</p>","","","","","","","","",""
"html-keyboard-response","108","174680","0.0-10.0-0.19","5fa4258658811d03fbc6ce8b","650c16f0f2faf8d7a0d14c09","651c1daa0e67b1fcb7bbb101","null","null","<p style=""font-size: 60px; font-family: BACS"">chEDOYKPB</p>","","","","","","","","",""
"html-keyboard-response","109","175686","0.0-10.0-0.20","5fa4258658811d03fbc6ce8b","650c16f0f2faf8d7a0d14c09","651c1daa0e67b1fcb7bbb101","null","null","<p style=""font-size: 60px; font-family: BACS"">thbOMmAM</p>","","","","","","","","",""
"html-keyboard-response","110","176691","0.0-10.0-0.21","5fa4258658811d03fbc6ce8b","650c16f0f2faf8d7a0d14c09","651c1daa0e67b1fcb7bbb101","null","null","<p style=""font-size: 60px; font-family: BACS"">YdudukbY</p>","","","","","","","","",""
"html-keyboard-response","111","177696","0.0-10.0-0.22","5fa4258658811d03fbc6ce8b","650c16f0f2faf8d7a0d14c09","651c1daa0e67b1fcb7bbb101","null","null","<p style=""font-size: 60px; font-family: BACS"">TdTDmAM</p>","","","","","","","","",""
"html-keyboard-response","112","178702","0.0-10.0-0.23","5fa4258658811d03fbc6ce8b","650c16f0f2faf8d7a0d14c09","651c1daa0e67b1fcb7bbb101","null","null","<p style=""font-size: 60px; font-family: BACS"">tmAKABb</p>","","","","","","","","",""
"html-keyboard-response","113","179707","0.0-10.0-0.24","5fa4258658811d03fbc6ce8b","650c16f0f2faf8d7a0d14c09","651c1daa0e67b1fcb7bbb101","null","null","<p style=""font-size: 60px; font-family: BACS"">YcdONYZu</p>","","","","","","","","",""
"html-keyboard-response","114","180713","0.0-10.0-0.25","5fa4258658811d03fbc6ce8b","650c16f0f2faf8d7a0d14c09","651c1daa0e67b1fcb7bbb101","null","null","<p style=""font-size: 60px; font-family: BACS"">DMRPYKPB</p>","","","","","","","","",""
"html-keyboard-response","115","181718","0.0-10.0-0.26","5fa4258658811d03fbc6ce8b","650c16f0f2faf8d7a0d14c09","651c1daa0e67b1fcb7bbb101","null","null","<p style=""font-size: 60px; font-family: BACS"">chEDOYBO</p>","","","","","","","","",""
"html-keyboard-response","116","182723","0.0-10.0-0.27","5fa4258658811d03fbc6ce8b","650c16f0f2faf8d7a0d14c09","651c1daa0e67b1fcb7bbb101","null","null","<p style=""font-size: 60px; font-family: BACS"">ctktmhc</p>","","","","","","","","",""
"html-keyboard-response","117","183728","0.0-10.0-0.28","5fa4258658811d03fbc6ce8b","650c16f0f2faf8d7a0d14c09","651c1daa0e67b1fcb7bbb101","null","null","<p style=""font-size: 60px; font-family: BACS"">mLdkZNYZu</p>","","","","","","","","",""
"html-keyboard-response","118","184734","0.0-10.0-0.29","5fa4258658811d03fbc6ce8b","650c16f0f2faf8d7a0d14c09","651c1daa0e67b1fcb7bbb101","null","null","<p style=""font-size: 60px; font-family: BACS"">rvOvUkmU</p>","","","","","","","","",""
"html-keyboard-response","119","185739","0.0-10.0-0.30","5fa4258658811d03fbc6ce8b","650c16f0f2faf8d7a0d14c09","651c1daa0e67b1fcb7bbb101","null","null","<p style=""font-size: 60px; font-family: BACS"">EMYKmAM</p>","","","","","","","","",""
"html-keyboard-response","120","186745","0.0-10.0-0.31","5fa4258658811d03fbc6ce8b","650c16f0f2faf8d7a0d14c09","651c1daa0e67b1fcb7bbb101","null","null","<p style=""font-size: 60px; font-family: BACS"">YcdOLUOk</p>","","","","","","","","",""
"html-keyboard-response","121","187750","0.0-10.0-0.32","5fa4258658811d03fbc6ce8b","650c16f0f2faf8d7a0d14c09","651c1daa0e67b1fcb7bbb101","null","null","<p style=""font-size: 60px; font-family: BACS"">mLdkZkmU</p>","","","","","","","","",""
"html-keyboard-response","122","188755","0.0-10.0-0.33","5fa4258658811d03fbc6ce8b","650c16f0f2faf8d7a0d14c09","651c1daa0e67b1fcb7bbb101","null","null","<p style=""font-size: 60px; font-family: BACS"">COtBDYKPB</p>","","","","","","","","",""
"html-keyboard-response","123","189761","0.0-10.0-0.34","5fa4258658811d03fbc6ce8b","650c16f0f2faf8d7a0d14c09","651c1daa0e67b1fcb7bbb101","null","null","<p style=""font-size: 60px; font-family: BACS"">DMRPABb</p>","","","","","","","","",""
"html-keyboard-response","124","190766","0.0-10.0-0.35","5fa4258658811d03fbc6ce8b","650c16f0f2faf8d7a0d14c09","651c1daa0e67b1fcb7bbb101","null","null","<p style=""font-size: 60px; font-family: BACS"">GZJYkmU</p>","","","","","","","","",""
"html-keyboard-response","125","191771","0.0-10.0-0.36","5fa4258658811d03fbc6ce8b","650c16f0f2faf8d7a0d14c09","651c1daa0e67b1fcb7bbb101","null","null","<p style=""font-size: 60px; font-family: BACS"">lRCBYKPB</p>","","","","","","","","",""
"html-keyboard-response","126","192777","0.0-10.0-0.37","5fa4258658811d03fbc6ce8b","650c16f0f2faf8d7a0d14c09","651c1daa0e67b1fcb7bbb101","null","null","<p style=""font-size: 60px; font-family: BACS"">GNAcakmU</p>","","","","","","","","",""
"html-keyboard-response","127","193782","0.0-10.0-0.38","5fa4258658811d03fbc6ce8b","650c16f0f2faf8d7a0d14c09","651c1daa0e67b1fcb7bbb101","null","null","<p style=""font-size: 60px; font-family: BACS"">rdLJaukbY</p>","","","","","","","","",""
"html-keyboard-response","128","194788","0.0-10.0-0.39","5fa4258658811d03fbc6ce8b","650c16f0f2faf8d7a0d14c09","651c1daa0e67b1fcb7bbb101","null","null","<p style=""font-size: 60px; font-family: BACS"">COtBDmhc</p>","","","","","","","","",""
"html-keyboard-response","129","195792","0.0-10.0-0.40","5fa4258658811d03fbc6ce8b","650c16f0f2faf8d7a0d14c09","651c1daa0e67b1fcb7bbb101","null","null","<p style=""font-size: 60px; font-family: BACS"">mLdkZLUOk</p>","","","","","","","","",""
"html-keyboard-response","130","196798","0.0-10.0-0.41","5fa4258658811d03fbc6ce8b","650c16f0f2faf8d7a0d14c09","651c1daa0e67b1fcb7bbb101","null","null","<p style=""font-size: 60px; font-family: BACS"">TdTDYKPB</p>","","","","","","","","",""
"html-keyboard-response","131","197803","0.0-10.0-0.42","5fa4258658811d03fbc6ce8b","650c16f0f2faf8d7a0d14c09","651c1daa0e67b1fcb7bbb101","null","null","<p style=""font-size: 60px; font-family: BACS"">rvOvUNYZu</p>","","","","","","","","",""
"html-keyboard-response","132","198809","0.0-10.0-0.43","5fa4258658811d03fbc6ce8b","650c16f0f2faf8d7a0d14c09","651c1daa0e67b1fcb7bbb101","null","null","<p style=""font-size: 60px; font-family: BACS"">lRCBABb</p>","","","","","","","","",""
"html-keyboard-response","133","199814","0.0-10.0-0.44","5fa4258658811d03fbc6ce8b","650c16f0f2faf8d7a0d14c09","651c1daa0e67b1fcb7bbb101","null","null","<p style=""font-size: 60px; font-family: BACS"">rdLJaLUOk</p>","","","","","","","","",""
"html-keyboard-response","134","200819","0.0-10.0-0.45","5fa4258658811d03fbc6ce8b","650c16f0f2faf8d7a0d14c09","651c1daa0e67b1fcb7bbb101","null","null","<p style=""font-size: 60px; font-family: BACS"">JuamlukbY</p>","","","","","","","","",""
"html-keyboard-response","135","201825","0.0-10.0-0.46","5fa4258658811d03fbc6ce8b","650c16f0f2faf8d7a0d14c09","651c1daa0e67b1fcb7bbb101","null","null","<p style=""font-size: 60px; font-family: BACS"">dkLlLUOk</p>","","","","","","","","",""
"html-keyboard-response","136","202830","0.0-10.0-0.47","5fa4258658811d03fbc6ce8b","650c16f0f2faf8d7a0d14c09","651c1daa0e67b1fcb7bbb101","null","null","<p style=""font-size: 60px; font-family: BACS"">TdTDmhc</p>","","","","","","","","",""
"html-keyboard-response","137","203835","0.0-10.0-0.48","5fa4258658811d03fbc6ce8b","650c16f0f2faf8d7a0d14c09","651c1daa0e67b1fcb7bbb101","null","null","<p style=""font-size: 60px; font-family: BACS"">dkLlNYZu</p>","","","","","","","","",""
"html-keyboard-response","138","204841","0.0-10.0-0.49","5fa4258658811d03fbc6ce8b","650c16f0f2faf8d7a0d14c09","651c1daa0e67b1fcb7bbb101","null","null","<p style=""font-size: 60px; font-family: BACS"">COtBDYBO</p>","","","","","","","","",""
"html-keyboard-response","139","205846","0.0-10.0-0.50","5fa4258658811d03fbc6ce8b","650c16f0f2faf8d7a0d14c09","651c1daa0e67b1fcb7bbb101","null","null","<p style=""font-size: 60px; font-family: BACS"">JuamlLUOk</p>","","","","","","","","",""
"html-keyboard-response","140","206852","0.0-10.0-0.51","5fa4258658811d03fbc6ce8b","650c16f0f2faf8d7a0d14c09","651c1daa0e67b1fcb7bbb101","null","null","<p style=""font-size: 60px; font-family: BACS"">mLdkZravu</p>","","","","","","","","",""
"html-keyboard-response","141","207856","0.0-10.0-0.52","5fa4258658811d03fbc6ce8b","650c16f0f2faf8d7a0d14c09","651c1daa0e67b1fcb7bbb101","null","null","<p style=""font-size: 60px; font-family: BACS"">DMRPmAM</p>","","","","","","","","",""
"html-keyboard-response","142","208862","0.0-10.0-0.53","5fa4258658811d03fbc6ce8b","650c16f0f2faf8d7a0d14c09","651c1daa0e67b1fcb7bbb101","null","null","<p style=""font-size: 60px; font-family: BACS"">rvOvUravu</p>","","","","","","","","",""
"html-keyboard-response","143","209867","0.0-10.0-0.54","5fa4258658811d03fbc6ce8b","650c16f0f2faf8d7a0d14c09","651c1daa0e67b1fcb7bbb101","null","null","<p style=""font-size: 60px; font-family: BACS"">McMDYBO</p>","","","","","","","","",""
"html-keyboard-response","144","210872","0.0-10.0-0.55","5fa4258658811d03fbc6ce8b","650c16f0f2faf8d7a0d14c09","651c1daa0e67b1fcb7bbb101","null","null","<p style=""font-size: 60px; font-family: BACS"">YdudkmU</p>","","","","","","","","",""
"html-keyboard-response","145","211877","0.0-10.0-0.56","5fa4258658811d03fbc6ce8b","650c16f0f2faf8d7a0d14c09","651c1daa0e67b1fcb7bbb101","null","null","<p style=""font-size: 60px; font-family: BACS"">COtBDmAM</p>","","","","","","","","",""
"html-keyboard-response","146","212880","0.0-10.0-0.57","5fa4258658811d03fbc6ce8b","650c16f0f2faf8d7a0d14c09","651c1daa0e67b1fcb7bbb101","null","null","<p style=""font-size: 60px; font-family: BACS"">JrGvNYZu</p>","","","","","","","","",""
"html-keyboard-response","147","213886","0.0-10.0-0.58","5fa4258658811d03fbc6ce8b","650c16f0f2faf8d7a0d14c09","651c1daa0e67b1fcb7bbb101","null","null","<p style=""font-size: 60px; font-family: BACS"">rvOvULUOk</p>","","","","","","","","",""
"html-keyboard-response","148","214891","0.0-10.0-0.59","5fa4258658811d03fbc6ce8b","650c16f0f2faf8d7a0d14c09","651c1daa0e67b1fcb7bbb101","null","null","<p style=""font-size: 60px; font-family: BACS"">TdTDABb</p>","","","","","","","","",""
"html-keyboard-response","149","215896","0.0-10.0-0.60","5fa4258658811d03fbc6ce8b","650c16f0f2faf8d7a0d14c09","651c1daa0e67b1fcb7bbb101","null","null","<p style=""font-size: 60px; font-family: BACS"">dkLlkmU</p>","","","","","","","","",""
"html-keyboard-response","150","216902","0.0-10.0-0.61","5fa4258658811d03fbc6ce8b","650c16f0f2faf8d7a0d14c09","651c1daa0e67b1fcb7bbb101","null","null","<p style=""font-size: 60px; font-family: BACS"">JuamlNYZu</p>","","","","","","","","",""
"html-keyboard-response","151","217907","0.0-10.0-0.62","5fa4258658811d03fbc6ce8b","650c16f0f2faf8d7a0d14c09","651c1daa0e67b1fcb7bbb101","null","null","<p style=""font-size: 60px; font-family: BACS"">McMDmhc</p>","","","","","","","","",""
"html-keyboard-response","152","218912","0.0-10.0-0.63","5fa4258658811d03fbc6ce8b","650c16f0f2faf8d7a0d14c09","651c1daa0e67b1fcb7bbb101","null","null","<p style=""font-size: 60px; font-family: BACS"">tmAKYBO</p>","","","","","","","","",""
"html-keyboard-response","153","219918","0.0-10.0-0.64","5fa4258658811d03fbc6ce8b","650c16f0f2faf8d7a0d14c09","651c1daa0e67b1fcb7bbb101","null","null","<p style=""font-size: 60px; font-family: BACS"">GNAcaukbY</p>","","","","","","","","",""
"html-keyboard-response","154","220924","0.0-10.0-0.65","5fa4258658811d03fbc6ce8b","650c16f0f2faf8d7a0d14c09","651c1daa0e67b1fcb7bbb101","null","null","<p style=""font-size: 60px; font-family: BACS"">EMYKYBO</p>","","","","","","","","",""
"html-keyboard-response","155","221929","0.0-10.0-0.66","5fa4258658811d03fbc6ce8b","650c16f0f2faf8d7a0d14c09","651c1daa0e67b1fcb7bbb101","null","null","<p style=""font-size: 60px; font-family: BACS"">GNAcaravu</p>","","","","","","","","",""
"html-keyboard-response","156","222934","0.0-10.0-0.67","5fa4258658811d03fbc6ce8b","650c16f0f2faf8d7a0d14c09","651c1daa0e67b1fcb7bbb101","null","null","<p style=""font-size: 60px; font-family: BACS"">tmAKmAM</p>","","","","","","","","",""
"html-keyboard-response","157","223939","0.0-10.0-0.68","5fa4258658811d03fbc6ce8b","650c16f0f2faf8d7a0d14c09","651c1daa0e67b1fcb7bbb101","null","null","<p style=""font-size: 60px; font-family: BACS"">DMRPYBO</p>","","","","","","","","",""
"html-keyboard-response","158","224945","0.0-10.0-0.69","5fa4258658811d03fbc6ce8b","650c16f0f2faf8d7a0d14c09","651c1daa0e67b1fcb7bbb101","null","null","<p style=""font-size: 60px; font-family: BACS"">YcdOukbY</p>","","","","","","","","",""
"html-keyboard-response","159","225950","0.0-10.0-0.70","5fa4258658811d03fbc6ce8b","650c16f0f2faf8d7a0d14c09","651c1daa0e67b1fcb7bbb101","null","null","<p style=""font-size: 60px; font-family: BACS"">McMDABb</p>","","","","","","","","",""
"html-keyboard-response","160","226955","0.0-10.0-0.71","5fa4258658811d03fbc6ce8b","650c16f0f2faf8d7a0d14c09","651c1daa0e67b1fcb7bbb101","null","null","<p style=""font-size: 60px; font-family: BACS"">thbOMYBO</p>","","","","","","","","",""
"html-keyboard-response","161","227960","0.0-10.0-0.72","5fa4258658811d03fbc6ce8b","650c16f0f2faf8d7a0d14c09","651c1daa0e67b1fcb7bbb101","null","null","<p style=""font-size: 60px; font-family: BACS"">Juamlravu</p>","","","","","","","","",""
"html-keyboard-response","162","228966","0.0-10.0-0.73","5fa4258658811d03fbc6ce8b","650c16f0f2faf8d7a0d14c09","651c1daa0e67b1fcb7bbb101","null","null","<p style=""font-size: 60px; font-family: BACS"">McMDYKPB</p>","","","","","","","","",""
"html-keyboard-response","163","229971","0.0-10.0-0.74","5fa4258658811d03fbc6ce8b","650c16f0f2faf8d7a0d14c09","651c1daa0e67b1fcb7bbb101","null","null","<p style=""font-size: 60px; font-family: BACS"">JrGvkmU</p>","","","","","","","","",""
"html-keyboard-response","164","230977","0.0-10.0-0.75","5fa4258658811d03fbc6ce8b","650c16f0f2faf8d7a0d14c09","651c1daa0e67b1fcb7bbb101","null","null","<p style=""font-size: 60px; font-family: BACS"">YdudLUOk</p>","","","","","","","","",""
"html-keyboard-response","165","231982","0.0-10.0-0.76","5fa4258658811d03fbc6ce8b","650c16f0f2faf8d7a0d14c09","651c1daa0e67b1fcb7bbb101","null","null","<p style=""font-size: 60px; font-family: BACS"">JrGvravu</p>","","","","","","","","",""
"html-keyboard-response","166","232987","0.0-10.0-0.77","5fa4258658811d03fbc6ce8b","650c16f0f2faf8d7a0d14c09","651c1daa0e67b1fcb7bbb101","null","null","<p style=""font-size: 60px; font-family: BACS"">chEDOmAM</p>","","","","","","","","",""
"html-keyboard-response","167","233993","0.0-10.0-0.78","5fa4258658811d03fbc6ce8b","650c16f0f2faf8d7a0d14c09","651c1daa0e67b1fcb7bbb101","null","null","<p style=""font-size: 60px; font-family: BACS"">rdLJaNYZu</p>","","","","","","","","",""
"html-keyboard-response","168","234999","0.0-10.0-0.79","5fa4258658811d03fbc6ce8b","650c16f0f2faf8d7a0d14c09","651c1daa0e67b1fcb7bbb101","null","null","<p style=""font-size: 60px; font-family: BACS"">Ydudravu</p>","","","","","","","","",""
"html-keyboard-response","169","241333","0.0-11.0","5fa4258658811d03fbc6ce8b","650c16f0f2faf8d7a0d14c09","651c1daa0e67b1fcb7bbb101","6333"," ","<p>Great, you've seen the second block of words. You may now take a short break.</p>
      <p>Press the spacebar when you're ready to continue.</p>","","","","","","","","",""
"html-keyboard-response","170","242339","0.0-12.0-0.0","5fa4258658811d03fbc6ce8b","650c16f0f2faf8d7a0d14c09","651c1daa0e67b1fcb7bbb101","null","null","<p style=""font-size: 60px; font-family: BACS"">rvOvUravu</p>","","","","","","","","",""
"html-keyboard-response","171","243345","0.0-12.0-0.1","5fa4258658811d03fbc6ce8b","650c16f0f2faf8d7a0d14c09","651c1daa0e67b1fcb7bbb101","null","null","<p style=""font-size: 60px; font-family: BACS"">mLdkZNYZu</p>","","","","","","","","",""
"html-keyboard-response","172","244350","0.0-12.0-0.2","5fa4258658811d03fbc6ce8b","650c16f0f2faf8d7a0d14c09","651c1daa0e67b1fcb7bbb101","null","null","<p style=""font-size: 60px; font-family: BACS"">chEDOmAM</p>","","","","","","","","",""
"html-keyboard-response","173","245356","0.0-12.0-0.3","5fa4258658811d03fbc6ce8b","650c16f0f2faf8d7a0d14c09","651c1daa0e67b1fcb7bbb101","null","null","<p style=""font-size: 60px; font-family: BACS"">JuamlNYZu</p>","","","","","","","","",""
"html-keyboard-response","174","246361","0.0-12.0-0.4","5fa4258658811d03fbc6ce8b","650c16f0f2faf8d7a0d14c09","651c1daa0e67b1fcb7bbb101","null","null","<p style=""font-size: 60px; font-family: BACS"">COtBDYKPB</p>","","","","","","","","",""
"html-keyboard-response","175","247366","0.0-12.0-0.5","5fa4258658811d03fbc6ce8b","650c16f0f2faf8d7a0d14c09","651c1daa0e67b1fcb7bbb101","null","null","<p style=""font-size: 60px; font-family: BACS"">DMRPABb</p>","","","","","","","","",""
"html-keyboard-response","176","248371","0.0-12.0-0.6","5fa4258658811d03fbc6ce8b","650c16f0f2faf8d7a0d14c09","651c1daa0e67b1fcb7bbb101","null","null","<p style=""font-size: 60px; font-family: BACS"">McMDYBO</p>","","","","","","","","",""
"html-keyboard-response","177","249376","0.0-12.0-0.7","5fa4258658811d03fbc6ce8b","650c16f0f2faf8d7a0d14c09","651c1daa0e67b1fcb7bbb101","null","null","<p style=""font-size: 60px; font-family: BACS"">mLdkZkmU</p>","","","","","","","","",""
"html-keyboard-response","178","250382","0.0-12.0-0.8","5fa4258658811d03fbc6ce8b","650c16f0f2faf8d7a0d14c09","651c1daa0e67b1fcb7bbb101","null","null","<p style=""font-size: 60px; font-family: BACS"">GNAcaNYZu</p>","","","","","","","","",""
"html-keyboard-response","179","251388","0.0-12.0-0.9","5fa4258658811d03fbc6ce8b","650c16f0f2faf8d7a0d14c09","651c1daa0e67b1fcb7bbb101","null","null","<p style=""font-size: 60px; font-family: BACS"">COtBDmhc</p>","","","","","","","","",""
"html-keyboard-response","180","252393","0.0-12.0-0.10","5fa4258658811d03fbc6ce8b","650c16f0f2faf8d7a0d14c09","651c1daa0e67b1fcb7bbb101","null","null","<p style=""font-size: 60px; font-family: BACS"">mLdkZravu</p>","","","","","","","","",""
"html-keyboard-response","181","253398","0.0-12.0-0.11","5fa4258658811d03fbc6ce8b","650c16f0f2faf8d7a0d14c09","651c1daa0e67b1fcb7bbb101","null","null","<p style=""font-size: 60px; font-family: BACS"">JrGvukbY</p>","","","","","","","","",""
"html-keyboard-response","182","254404","0.0-12.0-0.12","5fa4258658811d03fbc6ce8b","650c16f0f2faf8d7a0d14c09","651c1daa0e67b1fcb7bbb101","null","null","<p style=""font-size: 60px; font-family: BACS"">lRCBmhc</p>","","","","","","","","",""
"html-keyboard-response","183","255409","0.0-12.0-0.13","5fa4258658811d03fbc6ce8b","650c16f0f2faf8d7a0d14c09","651c1daa0e67b1fcb7bbb101","null","null","<p style=""font-size: 60px; font-family: BACS"">GZJYukbY</p>","","","","","","","","",""
"html-keyboard-response","184","256414","0.0-12.0-0.14","5fa4258658811d03fbc6ce8b","650c16f0f2faf8d7a0d14c09","651c1daa0e67b1fcb7bbb101","null","null","<p style=""font-size: 60px; font-family: BACS"">lRCBABb</p>","","","","","","","","",""
"html-keyboard-response","185","257420","0.0-12.0-0.15","5fa4258658811d03fbc6ce8b","650c16f0f2faf8d7a0d14c09","651c1daa0e67b1fcb7bbb101","null","null","<p style=""font-size: 60px; font-family: BACS"">tmAKmAM</p>","","","","","","","","",""
"html-keyboard-response","186","258425","0.0-12.0-0.16","5fa4258658811d03fbc6ce8b","650c16f0f2faf8d7a0d14c09","651c1daa0e67b1fcb7bbb101","null","null","<p style=""font-size: 60px; font-family: BACS"">chEDOABb</p>","","","","","","","","",""
"html-keyboard-response","187","259430","0.0-12.0-0.17","5fa4258658811d03fbc6ce8b","650c16f0f2faf8d7a0d14c09","651c1daa0e67b1fcb7bbb101","null","null","<p style=""font-size: 60px; font-family: BACS"">ctktmhc</p>","","","","","","","","",""
"html-keyboard-response","188","260435","0.0-12.0-0.18","5fa4258658811d03fbc6ce8b","650c16f0f2faf8d7a0d14c09","651c1daa0e67b1fcb7bbb101","null","null","<p style=""font-size: 60px; font-family: BACS"">thbOMmAM</p>","","","","","","","","",""
"html-keyboard-response","189","261440","0.0-12.0-0.19","5fa4258658811d03fbc6ce8b","650c16f0f2faf8d7a0d14c09","651c1daa0e67b1fcb7bbb101","null","null","<p style=""font-size: 60px; font-family: BACS"">COtBDYBO</p>","","","","","","","","",""
"html-keyboard-response","190","262446","0.0-12.0-0.20","5fa4258658811d03fbc6ce8b","650c16f0f2faf8d7a0d14c09","651c1daa0e67b1fcb7bbb101","null","null","<p style=""font-size: 60px; font-family: BACS"">chEDOYKPB</p>","","","","","","","","",""
"html-keyboard-response","191","263451","0.0-12.0-0.21","5fa4258658811d03fbc6ce8b","650c16f0f2faf8d7a0d14c09","651c1daa0e67b1fcb7bbb101","null","null","<p style=""font-size: 60px; font-family: BACS"">dkLlukbY</p>","","","","","","","","",""
"html-keyboard-response","192","264457","0.0-12.0-0.22","5fa4258658811d03fbc6ce8b","650c16f0f2faf8d7a0d14c09","651c1daa0e67b1fcb7bbb101","null","null","<p style=""font-size: 60px; font-family: BACS"">TdTDmAM</p>","","","","","","","","",""
"html-keyboard-response","193","265462","0.0-12.0-0.23","5fa4258658811d03fbc6ce8b","650c16f0f2faf8d7a0d14c09","651c1daa0e67b1fcb7bbb101","null","null","<p style=""font-size: 60px; font-family: BACS"">JrGvravu</p>","","","","","","","","",""
"html-keyboard-response","194","266468","0.0-12.0-0.24","5fa4258658811d03fbc6ce8b","650c16f0f2faf8d7a0d14c09","651c1daa0e67b1fcb7bbb101","null","null","<p style=""font-size: 60px; font-family: BACS"">lRCBYKPB</p>","","","","","","","","",""
"html-keyboard-response","195","267473","0.0-12.0-0.25","5fa4258658811d03fbc6ce8b","650c16f0f2faf8d7a0d14c09","651c1daa0e67b1fcb7bbb101","null","null","<p style=""font-size: 60px; font-family: BACS"">thbOMYBO</p>","","","","","","","","",""
"html-keyboard-response","196","268478","0.0-12.0-0.26","5fa4258658811d03fbc6ce8b","650c16f0f2faf8d7a0d14c09","651c1daa0e67b1fcb7bbb101","null","null","<p style=""font-size: 60px; font-family: BACS"">rdLJaNYZu</p>","","","","","","","","",""
"html-keyboard-response","197","269484","0.0-12.0-0.27","5fa4258658811d03fbc6ce8b","650c16f0f2faf8d7a0d14c09","651c1daa0e67b1fcb7bbb101","null","null","<p style=""font-size: 60px; font-family: BACS"">EMYKABb</p>","","","","","","","","",""
"html-keyboard-response","198","270489","0.0-12.0-0.28","5fa4258658811d03fbc6ce8b","650c16f0f2faf8d7a0d14c09","651c1daa0e67b1fcb7bbb101","null","null","<p style=""font-size: 60px; font-family: BACS"">tmAKYBO</p>","","","","","","","","",""
"html-keyboard-response","199","271494","0.0-12.0-0.29","5fa4258658811d03fbc6ce8b","650c16f0f2faf8d7a0d14c09","651c1daa0e67b1fcb7bbb101","null","null","<p style=""font-size: 60px; font-family: BACS"">JuamlLUOk</p>","","","","","","","","",""
"html-keyboard-response","200","272499","0.0-12.0-0.30","5fa4258658811d03fbc6ce8b","650c16f0f2faf8d7a0d14c09","651c1daa0e67b1fcb7bbb101","null","null","<p style=""font-size: 60px; font-family: BACS"">Ydudravu</p>","","","","","","","","",""
"html-keyboard-response","201","273505","0.0-12.0-0.31","5fa4258658811d03fbc6ce8b","650c16f0f2faf8d7a0d14c09","651c1daa0e67b1fcb7bbb101","null","null","<p style=""font-size: 60px; font-family: BACS"">ctktABb</p>","","","","","","","","",""
"html-keyboard-response","202","274510","0.0-12.0-0.32","5fa4258658811d03fbc6ce8b","650c16f0f2faf8d7a0d14c09","651c1daa0e67b1fcb7bbb101","null","null","<p style=""font-size: 60px; font-family: BACS"">YcdOravu</p>","","","","","","","","",""
"html-keyboard-response","203","275516","0.0-12.0-0.33","5fa4258658811d03fbc6ce8b","650c16f0f2faf8d7a0d14c09","651c1daa0e67b1fcb7bbb101","null","null","<p style=""font-size: 60px; font-family: BACS"">DMRPYBO</p>","","","","","","","","",""
"html-keyboard-response","204","276520","0.0-12.0-0.34","5fa4258658811d03fbc6ce8b","650c16f0f2faf8d7a0d14c09","651c1daa0e67b1fcb7bbb101","null","null","<p style=""font-size: 60px; font-family: BACS"">EMYKmhc</p>","","","","","","","","",""
"html-keyboard-response","205","277526","0.0-12.0-0.35","5fa4258658811d03fbc6ce8b","650c16f0f2faf8d7a0d14c09","651c1daa0e67b1fcb7bbb101","null","null","<p style=""font-size: 60px; font-family: BACS"">COtBDmAM</p>","","","","","","","","",""
"html-keyboard-response","206","278532","0.0-12.0-0.36","5fa4258658811d03fbc6ce8b","650c16f0f2faf8d7a0d14c09","651c1daa0e67b1fcb7bbb101","null","null","<p style=""font-size: 60px; font-family: BACS"">YcdOukbY</p>","","","","","","","","",""
"html-keyboard-response","207","279537","0.0-12.0-0.37","5fa4258658811d03fbc6ce8b","650c16f0f2faf8d7a0d14c09","651c1daa0e67b1fcb7bbb101","null","null","<p style=""font-size: 60px; font-family: BACS"">rvOvUNYZu</p>","","","","","","","","",""
"html-keyboard-response","208","280542","0.0-12.0-0.38","5fa4258658811d03fbc6ce8b","650c16f0f2faf8d7a0d14c09","651c1daa0e67b1fcb7bbb101","null","null","<p style=""font-size: 60px; font-family: BACS"">GZJYravu</p>","","","","","","","","",""
"html-keyboard-response","209","281548","0.0-12.0-0.39","5fa4258658811d03fbc6ce8b","650c16f0f2faf8d7a0d14c09","651c1daa0e67b1fcb7bbb101","null","null","<p style=""font-size: 60px; font-family: BACS"">TdTDYKPB</p>","","","","","","","","",""
"html-keyboard-response","210","282552","0.0-12.0-0.40","5fa4258658811d03fbc6ce8b","650c16f0f2faf8d7a0d14c09","651c1daa0e67b1fcb7bbb101","null","null","<p style=""font-size: 60px; font-family: BACS"">EMYKmAM</p>","","","","","","","","",""
"html-keyboard-response","211","283558","0.0-12.0-0.41","5fa4258658811d03fbc6ce8b","650c16f0f2faf8d7a0d14c09","651c1daa0e67b1fcb7bbb101","null","null","<p style=""font-size: 60px; font-family: BACS"">GZJYkmU</p>","","","","","","","","",""
"html-keyboard-response","212","284563","0.0-12.0-0.42","5fa4258658811d03fbc6ce8b","650c16f0f2faf8d7a0d14c09","651c1daa0e67b1fcb7bbb101","null","null","<p style=""font-size: 60px; font-family: BACS"">DMRPmAM</p>","","","","","","","","",""
"html-keyboard-response","213","285569","0.0-12.0-0.43","5fa4258658811d03fbc6ce8b","650c16f0f2faf8d7a0d14c09","651c1daa0e67b1fcb7bbb101","null","null","<p style=""font-size: 60px; font-family: BACS"">JrGvkmU</p>","","","","","","","","",""
"html-keyboard-response","214","286574","0.0-12.0-0.44","5fa4258658811d03fbc6ce8b","650c16f0f2faf8d7a0d14c09","651c1daa0e67b1fcb7bbb101","null","null","<p style=""font-size: 60px; font-family: BACS"">TdTDmhc</p>","","","","","","","","",""
"html-keyboard-response","215","287580","0.0-12.0-0.45","5fa4258658811d03fbc6ce8b","650c16f0f2faf8d7a0d14c09","651c1daa0e67b1fcb7bbb101","null","null","<p style=""font-size: 60px; font-family: BACS"">GZJYLUOk</p>","","","","","","","","",""
"html-keyboard-response","216","288585","0.0-12.0-0.46","5fa4258658811d03fbc6ce8b","650c16f0f2faf8d7a0d14c09","651c1daa0e67b1fcb7bbb101","null","null","<p style=""font-size: 60px; font-family: BACS"">dkLlkmU</p>","","","","","","","","",""
"html-keyboard-response","217","289590","0.0-12.0-0.47","5fa4258658811d03fbc6ce8b","650c16f0f2faf8d7a0d14c09","651c1daa0e67b1fcb7bbb101","null","null","<p style=""font-size: 60px; font-family: BACS"">YcdONYZu</p>","","","","","","","","",""
"html-keyboard-response","218","290595","0.0-12.0-0.48","5fa4258658811d03fbc6ce8b","650c16f0f2faf8d7a0d14c09","651c1daa0e67b1fcb7bbb101","null","null","<p style=""font-size: 60px; font-family: BACS"">ctktYBO</p>","","","","","","","","",""
"html-keyboard-response","219","291601","0.0-12.0-0.49","5fa4258658811d03fbc6ce8b","650c16f0f2faf8d7a0d14c09","651c1daa0e67b1fcb7bbb101","null","null","<p style=""font-size: 60px; font-family: BACS"">lRCBmAM</p>","","","","","","","","",""
"html-keyboard-response","220","292606","0.0-12.0-0.50","5fa4258658811d03fbc6ce8b","650c16f0f2faf8d7a0d14c09","651c1daa0e67b1fcb7bbb101","null","null","<p style=""font-size: 60px; font-family: BACS"">TdTDABb</p>","","","","","","","","",""
"html-keyboard-response","221","293611","0.0-12.0-0.51","5fa4258658811d03fbc6ce8b","650c16f0f2faf8d7a0d14c09","651c1daa0e67b1fcb7bbb101","null","null","<p style=""font-size: 60px; font-family: BACS"">DMRPYKPB</p>","","","","","","","","",""
"html-keyboard-response","222","294617","0.0-12.0-0.52","5fa4258658811d03fbc6ce8b","650c16f0f2faf8d7a0d14c09","651c1daa0e67b1fcb7bbb101","null","null","<p style=""font-size: 60px; font-family: BACS"">JuamlukbY</p>","","","","","","","","",""
"html-keyboard-response","223","295622","0.0-12.0-0.53","5fa4258658811d03fbc6ce8b","650c16f0f2faf8d7a0d14c09","651c1daa0e67b1fcb7bbb101","null","null","<p style=""font-size: 60px; font-family: BACS"">GNAcaravu</p>","","","","","","","","",""
"html-keyboard-response","224","296627","0.0-12.0-0.54","5fa4258658811d03fbc6ce8b","650c16f0f2faf8d7a0d14c09","651c1daa0e67b1fcb7bbb101","null","null","<p style=""font-size: 60px; font-family: BACS"">rvOvULUOk</p>","","","","","","","","",""
"html-keyboard-response","225","297633","0.0-12.0-0.55","5fa4258658811d03fbc6ce8b","650c16f0f2faf8d7a0d14c09","651c1daa0e67b1fcb7bbb101","null","null","<p style=""font-size: 60px; font-family: BACS"">rdLJakmU</p>","","","","","","","","",""
"html-keyboard-response","226","298639","0.0-12.0-0.56","5fa4258658811d03fbc6ce8b","650c16f0f2faf8d7a0d14c09","651c1daa0e67b1fcb7bbb101","null","null","<p style=""font-size: 60px; font-family: BACS"">chEDOYBO</p>","","","","","","","","",""
"html-keyboard-response","227","299644","0.0-12.0-0.57","5fa4258658811d03fbc6ce8b","650c16f0f2faf8d7a0d14c09","651c1daa0e67b1fcb7bbb101","null","null","<p style=""font-size: 60px; font-family: BACS"">YdudukbY</p>","","","","","","","","",""
"html-keyboard-response","228","300649","0.0-12.0-0.58","5fa4258658811d03fbc6ce8b","650c16f0f2faf8d7a0d14c09","651c1daa0e67b1fcb7bbb101","null","null","<p style=""font-size: 60px; font-family: BACS"">dkLlLUOk</p>","","","","","","","","",""
"html-keyboard-response","229","301654","0.0-12.0-0.59","5fa4258658811d03fbc6ce8b","650c16f0f2faf8d7a0d14c09","651c1daa0e67b1fcb7bbb101","null","null","<p style=""font-size: 60px; font-family: BACS"">GNAcaukbY</p>","","","","","","","","",""
"html-keyboard-response","230","302659","0.0-12.0-0.60","5fa4258658811d03fbc6ce8b","650c16f0f2faf8d7a0d14c09","651c1daa0e67b1fcb7bbb101","null","null","<p style=""font-size: 60px; font-family: BACS"">YdudLUOk</p>","","","","","","","","",""
"html-keyboard-response","231","303665","0.0-12.0-0.61","5fa4258658811d03fbc6ce8b","650c16f0f2faf8d7a0d14c09","651c1daa0e67b1fcb7bbb101","null","null","<p style=""font-size: 60px; font-family: BACS"">ctktYKPB</p>","","","","","","","","",""
"html-keyboard-response","232","304670","0.0-12.0-0.62","5fa4258658811d03fbc6ce8b","650c16f0f2faf8d7a0d14c09","651c1daa0e67b1fcb7bbb101","null","null","<p style=""font-size: 60px; font-family: BACS"">thbOMmhc</p>","","","","","","","","",""
"html-keyboard-response","233","305675","0.0-12.0-0.63","5fa4258658811d03fbc6ce8b","650c16f0f2faf8d7a0d14c09","651c1daa0e67b1fcb7bbb101","null","null","<p style=""font-size: 60px; font-family: BACS"">McMDABb</p>","","","","","","","","",""
"html-keyboard-response","234","306681","0.0-12.0-0.64","5fa4258658811d03fbc6ce8b","650c16f0f2faf8d7a0d14c09","651c1daa0e67b1fcb7bbb101","null","null","<p style=""font-size: 60px; font-family: BACS"">tmAKmhc</p>","","","","","","","","",""
"html-keyboard-response","235","307686","0.0-12.0-0.65","5fa4258658811d03fbc6ce8b","650c16f0f2faf8d7a0d14c09","651c1daa0e67b1fcb7bbb101","null","null","<p style=""font-size: 60px; font-family: BACS"">dkLlNYZu</p>","","","","","","","","",""
"html-keyboard-response","236","308689","0.0-12.0-0.66","5fa4258658811d03fbc6ce8b","650c16f0f2faf8d7a0d14c09","651c1daa0e67b1fcb7bbb101","null","null","<p style=""font-size: 60px; font-family: BACS"">rdLJaLUOk</p>","","","","","","","","",""
"html-keyboard-response","237","309694","0.0-12.0-0.67","5fa4258658811d03fbc6ce8b","650c16f0f2faf8d7a0d14c09","651c1daa0e67b1fcb7bbb101","null","null","<p style=""font-size: 60px; font-family: BACS"">rvOvUkmU</p>","","","","","","","","",""
"html-keyboard-response","238","310700","0.0-12.0-0.68","5fa4258658811d03fbc6ce8b","650c16f0f2faf8d7a0d14c09","651c1daa0e67b1fcb7bbb101","null","null","<p style=""font-size: 60px; font-family: BACS"">rdLJaukbY</p>","","","","","","","","",""
"html-keyboard-response","239","311704","0.0-12.0-0.69","5fa4258658811d03fbc6ce8b","650c16f0f2faf8d7a0d14c09","651c1daa0e67b1fcb7bbb101","null","null","<p style=""font-size: 60px; font-family: BACS"">tmAKABb</p>","","","","","","","","",""
"html-keyboard-response","240","312710","0.0-12.0-0.70","5fa4258658811d03fbc6ce8b","650c16f0f2faf8d7a0d14c09","651c1daa0e67b1fcb7bbb101","null","null","<p style=""font-size: 60px; font-family: BACS"">JrGvNYZu</p>","","","","","","","","",""
"html-keyboard-response","241","313715","0.0-12.0-0.71","5fa4258658811d03fbc6ce8b","650c16f0f2faf8d7a0d14c09","651c1daa0e67b1fcb7bbb101","null","null","<p style=""font-size: 60px; font-family: BACS"">YdudkmU</p>","","","","","","","","",""
"html-keyboard-response","242","314720","0.0-12.0-0.72","5fa4258658811d03fbc6ce8b","650c16f0f2faf8d7a0d14c09","651c1daa0e67b1fcb7bbb101","null","null","<p style=""font-size: 60px; font-family: BACS"">McMDYKPB</p>","","","","","","","","",""
"html-keyboard-response","243","315726","0.0-12.0-0.73","5fa4258658811d03fbc6ce8b","650c16f0f2faf8d7a0d14c09","651c1daa0e67b1fcb7bbb101","null","null","<p style=""font-size: 60px; font-family: BACS"">GNAcakmU</p>","","","","","","","","",""
"html-keyboard-response","244","316731","0.0-12.0-0.74","5fa4258658811d03fbc6ce8b","650c16f0f2faf8d7a0d14c09","651c1daa0e67b1fcb7bbb101","null","null","<p style=""font-size: 60px; font-family: BACS"">McMDmhc</p>","","","","","","","","",""
"html-keyboard-response","245","317736","0.0-12.0-0.75","5fa4258658811d03fbc6ce8b","650c16f0f2faf8d7a0d14c09","651c1daa0e67b1fcb7bbb101","null","null","<p style=""font-size: 60px; font-family: BACS"">YcdOLUOk</p>","","","","","","","","",""
"html-keyboard-response","246","318742","0.0-12.0-0.76","5fa4258658811d03fbc6ce8b","650c16f0f2faf8d7a0d14c09","651c1daa0e67b1fcb7bbb101","null","null","<p style=""font-size: 60px; font-family: BACS"">thbOMYKPB</p>","","","","","","","","",""
"html-keyboard-response","247","319747","0.0-12.0-0.77","5fa4258658811d03fbc6ce8b","650c16f0f2faf8d7a0d14c09","651c1daa0e67b1fcb7bbb101","null","null","<p style=""font-size: 60px; font-family: BACS"">Juamlravu</p>","","","","","","","","",""
"html-keyboard-response","248","320752","0.0-12.0-0.78","5fa4258658811d03fbc6ce8b","650c16f0f2faf8d7a0d14c09","651c1daa0e67b1fcb7bbb101","null","null","<p style=""font-size: 60px; font-family: BACS"">EMYKYBO</p>","","","","","","","","",""
"html-keyboard-response","249","321758","0.0-12.0-0.79","5fa4258658811d03fbc6ce8b","650c16f0f2faf8d7a0d14c09","651c1daa0e67b1fcb7bbb101","null","null","<p style=""font-size: 60px; font-family: BACS"">mLdkZLUOk</p>","","","","","","","","",""
"html-keyboard-response","250","330655","0.0-13.0","5fa4258658811d03fbc6ce8b","650c16f0f2faf8d7a0d14c09","651c1daa0e67b1fcb7bbb101","8897"," ","<p>Great, you've seen the third block of words. You may now take a short break.</p>
      <p>Press the spacebar when you're ready to continue.</p>","","","","","","","","",""
"html-keyboard-response","251","331659","0.0-14.0-0.0","5fa4258658811d03fbc6ce8b","650c16f0f2faf8d7a0d14c09","651c1daa0e67b1fcb7bbb101","null","null","<p style=""font-size: 60px; font-family: BACS"">rdLJaNYZu</p>","","","","","","","","",""
"html-keyboard-response","252","332664","0.0-14.0-0.1","5fa4258658811d03fbc6ce8b","650c16f0f2faf8d7a0d14c09","651c1daa0e67b1fcb7bbb101","null","null","<p style=""font-size: 60px; font-family: BACS"">McMDABb</p>","","","","","","","","",""
"html-keyboard-response","253","333670","0.0-14.0-0.2","5fa4258658811d03fbc6ce8b","650c16f0f2faf8d7a0d14c09","651c1daa0e67b1fcb7bbb101","null","null","<p style=""font-size: 60px; font-family: BACS"">thbOMmhc</p>","","","","","","","","",""
"html-keyboard-response","254","334675","0.0-14.0-0.3","5fa4258658811d03fbc6ce8b","650c16f0f2faf8d7a0d14c09","651c1daa0e67b1fcb7bbb101","null","null","<p style=""font-size: 60px; font-family: BACS"">dkLlkmU</p>","","","","","","","","",""
"html-keyboard-response","255","335679","0.0-14.0-0.4","5fa4258658811d03fbc6ce8b","650c16f0f2faf8d7a0d14c09","651c1daa0e67b1fcb7bbb101","null","null","<p style=""font-size: 60px; font-family: BACS"">YcdONYZu</p>","","","","","","","","",""
"html-keyboard-response","256","336683","0.0-14.0-0.5","5fa4258658811d03fbc6ce8b","650c16f0f2faf8d7a0d14c09","651c1daa0e67b1fcb7bbb101","null","null","<p style=""font-size: 60px; font-family: BACS"">EMYKABb</p>","","","","","","","","",""
"html-keyboard-response","257","337688","0.0-14.0-0.6","5fa4258658811d03fbc6ce8b","650c16f0f2faf8d7a0d14c09","651c1daa0e67b1fcb7bbb101","null","null","<p style=""font-size: 60px; font-family: BACS"">chEDOYBO</p>","","","","","","","","",""
"html-keyboard-response","258","338694","0.0-14.0-0.7","5fa4258658811d03fbc6ce8b","650c16f0f2faf8d7a0d14c09","651c1daa0e67b1fcb7bbb101","null","null","<p style=""font-size: 60px; font-family: BACS"">ctktYKPB</p>","","","","","","","","",""
"html-keyboard-response","259","339699","0.0-14.0-0.8","5fa4258658811d03fbc6ce8b","650c16f0f2faf8d7a0d14c09","651c1daa0e67b1fcb7bbb101","null","null","<p style=""font-size: 60px; font-family: BACS"">YdudkmU</p>","","","","","","","","",""
"html-keyboard-response","260","340704","0.0-14.0-0.9","5fa4258658811d03fbc6ce8b","650c16f0f2faf8d7a0d14c09","651c1daa0e67b1fcb7bbb101","null","null","<p style=""font-size: 60px; font-family: BACS"">lRCBYKPB</p>","","","","","","","","",""
"html-keyboard-response","261","341710","0.0-14.0-0.10","5fa4258658811d03fbc6ce8b","650c16f0f2faf8d7a0d14c09","651c1daa0e67b1fcb7bbb101","null","null","<p style=""font-size: 60px; font-family: BACS"">TdTDmhc</p>","","","","","","","","",""
"html-keyboard-response","262","342715","0.0-14.0-0.11","5fa4258658811d03fbc6ce8b","650c16f0f2faf8d7a0d14c09","651c1daa0e67b1fcb7bbb101","null","null","<p style=""font-size: 60px; font-family: BACS"">GNAcakmU</p>","","","","","","","","",""
"html-keyboard-response","263","343720","0.0-14.0-0.12","5fa4258658811d03fbc6ce8b","650c16f0f2faf8d7a0d14c09","651c1daa0e67b1fcb7bbb101","null","null","<p style=""font-size: 60px; font-family: BACS"">thbOMmAM</p>","","","","","","","","",""
"html-keyboard-response","264","344725","0.0-14.0-0.13","5fa4258658811d03fbc6ce8b","650c16f0f2faf8d7a0d14c09","651c1daa0e67b1fcb7bbb101","null","null","<p style=""font-size: 60px; font-family: BACS"">mLdkZLUOk</p>","","","","","","","","",""
"html-keyboard-response","265","345731","0.0-14.0-0.14","5fa4258658811d03fbc6ce8b","650c16f0f2faf8d7a0d14c09","651c1daa0e67b1fcb7bbb101","null","null","<p style=""font-size: 60px; font-family: BACS"">TdTDYKPB</p>","","","","","","","","",""
"html-keyboard-response","266","346735","0.0-14.0-0.15","5fa4258658811d03fbc6ce8b","650c16f0f2faf8d7a0d14c09","651c1daa0e67b1fcb7bbb101","null","null","<p style=""font-size: 60px; font-family: BACS"">mLdkZNYZu</p>","","","","","","","","",""
"html-keyboard-response","267","347740","0.0-14.0-0.16","5fa4258658811d03fbc6ce8b","650c16f0f2faf8d7a0d14c09","651c1daa0e67b1fcb7bbb101","null","null","<p style=""font-size: 60px; font-family: BACS"">dkLlLUOk</p>","","","","","","","","",""
"html-keyboard-response","268","348745","0.0-14.0-0.17","5fa4258658811d03fbc6ce8b","650c16f0f2faf8d7a0d14c09","651c1daa0e67b1fcb7bbb101","null","null","<p style=""font-size: 60px; font-family: BACS"">rvOvUkmU</p>","","","","","","","","",""
"html-keyboard-response","269","349750","0.0-14.0-0.18","5fa4258658811d03fbc6ce8b","650c16f0f2faf8d7a0d14c09","651c1daa0e67b1fcb7bbb101","null","null","<p style=""font-size: 60px; font-family: BACS"">rdLJaukbY</p>","","","","","","","","",""
"html-keyboard-response","270","350755","0.0-14.0-0.19","5fa4258658811d03fbc6ce8b","650c16f0f2faf8d7a0d14c09","651c1daa0e67b1fcb7bbb101","null","null","<p style=""font-size: 60px; font-family: BACS"">rvOvULUOk</p>","","","","","","","","",""
"html-keyboard-response","271","351761","0.0-14.0-0.20","5fa4258658811d03fbc6ce8b","650c16f0f2faf8d7a0d14c09","651c1daa0e67b1fcb7bbb101","null","null","<p style=""font-size: 60px; font-family: BACS"">tmAKmhc</p>","","","","","","","","",""
"html-keyboard-response","272","352766","0.0-14.0-0.21","5fa4258658811d03fbc6ce8b","650c16f0f2faf8d7a0d14c09","651c1daa0e67b1fcb7bbb101","null","null","<p style=""font-size: 60px; font-family: BACS"">JuamlukbY</p>","","","","","","","","",""
"html-keyboard-response","273","353771","0.0-14.0-0.22","5fa4258658811d03fbc6ce8b","650c16f0f2faf8d7a0d14c09","651c1daa0e67b1fcb7bbb101","null","null","<p style=""font-size: 60px; font-family: BACS"">GNAcaNYZu</p>","","","","","","","","",""
"html-keyboard-response","274","354777","0.0-14.0-0.23","5fa4258658811d03fbc6ce8b","650c16f0f2faf8d7a0d14c09","651c1daa0e67b1fcb7bbb101","null","null","<p style=""font-size: 60px; font-family: BACS"">JrGvkmU</p>","","","","","","","","",""
"html-keyboard-response","275","355782","0.0-14.0-0.24","5fa4258658811d03fbc6ce8b","650c16f0f2faf8d7a0d14c09","651c1daa0e67b1fcb7bbb101","null","null","<p style=""font-size: 60px; font-family: BACS"">McMDmhc</p>","","","","","","","","",""
"html-keyboard-response","276","356787","0.0-14.0-0.25","5fa4258658811d03fbc6ce8b","650c16f0f2faf8d7a0d14c09","651c1daa0e67b1fcb7bbb101","null","null","<p style=""font-size: 60px; font-family: BACS"">YcdOravu</p>","","","","","","","","",""
"html-keyboard-response","277","357792","0.0-14.0-0.26","5fa4258658811d03fbc6ce8b","650c16f0f2faf8d7a0d14c09","651c1daa0e67b1fcb7bbb101","null","null","<p style=""font-size: 60px; font-family: BACS"">lRCBmhc</p>","","","","","","","","",""
"html-keyboard-response","278","358797","0.0-14.0-0.27","5fa4258658811d03fbc6ce8b","650c16f0f2faf8d7a0d14c09","651c1daa0e67b1fcb7bbb101","null","null","<p style=""font-size: 60px; font-family: BACS"">DMRPYBO</p>","","","","","","","","",""
"html-keyboard-response","279","359802","0.0-14.0-0.28","5fa4258658811d03fbc6ce8b","650c16f0f2faf8d7a0d14c09","651c1daa0e67b1fcb7bbb101","null","null","<p style=""font-size: 60px; font-family: BACS"">chEDOmAM</p>","","","","","","","","",""
"html-keyboard-response","280","360808","0.0-14.0-0.29","5fa4258658811d03fbc6ce8b","650c16f0f2faf8d7a0d14c09","651c1daa0e67b1fcb7bbb101","null","null","<p style=""font-size: 60px; font-family: BACS"">JrGvukbY</p>","","","","","","","","",""
"html-keyboard-response","281","361814","0.0-14.0-0.30","5fa4258658811d03fbc6ce8b","650c16f0f2faf8d7a0d14c09","651c1daa0e67b1fcb7bbb101","null","null","<p style=""font-size: 60px; font-family: BACS"">Ydudravu</p>","","","","","","","","",""
"html-keyboard-response","282","362819","0.0-14.0-0.31","5fa4258658811d03fbc6ce8b","650c16f0f2faf8d7a0d14c09","651c1daa0e67b1fcb7bbb101","null","null","<p style=""font-size: 60px; font-family: BACS"">dkLlukbY</p>","","","","","","","","",""
"html-keyboard-response","283","363825","0.0-14.0-0.32","5fa4258658811d03fbc6ce8b","650c16f0f2faf8d7a0d14c09","651c1daa0e67b1fcb7bbb101","null","null","<p style=""font-size: 60px; font-family: BACS"">GZJYkmU</p>","","","","","","","","",""
"html-keyboard-response","284","364830","0.0-14.0-0.33","5fa4258658811d03fbc6ce8b","650c16f0f2faf8d7a0d14c09","651c1daa0e67b1fcb7bbb101","null","null","<p style=""font-size: 60px; font-family: BACS"">COtBDmhc</p>","","","","","","","","",""
"html-keyboard-response","285","365835","0.0-14.0-0.34","5fa4258658811d03fbc6ce8b","650c16f0f2faf8d7a0d14c09","651c1daa0e67b1fcb7bbb101","null","null","<p style=""font-size: 60px; font-family: BACS"">GZJYravu</p>","","","","","","","","",""
"html-keyboard-response","286","366841","0.0-14.0-0.35","5fa4258658811d03fbc6ce8b","650c16f0f2faf8d7a0d14c09","651c1daa0e67b1fcb7bbb101","null","null","<p style=""font-size: 60px; font-family: BACS"">McMDYBO</p>","","","","","","","","",""
"html-keyboard-response","287","367846","0.0-14.0-0.36","5fa4258658811d03fbc6ce8b","650c16f0f2faf8d7a0d14c09","651c1daa0e67b1fcb7bbb101","null","null","<p style=""font-size: 60px; font-family: BACS"">COtBDmAM</p>","","","","","","","","",""
"html-keyboard-response","288","368851","0.0-14.0-0.37","5fa4258658811d03fbc6ce8b","650c16f0f2faf8d7a0d14c09","651c1daa0e67b1fcb7bbb101","null","null","<p style=""font-size: 60px; font-family: BACS"">GZJYLUOk</p>","","","","","","","","",""
"html-keyboard-response","289","369856","0.0-14.0-0.38","5fa4258658811d03fbc6ce8b","650c16f0f2faf8d7a0d14c09","651c1daa0e67b1fcb7bbb101","null","null","<p style=""font-size: 60px; font-family: BACS"">chEDOABb</p>","","","","","","","","",""
"html-keyboard-response","290","370862","0.0-14.0-0.39","5fa4258658811d03fbc6ce8b","650c16f0f2faf8d7a0d14c09","651c1daa0e67b1fcb7bbb101","null","null","<p style=""font-size: 60px; font-family: BACS"">ctktmhc</p>","","","","","","","","",""
"html-keyboard-response","291","371867","0.0-14.0-0.40","5fa4258658811d03fbc6ce8b","650c16f0f2faf8d7a0d14c09","651c1daa0e67b1fcb7bbb101","null","null","<p style=""font-size: 60px; font-family: BACS"">YdudLUOk</p>","","","","","","","","",""
"html-keyboard-response","292","372872","0.0-14.0-0.41","5fa4258658811d03fbc6ce8b","650c16f0f2faf8d7a0d14c09","651c1daa0e67b1fcb7bbb101","null","null","<p style=""font-size: 60px; font-family: BACS"">TdTDmAM</p>","","","","","","","","",""
"html-keyboard-response","293","373877","0.0-14.0-0.42","5fa4258658811d03fbc6ce8b","650c16f0f2faf8d7a0d14c09","651c1daa0e67b1fcb7bbb101","null","null","<p style=""font-size: 60px; font-family: BACS"">EMYKmhc</p>","","","","","","","","",""
"html-keyboard-response","294","374883","0.0-14.0-0.43","5fa4258658811d03fbc6ce8b","650c16f0f2faf8d7a0d14c09","651c1daa0e67b1fcb7bbb101","null","null","<p style=""font-size: 60px; font-family: BACS"">rvOvUravu</p>","","","","","","","","",""
"html-keyboard-response","295","375889","0.0-14.0-0.44","5fa4258658811d03fbc6ce8b","650c16f0f2faf8d7a0d14c09","651c1daa0e67b1fcb7bbb101","null","null","<p style=""font-size: 60px; font-family: BACS"">YcdOukbY</p>","","","","","","","","",""
"html-keyboard-response","296","376894","0.0-14.0-0.45","5fa4258658811d03fbc6ce8b","650c16f0f2faf8d7a0d14c09","651c1daa0e67b1fcb7bbb101","null","null","<p style=""font-size: 60px; font-family: BACS"">lRCBmAM</p>","","","","","","","","",""
"html-keyboard-response","297","377899","0.0-14.0-0.46","5fa4258658811d03fbc6ce8b","650c16f0f2faf8d7a0d14c09","651c1daa0e67b1fcb7bbb101","null","null","<p style=""font-size: 60px; font-family: BACS"">thbOMYKPB</p>","","","","","","","","",""
"html-keyboard-response","298","378904","0.0-14.0-0.47","5fa4258658811d03fbc6ce8b","650c16f0f2faf8d7a0d14c09","651c1daa0e67b1fcb7bbb101","null","null","<p style=""font-size: 60px; font-family: BACS"">GZJYukbY</p>","","","","","","","","",""
"html-keyboard-response","299","379910","0.0-14.0-0.48","5fa4258658811d03fbc6ce8b","650c16f0f2faf8d7a0d14c09","651c1daa0e67b1fcb7bbb101","null","null","<p style=""font-size: 60px; font-family: BACS"">JuamlNYZu</p>","","","","","","","","",""
"html-keyboard-response","300","380915","0.0-14.0-0.49","5fa4258658811d03fbc6ce8b","650c16f0f2faf8d7a0d14c09","651c1daa0e67b1fcb7bbb101","null","null","<p style=""font-size: 60px; font-family: BACS"">mLdkZkmU</p>","","","","","","","","",""
"html-keyboard-response","301","381921","0.0-14.0-0.50","5fa4258658811d03fbc6ce8b","650c16f0f2faf8d7a0d14c09","651c1daa0e67b1fcb7bbb101","null","null","<p style=""font-size: 60px; font-family: BACS"">GNAcaravu</p>","","","","","","","","",""
"html-keyboard-response","302","382926","0.0-14.0-0.51","5fa4258658811d03fbc6ce8b","650c16f0f2faf8d7a0d14c09","651c1daa0e67b1fcb7bbb101","null","null","<p style=""font-size: 60px; font-family: BACS"">DMRPABb</p>","","","","","","","","",""
"html-keyboard-response","303","383931","0.0-14.0-0.52","5fa4258658811d03fbc6ce8b","650c16f0f2faf8d7a0d14c09","651c1daa0e67b1fcb7bbb101","null","null","<p style=""font-size: 60px; font-family: BACS"">mLdkZravu</p>","","","","","","","","",""
"html-keyboard-response","304","384937","0.0-14.0-0.53","5fa4258658811d03fbc6ce8b","650c16f0f2faf8d7a0d14c09","651c1daa0e67b1fcb7bbb101","null","null","<p style=""font-size: 60px; font-family: BACS"">TdTDABb</p>","","","","","","","","",""
"html-keyboard-response","305","385942","0.0-14.0-0.54","5fa4258658811d03fbc6ce8b","650c16f0f2faf8d7a0d14c09","651c1daa0e67b1fcb7bbb101","null","null","<p style=""font-size: 60px; font-family: BACS"">thbOMYBO</p>","","","","","","","","",""
"html-keyboard-response","306","386947","0.0-14.0-0.55","5fa4258658811d03fbc6ce8b","650c16f0f2faf8d7a0d14c09","651c1daa0e67b1fcb7bbb101","null","null","<p style=""font-size: 60px; font-family: BACS"">DMRPYKPB</p>","","","","","","","","",""
"html-keyboard-response","307","387952","0.0-14.0-0.56","5fa4258658811d03fbc6ce8b","650c16f0f2faf8d7a0d14c09","651c1daa0e67b1fcb7bbb101","null","null","<p style=""font-size: 60px; font-family: BACS"">EMYKmAM</p>","","","","","","","","",""
"html-keyboard-response","308","388957","0.0-14.0-0.57","5fa4258658811d03fbc6ce8b","650c16f0f2faf8d7a0d14c09","651c1daa0e67b1fcb7bbb101","null","null","<p style=""font-size: 60px; font-family: BACS"">lRCBABb</p>","","","","","","","","",""
"html-keyboard-response","309","389962","0.0-14.0-0.58","5fa4258658811d03fbc6ce8b","650c16f0f2faf8d7a0d14c09","651c1daa0e67b1fcb7bbb101","null","null","<p style=""font-size: 60px; font-family: BACS"">YcdOLUOk</p>","","","","","","","","",""
"html-keyboard-response","310","390968","0.0-14.0-0.59","5fa4258658811d03fbc6ce8b","650c16f0f2faf8d7a0d14c09","651c1daa0e67b1fcb7bbb101","null","null","<p style=""font-size: 60px; font-family: BACS"">GNAcaukbY</p>","","","","","","","","",""
"html-keyboard-response","311","391973","0.0-14.0-0.60","5fa4258658811d03fbc6ce8b","650c16f0f2faf8d7a0d14c09","651c1daa0e67b1fcb7bbb101","null","null","<p style=""font-size: 60px; font-family: BACS"">EMYKYBO</p>","","","","","","","","",""
"html-keyboard-response","312","392979","0.0-14.0-0.61","5fa4258658811d03fbc6ce8b","650c16f0f2faf8d7a0d14c09","651c1daa0e67b1fcb7bbb101","null","null","<p style=""font-size: 60px; font-family: BACS"">tmAKmAM</p>","","","","","","","","",""
"html-keyboard-response","313","393984","0.0-14.0-0.62","5fa4258658811d03fbc6ce8b","650c16f0f2faf8d7a0d14c09","651c1daa0e67b1fcb7bbb101","null","null","<p style=""font-size: 60px; font-family: BACS"">McMDYKPB</p>","","","","","","","","",""
"html-keyboard-response","314","394990","0.0-14.0-0.63","5fa4258658811d03fbc6ce8b","650c16f0f2faf8d7a0d14c09","651c1daa0e67b1fcb7bbb101","null","null","<p style=""font-size: 60px; font-family: BACS"">ctktYBO</p>","","","","","","","","",""
"html-keyboard-response","315","395995","0.0-14.0-0.64","5fa4258658811d03fbc6ce8b","650c16f0f2faf8d7a0d14c09","651c1daa0e67b1fcb7bbb101","null","null","<p style=""font-size: 60px; font-family: BACS"">JrGvravu</p>","","","","","","","","",""
"html-keyboard-response","316","397001","0.0-14.0-0.65","5fa4258658811d03fbc6ce8b","650c16f0f2faf8d7a0d14c09","651c1daa0e67b1fcb7bbb101","null","null","<p style=""font-size: 60px; font-family: BACS"">DMRPmAM</p>","","","","","","","","",""
"html-keyboard-response","317","398006","0.0-14.0-0.66","5fa4258658811d03fbc6ce8b","650c16f0f2faf8d7a0d14c09","651c1daa0e67b1fcb7bbb101","null","null","<p style=""font-size: 60px; font-family: BACS"">COtBDYKPB</p>","","","","","","","","",""
"html-keyboard-response","318","399011","0.0-14.0-0.67","5fa4258658811d03fbc6ce8b","650c16f0f2faf8d7a0d14c09","651c1daa0e67b1fcb7bbb101","null","null","<p style=""font-size: 60px; font-family: BACS"">ctktABb</p>","","","","","","","","",""
"html-keyboard-response","319","400017","0.0-14.0-0.68","5fa4258658811d03fbc6ce8b","650c16f0f2faf8d7a0d14c09","651c1daa0e67b1fcb7bbb101","null","null","<p style=""font-size: 60px; font-family: BACS"">chEDOYKPB</p>","","","","","","","","",""
"html-keyboard-response","320","401022","0.0-14.0-0.69","5fa4258658811d03fbc6ce8b","650c16f0f2faf8d7a0d14c09","651c1daa0e67b1fcb7bbb101","null","null","<p style=""font-size: 60px; font-family: BACS"">rdLJakmU</p>","","","","","","","","",""
"html-keyboard-response","321","402027","0.0-14.0-0.70","5fa4258658811d03fbc6ce8b","650c16f0f2faf8d7a0d14c09","651c1daa0e67b1fcb7bbb101","null","null","<p style=""font-size: 60px; font-family: BACS"">tmAKYBO</p>","","","","","","","","",""
"html-keyboard-response","322","403033","0.0-14.0-0.71","5fa4258658811d03fbc6ce8b","650c16f0f2faf8d7a0d14c09","651c1daa0e67b1fcb7bbb101","null","null","<p style=""font-size: 60px; font-family: BACS"">dkLlNYZu</p>","","","","","","","","",""
"html-keyboard-response","323","404038","0.0-14.0-0.72","5fa4258658811d03fbc6ce8b","650c16f0f2faf8d7a0d14c09","651c1daa0e67b1fcb7bbb101","null","null","<p style=""font-size: 60px; font-family: BACS"">tmAKABb</p>","","","","","","","","",""
"html-keyboard-response","324","405043","0.0-14.0-0.73","5fa4258658811d03fbc6ce8b","650c16f0f2faf8d7a0d14c09","651c1daa0e67b1fcb7bbb101","null","null","<p style=""font-size: 60px; font-family: BACS"">rdLJaLUOk</p>","","","","","","","","",""
"html-keyboard-response","325","406049","0.0-14.0-0.74","5fa4258658811d03fbc6ce8b","650c16f0f2faf8d7a0d14c09","651c1daa0e67b1fcb7bbb101","null","null","<p style=""font-size: 60px; font-family: BACS"">Juamlravu</p>","","","","","","","","",""
"html-keyboard-response","326","407054","0.0-14.0-0.75","5fa4258658811d03fbc6ce8b","650c16f0f2faf8d7a0d14c09","651c1daa0e67b1fcb7bbb101","null","null","<p style=""font-size: 60px; font-family: BACS"">COtBDYBO</p>","","","","","","","","",""
"html-keyboard-response","327","408059","0.0-14.0-0.76","5fa4258658811d03fbc6ce8b","650c16f0f2faf8d7a0d14c09","651c1daa0e67b1fcb7bbb101","null","null","<p style=""font-size: 60px; font-family: BACS"">JuamlLUOk</p>","","","","","","","","",""
"html-keyboard-response","328","409067","0.0-14.0-0.77","5fa4258658811d03fbc6ce8b","650c16f0f2faf8d7a0d14c09","651c1daa0e67b1fcb7bbb101","null","null","<p style=""font-size: 60px; font-family: BACS"">JrGvNYZu</p>","","","","","","","","",""
"html-keyboard-response","329","410072","0.0-14.0-0.78","5fa4258658811d03fbc6ce8b","650c16f0f2faf8d7a0d14c09","651c1daa0e67b1fcb7bbb101","null","null","<p style=""font-size: 60px; font-family: BACS"">YdudukbY</p>","","","","","","","","",""
"html-keyboard-response","330","411077","0.0-14.0-0.79","5fa4258658811d03fbc6ce8b","650c16f0f2faf8d7a0d14c09","651c1daa0e67b1fcb7bbb101","null","null","<p style=""font-size: 60px; font-family: BACS"">rvOvUNYZu</p>","","","","","","","","",""
"html-keyboard-response","331","416516","0.0-15.0","5fa4258658811d03fbc6ce8b","650c16f0f2faf8d7a0d14c09","651c1daa0e67b1fcb7bbb101","5438"," ","<p>Great, you've seen the fourth block of words. You may now take a short break.</p>
      <p>Press the spacebar when you're ready to continue.</p>","","","","","","","","",""
"html-keyboard-response","332","417521","0.0-16.0-0.0","5fa4258658811d03fbc6ce8b","650c16f0f2faf8d7a0d14c09","651c1daa0e67b1fcb7bbb101","null","null","<p style=""font-size: 60px; font-family: BACS"">mLdkZNYZu</p>","","","","","","","","",""
"html-keyboard-response","333","418526","0.0-16.0-0.1","5fa4258658811d03fbc6ce8b","650c16f0f2faf8d7a0d14c09","651c1daa0e67b1fcb7bbb101","null","null","<p style=""font-size: 60px; font-family: BACS"">mLdkZNYZu</p>","","","","","","","","",""
"html-keyboard-response","334","419531","0.0-16.0-0.2","5fa4258658811d03fbc6ce8b","650c16f0f2faf8d7a0d14c09","651c1daa0e67b1fcb7bbb101","null","null","<p style=""font-size: 60px; font-family: BACS"">mLdkZNYZu</p>","","","","","","","","",""
"html-keyboard-response","335","420537","0.0-16.0-0.3","5fa4258658811d03fbc6ce8b","650c16f0f2faf8d7a0d14c09","651c1daa0e67b1fcb7bbb101","null","null","<p style=""font-size: 60px; font-family: BACS"">mLdkZNYZu</p>","","","","","","","","",""
"html-keyboard-response","336","421542","0.0-16.0-0.4","5fa4258658811d03fbc6ce8b","650c16f0f2faf8d7a0d14c09","651c1daa0e67b1fcb7bbb101","null","null","<p style=""font-size: 60px; font-family: BACS"">mLdkZNYZu</p>","","","","","","","","",""
"html-keyboard-response","337","422547","0.0-16.0-0.5","5fa4258658811d03fbc6ce8b","650c16f0f2faf8d7a0d14c09","651c1daa0e67b1fcb7bbb101","null","null","<p style=""font-size: 60px; font-family: BACS"">mLdkZNYZu</p>","","","","","","","","",""
"html-keyboard-response","338","423553","0.0-16.0-0.6","5fa4258658811d03fbc6ce8b","650c16f0f2faf8d7a0d14c09","651c1daa0e67b1fcb7bbb101","null","null","<p style=""font-size: 60px; font-family: BACS"">mLdkZNYZu</p>","","","","","","","","",""
"html-keyboard-response","339","424559","0.0-16.0-0.7","5fa4258658811d03fbc6ce8b","650c16f0f2faf8d7a0d14c09","651c1daa0e67b1fcb7bbb101","null","null","<p style=""font-size: 60px; font-family: BACS"">mLdkZNYZu</p>","","","","","","","","",""
"html-keyboard-response","340","425563","0.0-16.0-0.8","5fa4258658811d03fbc6ce8b","650c16f0f2faf8d7a0d14c09","651c1daa0e67b1fcb7bbb101","null","null","<p style=""font-size: 60px; font-family: BACS"">mLdkZNYZu</p>","","","","","","","","",""
"html-keyboard-response","341","426569","0.0-16.0-0.9","5fa4258658811d03fbc6ce8b","650c16f0f2faf8d7a0d14c09","651c1daa0e67b1fcb7bbb101","null","null","<p style=""font-size: 60px; font-family: BACS"">mLdkZNYZu</p>","","","","","","","","",""
"html-keyboard-response","342","427574","0.0-16.0-0.10","5fa4258658811d03fbc6ce8b","650c16f0f2faf8d7a0d14c09","651c1daa0e67b1fcb7bbb101","null","null","<p style=""font-size: 60px; font-family: BACS"">mLdkZNYZu</p>","","","","","","","","",""
"html-keyboard-response","343","428579","0.0-16.0-0.11","5fa4258658811d03fbc6ce8b","650c16f0f2faf8d7a0d14c09","651c1daa0e67b1fcb7bbb101","null","null","<p style=""font-size: 60px; font-family: BACS"">mLdkZNYZu</p>","","","","","","","","",""
"html-keyboard-response","344","429585","0.0-16.0-0.12","5fa4258658811d03fbc6ce8b","650c16f0f2faf8d7a0d14c09","651c1daa0e67b1fcb7bbb101","null","null","<p style=""font-size: 60px; font-family: BACS"">mLdkZNYZu</p>","","","","","","","","",""
"html-keyboard-response","345","430590","0.0-16.0-0.13","5fa4258658811d03fbc6ce8b","650c16f0f2faf8d7a0d14c09","651c1daa0e67b1fcb7bbb101","null","null","<p style=""font-size: 60px; font-family: BACS"">mLdkZNYZu</p>","","","","","","","","",""
"html-keyboard-response","346","431595","0.0-16.0-0.14","5fa4258658811d03fbc6ce8b","650c16f0f2faf8d7a0d14c09","651c1daa0e67b1fcb7bbb101","null","null","<p style=""font-size: 60px; font-family: BACS"">mLdkZNYZu</p>","","","","","","","","",""
"html-keyboard-response","347","432601","0.0-16.0-0.15","5fa4258658811d03fbc6ce8b","650c16f0f2faf8d7a0d14c09","651c1daa0e67b1fcb7bbb101","null","null","<p style=""font-size: 60px; font-family: BACS"">mLdkZNYZu</p>","","","","","","","","",""
"html-keyboard-response","348","433606","0.0-16.0-0.16","5fa4258658811d03fbc6ce8b","650c16f0f2faf8d7a0d14c09","651c1daa0e67b1fcb7bbb101","null","null","<p style=""font-size: 60px; font-family: BACS"">mLdkZNYZu</p>","","","","","","","","",""
"html-keyboard-response","349","434611","0.0-16.0-0.17","5fa4258658811d03fbc6ce8b","650c16f0f2faf8d7a0d14c09","651c1daa0e67b1fcb7bbb101","null","null","<p style=""font-size: 60px; font-family: BACS"">mLdkZNYZu</p>","","","","","","","","",""
"html-keyboard-response","350","435617","0.0-16.0-0.18","5fa4258658811d03fbc6ce8b","650c16f0f2faf8d7a0d14c09","651c1daa0e67b1fcb7bbb101","null","null","<p style=""font-size: 60px; font-family: BACS"">mLdkZNYZu</p>","","","","","","","","",""
"html-keyboard-response","351","436622","0.0-16.0-0.19","5fa4258658811d03fbc6ce8b","650c16f0f2faf8d7a0d14c09","651c1daa0e67b1fcb7bbb101","null","null","<p style=""font-size: 60px; font-family: BACS"">mLdkZNYZu</p>","","","","","","","","",""
"html-keyboard-response","352","437627","0.0-16.0-0.20","5fa4258658811d03fbc6ce8b","650c16f0f2faf8d7a0d14c09","651c1daa0e67b1fcb7bbb101","null","null","<p style=""font-size: 60px; font-family: BACS"">mLdkZNYZu</p>","","","","","","","","",""
"html-keyboard-response","353","438633","0.0-16.0-0.21","5fa4258658811d03fbc6ce8b","650c16f0f2faf8d7a0d14c09","651c1daa0e67b1fcb7bbb101","null","null","<p style=""font-size: 60px; font-family: BACS"">mLdkZNYZu</p>","","","","","","","","",""
"html-keyboard-response","354","439638","0.0-16.0-0.22","5fa4258658811d03fbc6ce8b","650c16f0f2faf8d7a0d14c09","651c1daa0e67b1fcb7bbb101","null","null","<p style=""font-size: 60px; font-family: BACS"">mLdkZNYZu</p>","","","","","","","","",""
"html-keyboard-response","355","440643","0.0-16.0-0.23","5fa4258658811d03fbc6ce8b","650c16f0f2faf8d7a0d14c09","651c1daa0e67b1fcb7bbb101","null","null","<p style=""font-size: 60px; font-family: BACS"">mLdkZNYZu</p>","","","","","","","","",""
"html-keyboard-response","356","441649","0.0-16.0-0.24","5fa4258658811d03fbc6ce8b","650c16f0f2faf8d7a0d14c09","651c1daa0e67b1fcb7bbb101","null","null","<p style=""font-size: 60px; font-family: BACS"">mLdkZNYZu</p>","","","","","","","","",""
"html-keyboard-response","357","442654","0.0-16.0-0.25","5fa4258658811d03fbc6ce8b","650c16f0f2faf8d7a0d14c09","651c1daa0e67b1fcb7bbb101","null","null","<p style=""font-size: 60px; font-family: BACS"">mLdkZNYZu</p>","","","","","","","","",""
"html-keyboard-response","358","443659","0.0-16.0-0.26","5fa4258658811d03fbc6ce8b","650c16f0f2faf8d7a0d14c09","651c1daa0e67b1fcb7bbb101","null","null","<p style=""font-size: 60px; font-family: BACS"">mLdkZNYZu</p>","","","","","","","","",""
"html-keyboard-response","359","444665","0.0-16.0-0.27","5fa4258658811d03fbc6ce8b","650c16f0f2faf8d7a0d14c09","651c1daa0e67b1fcb7bbb101","null","null","<p style=""font-size: 60px; font-family: BACS"">mLdkZNYZu</p>","","","","","","","","",""
"html-keyboard-response","360","445670","0.0-16.0-0.28","5fa4258658811d03fbc6ce8b","650c16f0f2faf8d7a0d14c09","651c1daa0e67b1fcb7bbb101","null","null","<p style=""font-size: 60px; font-family: BACS"">mLdkZNYZu</p>","","","","","","","","",""
"html-keyboard-response","361","446675","0.0-16.0-0.29","5fa4258658811d03fbc6ce8b","650c16f0f2faf8d7a0d14c09","651c1daa0e67b1fcb7bbb101","null","null","<p style=""font-size: 60px; font-family: BACS"">mLdkZNYZu</p>","","","","","","","","",""
"html-keyboard-response","362","447681","0.0-16.0-0.30","5fa4258658811d03fbc6ce8b","650c16f0f2faf8d7a0d14c09","651c1daa0e67b1fcb7bbb101","null","null","<p style=""font-size: 60px; font-family: BACS"">mLdkZNYZu</p>","","","","","","","","",""
"html-keyboard-response","363","448686","0.0-16.0-0.31","5fa4258658811d03fbc6ce8b","650c16f0f2faf8d7a0d14c09","651c1daa0e67b1fcb7bbb101","null","null","<p style=""font-size: 60px; font-family: BACS"">mLdkZNYZu</p>","","","","","","","","",""
"html-keyboard-response","364","449690","0.0-16.0-0.32","5fa4258658811d03fbc6ce8b","650c16f0f2faf8d7a0d14c09","651c1daa0e67b1fcb7bbb101","null","null","<p style=""font-size: 60px; font-family: BACS"">mLdkZNYZu</p>","","","","","","","","",""
"html-keyboard-response","365","450694","0.0-16.0-0.33","5fa4258658811d03fbc6ce8b","650c16f0f2faf8d7a0d14c09","651c1daa0e67b1fcb7bbb101","null","null","<p style=""font-size: 60px; font-family: BACS"">mLdkZNYZu</p>","","","","","","","","",""
"html-keyboard-response","366","451699","0.0-16.0-0.34","5fa4258658811d03fbc6ce8b","650c16f0f2faf8d7a0d14c09","651c1daa0e67b1fcb7bbb101","null","null","<p style=""font-size: 60px; font-family: BACS"">mLdkZNYZu</p>","","","","","","","","",""
"html-keyboard-response","367","452705","0.0-16.0-0.35","5fa4258658811d03fbc6ce8b","650c16f0f2faf8d7a0d14c09","651c1daa0e67b1fcb7bbb101","null","null","<p style=""font-size: 60px; font-family: BACS"">mLdkZNYZu</p>","","","","","","","","",""
"html-keyboard-response","368","453710","0.0-16.0-0.36","5fa4258658811d03fbc6ce8b","650c16f0f2faf8d7a0d14c09","651c1daa0e67b1fcb7bbb101","null","null","<p style=""font-size: 60px; font-family: BACS"">mLdkZNYZu</p>","","","","","","","","",""
"html-keyboard-response","369","454715","0.0-16.0-0.37","5fa4258658811d03fbc6ce8b","650c16f0f2faf8d7a0d14c09","651c1daa0e67b1fcb7bbb101","null","null","<p style=""font-size: 60px; font-family: BACS"">mLdkZNYZu</p>","","","","","","","","",""
"html-keyboard-response","370","455721","0.0-16.0-0.38","5fa4258658811d03fbc6ce8b","650c16f0f2faf8d7a0d14c09","651c1daa0e67b1fcb7bbb101","null","null","<p style=""font-size: 60px; font-family: BACS"">mLdkZNYZu</p>","","","","","","","","",""
"html-keyboard-response","371","456726","0.0-16.0-0.39","5fa4258658811d03fbc6ce8b","650c16f0f2faf8d7a0d14c09","651c1daa0e67b1fcb7bbb101","null","null","<p style=""font-size: 60px; font-family: BACS"">mLdkZNYZu</p>","","","","","","","","",""
"html-keyboard-response","372","457731","0.0-16.0-0.40","5fa4258658811d03fbc6ce8b","650c16f0f2faf8d7a0d14c09","651c1daa0e67b1fcb7bbb101","null","null","<p style=""font-size: 60px; font-family: BACS"">mLdkZNYZu</p>","","","","","","","","",""
"html-keyboard-response","373","458737","0.0-16.0-0.41","5fa4258658811d03fbc6ce8b","650c16f0f2faf8d7a0d14c09","651c1daa0e67b1fcb7bbb101","null","null","<p style=""font-size: 60px; font-family: BACS"">mLdkZNYZu</p>","","","","","","","","",""
"html-keyboard-response","374","459742","0.0-16.0-0.42","5fa4258658811d03fbc6ce8b","650c16f0f2faf8d7a0d14c09","651c1daa0e67b1fcb7bbb101","null","null","<p style=""font-size: 60px; font-family: BACS"">mLdkZNYZu</p>","","","","","","","","",""
"html-keyboard-response","375","460747","0.0-16.0-0.43","5fa4258658811d03fbc6ce8b","650c16f0f2faf8d7a0d14c09","651c1daa0e67b1fcb7bbb101","null","null","<p style=""font-size: 60px; font-family: BACS"">mLdkZNYZu</p>","","","","","","","","",""
"html-keyboard-response","376","461753","0.0-16.0-0.44","5fa4258658811d03fbc6ce8b","650c16f0f2faf8d7a0d14c09","651c1daa0e67b1fcb7bbb101","null","null","<p style=""font-size: 60px; font-family: BACS"">mLdkZNYZu</p>","","","","","","","","",""
"html-keyboard-response","377","462758","0.0-16.0-0.45","5fa4258658811d03fbc6ce8b","650c16f0f2faf8d7a0d14c09","651c1daa0e67b1fcb7bbb101","null","null","<p style=""font-size: 60px; font-family: BACS"">mLdkZNYZu</p>","","","","","","","","",""
"html-keyboard-response","378","463763","0.0-16.0-0.46","5fa4258658811d03fbc6ce8b","650c16f0f2faf8d7a0d14c09","651c1daa0e67b1fcb7bbb101","null","null","<p style=""font-size: 60px; font-family: BACS"">mLdkZNYZu</p>","","","","","","","","",""
"html-keyboard-response","379","464769","0.0-16.0-0.47","5fa4258658811d03fbc6ce8b","650c16f0f2faf8d7a0d14c09","651c1daa0e67b1fcb7bbb101","null","null","<p style=""font-size: 60px; font-family: BACS"">mLdkZNYZu</p>","","","","","","","","",""
"html-keyboard-response","380","465774","0.0-16.0-0.48","5fa4258658811d03fbc6ce8b","650c16f0f2faf8d7a0d14c09","651c1daa0e67b1fcb7bbb101","null","null","<p style=""font-size: 60px; font-family: BACS"">mLdkZNYZu</p>","","","","","","","","",""
"html-keyboard-response","381","466779","0.0-16.0-0.49","5fa4258658811d03fbc6ce8b","650c16f0f2faf8d7a0d14c09","651c1daa0e67b1fcb7bbb101","null","null","<p style=""font-size: 60px; font-family: BACS"">mLdkZNYZu</p>","","","","","","","","",""
"html-keyboard-response","382","467785","0.0-16.0-0.50","5fa4258658811d03fbc6ce8b","650c16f0f2faf8d7a0d14c09","651c1daa0e67b1fcb7bbb101","null","null","<p style=""font-size: 60px; font-family: BACS"">mLdkZNYZu</p>","","","","","","","","",""
"html-keyboard-response","383","468791","0.0-16.0-0.51","5fa4258658811d03fbc6ce8b","650c16f0f2faf8d7a0d14c09","651c1daa0e67b1fcb7bbb101","null","null","<p style=""font-size: 60px; font-family: BACS"">mLdkZNYZu</p>","","","","","","","","",""
"html-keyboard-response","384","469798","0.0-16.0-0.52","5fa4258658811d03fbc6ce8b","650c16f0f2faf8d7a0d14c09","651c1daa0e67b1fcb7bbb101","null","null","<p style=""font-size: 60px; font-family: BACS"">mLdkZNYZu</p>","","","","","","","","",""
"html-keyboard-response","385","470803","0.0-16.0-0.53","5fa4258658811d03fbc6ce8b","650c16f0f2faf8d7a0d14c09","651c1daa0e67b1fcb7bbb101","null","null","<p style=""font-size: 60px; font-family: BACS"">mLdkZNYZu</p>","","","","","","","","",""
"html-keyboard-response","386","471809","0.0-16.0-0.54","5fa4258658811d03fbc6ce8b","650c16f0f2faf8d7a0d14c09","651c1daa0e67b1fcb7bbb101","null","null","<p style=""font-size: 60px; font-family: BACS"">mLdkZNYZu</p>","","","","","","","","",""
"html-keyboard-response","387","472814","0.0-16.0-0.55","5fa4258658811d03fbc6ce8b","650c16f0f2faf8d7a0d14c09","651c1daa0e67b1fcb7bbb101","null","null","<p style=""font-size: 60px; font-family: BACS"">mLdkZNYZu</p>","","","","","","","","",""
"html-keyboard-response","388","473819","0.0-16.0-0.56","5fa4258658811d03fbc6ce8b","650c16f0f2faf8d7a0d14c09","651c1daa0e67b1fcb7bbb101","null","null","<p style=""font-size: 60px; font-family: BACS"">mLdkZNYZu</p>","","","","","","","","",""
"html-keyboard-response","389","474825","0.0-16.0-0.57","5fa4258658811d03fbc6ce8b","650c16f0f2faf8d7a0d14c09","651c1daa0e67b1fcb7bbb101","null","null","<p style=""font-size: 60px; font-family: BACS"">mLdkZNYZu</p>","","","","","","","","",""
"html-keyboard-response","390","475830","0.0-16.0-0.58","5fa4258658811d03fbc6ce8b","650c16f0f2faf8d7a0d14c09","651c1daa0e67b1fcb7bbb101","null","null","<p style=""font-size: 60px; font-family: BACS"">mLdkZNYZu</p>","","","","","","","","",""
"html-keyboard-response","391","476835","0.0-16.0-0.59","5fa4258658811d03fbc6ce8b","650c16f0f2faf8d7a0d14c09","651c1daa0e67b1fcb7bbb101","null","null","<p style=""font-size: 60px; font-family: BACS"">mLdkZNYZu</p>","","","","","","","","",""
"html-keyboard-response","392","477840","0.0-16.0-0.60","5fa4258658811d03fbc6ce8b","650c16f0f2faf8d7a0d14c09","651c1daa0e67b1fcb7bbb101","null","null","<p style=""font-size: 60px; font-family: BACS"">mLdkZNYZu</p>","","","","","","","","",""
"html-keyboard-response","393","478846","0.0-16.0-0.61","5fa4258658811d03fbc6ce8b","650c16f0f2faf8d7a0d14c09","651c1daa0e67b1fcb7bbb101","null","null","<p style=""font-size: 60px; font-family: BACS"">mLdkZNYZu</p>","","","","","","","","",""
"html-keyboard-response","394","479850","0.0-16.0-0.62","5fa4258658811d03fbc6ce8b","650c16f0f2faf8d7a0d14c09","651c1daa0e67b1fcb7bbb101","null","null","<p style=""font-size: 60px; font-family: BACS"">mLdkZNYZu</p>","","","","","","","","",""
"html-keyboard-response","395","480856","0.0-16.0-0.63","5fa4258658811d03fbc6ce8b","650c16f0f2faf8d7a0d14c09","651c1daa0e67b1fcb7bbb101","null","null","<p style=""font-size: 60px; font-family: BACS"">mLdkZNYZu</p>","","","","","","","","",""
"html-keyboard-response","396","481861","0.0-16.0-0.64","5fa4258658811d03fbc6ce8b","650c16f0f2faf8d7a0d14c09","651c1daa0e67b1fcb7bbb101","null","null","<p style=""font-size: 60px; font-family: BACS"">mLdkZNYZu</p>","","","","","","","","",""
"html-keyboard-response","397","482865","0.0-16.0-0.65","5fa4258658811d03fbc6ce8b","650c16f0f2faf8d7a0d14c09","651c1daa0e67b1fcb7bbb101","null","null","<p style=""font-size: 60px; font-family: BACS"">mLdkZNYZu</p>","","","","","","","","",""
"html-keyboard-response","398","483870","0.0-16.0-0.66","5fa4258658811d03fbc6ce8b","650c16f0f2faf8d7a0d14c09","651c1daa0e67b1fcb7bbb101","null","null","<p style=""font-size: 60px; font-family: BACS"">mLdkZNYZu</p>","","","","","","","","",""
"html-keyboard-response","399","484875","0.0-16.0-0.67","5fa4258658811d03fbc6ce8b","650c16f0f2faf8d7a0d14c09","651c1daa0e67b1fcb7bbb101","null","null","<p style=""font-size: 60px; font-family: BACS"">mLdkZNYZu</p>","","","","","","","","",""
