"trial_type","trial_index","time_elapsed","internal_node_id","subject_id","study_id","session_id","rt","response","stimulus","success","item","task","correct_response","testing_condition","correct","target","confound","name"
"pavlovia","0","1379","0.0-0.0","5e3ff59bf2160b23942ada93","650c16f0f2faf8d7a0d14c09","651c0a37f893ceabafc0018c","","","","","","","","","","","",""
"survey-html-form","1","4386","0.0-1.0","5e3ff59bf2160b23942ada93","650c16f0f2faf8d7a0d14c09","651c0a37f893ceabafc0018c","3005","{""ID"":""5e3ff59bf2160b23942ada93""}","","","","","","","","","",""
"html-keyboard-response","2","11528","0.0-2.0","5e3ff59bf2160b23942ada93","650c16f0f2faf8d7a0d14c09","651c0a37f893ceabafc0018c","7140"," ","<p style=""font-size: 15px;"">Before beginning, we ask that you read the consent information and confirm your agreement to participate in the experiment.</p>
      <p style=""font-size: 15px;""> We ask that you remember that this is a research project and that your participation is entirely voluntary. You can stop your participation at any time, without needing to provide any explanation. The study we're asking you to participate in aims at examining how readers process written words. You will be engaged in a session of apprximately 20 minutes, followed by a brief questionnaire. You will have the opportunity to take a few breaks during the experiment. You will be paid £4 for your participation, corresponding to a rate of £8/hour. While this experiment looks at cognitive faculties, this experiment doesn't constitute clinical proof of eventual pathologies.</p>
      <p style=""font-size: 15px;"">All of the information collected thanks to yours and others' participation will be held in a secure password-protected server, and will not be shared with anyone not authorised to view it. Your personal information will be kept with an arbitrary participant ID. Thanks to this data anonymity process, any researcher analysing the data won't be able to track the information back to a specific participant. Therefore, this process will make identifying you impossibile, even when results from the study will be published in scientific reviews, presented at congresses, or at any other public forum. More generally, the collected data will be treated in accordance with the laws on privacy and conformity to the Legislative Degree n. 196 ""Code regarding the protection of personal data"" of the 30th of June 2003 and to the European Regulation 2016/670 (General Data Protection Regulation - GDPR). The Data Protection Officer is Avv. Valentina Carollo, who can be contacted at the following email addresses: <a href=""mailto:dpo@sissa.it"">dpo@sissa.it</a> or <a href=""mailto:rpd@sissa.it"">rpd@sissa.it</a> - PEC: <a href=""mailto:protocollo@pec.sissa.it"">protocollo@pec.sissa.it</a>.</p>
      <p style=""font-size: 15px;""> Before expressing your consent to participate, we would like to remind you again that in case you need explanations on any aspect of the experimental procedure, the researcher is at your disposition (<a href=""mailto:aliebelt@sissa.it"">aliebelt@sissa.it</a>, <a href=""mailto:davide.crepaldi@sissa.it"">davide.crepaldi@sissa.it</a>).</p>
      <p style=""font-size: 15px;"">If you would like to download the informed consent form, you can do so here: <a href=""BASL-Informed_Consent.pdf"" download>informed consent form</a>.</p>
      <p style=""font-size: 15px;"">We ask that you press the spacebar to proceed to the consent section.</p>","","","","","","","","",""
"survey-html-form","3","24634","0.0-3.0","5e3ff59bf2160b23942ada93","650c16f0f2faf8d7a0d14c09","651c0a37f893ceabafc0018c","13104","{""consent1"":""YES"",""consent2"":""YES"",""consent3"":""YES"",""consent4"":""YES"",""consent5"":""YES"",""consent6"":""YES""}","","","","","","","","","",""
"fullscreen","4","31384","0.0-4.0","5e3ff59bf2160b23942ada93","650c16f0f2faf8d7a0d14c09","651c0a37f893ceabafc0018c","","","","true","","","","","","","",""
"html-keyboard-response","5","42778","0.0-5.0","5e3ff59bf2160b23942ada93","650c16f0f2faf8d7a0d14c09","651c0a37f893ceabafc0018c","11391"," ","<p>Welcome, and thank you very much for your time!</p>
      <p>In this experiment, you'll be a language expert who's been asked to take a look at words that Earth has received in its first communication with aliens. Your task, in this first part of the experiment, is to pay close attention to the words you'll be shown; later, world leaders will ask you questions on what you saw. The words will be shown to you quite quickly; it seems that the aliens were in a hurry :-)</p>
      <p>Press the spacebar to continue.<p>","","","","","","","","",""
"html-keyboard-response","6","42832","0.0-6.0","5e3ff59bf2160b23942ada93","650c16f0f2faf8d7a0d14c09","651c0a37f893ceabafc0018c","null","null","<p style=""font-size: 120px; font-family: BACS""> </p>","","","","","","","","",""
"html-keyboard-response","7","49773","0.0-7.0","5e3ff59bf2160b23942ada93","650c16f0f2faf8d7a0d14c09","651c0a37f893ceabafc0018c","6940"," ","<p>Here is an example of the words you'll see:</p>
      <img src='esempio.png' height='400px'>
      <p>When you're ready to begin, press the spacebar.</p></div>","","","","","","","","",""
"html-keyboard-response","8","50776","0.0-8.0-0.0","5e3ff59bf2160b23942ada93","650c16f0f2faf8d7a0d14c09","651c0a37f893ceabafc0018c","null","null","<p style=""font-size: 60px; font-family: BACS"">hAROKbTE</p>","","","","","","","","",""
"html-keyboard-response","9","51780","0.0-8.0-0.1","5e3ff59bf2160b23942ada93","650c16f0f2faf8d7a0d14c09","651c0a37f893ceabafc0018c","null","null","<p style=""font-size: 60px; font-family: BACS"">NaJbcbm</p>","","","","","","","","",""
"html-keyboard-response","10","52784","0.0-8.0-0.2","5e3ff59bf2160b23942ada93","650c16f0f2faf8d7a0d14c09","651c0a37f893ceabafc0018c","null","null","<p style=""font-size: 60px; font-family: BACS"">bRABtRCdc</p>","","","","","","","","",""
"html-keyboard-response","11","53787","0.0-8.0-0.3","5e3ff59bf2160b23942ada93","650c16f0f2faf8d7a0d14c09","651c0a37f893ceabafc0018c","null","null","<p style=""font-size: 60px; font-family: BACS"">aUZAGQYQ</p>","","","","","","","","",""
"html-keyboard-response","12","54792","0.0-8.0-0.4","5e3ff59bf2160b23942ada93","650c16f0f2faf8d7a0d14c09","651c0a37f893ceabafc0018c","null","null","<p style=""font-size: 60px; font-family: BACS"">GJZmYkZ</p>","","","","","","","","",""
"html-keyboard-response","13","55795","0.0-8.0-0.5","5e3ff59bf2160b23942ada93","650c16f0f2faf8d7a0d14c09","651c0a37f893ceabafc0018c","null","null","<p style=""font-size: 60px; font-family: BACS"">hAROKRCdc</p>","","","","","","","","",""
"html-keyboard-response","14","56800","0.0-8.0-0.6","5e3ff59bf2160b23942ada93","650c16f0f2faf8d7a0d14c09","651c0a37f893ceabafc0018c","null","null","<p style=""font-size: 60px; font-family: BACS"">LckGNGQYQ</p>","","","","","","","","",""
"html-keyboard-response","15","57805","0.0-8.0-0.7","5e3ff59bf2160b23942ada93","650c16f0f2faf8d7a0d14c09","651c0a37f893ceabafc0018c","null","null","<p style=""font-size: 60px; font-family: BACS"">aYQmaQr</p>","","","","","","","","",""
"html-keyboard-response","16","58808","0.0-8.0-0.8","5e3ff59bf2160b23942ada93","650c16f0f2faf8d7a0d14c09","651c0a37f893ceabafc0018c","null","null","<p style=""font-size: 60px; font-family: BACS"">aUZAdYAJ</p>","","","","","","","","",""
"html-keyboard-response","17","59812","0.0-8.0-0.9","5e3ff59bf2160b23942ada93","650c16f0f2faf8d7a0d14c09","651c0a37f893ceabafc0018c","null","null","<p style=""font-size: 60px; font-family: BACS"">lCbcmbTE</p>","","","","","","","","",""
"html-keyboard-response","18","60816","0.0-8.0-0.10","5e3ff59bf2160b23942ada93","650c16f0f2faf8d7a0d14c09","651c0a37f893ceabafc0018c","null","null","<p style=""font-size: 60px; font-family: BACS"">tRPDOPE</p>","","","","","","","","",""
"html-keyboard-response","19","61820","0.0-8.0-0.11","5e3ff59bf2160b23942ada93","650c16f0f2faf8d7a0d14c09","651c0a37f893ceabafc0018c","null","null","<p style=""font-size: 60px; font-family: BACS"">lBlERCdc</p>","","","","","","","","",""
"html-keyboard-response","20","62824","0.0-8.0-0.12","5e3ff59bf2160b23942ada93","650c16f0f2faf8d7a0d14c09","651c0a37f893ceabafc0018c","null","null","<p style=""font-size: 60px; font-family: BACS"">NQZvaQr</p>","","","","","","","","",""
"html-keyboard-response","21","63828","0.0-8.0-0.13","5e3ff59bf2160b23942ada93","650c16f0f2faf8d7a0d14c09","651c0a37f893ceabafc0018c","null","null","<p style=""font-size: 60px; font-family: BACS"">CRdBdOPE</p>","","","","","","","","",""
"html-keyboard-response","22","64831","0.0-8.0-0.14","5e3ff59bf2160b23942ada93","650c16f0f2faf8d7a0d14c09","651c0a37f893ceabafc0018c","null","null","<p style=""font-size: 60px; font-family: BACS"">mcOJYkZ</p>","","","","","","","","",""
"html-keyboard-response","23","65836","0.0-8.0-0.15","5e3ff59bf2160b23942ada93","650c16f0f2faf8d7a0d14c09","651c0a37f893ceabafc0018c","null","null","<p style=""font-size: 60px; font-family: BACS"">lCbcmOPE</p>","","","","","","","","",""
"html-keyboard-response","24","66840","0.0-8.0-0.16","5e3ff59bf2160b23942ada93","650c16f0f2faf8d7a0d14c09","651c0a37f893ceabafc0018c","null","null","<p style=""font-size: 60px; font-family: BACS"">krUQdYAJ</p>","","","","","","","","",""
"html-keyboard-response","25","67845","0.0-8.0-0.17","5e3ff59bf2160b23942ada93","650c16f0f2faf8d7a0d14c09","651c0a37f893ceabafc0018c","null","null","<p style=""font-size: 60px; font-family: BACS"">TEBKbTE</p>","","","","","","","","",""
"html-keyboard-response","26","68848","0.0-8.0-0.18","5e3ff59bf2160b23942ada93","650c16f0f2faf8d7a0d14c09","651c0a37f893ceabafc0018c","null","null","<p style=""font-size: 60px; font-family: BACS"">UAcduGQYQ</p>","","","","","","","","",""
"html-keyboard-response","27","69853","0.0-8.0-0.19","5e3ff59bf2160b23942ada93","650c16f0f2faf8d7a0d14c09","651c0a37f893ceabafc0018c","null","null","<p style=""font-size: 60px; font-family: BACS"">DCmhOPE</p>","","","","","","","","",""
"html-keyboard-response","28","70856","0.0-8.0-0.20","5e3ff59bf2160b23942ada93","650c16f0f2faf8d7a0d14c09","651c0a37f893ceabafc0018c","null","null","<p style=""font-size: 60px; font-family: BACS"">aYQmdYAJ</p>","","","","","","","","",""
"html-keyboard-response","29","71859","0.0-8.0-0.21","5e3ff59bf2160b23942ada93","650c16f0f2faf8d7a0d14c09","651c0a37f893ceabafc0018c","null","null","<p style=""font-size: 60px; font-family: BACS"">bRABtOYK</p>","","","","","","","","",""
"html-keyboard-response","30","72864","0.0-8.0-0.22","5e3ff59bf2160b23942ada93","650c16f0f2faf8d7a0d14c09","651c0a37f893ceabafc0018c","null","null","<p style=""font-size: 60px; font-family: BACS"">aUZAaQr</p>","","","","","","","","",""
"html-keyboard-response","31","73867","0.0-8.0-0.23","5e3ff59bf2160b23942ada93","650c16f0f2faf8d7a0d14c09","651c0a37f893ceabafc0018c","null","null","<p style=""font-size: 60px; font-family: BACS"">DCmhOYK</p>","","","","","","","","",""
"html-keyboard-response","32","74873","0.0-8.0-0.24","5e3ff59bf2160b23942ada93","650c16f0f2faf8d7a0d14c09","651c0a37f893ceabafc0018c","null","null","<p style=""font-size: 60px; font-family: BACS"">lCbcmPMd</p>","","","","","","","","",""
"html-keyboard-response","33","75876","0.0-8.0-0.25","5e3ff59bf2160b23942ada93","650c16f0f2faf8d7a0d14c09","651c0a37f893ceabafc0018c","null","null","<p style=""font-size: 60px; font-family: BACS"">mcOJaQr</p>","","","","","","","","",""
"html-keyboard-response","34","76880","0.0-8.0-0.26","5e3ff59bf2160b23942ada93","650c16f0f2faf8d7a0d14c09","651c0a37f893ceabafc0018c","null","null","<p style=""font-size: 60px; font-family: BACS"">bRABtPMd</p>","","","","","","","","",""
"html-keyboard-response","35","77885","0.0-8.0-0.27","5e3ff59bf2160b23942ada93","650c16f0f2faf8d7a0d14c09","651c0a37f893ceabafc0018c","null","null","<p style=""font-size: 60px; font-family: BACS"">lBlEOPE</p>","","","","","","","","",""
"html-keyboard-response","36","78888","0.0-8.0-0.28","5e3ff59bf2160b23942ada93","650c16f0f2faf8d7a0d14c09","651c0a37f893ceabafc0018c","null","null","<p style=""font-size: 60px; font-family: BACS"">bvuZYkZ</p>","","","","","","","","",""
"html-keyboard-response","37","79892","0.0-8.0-0.29","5e3ff59bf2160b23942ada93","650c16f0f2faf8d7a0d14c09","651c0a37f893ceabafc0018c","null","null","<p style=""font-size: 60px; font-family: BACS"">TEBKOYK</p>","","","","","","","","",""
"html-keyboard-response","38","80896","0.0-8.0-0.30","5e3ff59bf2160b23942ada93","650c16f0f2faf8d7a0d14c09","651c0a37f893ceabafc0018c","null","null","<p style=""font-size: 60px; font-family: BACS"">aYQmGQYQ</p>","","","","","","","","",""
"html-keyboard-response","39","81899","0.0-8.0-0.31","5e3ff59bf2160b23942ada93","650c16f0f2faf8d7a0d14c09","651c0a37f893ceabafc0018c","null","null","<p style=""font-size: 60px; font-family: BACS"">bvuZaQr</p>","","","","","","","","",""
"html-keyboard-response","40","82904","0.0-8.0-0.32","5e3ff59bf2160b23942ada93","650c16f0f2faf8d7a0d14c09","651c0a37f893ceabafc0018c","null","null","<p style=""font-size: 60px; font-family: BACS"">krUQGQYQ</p>","","","","","","","","",""
"html-keyboard-response","41","83907","0.0-8.0-0.33","5e3ff59bf2160b23942ada93","650c16f0f2faf8d7a0d14c09","651c0a37f893ceabafc0018c","null","null","<p style=""font-size: 60px; font-family: BACS"">lBlEPMd</p>","","","","","","","","",""
"html-keyboard-response","42","84912","0.0-8.0-0.34","5e3ff59bf2160b23942ada93","650c16f0f2faf8d7a0d14c09","651c0a37f893ceabafc0018c","null","null","<p style=""font-size: 60px; font-family: BACS"">mcOJdYAJ</p>","","","","","","","","",""
"html-keyboard-response","43","85915","0.0-8.0-0.35","5e3ff59bf2160b23942ada93","650c16f0f2faf8d7a0d14c09","651c0a37f893ceabafc0018c","null","null","<p style=""font-size: 60px; font-family: BACS"">aUZAcbm</p>","","","","","","","","",""
"html-keyboard-response","44","86919","0.0-8.0-0.36","5e3ff59bf2160b23942ada93","650c16f0f2faf8d7a0d14c09","651c0a37f893ceabafc0018c","null","null","<p style=""font-size: 60px; font-family: BACS"">NaJbYkZ</p>","","","","","","","","",""
"html-keyboard-response","45","87924","0.0-8.0-0.37","5e3ff59bf2160b23942ada93","650c16f0f2faf8d7a0d14c09","651c0a37f893ceabafc0018c","null","null","<p style=""font-size: 60px; font-family: BACS"">kPkRAOYK</p>","","","","","","","","",""
"html-keyboard-response","46","88927","0.0-8.0-0.38","5e3ff59bf2160b23942ada93","650c16f0f2faf8d7a0d14c09","651c0a37f893ceabafc0018c","null","null","<p style=""font-size: 60px; font-family: BACS"">LckGNYkZ</p>","","","","","","","","",""
"html-keyboard-response","47","89931","0.0-8.0-0.39","5e3ff59bf2160b23942ada93","650c16f0f2faf8d7a0d14c09","651c0a37f893ceabafc0018c","null","null","<p style=""font-size: 60px; font-family: BACS"">GJZmdYAJ</p>","","","","","","","","",""
"html-keyboard-response","48","90936","0.0-8.0-0.40","5e3ff59bf2160b23942ada93","650c16f0f2faf8d7a0d14c09","651c0a37f893ceabafc0018c","null","null","<p style=""font-size: 60px; font-family: BACS"">NaJbaQr</p>","","","","","","","","",""
"html-keyboard-response","49","91939","0.0-8.0-0.41","5e3ff59bf2160b23942ada93","650c16f0f2faf8d7a0d14c09","651c0a37f893ceabafc0018c","null","null","<p style=""font-size: 60px; font-family: BACS"">GJZmGQYQ</p>","","","","","","","","",""
"html-keyboard-response","50","92944","0.0-8.0-0.42","5e3ff59bf2160b23942ada93","650c16f0f2faf8d7a0d14c09","651c0a37f893ceabafc0018c","null","null","<p style=""font-size: 60px; font-family: BACS"">tmAKbTE</p>","","","","","","","","",""
"html-keyboard-response","51","93948","0.0-8.0-0.43","5e3ff59bf2160b23942ada93","650c16f0f2faf8d7a0d14c09","651c0a37f893ceabafc0018c","null","null","<p style=""font-size: 60px; font-family: BACS"">GJZmcbm</p>","","","","","","","","",""
"html-keyboard-response","52","94951","0.0-8.0-0.44","5e3ff59bf2160b23942ada93","650c16f0f2faf8d7a0d14c09","651c0a37f893ceabafc0018c","null","null","<p style=""font-size: 60px; font-family: BACS"">tRPDRCdc</p>","","","","","","","","",""
"html-keyboard-response","53","95956","0.0-8.0-0.45","5e3ff59bf2160b23942ada93","650c16f0f2faf8d7a0d14c09","651c0a37f893ceabafc0018c","null","null","<p style=""font-size: 60px; font-family: BACS"">hAROKOPE</p>","","","","","","","","",""
"html-keyboard-response","54","96960","0.0-8.0-0.46","5e3ff59bf2160b23942ada93","650c16f0f2faf8d7a0d14c09","651c0a37f893ceabafc0018c","null","null","<p style=""font-size: 60px; font-family: BACS"">aYQmcbm</p>","","","","","","","","",""
"html-keyboard-response","55","97964","0.0-8.0-0.47","5e3ff59bf2160b23942ada93","650c16f0f2faf8d7a0d14c09","651c0a37f893ceabafc0018c","null","null","<p style=""font-size: 60px; font-family: BACS"">tRPDbTE</p>","","","","","","","","",""
"html-keyboard-response","56","98967","0.0-8.0-0.48","5e3ff59bf2160b23942ada93","650c16f0f2faf8d7a0d14c09","651c0a37f893ceabafc0018c","null","null","<p style=""font-size: 60px; font-family: BACS"">bvuZdYAJ</p>","","","","","","","","",""
"html-keyboard-response","57","99971","0.0-8.0-0.49","5e3ff59bf2160b23942ada93","650c16f0f2faf8d7a0d14c09","651c0a37f893ceabafc0018c","null","null","<p style=""font-size: 60px; font-family: BACS"">tmAKRCdc</p>","","","","","","","","",""
"html-keyboard-response","58","100976","0.0-8.0-0.50","5e3ff59bf2160b23942ada93","650c16f0f2faf8d7a0d14c09","651c0a37f893ceabafc0018c","null","null","<p style=""font-size: 60px; font-family: BACS"">hAROKOYK</p>","","","","","","","","",""
"html-keyboard-response","59","101979","0.0-8.0-0.51","5e3ff59bf2160b23942ada93","650c16f0f2faf8d7a0d14c09","651c0a37f893ceabafc0018c","null","null","<p style=""font-size: 60px; font-family: BACS"">CRdBdbTE</p>","","","","","","","","",""
"html-keyboard-response","60","102984","0.0-8.0-0.52","5e3ff59bf2160b23942ada93","650c16f0f2faf8d7a0d14c09","651c0a37f893ceabafc0018c","null","null","<p style=""font-size: 60px; font-family: BACS"">tmAKOPE</p>","","","","","","","","",""
"html-keyboard-response","61","103988","0.0-8.0-0.53","5e3ff59bf2160b23942ada93","650c16f0f2faf8d7a0d14c09","651c0a37f893ceabafc0018c","null","null","<p style=""font-size: 60px; font-family: BACS"">lBlEOYK</p>","","","","","","","","",""
"html-keyboard-response","62","104992","0.0-8.0-0.54","5e3ff59bf2160b23942ada93","650c16f0f2faf8d7a0d14c09","651c0a37f893ceabafc0018c","null","null","<p style=""font-size: 60px; font-family: BACS"">bRABtbTE</p>","","","","","","","","",""
"html-keyboard-response","63","105996","0.0-8.0-0.55","5e3ff59bf2160b23942ada93","650c16f0f2faf8d7a0d14c09","651c0a37f893ceabafc0018c","null","null","<p style=""font-size: 60px; font-family: BACS"">UAcdudYAJ</p>","","","","","","","","",""
"html-keyboard-response","64","107000","0.0-8.0-0.56","5e3ff59bf2160b23942ada93","650c16f0f2faf8d7a0d14c09","651c0a37f893ceabafc0018c","null","null","<p style=""font-size: 60px; font-family: BACS"">kPkRAOPE</p>","","","","","","","","",""
"html-keyboard-response","65","108004","0.0-8.0-0.57","5e3ff59bf2160b23942ada93","650c16f0f2faf8d7a0d14c09","651c0a37f893ceabafc0018c","null","null","<p style=""font-size: 60px; font-family: BACS"">CRdBdRCdc</p>","","","","","","","","",""
"html-keyboard-response","66","109008","0.0-8.0-0.58","5e3ff59bf2160b23942ada93","650c16f0f2faf8d7a0d14c09","651c0a37f893ceabafc0018c","null","null","<p style=""font-size: 60px; font-family: BACS"">DCmhPMd</p>","","","","","","","","",""
"html-keyboard-response","67","110011","0.0-8.0-0.59","5e3ff59bf2160b23942ada93","650c16f0f2faf8d7a0d14c09","651c0a37f893ceabafc0018c","null","null","<p style=""font-size: 60px; font-family: BACS"">mcOJcbm</p>","","","","","","","","",""
"html-keyboard-response","68","111016","0.0-8.0-0.60","5e3ff59bf2160b23942ada93","650c16f0f2faf8d7a0d14c09","651c0a37f893ceabafc0018c","null","null","<p style=""font-size: 60px; font-family: BACS"">TEBKPMd</p>","","","","","","","","",""
"html-keyboard-response","69","112019","0.0-8.0-0.61","5e3ff59bf2160b23942ada93","650c16f0f2faf8d7a0d14c09","651c0a37f893ceabafc0018c","null","null","<p style=""font-size: 60px; font-family: BACS"">NQZvYkZ</p>","","","","","","","","",""
"html-keyboard-response","70","113023","0.0-8.0-0.62","5e3ff59bf2160b23942ada93","650c16f0f2faf8d7a0d14c09","651c0a37f893ceabafc0018c","null","null","<p style=""font-size: 60px; font-family: BACS"">LckGNaQr</p>","","","","","","","","",""
"html-keyboard-response","71","114028","0.0-8.0-0.63","5e3ff59bf2160b23942ada93","650c16f0f2faf8d7a0d14c09","651c0a37f893ceabafc0018c","null","null","<p style=""font-size: 60px; font-family: BACS"">NQZvdYAJ</p>","","","","","","","","",""
"html-keyboard-response","72","115032","0.0-8.0-0.64","5e3ff59bf2160b23942ada93","650c16f0f2faf8d7a0d14c09","651c0a37f893ceabafc0018c","null","null","<p style=""font-size: 60px; font-family: BACS"">tmAKOYK</p>","","","","","","","","",""
"html-keyboard-response","73","116036","0.0-8.0-0.65","5e3ff59bf2160b23942ada93","650c16f0f2faf8d7a0d14c09","651c0a37f893ceabafc0018c","null","null","<p style=""font-size: 60px; font-family: BACS"">tRPDPMd</p>","","","","","","","","",""
"html-keyboard-response","74","117041","0.0-8.0-0.66","5e3ff59bf2160b23942ada93","650c16f0f2faf8d7a0d14c09","651c0a37f893ceabafc0018c","null","null","<p style=""font-size: 60px; font-family: BACS"">lCbcmOYK</p>","","","","","","","","",""
"html-keyboard-response","75","118044","0.0-8.0-0.67","5e3ff59bf2160b23942ada93","650c16f0f2faf8d7a0d14c09","651c0a37f893ceabafc0018c","null","null","<p style=""font-size: 60px; font-family: BACS"">krUQcbm</p>","","","","","","","","",""
"html-keyboard-response","76","119048","0.0-8.0-0.68","5e3ff59bf2160b23942ada93","650c16f0f2faf8d7a0d14c09","651c0a37f893ceabafc0018c","null","null","<p style=""font-size: 60px; font-family: BACS"">kPkRAPMd</p>","","","","","","","","",""
"html-keyboard-response","77","120052","0.0-8.0-0.69","5e3ff59bf2160b23942ada93","650c16f0f2faf8d7a0d14c09","651c0a37f893ceabafc0018c","null","null","<p style=""font-size: 60px; font-family: BACS"">UAcduYkZ</p>","","","","","","","","",""
"html-keyboard-response","78","121057","0.0-8.0-0.70","5e3ff59bf2160b23942ada93","650c16f0f2faf8d7a0d14c09","651c0a37f893ceabafc0018c","null","null","<p style=""font-size: 60px; font-family: BACS"">TEBKRCdc</p>","","","","","","","","",""
"html-keyboard-response","79","122061","0.0-8.0-0.71","5e3ff59bf2160b23942ada93","650c16f0f2faf8d7a0d14c09","651c0a37f893ceabafc0018c","null","null","<p style=""font-size: 60px; font-family: BACS"">UAcduaQr</p>","","","","","","","","",""
"html-keyboard-response","80","123064","0.0-8.0-0.72","5e3ff59bf2160b23942ada93","650c16f0f2faf8d7a0d14c09","651c0a37f893ceabafc0018c","null","null","<p style=""font-size: 60px; font-family: BACS"">NQZvGQYQ</p>","","","","","","","","",""
"html-keyboard-response","81","124068","0.0-8.0-0.73","5e3ff59bf2160b23942ada93","650c16f0f2faf8d7a0d14c09","651c0a37f893ceabafc0018c","null","null","<p style=""font-size: 60px; font-family: BACS"">LckGNcbm</p>","","","","","","","","",""
"html-keyboard-response","82","125073","0.0-8.0-0.74","5e3ff59bf2160b23942ada93","650c16f0f2faf8d7a0d14c09","651c0a37f893ceabafc0018c","null","null","<p style=""font-size: 60px; font-family: BACS"">kPkRAbTE</p>","","","","","","","","",""
"html-keyboard-response","83","126076","0.0-8.0-0.75","5e3ff59bf2160b23942ada93","650c16f0f2faf8d7a0d14c09","651c0a37f893ceabafc0018c","null","null","<p style=""font-size: 60px; font-family: BACS"">bvuZcbm</p>","","","","","","","","",""
"html-keyboard-response","84","127079","0.0-8.0-0.76","5e3ff59bf2160b23942ada93","650c16f0f2faf8d7a0d14c09","651c0a37f893ceabafc0018c","null","null","<p style=""font-size: 60px; font-family: BACS"">krUQYkZ</p>","","","","","","","","",""
"html-keyboard-response","85","128084","0.0-8.0-0.77","5e3ff59bf2160b23942ada93","650c16f0f2faf8d7a0d14c09","651c0a37f893ceabafc0018c","null","null","<p style=""font-size: 60px; font-family: BACS"">CRdBdPMd</p>","","","","","","","","",""
"html-keyboard-response","86","129088","0.0-8.0-0.78","5e3ff59bf2160b23942ada93","650c16f0f2faf8d7a0d14c09","651c0a37f893ceabafc0018c","null","null","<p style=""font-size: 60px; font-family: BACS"">NaJbGQYQ</p>","","","","","","","","",""
"html-keyboard-response","87","130092","0.0-8.0-0.79","5e3ff59bf2160b23942ada93","650c16f0f2faf8d7a0d14c09","651c0a37f893ceabafc0018c","null","null","<p style=""font-size: 60px; font-family: BACS"">DCmhRCdc</p>","","","","","","","","",""
"html-keyboard-response","88","137653","0.0-9.0","5e3ff59bf2160b23942ada93","650c16f0f2faf8d7a0d14c09","651c0a37f893ceabafc0018c","7560"," ","<p>Great, you've seen the first block of words. You may now take a short break.</p>
      <p>Press the spacebar when you're ready to continue.</p>","","","","","","","","",""
"html-keyboard-response","89","138656","0.0-10.0-0.0","5e3ff59bf2160b23942ada93","650c16f0f2faf8d7a0d14c09","651c0a37f893ceabafc0018c","null","null","<p style=""font-size: 60px; font-family: BACS"">lCbcmPMd</p>","","","","","","","","",""
"html-keyboard-response","90","139660","0.0-10.0-0.1","5e3ff59bf2160b23942ada93","650c16f0f2faf8d7a0d14c09","651c0a37f893ceabafc0018c","null","null","<p style=""font-size: 60px; font-family: BACS"">bvuZcbm</p>","","","","","","","","",""
"html-keyboard-response","91","140665","0.0-10.0-0.2","5e3ff59bf2160b23942ada93","650c16f0f2faf8d7a0d14c09","651c0a37f893ceabafc0018c","null","null","<p style=""font-size: 60px; font-family: BACS"">NaJbYkZ</p>","","","","","","","","",""
"html-keyboard-response","92","141668","0.0-10.0-0.3","5e3ff59bf2160b23942ada93","650c16f0f2faf8d7a0d14c09","651c0a37f893ceabafc0018c","null","null","<p style=""font-size: 60px; font-family: BACS"">kPkRAPMd</p>","","","","","","","","",""
"html-keyboard-response","93","142673","0.0-10.0-0.4","5e3ff59bf2160b23942ada93","650c16f0f2faf8d7a0d14c09","651c0a37f893ceabafc0018c","null","null","<p style=""font-size: 60px; font-family: BACS"">NQZvdYAJ</p>","","","","","","","","",""
"html-keyboard-response","94","143677","0.0-10.0-0.5","5e3ff59bf2160b23942ada93","650c16f0f2faf8d7a0d14c09","651c0a37f893ceabafc0018c","null","null","<p style=""font-size: 60px; font-family: BACS"">UAcduYkZ</p>","","","","","","","","",""
"html-keyboard-response","95","144680","0.0-10.0-0.6","5e3ff59bf2160b23942ada93","650c16f0f2faf8d7a0d14c09","651c0a37f893ceabafc0018c","null","null","<p style=""font-size: 60px; font-family: BACS"">aYQmdYAJ</p>","","","","","","","","",""
"html-keyboard-response","96","145684","0.0-10.0-0.7","5e3ff59bf2160b23942ada93","650c16f0f2faf8d7a0d14c09","651c0a37f893ceabafc0018c","null","null","<p style=""font-size: 60px; font-family: BACS"">hAROKbTE</p>","","","","","","","","",""
"html-keyboard-response","97","146688","0.0-10.0-0.8","5e3ff59bf2160b23942ada93","650c16f0f2faf8d7a0d14c09","651c0a37f893ceabafc0018c","null","null","<p style=""font-size: 60px; font-family: BACS"">DCmhOPE</p>","","","","","","","","",""
"html-keyboard-response","98","147692","0.0-10.0-0.9","5e3ff59bf2160b23942ada93","650c16f0f2faf8d7a0d14c09","651c0a37f893ceabafc0018c","null","null","<p style=""font-size: 60px; font-family: BACS"">NQZvGQYQ</p>","","","","","","","","",""
"html-keyboard-response","99","148697","0.0-10.0-0.10","5e3ff59bf2160b23942ada93","650c16f0f2faf8d7a0d14c09","651c0a37f893ceabafc0018c","null","null","<p style=""font-size: 60px; font-family: BACS"">tmAKbTE</p>","","","","","","","","",""
"html-keyboard-response","100","149701","0.0-10.0-0.11","5e3ff59bf2160b23942ada93","650c16f0f2faf8d7a0d14c09","651c0a37f893ceabafc0018c","null","null","<p style=""font-size: 60px; font-family: BACS"">LckGNcbm</p>","","","","","","","","",""
"html-keyboard-response","101","150704","0.0-10.0-0.12","5e3ff59bf2160b23942ada93","650c16f0f2faf8d7a0d14c09","651c0a37f893ceabafc0018c","null","null","<p style=""font-size: 60px; font-family: BACS"">tRPDPMd</p>","","","","","","","","",""
"html-keyboard-response","102","151709","0.0-10.0-0.13","5e3ff59bf2160b23942ada93","650c16f0f2faf8d7a0d14c09","651c0a37f893ceabafc0018c","null","null","<p style=""font-size: 60px; font-family: BACS"">TEBKRCdc</p>","","","","","","","","",""
"html-keyboard-response","103","152712","0.0-10.0-0.14","5e3ff59bf2160b23942ada93","650c16f0f2faf8d7a0d14c09","651c0a37f893ceabafc0018c","null","null","<p style=""font-size: 60px; font-family: BACS"">NaJbGQYQ</p>","","","","","","","","",""
"html-keyboard-response","104","153716","0.0-10.0-0.15","5e3ff59bf2160b23942ada93","650c16f0f2faf8d7a0d14c09","651c0a37f893ceabafc0018c","null","null","<p style=""font-size: 60px; font-family: BACS"">CRdBdbTE</p>","","","","","","","","",""
"html-keyboard-response","105","154720","0.0-10.0-0.16","5e3ff59bf2160b23942ada93","650c16f0f2faf8d7a0d14c09","651c0a37f893ceabafc0018c","null","null","<p style=""font-size: 60px; font-family: BACS"">LckGNGQYQ</p>","","","","","","","","",""
"html-keyboard-response","106","155724","0.0-10.0-0.17","5e3ff59bf2160b23942ada93","650c16f0f2faf8d7a0d14c09","651c0a37f893ceabafc0018c","null","null","<p style=""font-size: 60px; font-family: BACS"">GJZmcbm</p>","","","","","","","","",""
"html-keyboard-response","107","156728","0.0-10.0-0.18","5e3ff59bf2160b23942ada93","650c16f0f2faf8d7a0d14c09","651c0a37f893ceabafc0018c","null","null","<p style=""font-size: 60px; font-family: BACS"">lCbcmbTE</p>","","","","","","","","",""
"html-keyboard-response","108","157733","0.0-10.0-0.19","5e3ff59bf2160b23942ada93","650c16f0f2faf8d7a0d14c09","651c0a37f893ceabafc0018c","null","null","<p style=""font-size: 60px; font-family: BACS"">mcOJcbm</p>","","","","","","","","",""
"html-keyboard-response","109","158736","0.0-10.0-0.20","5e3ff59bf2160b23942ada93","650c16f0f2faf8d7a0d14c09","651c0a37f893ceabafc0018c","null","null","<p style=""font-size: 60px; font-family: BACS"">hAROKRCdc</p>","","","","","","","","",""
"html-keyboard-response","110","159740","0.0-10.0-0.21","5e3ff59bf2160b23942ada93","650c16f0f2faf8d7a0d14c09","651c0a37f893ceabafc0018c","null","null","<p style=""font-size: 60px; font-family: BACS"">UAcduaQr</p>","","","","","","","","",""
"html-keyboard-response","111","160745","0.0-10.0-0.22","5e3ff59bf2160b23942ada93","650c16f0f2faf8d7a0d14c09","651c0a37f893ceabafc0018c","null","null","<p style=""font-size: 60px; font-family: BACS"">tmAKOPE</p>","","","","","","","","",""
"html-keyboard-response","112","161749","0.0-10.0-0.23","5e3ff59bf2160b23942ada93","650c16f0f2faf8d7a0d14c09","651c0a37f893ceabafc0018c","null","null","<p style=""font-size: 60px; font-family: BACS"">krUQdYAJ</p>","","","","","","","","",""
"html-keyboard-response","113","162752","0.0-10.0-0.24","5e3ff59bf2160b23942ada93","650c16f0f2faf8d7a0d14c09","651c0a37f893ceabafc0018c","null","null","<p style=""font-size: 60px; font-family: BACS"">bRABtRCdc</p>","","","","","","","","",""
"html-keyboard-response","114","163756","0.0-10.0-0.25","5e3ff59bf2160b23942ada93","650c16f0f2faf8d7a0d14c09","651c0a37f893ceabafc0018c","null","null","<p style=""font-size: 60px; font-family: BACS"">tmAKOYK</p>","","","","","","","","",""
"html-keyboard-response","115","164757","0.0-10.0-0.26","5e3ff59bf2160b23942ada93","650c16f0f2faf8d7a0d14c09","651c0a37f893ceabafc0018c","null","null","<p style=""font-size: 60px; font-family: BACS"">GJZmGQYQ</p>","","","","","","","","",""
"html-keyboard-response","116","165760","0.0-10.0-0.27","5e3ff59bf2160b23942ada93","650c16f0f2faf8d7a0d14c09","651c0a37f893ceabafc0018c","null","null","<p style=""font-size: 60px; font-family: BACS"">TEBKPMd</p>","","","","","","","","",""
"html-keyboard-response","117","166765","0.0-10.0-0.28","5e3ff59bf2160b23942ada93","650c16f0f2faf8d7a0d14c09","651c0a37f893ceabafc0018c","null","null","<p style=""font-size: 60px; font-family: BACS"">aYQmGQYQ</p>","","","","","","","","",""
"html-keyboard-response","118","167768","0.0-10.0-0.29","5e3ff59bf2160b23942ada93","650c16f0f2faf8d7a0d14c09","651c0a37f893ceabafc0018c","null","null","<p style=""font-size: 60px; font-family: BACS"">CRdBdOPE</p>","","","","","","","","",""
"html-keyboard-response","119","168773","0.0-10.0-0.30","5e3ff59bf2160b23942ada93","650c16f0f2faf8d7a0d14c09","651c0a37f893ceabafc0018c","null","null","<p style=""font-size: 60px; font-family: BACS"">aUZAaQr</p>","","","","","","","","",""
"html-keyboard-response","120","169777","0.0-10.0-0.31","5e3ff59bf2160b23942ada93","650c16f0f2faf8d7a0d14c09","651c0a37f893ceabafc0018c","null","null","<p style=""font-size: 60px; font-family: BACS"">TEBKOYK</p>","","","","","","","","",""
"html-keyboard-response","121","170781","0.0-10.0-0.32","5e3ff59bf2160b23942ada93","650c16f0f2faf8d7a0d14c09","651c0a37f893ceabafc0018c","null","null","<p style=""font-size: 60px; font-family: BACS"">krUQGQYQ</p>","","","","","","","","",""
"html-keyboard-response","122","171786","0.0-10.0-0.33","5e3ff59bf2160b23942ada93","650c16f0f2faf8d7a0d14c09","651c0a37f893ceabafc0018c","null","null","<p style=""font-size: 60px; font-family: BACS"">aYQmaQr</p>","","","","","","","","",""
"html-keyboard-response","123","172788","0.0-10.0-0.34","5e3ff59bf2160b23942ada93","650c16f0f2faf8d7a0d14c09","651c0a37f893ceabafc0018c","null","null","<p style=""font-size: 60px; font-family: BACS"">lBlERCdc</p>","","","","","","","","",""
"html-keyboard-response","124","173792","0.0-10.0-0.35","5e3ff59bf2160b23942ada93","650c16f0f2faf8d7a0d14c09","651c0a37f893ceabafc0018c","null","null","<p style=""font-size: 60px; font-family: BACS"">aUZAcbm</p>","","","","","","","","",""
"html-keyboard-response","125","174795","0.0-10.0-0.36","5e3ff59bf2160b23942ada93","650c16f0f2faf8d7a0d14c09","651c0a37f893ceabafc0018c","null","null","<p style=""font-size: 60px; font-family: BACS"">GJZmYkZ</p>","","","","","","","","",""
"html-keyboard-response","126","175797","0.0-10.0-0.37","5e3ff59bf2160b23942ada93","650c16f0f2faf8d7a0d14c09","651c0a37f893ceabafc0018c","null","null","<p style=""font-size: 60px; font-family: BACS"">lBlEOPE</p>","","","","","","","","",""
"html-keyboard-response","127","176802","0.0-10.0-0.38","5e3ff59bf2160b23942ada93","650c16f0f2faf8d7a0d14c09","651c0a37f893ceabafc0018c","null","null","<p style=""font-size: 60px; font-family: BACS"">bvuZaQr</p>","","","","","","","","",""
"html-keyboard-response","128","177804","0.0-10.0-0.39","5e3ff59bf2160b23942ada93","650c16f0f2faf8d7a0d14c09","651c0a37f893ceabafc0018c","null","null","<p style=""font-size: 60px; font-family: BACS"">kPkRAOPE</p>","","","","","","","","",""
"html-keyboard-response","129","178808","0.0-10.0-0.40","5e3ff59bf2160b23942ada93","650c16f0f2faf8d7a0d14c09","651c0a37f893ceabafc0018c","null","null","<p style=""font-size: 60px; font-family: BACS"">lBlEOYK</p>","","","","","","","","",""
"html-keyboard-response","130","179812","0.0-10.0-0.41","5e3ff59bf2160b23942ada93","650c16f0f2faf8d7a0d14c09","651c0a37f893ceabafc0018c","null","null","<p style=""font-size: 60px; font-family: BACS"">aUZAdYAJ</p>","","","","","","","","",""
"html-keyboard-response","131","180816","0.0-10.0-0.42","5e3ff59bf2160b23942ada93","650c16f0f2faf8d7a0d14c09","651c0a37f893ceabafc0018c","null","null","<p style=""font-size: 60px; font-family: BACS"">TEBKbTE</p>","","","","","","","","",""
"html-keyboard-response","132","181820","0.0-10.0-0.43","5e3ff59bf2160b23942ada93","650c16f0f2faf8d7a0d14c09","651c0a37f893ceabafc0018c","null","null","<p style=""font-size: 60px; font-family: BACS"">NaJbaQr</p>","","","","","","","","",""
"html-keyboard-response","133","182825","0.0-10.0-0.44","5e3ff59bf2160b23942ada93","650c16f0f2faf8d7a0d14c09","651c0a37f893ceabafc0018c","null","null","<p style=""font-size: 60px; font-family: BACS"">mcOJdYAJ</p>","","","","","","","","",""
"html-keyboard-response","134","183828","0.0-10.0-0.45","5e3ff59bf2160b23942ada93","650c16f0f2faf8d7a0d14c09","651c0a37f893ceabafc0018c","null","null","<p style=""font-size: 60px; font-family: BACS"">krUQcbm</p>","","","","","","","","",""
"html-keyboard-response","135","184832","0.0-10.0-0.46","5e3ff59bf2160b23942ada93","650c16f0f2faf8d7a0d14c09","651c0a37f893ceabafc0018c","null","null","<p style=""font-size: 60px; font-family: BACS"">hAROKOPE</p>","","","","","","","","",""
"html-keyboard-response","136","185835","0.0-10.0-0.47","5e3ff59bf2160b23942ada93","650c16f0f2faf8d7a0d14c09","651c0a37f893ceabafc0018c","null","null","<p style=""font-size: 60px; font-family: BACS"">UAcduGQYQ</p>","","","","","","","","",""
"html-keyboard-response","137","186840","0.0-10.0-0.48","5e3ff59bf2160b23942ada93","650c16f0f2faf8d7a0d14c09","651c0a37f893ceabafc0018c","null","null","<p style=""font-size: 60px; font-family: BACS"">tRPDRCdc</p>","","","","","","","","",""
"html-keyboard-response","138","187844","0.0-10.0-0.49","5e3ff59bf2160b23942ada93","650c16f0f2faf8d7a0d14c09","651c0a37f893ceabafc0018c","null","null","<p style=""font-size: 60px; font-family: BACS"">LckGNaQr</p>","","","","","","","","",""
"html-keyboard-response","139","188849","0.0-10.0-0.50","5e3ff59bf2160b23942ada93","650c16f0f2faf8d7a0d14c09","651c0a37f893ceabafc0018c","null","null","<p style=""font-size: 60px; font-family: BACS"">bvuZYkZ</p>","","","","","","","","",""
"html-keyboard-response","140","189852","0.0-10.0-0.51","5e3ff59bf2160b23942ada93","650c16f0f2faf8d7a0d14c09","651c0a37f893ceabafc0018c","null","null","<p style=""font-size: 60px; font-family: BACS"">bRABtbTE</p>","","","","","","","","",""
"html-keyboard-response","141","190855","0.0-10.0-0.52","5e3ff59bf2160b23942ada93","650c16f0f2faf8d7a0d14c09","651c0a37f893ceabafc0018c","null","null","<p style=""font-size: 60px; font-family: BACS"">DCmhRCdc</p>","","","","","","","","",""
"html-keyboard-response","142","191860","0.0-10.0-0.53","5e3ff59bf2160b23942ada93","650c16f0f2faf8d7a0d14c09","651c0a37f893ceabafc0018c","null","null","<p style=""font-size: 60px; font-family: BACS"">tRPDOPE</p>","","","","","","","","",""
"html-keyboard-response","143","192864","0.0-10.0-0.54","5e3ff59bf2160b23942ada93","650c16f0f2faf8d7a0d14c09","651c0a37f893ceabafc0018c","null","null","<p style=""font-size: 60px; font-family: BACS"">NaJbcbm</p>","","","","","","","","",""
"html-keyboard-response","144","193868","0.0-10.0-0.55","5e3ff59bf2160b23942ada93","650c16f0f2faf8d7a0d14c09","651c0a37f893ceabafc0018c","null","null","<p style=""font-size: 60px; font-family: BACS"">kPkRAOYK</p>","","","","","","","","",""
"html-keyboard-response","145","194871","0.0-10.0-0.56","5e3ff59bf2160b23942ada93","650c16f0f2faf8d7a0d14c09","651c0a37f893ceabafc0018c","null","null","<p style=""font-size: 60px; font-family: BACS"">krUQYkZ</p>","","","","","","","","",""
"html-keyboard-response","146","195876","0.0-10.0-0.57","5e3ff59bf2160b23942ada93","650c16f0f2faf8d7a0d14c09","651c0a37f893ceabafc0018c","null","null","<p style=""font-size: 60px; font-family: BACS"">DCmhOYK</p>","","","","","","","","",""
"html-keyboard-response","147","196888","0.0-10.0-0.58","5e3ff59bf2160b23942ada93","650c16f0f2faf8d7a0d14c09","651c0a37f893ceabafc0018c","null","null","<p style=""font-size: 60px; font-family: BACS"">lCbcmOPE</p>","","","","","","","","",""
"html-keyboard-response","148","197893","0.0-10.0-0.59","5e3ff59bf2160b23942ada93","650c16f0f2faf8d7a0d14c09","651c0a37f893ceabafc0018c","null","null","<p style=""font-size: 60px; font-family: BACS"">NQZvYkZ</p>","","","","","","","","",""
"html-keyboard-response","149","198896","0.0-10.0-0.60","5e3ff59bf2160b23942ada93","650c16f0f2faf8d7a0d14c09","651c0a37f893ceabafc0018c","null","null","<p style=""font-size: 60px; font-family: BACS"">tRPDbTE</p>","","","","","","","","",""
"html-keyboard-response","150","199900","0.0-10.0-0.61","5e3ff59bf2160b23942ada93","650c16f0f2faf8d7a0d14c09","651c0a37f893ceabafc0018c","null","null","<p style=""font-size: 60px; font-family: BACS"">LckGNYkZ</p>","","","","","","","","",""
"html-keyboard-response","151","200903","0.0-10.0-0.62","5e3ff59bf2160b23942ada93","650c16f0f2faf8d7a0d14c09","651c0a37f893ceabafc0018c","null","null","<p style=""font-size: 60px; font-family: BACS"">tmAKRCdc</p>","","","","","","","","",""
"html-keyboard-response","152","201909","0.0-10.0-0.63","5e3ff59bf2160b23942ada93","650c16f0f2faf8d7a0d14c09","651c0a37f893ceabafc0018c","null","null","<p style=""font-size: 60px; font-family: BACS"">aYQmcbm</p>","","","","","","","","",""
"html-keyboard-response","153","202912","0.0-10.0-0.64","5e3ff59bf2160b23942ada93","650c16f0f2faf8d7a0d14c09","651c0a37f893ceabafc0018c","null","null","<p style=""font-size: 60px; font-family: BACS"">bvuZdYAJ</p>","","","","","","","","",""
"html-keyboard-response","154","203916","0.0-10.0-0.65","5e3ff59bf2160b23942ada93","650c16f0f2faf8d7a0d14c09","651c0a37f893ceabafc0018c","null","null","<p style=""font-size: 60px; font-family: BACS"">CRdBdRCdc</p>","","","","","","","","",""
"html-keyboard-response","155","204920","0.0-10.0-0.66","5e3ff59bf2160b23942ada93","650c16f0f2faf8d7a0d14c09","651c0a37f893ceabafc0018c","null","null","<p style=""font-size: 60px; font-family: BACS"">UAcdudYAJ</p>","","","","","","","","",""
"html-keyboard-response","156","205924","0.0-10.0-0.67","5e3ff59bf2160b23942ada93","650c16f0f2faf8d7a0d14c09","651c0a37f893ceabafc0018c","null","null","<p style=""font-size: 60px; font-family: BACS"">aUZAGQYQ</p>","","","","","","","","",""
"html-keyboard-response","157","206928","0.0-10.0-0.68","5e3ff59bf2160b23942ada93","650c16f0f2faf8d7a0d14c09","651c0a37f893ceabafc0018c","null","null","<p style=""font-size: 60px; font-family: BACS"">DCmhPMd</p>","","","","","","","","",""
"html-keyboard-response","158","207933","0.0-10.0-0.69","5e3ff59bf2160b23942ada93","650c16f0f2faf8d7a0d14c09","651c0a37f893ceabafc0018c","null","null","<p style=""font-size: 60px; font-family: BACS"">NQZvaQr</p>","","","","","","","","",""
"html-keyboard-response","159","208936","0.0-10.0-0.70","5e3ff59bf2160b23942ada93","650c16f0f2faf8d7a0d14c09","651c0a37f893ceabafc0018c","null","null","<p style=""font-size: 60px; font-family: BACS"">lCbcmOYK</p>","","","","","","","","",""
"html-keyboard-response","160","209939","0.0-10.0-0.71","5e3ff59bf2160b23942ada93","650c16f0f2faf8d7a0d14c09","651c0a37f893ceabafc0018c","null","null","<p style=""font-size: 60px; font-family: BACS"">bRABtPMd</p>","","","","","","","","",""
"html-keyboard-response","161","210944","0.0-10.0-0.72","5e3ff59bf2160b23942ada93","650c16f0f2faf8d7a0d14c09","651c0a37f893ceabafc0018c","null","null","<p style=""font-size: 60px; font-family: BACS"">mcOJaQr</p>","","","","","","","","",""
"html-keyboard-response","162","211948","0.0-10.0-0.73","5e3ff59bf2160b23942ada93","650c16f0f2faf8d7a0d14c09","651c0a37f893ceabafc0018c","null","null","<p style=""font-size: 60px; font-family: BACS"">kPkRAbTE</p>","","","","","","","","",""
"html-keyboard-response","163","212952","0.0-10.0-0.74","5e3ff59bf2160b23942ada93","650c16f0f2faf8d7a0d14c09","651c0a37f893ceabafc0018c","null","null","<p style=""font-size: 60px; font-family: BACS"">lBlEPMd</p>","","","","","","","","",""
"html-keyboard-response","164","213957","0.0-10.0-0.75","5e3ff59bf2160b23942ada93","650c16f0f2faf8d7a0d14c09","651c0a37f893ceabafc0018c","null","null","<p style=""font-size: 60px; font-family: BACS"">GJZmdYAJ</p>","","","","","","","","",""
"html-keyboard-response","165","214959","0.0-10.0-0.76","5e3ff59bf2160b23942ada93","650c16f0f2faf8d7a0d14c09","651c0a37f893ceabafc0018c","null","null","<p style=""font-size: 60px; font-family: BACS"">hAROKOYK</p>","","","","","","","","",""
"html-keyboard-response","166","215960","0.0-10.0-0.77","5e3ff59bf2160b23942ada93","650c16f0f2faf8d7a0d14c09","651c0a37f893ceabafc0018c","null","null","<p style=""font-size: 60px; font-family: BACS"">CRdBdPMd</p>","","","","","","","","",""
"html-keyboard-response","167","216963","0.0-10.0-0.78","5e3ff59bf2160b23942ada93","650c16f0f2faf8d7a0d14c09","651c0a37f893ceabafc0018c","null","null","<p style=""font-size: 60px; font-family: BACS"">mcOJYkZ</p>","","","","","","","","",""
"html-keyboard-response","168","217968","0.0-10.0-0.79","5e3ff59bf2160b23942ada93","650c16f0f2faf8d7a0d14c09","651c0a37f893ceabafc0018c","null","null","<p style=""font-size: 60px; font-family: BACS"">bRABtOYK</p>","","","","","","","","",""
"html-keyboard-response","169","220851","0.0-11.0","5e3ff59bf2160b23942ada93","650c16f0f2faf8d7a0d14c09","651c0a37f893ceabafc0018c","2881"," ","<p>Great, you've seen the second block of words. You may now take a short break.</p>
      <p>Press the spacebar when you're ready to continue.</p>","","","","","","","","",""
"html-keyboard-response","170","221856","0.0-12.0-0.0","5e3ff59bf2160b23942ada93","650c16f0f2faf8d7a0d14c09","651c0a37f893ceabafc0018c","null","null","<p style=""font-size: 60px; font-family: BACS"">tmAKRCdc</p>","","","","","","","","",""
"html-keyboard-response","171","222860","0.0-12.0-0.1","5e3ff59bf2160b23942ada93","650c16f0f2faf8d7a0d14c09","651c0a37f893ceabafc0018c","null","null","<p style=""font-size: 60px; font-family: BACS"">lBlEOYK</p>","","","","","","","","",""
"html-keyboard-response","172","223864","0.0-12.0-0.2","5e3ff59bf2160b23942ada93","650c16f0f2faf8d7a0d14c09","651c0a37f893ceabafc0018c","null","null","<p style=""font-size: 60px; font-family: BACS"">GJZmdYAJ</p>","","","","","","","","",""
"html-keyboard-response","173","224869","0.0-12.0-0.3","5e3ff59bf2160b23942ada93","650c16f0f2faf8d7a0d14c09","651c0a37f893ceabafc0018c","null","null","<p style=""font-size: 60px; font-family: BACS"">mcOJcbm</p>","","","","","","","","",""
"html-keyboard-response","174","225871","0.0-12.0-0.4","5e3ff59bf2160b23942ada93","650c16f0f2faf8d7a0d14c09","651c0a37f893ceabafc0018c","null","null","<p style=""font-size: 60px; font-family: BACS"">UAcduGQYQ</p>","","","","","","","","",""
"html-keyboard-response","175","226876","0.0-12.0-0.5","5e3ff59bf2160b23942ada93","650c16f0f2faf8d7a0d14c09","651c0a37f893ceabafc0018c","null","null","<p style=""font-size: 60px; font-family: BACS"">tRPDPMd</p>","","","","","","","","",""
"html-keyboard-response","176","227881","0.0-12.0-0.6","5e3ff59bf2160b23942ada93","650c16f0f2faf8d7a0d14c09","651c0a37f893ceabafc0018c","null","null","<p style=""font-size: 60px; font-family: BACS"">krUQdYAJ</p>","","","","","","","","",""
"html-keyboard-response","177","228884","0.0-12.0-0.7","5e3ff59bf2160b23942ada93","650c16f0f2faf8d7a0d14c09","651c0a37f893ceabafc0018c","null","null","<p style=""font-size: 60px; font-family: BACS"">lCbcmOPE</p>","","","","","","","","",""
"html-keyboard-response","178","229888","0.0-12.0-0.8","5e3ff59bf2160b23942ada93","650c16f0f2faf8d7a0d14c09","651c0a37f893ceabafc0018c","null","null","<p style=""font-size: 60px; font-family: BACS"">TEBKbTE</p>","","","","","","","","",""
"html-keyboard-response","179","230892","0.0-12.0-0.9","5e3ff59bf2160b23942ada93","650c16f0f2faf8d7a0d14c09","651c0a37f893ceabafc0018c","null","null","<p style=""font-size: 60px; font-family: BACS"">NaJbGQYQ</p>","","","","","","","","",""
"html-keyboard-response","180","231896","0.0-12.0-0.10","5e3ff59bf2160b23942ada93","650c16f0f2faf8d7a0d14c09","651c0a37f893ceabafc0018c","null","null","<p style=""font-size: 60px; font-family: BACS"">CRdBdOPE</p>","","","","","","","","",""
"html-keyboard-response","181","232901","0.0-12.0-0.11","5e3ff59bf2160b23942ada93","650c16f0f2faf8d7a0d14c09","651c0a37f893ceabafc0018c","null","null","<p style=""font-size: 60px; font-family: BACS"">mcOJYkZ</p>","","","","","","","","",""
"html-keyboard-response","182","233904","0.0-12.0-0.12","5e3ff59bf2160b23942ada93","650c16f0f2faf8d7a0d14c09","651c0a37f893ceabafc0018c","null","null","<p style=""font-size: 60px; font-family: BACS"">CRdBdRCdc</p>","","","","","","","","",""
"html-keyboard-response","183","234908","0.0-12.0-0.13","5e3ff59bf2160b23942ada93","650c16f0f2faf8d7a0d14c09","651c0a37f893ceabafc0018c","null","null","<p style=""font-size: 60px; font-family: BACS"">bRABtOYK</p>","","","","","","","","",""
"html-keyboard-response","184","235912","0.0-12.0-0.14","5e3ff59bf2160b23942ada93","650c16f0f2faf8d7a0d14c09","651c0a37f893ceabafc0018c","null","null","<p style=""font-size: 60px; font-family: BACS"">lCbcmbTE</p>","","","","","","","","",""
"html-keyboard-response","185","236916","0.0-12.0-0.15","5e3ff59bf2160b23942ada93","650c16f0f2faf8d7a0d14c09","651c0a37f893ceabafc0018c","null","null","<p style=""font-size: 60px; font-family: BACS"">aYQmcbm</p>","","","","","","","","",""
"html-keyboard-response","186","237920","0.0-12.0-0.16","5e3ff59bf2160b23942ada93","650c16f0f2faf8d7a0d14c09","651c0a37f893ceabafc0018c","null","null","<p style=""font-size: 60px; font-family: BACS"">bRABtPMd</p>","","","","","","","","",""
"html-keyboard-response","187","238924","0.0-12.0-0.17","5e3ff59bf2160b23942ada93","650c16f0f2faf8d7a0d14c09","651c0a37f893ceabafc0018c","null","null","<p style=""font-size: 60px; font-family: BACS"">lBlEOPE</p>","","","","","","","","",""
"html-keyboard-response","188","239929","0.0-12.0-0.18","5e3ff59bf2160b23942ada93","650c16f0f2faf8d7a0d14c09","651c0a37f893ceabafc0018c","null","null","<p style=""font-size: 60px; font-family: BACS"">DCmhRCdc</p>","","","","","","","","",""
"html-keyboard-response","189","240932","0.0-12.0-0.19","5e3ff59bf2160b23942ada93","650c16f0f2faf8d7a0d14c09","651c0a37f893ceabafc0018c","null","null","<p style=""font-size: 60px; font-family: BACS"">CRdBdPMd</p>","","","","","","","","",""
"html-keyboard-response","190","241936","0.0-12.0-0.20","5e3ff59bf2160b23942ada93","650c16f0f2faf8d7a0d14c09","651c0a37f893ceabafc0018c","null","null","<p style=""font-size: 60px; font-family: BACS"">kPkRAOYK</p>","","","","","","","","",""
"html-keyboard-response","191","242941","0.0-12.0-0.21","5e3ff59bf2160b23942ada93","650c16f0f2faf8d7a0d14c09","651c0a37f893ceabafc0018c","null","null","<p style=""font-size: 60px; font-family: BACS"">tRPDRCdc</p>","","","","","","","","",""
"html-keyboard-response","192","243944","0.0-12.0-0.22","5e3ff59bf2160b23942ada93","650c16f0f2faf8d7a0d14c09","651c0a37f893ceabafc0018c","null","null","<p style=""font-size: 60px; font-family: BACS"">krUQcbm</p>","","","","","","","","",""
"html-keyboard-response","193","244948","0.0-12.0-0.23","5e3ff59bf2160b23942ada93","650c16f0f2faf8d7a0d14c09","651c0a37f893ceabafc0018c","null","null","<p style=""font-size: 60px; font-family: BACS"">aUZAGQYQ</p>","","","","","","","","",""
"html-keyboard-response","194","245952","0.0-12.0-0.24","5e3ff59bf2160b23942ada93","650c16f0f2faf8d7a0d14c09","651c0a37f893ceabafc0018c","null","null","<p style=""font-size: 60px; font-family: BACS"">LckGNcbm</p>","","","","","","","","",""
"html-keyboard-response","195","246956","0.0-12.0-0.25","5e3ff59bf2160b23942ada93","650c16f0f2faf8d7a0d14c09","651c0a37f893ceabafc0018c","null","null","<p style=""font-size: 60px; font-family: BACS"">UAcduaQr</p>","","","","","","","","",""
"html-keyboard-response","196","247960","0.0-12.0-0.26","5e3ff59bf2160b23942ada93","650c16f0f2faf8d7a0d14c09","651c0a37f893ceabafc0018c","null","null","<p style=""font-size: 60px; font-family: BACS"">lBlERCdc</p>","","","","","","","","",""
"html-keyboard-response","197","248964","0.0-12.0-0.27","5e3ff59bf2160b23942ada93","650c16f0f2faf8d7a0d14c09","651c0a37f893ceabafc0018c","null","null","<p style=""font-size: 60px; font-family: BACS"">tRPDbTE</p>","","","","","","","","",""
"html-keyboard-response","198","249967","0.0-12.0-0.28","5e3ff59bf2160b23942ada93","650c16f0f2faf8d7a0d14c09","651c0a37f893ceabafc0018c","null","null","<p style=""font-size: 60px; font-family: BACS"">krUQGQYQ</p>","","","","","","","","",""
"html-keyboard-response","199","250972","0.0-12.0-0.29","5e3ff59bf2160b23942ada93","650c16f0f2faf8d7a0d14c09","651c0a37f893ceabafc0018c","null","null","<p style=""font-size: 60px; font-family: BACS"">DCmhPMd</p>","","","","","","","","",""
"html-keyboard-response","200","251976","0.0-12.0-0.30","5e3ff59bf2160b23942ada93","650c16f0f2faf8d7a0d14c09","651c0a37f893ceabafc0018c","null","null","<p style=""font-size: 60px; font-family: BACS"">aYQmdYAJ</p>","","","","","","","","",""
"html-keyboard-response","201","252980","0.0-12.0-0.31","5e3ff59bf2160b23942ada93","650c16f0f2faf8d7a0d14c09","651c0a37f893ceabafc0018c","null","null","<p style=""font-size: 60px; font-family: BACS"">DCmhOPE</p>","","","","","","","","",""
"html-keyboard-response","202","253985","0.0-12.0-0.32","5e3ff59bf2160b23942ada93","650c16f0f2faf8d7a0d14c09","651c0a37f893ceabafc0018c","null","null","<p style=""font-size: 60px; font-family: BACS"">NQZvGQYQ</p>","","","","","","","","",""
"html-keyboard-response","203","254988","0.0-12.0-0.33","5e3ff59bf2160b23942ada93","650c16f0f2faf8d7a0d14c09","651c0a37f893ceabafc0018c","null","null","<p style=""font-size: 60px; font-family: BACS"">lCbcmPMd</p>","","","","","","","","",""
"html-keyboard-response","204","255996","0.0-12.0-0.34","5e3ff59bf2160b23942ada93","650c16f0f2faf8d7a0d14c09","651c0a37f893ceabafc0018c","null","null","<p style=""font-size: 60px; font-family: BACS"">TEBKRCdc</p>","","","","","","","","",""
"html-keyboard-response","205","257001","0.0-12.0-0.35","5e3ff59bf2160b23942ada93","650c16f0f2faf8d7a0d14c09","651c0a37f893ceabafc0018c","null","null","<p style=""font-size: 60px; font-family: BACS"">bRABtbTE</p>","","","","","","","","",""
"html-keyboard-response","206","258004","0.0-12.0-0.36","5e3ff59bf2160b23942ada93","650c16f0f2faf8d7a0d14c09","651c0a37f893ceabafc0018c","null","null","<p style=""font-size: 60px; font-family: BACS"">kPkRAOPE</p>","","","","","","","","",""
"html-keyboard-response","207","259008","0.0-12.0-0.37","5e3ff59bf2160b23942ada93","650c16f0f2faf8d7a0d14c09","651c0a37f893ceabafc0018c","null","null","<p style=""font-size: 60px; font-family: BACS"">NQZvaQr</p>","","","","","","","","",""
"html-keyboard-response","208","260011","0.0-12.0-0.38","5e3ff59bf2160b23942ada93","650c16f0f2faf8d7a0d14c09","651c0a37f893ceabafc0018c","null","null","<p style=""font-size: 60px; font-family: BACS"">mcOJdYAJ</p>","","","","","","","","",""
"html-keyboard-response","209","261016","0.0-12.0-0.39","5e3ff59bf2160b23942ada93","650c16f0f2faf8d7a0d14c09","651c0a37f893ceabafc0018c","null","null","<p style=""font-size: 60px; font-family: BACS"">hAROKOYK</p>","","","","","","","","",""
"html-keyboard-response","210","262019","0.0-12.0-0.40","5e3ff59bf2160b23942ada93","650c16f0f2faf8d7a0d14c09","651c0a37f893ceabafc0018c","null","null","<p style=""font-size: 60px; font-family: BACS"">NQZvYkZ</p>","","","","","","","","",""
"html-keyboard-response","211","263020","0.0-12.0-0.41","5e3ff59bf2160b23942ada93","650c16f0f2faf8d7a0d14c09","651c0a37f893ceabafc0018c","null","null","<p style=""font-size: 60px; font-family: BACS"">NaJbcbm</p>","","","","","","","","",""
"html-keyboard-response","212","264024","0.0-12.0-0.42","5e3ff59bf2160b23942ada93","650c16f0f2faf8d7a0d14c09","651c0a37f893ceabafc0018c","null","null","<p style=""font-size: 60px; font-family: BACS"">aYQmaQr</p>","","","","","","","","",""
"html-keyboard-response","213","265029","0.0-12.0-0.43","5e3ff59bf2160b23942ada93","650c16f0f2faf8d7a0d14c09","651c0a37f893ceabafc0018c","null","null","<p style=""font-size: 60px; font-family: BACS"">kPkRAbTE</p>","","","","","","","","",""
"html-keyboard-response","214","266033","0.0-12.0-0.44","5e3ff59bf2160b23942ada93","650c16f0f2faf8d7a0d14c09","651c0a37f893ceabafc0018c","null","null","<p style=""font-size: 60px; font-family: BACS"">bvuZaQr</p>","","","","","","","","",""
"html-keyboard-response","215","267036","0.0-12.0-0.45","5e3ff59bf2160b23942ada93","650c16f0f2faf8d7a0d14c09","651c0a37f893ceabafc0018c","null","null","<p style=""font-size: 60px; font-family: BACS"">aYQmGQYQ</p>","","","","","","","","",""
"html-keyboard-response","216","268040","0.0-12.0-0.46","5e3ff59bf2160b23942ada93","650c16f0f2faf8d7a0d14c09","651c0a37f893ceabafc0018c","null","null","<p style=""font-size: 60px; font-family: BACS"">DCmhOYK</p>","","","","","","","","",""
"html-keyboard-response","217","269044","0.0-12.0-0.47","5e3ff59bf2160b23942ada93","650c16f0f2faf8d7a0d14c09","651c0a37f893ceabafc0018c","null","null","<p style=""font-size: 60px; font-family: BACS"">bRABtRCdc</p>","","","","","","","","",""
"html-keyboard-response","218","270048","0.0-12.0-0.48","5e3ff59bf2160b23942ada93","650c16f0f2faf8d7a0d14c09","651c0a37f893ceabafc0018c","null","null","<p style=""font-size: 60px; font-family: BACS"">LckGNGQYQ</p>","","","","","","","","",""
"html-keyboard-response","219","271053","0.0-12.0-0.49","5e3ff59bf2160b23942ada93","650c16f0f2faf8d7a0d14c09","651c0a37f893ceabafc0018c","null","null","<p style=""font-size: 60px; font-family: BACS"">hAROKOPE</p>","","","","","","","","",""
"html-keyboard-response","220","272056","0.0-12.0-0.50","5e3ff59bf2160b23942ada93","650c16f0f2faf8d7a0d14c09","651c0a37f893ceabafc0018c","null","null","<p style=""font-size: 60px; font-family: BACS"">kPkRAPMd</p>","","","","","","","","",""
"html-keyboard-response","221","273060","0.0-12.0-0.51","5e3ff59bf2160b23942ada93","650c16f0f2faf8d7a0d14c09","651c0a37f893ceabafc0018c","null","null","<p style=""font-size: 60px; font-family: BACS"">GJZmYkZ</p>","","","","","","","","",""
"html-keyboard-response","222","274063","0.0-12.0-0.52","5e3ff59bf2160b23942ada93","650c16f0f2faf8d7a0d14c09","651c0a37f893ceabafc0018c","null","null","<p style=""font-size: 60px; font-family: BACS"">UAcdudYAJ</p>","","","","","","","","",""
"html-keyboard-response","223","275068","0.0-12.0-0.53","5e3ff59bf2160b23942ada93","650c16f0f2faf8d7a0d14c09","651c0a37f893ceabafc0018c","null","null","<p style=""font-size: 60px; font-family: BACS"">CRdBdbTE</p>","","","","","","","","",""
"html-keyboard-response","224","276072","0.0-12.0-0.54","5e3ff59bf2160b23942ada93","650c16f0f2faf8d7a0d14c09","651c0a37f893ceabafc0018c","null","null","<p style=""font-size: 60px; font-family: BACS"">tRPDOPE</p>","","","","","","","","",""
"html-keyboard-response","225","277075","0.0-12.0-0.55","5e3ff59bf2160b23942ada93","650c16f0f2faf8d7a0d14c09","651c0a37f893ceabafc0018c","null","null","<p style=""font-size: 60px; font-family: BACS"">hAROKRCdc</p>","","","","","","","","",""
"html-keyboard-response","226","278080","0.0-12.0-0.56","5e3ff59bf2160b23942ada93","650c16f0f2faf8d7a0d14c09","651c0a37f893ceabafc0018c","null","null","<p style=""font-size: 60px; font-family: BACS"">GJZmGQYQ</p>","","","","","","","","",""
"html-keyboard-response","227","279085","0.0-12.0-0.57","5e3ff59bf2160b23942ada93","650c16f0f2faf8d7a0d14c09","651c0a37f893ceabafc0018c","null","null","<p style=""font-size: 60px; font-family: BACS"">TEBKOYK</p>","","","","","","","","",""
"html-keyboard-response","228","280088","0.0-12.0-0.58","5e3ff59bf2160b23942ada93","650c16f0f2faf8d7a0d14c09","651c0a37f893ceabafc0018c","null","null","<p style=""font-size: 60px; font-family: BACS"">lBlEPMd</p>","","","","","","","","",""
"html-keyboard-response","229","281092","0.0-12.0-0.59","5e3ff59bf2160b23942ada93","650c16f0f2faf8d7a0d14c09","651c0a37f893ceabafc0018c","null","null","<p style=""font-size: 60px; font-family: BACS"">NaJbaQr</p>","","","","","","","","",""
"html-keyboard-response","230","282096","0.0-12.0-0.60","5e3ff59bf2160b23942ada93","650c16f0f2faf8d7a0d14c09","651c0a37f893ceabafc0018c","null","null","<p style=""font-size: 60px; font-family: BACS"">bvuZdYAJ</p>","","","","","","","","",""
"html-keyboard-response","231","283100","0.0-12.0-0.61","5e3ff59bf2160b23942ada93","650c16f0f2faf8d7a0d14c09","651c0a37f893ceabafc0018c","null","null","<p style=""font-size: 60px; font-family: BACS"">aUZAaQr</p>","","","","","","","","",""
"html-keyboard-response","232","284104","0.0-12.0-0.62","5e3ff59bf2160b23942ada93","650c16f0f2faf8d7a0d14c09","651c0a37f893ceabafc0018c","null","null","<p style=""font-size: 60px; font-family: BACS"">GJZmcbm</p>","","","","","","","","",""
"html-keyboard-response","233","285108","0.0-12.0-0.63","5e3ff59bf2160b23942ada93","650c16f0f2faf8d7a0d14c09","651c0a37f893ceabafc0018c","null","null","<p style=""font-size: 60px; font-family: BACS"">bvuZYkZ</p>","","","","","","","","",""
"html-keyboard-response","234","286112","0.0-12.0-0.64","5e3ff59bf2160b23942ada93","650c16f0f2faf8d7a0d14c09","651c0a37f893ceabafc0018c","null","null","<p style=""font-size: 60px; font-family: BACS"">tmAKbTE</p>","","","","","","","","",""
"html-keyboard-response","235","287117","0.0-12.0-0.65","5e3ff59bf2160b23942ada93","650c16f0f2faf8d7a0d14c09","651c0a37f893ceabafc0018c","null","null","<p style=""font-size: 60px; font-family: BACS"">aUZAdYAJ</p>","","","","","","","","",""
"html-keyboard-response","236","288120","0.0-12.0-0.66","5e3ff59bf2160b23942ada93","650c16f0f2faf8d7a0d14c09","651c0a37f893ceabafc0018c","null","null","<p style=""font-size: 60px; font-family: BACS"">lCbcmOYK</p>","","","","","","","","",""
"html-keyboard-response","237","289123","0.0-12.0-0.67","5e3ff59bf2160b23942ada93","650c16f0f2faf8d7a0d14c09","651c0a37f893ceabafc0018c","null","null","<p style=""font-size: 60px; font-family: BACS"">mcOJaQr</p>","","","","","","","","",""
"html-keyboard-response","238","290128","0.0-12.0-0.68","5e3ff59bf2160b23942ada93","650c16f0f2faf8d7a0d14c09","651c0a37f893ceabafc0018c","null","null","<p style=""font-size: 60px; font-family: BACS"">NaJbYkZ</p>","","","","","","","","",""
"html-keyboard-response","239","291132","0.0-12.0-0.69","5e3ff59bf2160b23942ada93","650c16f0f2faf8d7a0d14c09","651c0a37f893ceabafc0018c","null","null","<p style=""font-size: 60px; font-family: BACS"">aUZAcbm</p>","","","","","","","","",""
"html-keyboard-response","240","292136","0.0-12.0-0.70","5e3ff59bf2160b23942ada93","650c16f0f2faf8d7a0d14c09","651c0a37f893ceabafc0018c","null","null","<p style=""font-size: 60px; font-family: BACS"">TEBKPMd</p>","","","","","","","","",""
"html-keyboard-response","241","293141","0.0-12.0-0.71","5e3ff59bf2160b23942ada93","650c16f0f2faf8d7a0d14c09","651c0a37f893ceabafc0018c","null","null","<p style=""font-size: 60px; font-family: BACS"">NQZvdYAJ</p>","","","","","","","","",""
"html-keyboard-response","242","294145","0.0-12.0-0.72","5e3ff59bf2160b23942ada93","650c16f0f2faf8d7a0d14c09","651c0a37f893ceabafc0018c","null","null","<p style=""font-size: 60px; font-family: BACS"">LckGNaQr</p>","","","","","","","","",""
"html-keyboard-response","243","295147","0.0-12.0-0.73","5e3ff59bf2160b23942ada93","650c16f0f2faf8d7a0d14c09","651c0a37f893ceabafc0018c","null","null","<p style=""font-size: 60px; font-family: BACS"">hAROKbTE</p>","","","","","","","","",""
"html-keyboard-response","244","296152","0.0-12.0-0.74","5e3ff59bf2160b23942ada93","650c16f0f2faf8d7a0d14c09","651c0a37f893ceabafc0018c","null","null","<p style=""font-size: 60px; font-family: BACS"">krUQYkZ</p>","","","","","","","","",""
"html-keyboard-response","245","297157","0.0-12.0-0.75","5e3ff59bf2160b23942ada93","650c16f0f2faf8d7a0d14c09","651c0a37f893ceabafc0018c","null","null","<p style=""font-size: 60px; font-family: BACS"">tmAKOYK</p>","","","","","","","","",""
"html-keyboard-response","246","298160","0.0-12.0-0.76","5e3ff59bf2160b23942ada93","650c16f0f2faf8d7a0d14c09","651c0a37f893ceabafc0018c","null","null","<p style=""font-size: 60px; font-family: BACS"">LckGNYkZ</p>","","","","","","","","",""
"html-keyboard-response","247","299165","0.0-12.0-0.77","5e3ff59bf2160b23942ada93","650c16f0f2faf8d7a0d14c09","651c0a37f893ceabafc0018c","null","null","<p style=""font-size: 60px; font-family: BACS"">tmAKOPE</p>","","","","","","","","",""
"html-keyboard-response","248","300169","0.0-12.0-0.78","5e3ff59bf2160b23942ada93","650c16f0f2faf8d7a0d14c09","651c0a37f893ceabafc0018c","null","null","<p style=""font-size: 60px; font-family: BACS"">UAcduYkZ</p>","","","","","","","","",""
"html-keyboard-response","249","301172","0.0-12.0-0.79","5e3ff59bf2160b23942ada93","650c16f0f2faf8d7a0d14c09","651c0a37f893ceabafc0018c","null","null","<p style=""font-size: 60px; font-family: BACS"">bvuZcbm</p>","","","","","","","","",""
"html-keyboard-response","250","306168","0.0-13.0","5e3ff59bf2160b23942ada93","650c16f0f2faf8d7a0d14c09","651c0a37f893ceabafc0018c","4995"," ","<p>Great, you've seen the third block of words. You may now take a short break.</p>
      <p>Press the spacebar when you're ready to continue.</p>","","","","","","","","",""
"html-keyboard-response","251","307172","0.0-14.0-0.0","5e3ff59bf2160b23942ada93","650c16f0f2faf8d7a0d14c09","651c0a37f893ceabafc0018c","null","null","<p style=""font-size: 60px; font-family: BACS"">DCmhPMd</p>","","","","","","","","",""
"html-keyboard-response","252","308176","0.0-14.0-0.1","5e3ff59bf2160b23942ada93","650c16f0f2faf8d7a0d14c09","651c0a37f893ceabafc0018c","null","null","<p style=""font-size: 60px; font-family: BACS"">aUZAcbm</p>","","","","","","","","",""
"html-keyboard-response","253","309180","0.0-14.0-0.2","5e3ff59bf2160b23942ada93","650c16f0f2faf8d7a0d14c09","651c0a37f893ceabafc0018c","null","null","<p style=""font-size: 60px; font-family: BACS"">TEBKPMd</p>","","","","","","","","",""
"html-keyboard-response","254","310184","0.0-14.0-0.3","5e3ff59bf2160b23942ada93","650c16f0f2faf8d7a0d14c09","651c0a37f893ceabafc0018c","null","null","<p style=""font-size: 60px; font-family: BACS"">lCbcmOPE</p>","","","","","","","","",""
"html-keyboard-response","255","311196","0.0-14.0-0.4","5e3ff59bf2160b23942ada93","650c16f0f2faf8d7a0d14c09","651c0a37f893ceabafc0018c","null","null","<p style=""font-size: 60px; font-family: BACS"">LckGNcbm</p>","","","","","","","","",""
"html-keyboard-response","256","312200","0.0-14.0-0.5","5e3ff59bf2160b23942ada93","650c16f0f2faf8d7a0d14c09","651c0a37f893ceabafc0018c","null","null","<p style=""font-size: 60px; font-family: BACS"">UAcduGQYQ</p>","","","","","","","","",""
"html-keyboard-response","257","313205","0.0-14.0-0.6","5e3ff59bf2160b23942ada93","650c16f0f2faf8d7a0d14c09","651c0a37f893ceabafc0018c","null","null","<p style=""font-size: 60px; font-family: BACS"">NQZvYkZ</p>","","","","","","","","",""
"html-keyboard-response","258","314209","0.0-14.0-0.7","5e3ff59bf2160b23942ada93","650c16f0f2faf8d7a0d14c09","651c0a37f893ceabafc0018c","null","null","<p style=""font-size: 60px; font-family: BACS"">lBlERCdc</p>","","","","","","","","",""
"html-keyboard-response","259","315213","0.0-14.0-0.8","5e3ff59bf2160b23942ada93","650c16f0f2faf8d7a0d14c09","651c0a37f893ceabafc0018c","null","null","<p style=""font-size: 60px; font-family: BACS"">aYQmcbm</p>","","","","","","","","",""
"html-keyboard-response","260","316216","0.0-14.0-0.9","5e3ff59bf2160b23942ada93","650c16f0f2faf8d7a0d14c09","651c0a37f893ceabafc0018c","null","null","<p style=""font-size: 60px; font-family: BACS"">UAcduaQr</p>","","","","","","","","",""
"html-keyboard-response","261","317221","0.0-14.0-0.10","5e3ff59bf2160b23942ada93","650c16f0f2faf8d7a0d14c09","651c0a37f893ceabafc0018c","null","null","<p style=""font-size: 60px; font-family: BACS"">lBlEOYK</p>","","","","","","","","",""
"html-keyboard-response","262","318224","0.0-14.0-0.11","5e3ff59bf2160b23942ada93","650c16f0f2faf8d7a0d14c09","651c0a37f893ceabafc0018c","null","null","<p style=""font-size: 60px; font-family: BACS"">DCmhRCdc</p>","","","","","","","","",""
"html-keyboard-response","263","319227","0.0-14.0-0.12","5e3ff59bf2160b23942ada93","650c16f0f2faf8d7a0d14c09","651c0a37f893ceabafc0018c","null","null","<p style=""font-size: 60px; font-family: BACS"">NaJbcbm</p>","","","","","","","","",""
"html-keyboard-response","264","320232","0.0-14.0-0.13","5e3ff59bf2160b23942ada93","650c16f0f2faf8d7a0d14c09","651c0a37f893ceabafc0018c","null","null","<p style=""font-size: 60px; font-family: BACS"">CRdBdbTE</p>","","","","","","","","",""
"html-keyboard-response","265","321237","0.0-14.0-0.14","5e3ff59bf2160b23942ada93","650c16f0f2faf8d7a0d14c09","651c0a37f893ceabafc0018c","null","null","<p style=""font-size: 60px; font-family: BACS"">NaJbaQr</p>","","","","","","","","",""
"html-keyboard-response","266","322240","0.0-14.0-0.15","5e3ff59bf2160b23942ada93","650c16f0f2faf8d7a0d14c09","651c0a37f893ceabafc0018c","null","null","<p style=""font-size: 60px; font-family: BACS"">GJZmdYAJ</p>","","","","","","","","",""
"html-keyboard-response","267","323245","0.0-14.0-0.16","5e3ff59bf2160b23942ada93","650c16f0f2faf8d7a0d14c09","651c0a37f893ceabafc0018c","null","null","<p style=""font-size: 60px; font-family: BACS"">NQZvaQr</p>","","","","","","","","",""
"html-keyboard-response","268","324248","0.0-14.0-0.17","5e3ff59bf2160b23942ada93","650c16f0f2faf8d7a0d14c09","651c0a37f893ceabafc0018c","null","null","<p style=""font-size: 60px; font-family: BACS"">NaJbGQYQ</p>","","","","","","","","",""
"html-keyboard-response","269","325252","0.0-14.0-0.18","5e3ff59bf2160b23942ada93","650c16f0f2faf8d7a0d14c09","651c0a37f893ceabafc0018c","null","null","<p style=""font-size: 60px; font-family: BACS"">mcOJdYAJ</p>","","","","","","","","",""
"html-keyboard-response","270","326256","0.0-14.0-0.19","5e3ff59bf2160b23942ada93","650c16f0f2faf8d7a0d14c09","651c0a37f893ceabafc0018c","null","null","<p style=""font-size: 60px; font-family: BACS"">krUQcbm</p>","","","","","","","","",""
"html-keyboard-response","271","327260","0.0-14.0-0.20","5e3ff59bf2160b23942ada93","650c16f0f2faf8d7a0d14c09","651c0a37f893ceabafc0018c","null","null","<p style=""font-size: 60px; font-family: BACS"">aUZAGQYQ</p>","","","","","","","","",""
"html-keyboard-response","272","328264","0.0-14.0-0.21","5e3ff59bf2160b23942ada93","650c16f0f2faf8d7a0d14c09","651c0a37f893ceabafc0018c","null","null","<p style=""font-size: 60px; font-family: BACS"">GJZmcbm</p>","","","","","","","","",""
"html-keyboard-response","273","329268","0.0-14.0-0.22","5e3ff59bf2160b23942ada93","650c16f0f2faf8d7a0d14c09","651c0a37f893ceabafc0018c","null","null","<p style=""font-size: 60px; font-family: BACS"">hAROKOPE</p>","","","","","","","","",""
"html-keyboard-response","274","330273","0.0-14.0-0.23","5e3ff59bf2160b23942ada93","650c16f0f2faf8d7a0d14c09","651c0a37f893ceabafc0018c","null","null","<p style=""font-size: 60px; font-family: BACS"">tmAKRCdc</p>","","","","","","","","",""
"html-keyboard-response","275","331277","0.0-14.0-0.24","5e3ff59bf2160b23942ada93","650c16f0f2faf8d7a0d14c09","651c0a37f893ceabafc0018c","null","null","<p style=""font-size: 60px; font-family: BACS"">mcOJYkZ</p>","","","","","","","","",""
"html-keyboard-response","276","332280","0.0-14.0-0.25","5e3ff59bf2160b23942ada93","650c16f0f2faf8d7a0d14c09","651c0a37f893ceabafc0018c","null","null","<p style=""font-size: 60px; font-family: BACS"">TEBKbTE</p>","","","","","","","","",""
"html-keyboard-response","277","333285","0.0-14.0-0.26","5e3ff59bf2160b23942ada93","650c16f0f2faf8d7a0d14c09","651c0a37f893ceabafc0018c","null","null","<p style=""font-size: 60px; font-family: BACS"">kPkRAPMd</p>","","","","","","","","",""
"html-keyboard-response","278","334289","0.0-14.0-0.27","5e3ff59bf2160b23942ada93","650c16f0f2faf8d7a0d14c09","651c0a37f893ceabafc0018c","null","null","<p style=""font-size: 60px; font-family: BACS"">bvuZdYAJ</p>","","","","","","","","",""
"html-keyboard-response","279","335292","0.0-14.0-0.28","5e3ff59bf2160b23942ada93","650c16f0f2faf8d7a0d14c09","651c0a37f893ceabafc0018c","null","null","<p style=""font-size: 60px; font-family: BACS"">LckGNaQr</p>","","","","","","","","",""
"html-keyboard-response","280","336297","0.0-14.0-0.29","5e3ff59bf2160b23942ada93","650c16f0f2faf8d7a0d14c09","651c0a37f893ceabafc0018c","null","null","<p style=""font-size: 60px; font-family: BACS"">NQZvdYAJ</p>","","","","","","","","",""
"html-keyboard-response","281","337300","0.0-14.0-0.30","5e3ff59bf2160b23942ada93","650c16f0f2faf8d7a0d14c09","651c0a37f893ceabafc0018c","null","null","<p style=""font-size: 60px; font-family: BACS"">lBlEOPE</p>","","","","","","","","",""
"html-keyboard-response","282","338305","0.0-14.0-0.31","5e3ff59bf2160b23942ada93","650c16f0f2faf8d7a0d14c09","651c0a37f893ceabafc0018c","null","null","<p style=""font-size: 60px; font-family: BACS"">tRPDPMd</p>","","","","","","","","",""
"html-keyboard-response","283","339308","0.0-14.0-0.32","5e3ff59bf2160b23942ada93","650c16f0f2faf8d7a0d14c09","651c0a37f893ceabafc0018c","null","null","<p style=""font-size: 60px; font-family: BACS"">CRdBdRCdc</p>","","","","","","","","",""
"html-keyboard-response","284","340312","0.0-14.0-0.33","5e3ff59bf2160b23942ada93","650c16f0f2faf8d7a0d14c09","651c0a37f893ceabafc0018c","null","null","<p style=""font-size: 60px; font-family: BACS"">tRPDOPE</p>","","","","","","","","",""
"html-keyboard-response","285","341317","0.0-14.0-0.34","5e3ff59bf2160b23942ada93","650c16f0f2faf8d7a0d14c09","651c0a37f893ceabafc0018c","null","null","<p style=""font-size: 60px; font-family: BACS"">GJZmYkZ</p>","","","","","","","","",""
"html-keyboard-response","286","342320","0.0-14.0-0.35","5e3ff59bf2160b23942ada93","650c16f0f2faf8d7a0d14c09","651c0a37f893ceabafc0018c","null","null","<p style=""font-size: 60px; font-family: BACS"">krUQGQYQ</p>","","","","","","","","",""
"html-keyboard-response","287","343325","0.0-14.0-0.36","5e3ff59bf2160b23942ada93","650c16f0f2faf8d7a0d14c09","651c0a37f893ceabafc0018c","null","null","<p style=""font-size: 60px; font-family: BACS"">TEBKOYK</p>","","","","","","","","",""
"html-keyboard-response","288","344329","0.0-14.0-0.37","5e3ff59bf2160b23942ada93","650c16f0f2faf8d7a0d14c09","651c0a37f893ceabafc0018c","null","null","<p style=""font-size: 60px; font-family: BACS"">tRPDRCdc</p>","","","","","","","","",""
"html-keyboard-response","289","345333","0.0-14.0-0.38","5e3ff59bf2160b23942ada93","650c16f0f2faf8d7a0d14c09","651c0a37f893ceabafc0018c","null","null","<p style=""font-size: 60px; font-family: BACS"">lCbcmPMd</p>","","","","","","","","",""
"html-keyboard-response","290","346336","0.0-14.0-0.39","5e3ff59bf2160b23942ada93","650c16f0f2faf8d7a0d14c09","651c0a37f893ceabafc0018c","null","null","<p style=""font-size: 60px; font-family: BACS"">tmAKOYK</p>","","","","","","","","",""
"html-keyboard-response","291","347341","0.0-14.0-0.40","5e3ff59bf2160b23942ada93","650c16f0f2faf8d7a0d14c09","651c0a37f893ceabafc0018c","null","null","<p style=""font-size: 60px; font-family: BACS"">lCbcmbTE</p>","","","","","","","","",""
"html-keyboard-response","292","348346","0.0-14.0-0.41","5e3ff59bf2160b23942ada93","650c16f0f2faf8d7a0d14c09","651c0a37f893ceabafc0018c","null","null","<p style=""font-size: 60px; font-family: BACS"">aUZAaQr</p>","","","","","","","","",""
"html-keyboard-response","293","349348","0.0-14.0-0.42","5e3ff59bf2160b23942ada93","650c16f0f2faf8d7a0d14c09","651c0a37f893ceabafc0018c","null","null","<p style=""font-size: 60px; font-family: BACS"">bRABtOYK</p>","","","","","","","","",""
"html-keyboard-response","294","350352","0.0-14.0-0.43","5e3ff59bf2160b23942ada93","650c16f0f2faf8d7a0d14c09","651c0a37f893ceabafc0018c","null","null","<p style=""font-size: 60px; font-family: BACS"">bvuZaQr</p>","","","","","","","","",""
"html-keyboard-response","295","351357","0.0-14.0-0.44","5e3ff59bf2160b23942ada93","650c16f0f2faf8d7a0d14c09","651c0a37f893ceabafc0018c","null","null","<p style=""font-size: 60px; font-family: BACS"">GJZmGQYQ</p>","","","","","","","","",""
"html-keyboard-response","296","352361","0.0-14.0-0.45","5e3ff59bf2160b23942ada93","650c16f0f2faf8d7a0d14c09","651c0a37f893ceabafc0018c","null","null","<p style=""font-size: 60px; font-family: BACS"">NaJbYkZ</p>","","","","","","","","",""
"html-keyboard-response","297","353364","0.0-14.0-0.46","5e3ff59bf2160b23942ada93","650c16f0f2faf8d7a0d14c09","651c0a37f893ceabafc0018c","null","null","<p style=""font-size: 60px; font-family: BACS"">bRABtRCdc</p>","","","","","","","","",""
"html-keyboard-response","298","354369","0.0-14.0-0.47","5e3ff59bf2160b23942ada93","650c16f0f2faf8d7a0d14c09","651c0a37f893ceabafc0018c","null","null","<p style=""font-size: 60px; font-family: BACS"">kPkRAOPE</p>","","","","","","","","",""
"html-keyboard-response","299","355373","0.0-14.0-0.48","5e3ff59bf2160b23942ada93","650c16f0f2faf8d7a0d14c09","651c0a37f893ceabafc0018c","null","null","<p style=""font-size: 60px; font-family: BACS"">TEBKRCdc</p>","","","","","","","","",""
"html-keyboard-response","300","356376","0.0-14.0-0.49","5e3ff59bf2160b23942ada93","650c16f0f2faf8d7a0d14c09","651c0a37f893ceabafc0018c","null","null","<p style=""font-size: 60px; font-family: BACS"">mcOJaQr</p>","","","","","","","","",""
"html-keyboard-response","301","357380","0.0-14.0-0.50","5e3ff59bf2160b23942ada93","650c16f0f2faf8d7a0d14c09","651c0a37f893ceabafc0018c","null","null","<p style=""font-size: 60px; font-family: BACS"">bvuZYkZ</p>","","","","","","","","",""
"html-keyboard-response","302","358383","0.0-14.0-0.51","5e3ff59bf2160b23942ada93","650c16f0f2faf8d7a0d14c09","651c0a37f893ceabafc0018c","null","null","<p style=""font-size: 60px; font-family: BACS"">kPkRAOYK</p>","","","","","","","","",""
"html-keyboard-response","303","359387","0.0-14.0-0.52","5e3ff59bf2160b23942ada93","650c16f0f2faf8d7a0d14c09","651c0a37f893ceabafc0018c","null","null","<p style=""font-size: 60px; font-family: BACS"">tmAKbTE</p>","","","","","","","","",""
"html-keyboard-response","304","360392","0.0-14.0-0.53","5e3ff59bf2160b23942ada93","650c16f0f2faf8d7a0d14c09","651c0a37f893ceabafc0018c","null","null","<p style=""font-size: 60px; font-family: BACS"">lBlEPMd</p>","","","","","","","","",""
"html-keyboard-response","305","361395","0.0-14.0-0.54","5e3ff59bf2160b23942ada93","650c16f0f2faf8d7a0d14c09","651c0a37f893ceabafc0018c","null","null","<p style=""font-size: 60px; font-family: BACS"">tmAKOPE</p>","","","","","","","","",""
"html-keyboard-response","306","362399","0.0-14.0-0.55","5e3ff59bf2160b23942ada93","650c16f0f2faf8d7a0d14c09","651c0a37f893ceabafc0018c","null","null","<p style=""font-size: 60px; font-family: BACS"">kPkRAbTE</p>","","","","","","","","",""
"html-keyboard-response","307","363403","0.0-14.0-0.56","5e3ff59bf2160b23942ada93","650c16f0f2faf8d7a0d14c09","651c0a37f893ceabafc0018c","null","null","<p style=""font-size: 60px; font-family: BACS"">aYQmaQr</p>","","","","","","","","",""
"html-keyboard-response","308","364408","0.0-14.0-0.57","5e3ff59bf2160b23942ada93","650c16f0f2faf8d7a0d14c09","651c0a37f893ceabafc0018c","null","null","<p style=""font-size: 60px; font-family: BACS"">NQZvGQYQ</p>","","","","","","","","",""
"html-keyboard-response","309","365412","0.0-14.0-0.58","5e3ff59bf2160b23942ada93","650c16f0f2faf8d7a0d14c09","651c0a37f893ceabafc0018c","null","null","<p style=""font-size: 60px; font-family: BACS"">CRdBdPMd</p>","","","","","","","","",""
"html-keyboard-response","310","366415","0.0-14.0-0.59","5e3ff59bf2160b23942ada93","650c16f0f2faf8d7a0d14c09","651c0a37f893ceabafc0018c","null","null","<p style=""font-size: 60px; font-family: BACS"">tRPDbTE</p>","","","","","","","","",""
"html-keyboard-response","311","367419","0.0-14.0-0.60","5e3ff59bf2160b23942ada93","650c16f0f2faf8d7a0d14c09","651c0a37f893ceabafc0018c","null","null","<p style=""font-size: 60px; font-family: BACS"">mcOJcbm</p>","","","","","","","","",""
"html-keyboard-response","312","368424","0.0-14.0-0.61","5e3ff59bf2160b23942ada93","650c16f0f2faf8d7a0d14c09","651c0a37f893ceabafc0018c","null","null","<p style=""font-size: 60px; font-family: BACS"">aYQmdYAJ</p>","","","","","","","","",""
"html-keyboard-response","313","369427","0.0-14.0-0.62","5e3ff59bf2160b23942ada93","650c16f0f2faf8d7a0d14c09","651c0a37f893ceabafc0018c","null","null","<p style=""font-size: 60px; font-family: BACS"">hAROKbTE</p>","","","","","","","","",""
"html-keyboard-response","314","370431","0.0-14.0-0.63","5e3ff59bf2160b23942ada93","650c16f0f2faf8d7a0d14c09","651c0a37f893ceabafc0018c","null","null","<p style=""font-size: 60px; font-family: BACS"">DCmhOYK</p>","","","","","","","","",""
"html-keyboard-response","315","371436","0.0-14.0-0.64","5e3ff59bf2160b23942ada93","650c16f0f2faf8d7a0d14c09","651c0a37f893ceabafc0018c","null","null","<p style=""font-size: 60px; font-family: BACS"">aYQmGQYQ</p>","","","","","","","","",""
"html-keyboard-response","316","372439","0.0-14.0-0.65","5e3ff59bf2160b23942ada93","650c16f0f2faf8d7a0d14c09","651c0a37f893ceabafc0018c","null","null","<p style=""font-size: 60px; font-family: BACS"">bRABtbTE</p>","","","","","","","","",""
"html-keyboard-response","317","373444","0.0-14.0-0.66","5e3ff59bf2160b23942ada93","650c16f0f2faf8d7a0d14c09","651c0a37f893ceabafc0018c","null","null","<p style=""font-size: 60px; font-family: BACS"">krUQYkZ</p>","","","","","","","","",""
"html-keyboard-response","318","374448","0.0-14.0-0.67","5e3ff59bf2160b23942ada93","650c16f0f2faf8d7a0d14c09","651c0a37f893ceabafc0018c","null","null","<p style=""font-size: 60px; font-family: BACS"">hAROKOYK</p>","","","","","","","","",""
"html-keyboard-response","319","375451","0.0-14.0-0.68","5e3ff59bf2160b23942ada93","650c16f0f2faf8d7a0d14c09","651c0a37f893ceabafc0018c","null","null","<p style=""font-size: 60px; font-family: BACS"">krUQdYAJ</p>","","","","","","","","",""
"html-keyboard-response","320","376455","0.0-14.0-0.69","5e3ff59bf2160b23942ada93","650c16f0f2faf8d7a0d14c09","651c0a37f893ceabafc0018c","null","null","<p style=""font-size: 60px; font-family: BACS"">CRdBdOPE</p>","","","","","","","","",""
"html-keyboard-response","321","377459","0.0-14.0-0.70","5e3ff59bf2160b23942ada93","650c16f0f2faf8d7a0d14c09","651c0a37f893ceabafc0018c","null","null","<p style=""font-size: 60px; font-family: BACS"">bvuZcbm</p>","","","","","","","","",""
"html-keyboard-response","322","378465","0.0-14.0-0.71","5e3ff59bf2160b23942ada93","650c16f0f2faf8d7a0d14c09","651c0a37f893ceabafc0018c","null","null","<p style=""font-size: 60px; font-family: BACS"">LckGNGQYQ</p>","","","","","","","","",""
"html-keyboard-response","323","379468","0.0-14.0-0.72","5e3ff59bf2160b23942ada93","650c16f0f2faf8d7a0d14c09","651c0a37f893ceabafc0018c","null","null","<p style=""font-size: 60px; font-family: BACS"">bRABtPMd</p>","","","","","","","","",""
"html-keyboard-response","324","380471","0.0-14.0-0.73","5e3ff59bf2160b23942ada93","650c16f0f2faf8d7a0d14c09","651c0a37f893ceabafc0018c","null","null","<p style=""font-size: 60px; font-family: BACS"">hAROKRCdc</p>","","","","","","","","",""
"html-keyboard-response","325","381475","0.0-14.0-0.74","5e3ff59bf2160b23942ada93","650c16f0f2faf8d7a0d14c09","651c0a37f893ceabafc0018c","null","null","<p style=""font-size: 60px; font-family: BACS"">lCbcmOYK</p>","","","","","","","","",""
"html-keyboard-response","326","382479","0.0-14.0-0.75","5e3ff59bf2160b23942ada93","650c16f0f2faf8d7a0d14c09","651c0a37f893ceabafc0018c","null","null","<p style=""font-size: 60px; font-family: BACS"">LckGNYkZ</p>","","","","","","","","",""
"html-keyboard-response","327","383484","0.0-14.0-0.76","5e3ff59bf2160b23942ada93","650c16f0f2faf8d7a0d14c09","651c0a37f893ceabafc0018c","null","null","<p style=""font-size: 60px; font-family: BACS"">UAcdudYAJ</p>","","","","","","","","",""
"html-keyboard-response","328","384487","0.0-14.0-0.77","5e3ff59bf2160b23942ada93","650c16f0f2faf8d7a0d14c09","651c0a37f893ceabafc0018c","null","null","<p style=""font-size: 60px; font-family: BACS"">DCmhOPE</p>","","","","","","","","",""
"html-keyboard-response","329","385492","0.0-14.0-0.78","5e3ff59bf2160b23942ada93","650c16f0f2faf8d7a0d14c09","651c0a37f893ceabafc0018c","null","null","<p style=""font-size: 60px; font-family: BACS"">aUZAdYAJ</p>","","","","","","","","",""
"html-keyboard-response","330","386495","0.0-14.0-0.79","5e3ff59bf2160b23942ada93","650c16f0f2faf8d7a0d14c09","651c0a37f893ceabafc0018c","null","null","<p style=""font-size: 60px; font-family: BACS"">UAcduYkZ</p>","","","","","","","","",""
"html-keyboard-response","331","389686","0.0-15.0","5e3ff59bf2160b23942ada93","650c16f0f2faf8d7a0d14c09","651c0a37f893ceabafc0018c","3190"," ","<p>Great, you've seen the fourth block of words. You may now take a short break.</p>
      <p>Press the spacebar when you're ready to continue.</p>","","","","","","","","",""
"html-keyboard-response","332","390687","0.0-16.0-0.0","5e3ff59bf2160b23942ada93","650c16f0f2faf8d7a0d14c09","651c0a37f893ceabafc0018c","null","null","<p style=""font-size: 60px; font-family: BACS"">DCmhRCdc</p>","","","","","","","","",""
"html-keyboard-response","333","391692","0.0-16.0-0.1","5e3ff59bf2160b23942ada93","650c16f0f2faf8d7a0d14c09","651c0a37f893ceabafc0018c","null","null","<p style=""font-size: 60px; font-family: BACS"">DCmhRCdc</p>","","","","","","","","",""
"html-keyboard-response","334","392695","0.0-16.0-0.2","5e3ff59bf2160b23942ada93","650c16f0f2faf8d7a0d14c09","651c0a37f893ceabafc0018c","null","null","<p style=""font-size: 60px; font-family: BACS"">DCmhRCdc</p>","","","","","","","","",""
"html-keyboard-response","335","393700","0.0-16.0-0.3","5e3ff59bf2160b23942ada93","650c16f0f2faf8d7a0d14c09","651c0a37f893ceabafc0018c","null","null","<p style=""font-size: 60px; font-family: BACS"">DCmhRCdc</p>","","","","","","","","",""
"html-keyboard-response","336","394704","0.0-16.0-0.4","5e3ff59bf2160b23942ada93","650c16f0f2faf8d7a0d14c09","651c0a37f893ceabafc0018c","null","null","<p style=""font-size: 60px; font-family: BACS"">DCmhRCdc</p>","","","","","","","","",""
"html-keyboard-response","337","395707","0.0-16.0-0.5","5e3ff59bf2160b23942ada93","650c16f0f2faf8d7a0d14c09","651c0a37f893ceabafc0018c","null","null","<p style=""font-size: 60px; font-family: BACS"">DCmhRCdc</p>","","","","","","","","",""
"html-keyboard-response","338","396711","0.0-16.0-0.6","5e3ff59bf2160b23942ada93","650c16f0f2faf8d7a0d14c09","651c0a37f893ceabafc0018c","null","null","<p style=""font-size: 60px; font-family: BACS"">DCmhRCdc</p>","","","","","","","","",""
"html-keyboard-response","339","397716","0.0-16.0-0.7","5e3ff59bf2160b23942ada93","650c16f0f2faf8d7a0d14c09","651c0a37f893ceabafc0018c","null","null","<p style=""font-size: 60px; font-family: BACS"">DCmhRCdc</p>","","","","","","","","",""
"html-keyboard-response","340","398719","0.0-16.0-0.8","5e3ff59bf2160b23942ada93","650c16f0f2faf8d7a0d14c09","651c0a37f893ceabafc0018c","null","null","<p style=""font-size: 60px; font-family: BACS"">DCmhRCdc</p>","","","","","","","","",""
"html-keyboard-response","341","399724","0.0-16.0-0.9","5e3ff59bf2160b23942ada93","650c16f0f2faf8d7a0d14c09","651c0a37f893ceabafc0018c","null","null","<p style=""font-size: 60px; font-family: BACS"">DCmhRCdc</p>","","","","","","","","",""
"html-keyboard-response","342","400728","0.0-16.0-0.10","5e3ff59bf2160b23942ada93","650c16f0f2faf8d7a0d14c09","651c0a37f893ceabafc0018c","null","null","<p style=""font-size: 60px; font-family: BACS"">DCmhRCdc</p>","","","","","","","","",""
"html-keyboard-response","343","401731","0.0-16.0-0.11","5e3ff59bf2160b23942ada93","650c16f0f2faf8d7a0d14c09","651c0a37f893ceabafc0018c","null","null","<p style=""font-size: 60px; font-family: BACS"">DCmhRCdc</p>","","","","","","","","",""
"html-keyboard-response","344","402735","0.0-16.0-0.12","5e3ff59bf2160b23942ada93","650c16f0f2faf8d7a0d14c09","651c0a37f893ceabafc0018c","null","null","<p style=""font-size: 60px; font-family: BACS"">DCmhRCdc</p>","","","","","","","","",""
"html-keyboard-response","345","403739","0.0-16.0-0.13","5e3ff59bf2160b23942ada93","650c16f0f2faf8d7a0d14c09","651c0a37f893ceabafc0018c","null","null","<p style=""font-size: 60px; font-family: BACS"">DCmhRCdc</p>","","","","","","","","",""
"html-keyboard-response","346","404744","0.0-16.0-0.14","5e3ff59bf2160b23942ada93","650c16f0f2faf8d7a0d14c09","651c0a37f893ceabafc0018c","null","null","<p style=""font-size: 60px; font-family: BACS"">DCmhRCdc</p>","","","","","","","","",""
"html-keyboard-response","347","405747","0.0-16.0-0.15","5e3ff59bf2160b23942ada93","650c16f0f2faf8d7a0d14c09","651c0a37f893ceabafc0018c","null","null","<p style=""font-size: 60px; font-family: BACS"">DCmhRCdc</p>","","","","","","","","",""
"html-keyboard-response","348","406752","0.0-16.0-0.16","5e3ff59bf2160b23942ada93","650c16f0f2faf8d7a0d14c09","651c0a37f893ceabafc0018c","null","null","<p style=""font-size: 60px; font-family: BACS"">DCmhRCdc</p>","","","","","","","","",""
"html-keyboard-response","349","407756","0.0-16.0-0.17","5e3ff59bf2160b23942ada93","650c16f0f2faf8d7a0d14c09","651c0a37f893ceabafc0018c","null","null","<p style=""font-size: 60px; font-family: BACS"">DCmhRCdc</p>","","","","","","","","",""
"html-keyboard-response","350","408760","0.0-16.0-0.18","5e3ff59bf2160b23942ada93","650c16f0f2faf8d7a0d14c09","651c0a37f893ceabafc0018c","null","null","<p style=""font-size: 60px; font-family: BACS"">DCmhRCdc</p>","","","","","","","","",""
"html-keyboard-response","351","409764","0.0-16.0-0.19","5e3ff59bf2160b23942ada93","650c16f0f2faf8d7a0d14c09","651c0a37f893ceabafc0018c","null","null","<p style=""font-size: 60px; font-family: BACS"">DCmhRCdc</p>","","","","","","","","",""
"html-keyboard-response","352","410767","0.0-16.0-0.20","5e3ff59bf2160b23942ada93","650c16f0f2faf8d7a0d14c09","651c0a37f893ceabafc0018c","null","null","<p style=""font-size: 60px; font-family: BACS"">DCmhRCdc</p>","","","","","","","","",""
"html-keyboard-response","353","411771","0.0-16.0-0.21","5e3ff59bf2160b23942ada93","650c16f0f2faf8d7a0d14c09","651c0a37f893ceabafc0018c","null","null","<p style=""font-size: 60px; font-family: BACS"">DCmhRCdc</p>","","","","","","","","",""
"html-keyboard-response","354","412776","0.0-16.0-0.22","5e3ff59bf2160b23942ada93","650c16f0f2faf8d7a0d14c09","651c0a37f893ceabafc0018c","null","null","<p style=""font-size: 60px; font-family: BACS"">DCmhRCdc</p>","","","","","","","","",""
"html-keyboard-response","355","413780","0.0-16.0-0.23","5e3ff59bf2160b23942ada93","650c16f0f2faf8d7a0d14c09","651c0a37f893ceabafc0018c","null","null","<p style=""font-size: 60px; font-family: BACS"">DCmhRCdc</p>","","","","","","","","",""
"html-keyboard-response","356","414784","0.0-16.0-0.24","5e3ff59bf2160b23942ada93","650c16f0f2faf8d7a0d14c09","651c0a37f893ceabafc0018c","null","null","<p style=""font-size: 60px; font-family: BACS"">DCmhRCdc</p>","","","","","","","","",""
"html-keyboard-response","357","415788","0.0-16.0-0.25","5e3ff59bf2160b23942ada93","650c16f0f2faf8d7a0d14c09","651c0a37f893ceabafc0018c","null","null","<p style=""font-size: 60px; font-family: BACS"">DCmhRCdc</p>","","","","","","","","",""
"html-keyboard-response","358","416791","0.0-16.0-0.26","5e3ff59bf2160b23942ada93","650c16f0f2faf8d7a0d14c09","651c0a37f893ceabafc0018c","null","null","<p style=""font-size: 60px; font-family: BACS"">DCmhRCdc</p>","","","","","","","","",""
"html-keyboard-response","359","417796","0.0-16.0-0.27","5e3ff59bf2160b23942ada93","650c16f0f2faf8d7a0d14c09","651c0a37f893ceabafc0018c","null","null","<p style=""font-size: 60px; font-family: BACS"">DCmhRCdc</p>","","","","","","","","",""
"html-keyboard-response","360","418800","0.0-16.0-0.28","5e3ff59bf2160b23942ada93","650c16f0f2faf8d7a0d14c09","651c0a37f893ceabafc0018c","null","null","<p style=""font-size: 60px; font-family: BACS"">DCmhRCdc</p>","","","","","","","","",""
"html-keyboard-response","361","419805","0.0-16.0-0.29","5e3ff59bf2160b23942ada93","650c16f0f2faf8d7a0d14c09","651c0a37f893ceabafc0018c","null","null","<p style=""font-size: 60px; font-family: BACS"">DCmhRCdc</p>","","","","","","","","",""
"html-keyboard-response","362","420808","0.0-16.0-0.30","5e3ff59bf2160b23942ada93","650c16f0f2faf8d7a0d14c09","651c0a37f893ceabafc0018c","null","null","<p style=""font-size: 60px; font-family: BACS"">DCmhRCdc</p>","","","","","","","","",""
"html-keyboard-response","363","421813","0.0-16.0-0.31","5e3ff59bf2160b23942ada93","650c16f0f2faf8d7a0d14c09","651c0a37f893ceabafc0018c","null","null","<p style=""font-size: 60px; font-family: BACS"">DCmhRCdc</p>","","","","","","","","",""
"html-keyboard-response","364","422816","0.0-16.0-0.32","5e3ff59bf2160b23942ada93","650c16f0f2faf8d7a0d14c09","651c0a37f893ceabafc0018c","null","null","<p style=""font-size: 60px; font-family: BACS"">DCmhRCdc</p>","","","","","","","","",""
"html-keyboard-response","365","423820","0.0-16.0-0.33","5e3ff59bf2160b23942ada93","650c16f0f2faf8d7a0d14c09","651c0a37f893ceabafc0018c","null","null","<p style=""font-size: 60px; font-family: BACS"">DCmhRCdc</p>","","","","","","","","",""
"html-keyboard-response","366","424825","0.0-16.0-0.34","5e3ff59bf2160b23942ada93","650c16f0f2faf8d7a0d14c09","651c0a37f893ceabafc0018c","null","null","<p style=""font-size: 60px; font-family: BACS"">DCmhRCdc</p>","","","","","","","","",""
"html-keyboard-response","367","425828","0.0-16.0-0.35","5e3ff59bf2160b23942ada93","650c16f0f2faf8d7a0d14c09","651c0a37f893ceabafc0018c","null","null","<p style=""font-size: 60px; font-family: BACS"">DCmhRCdc</p>","","","","","","","","",""
"html-keyboard-response","368","426832","0.0-16.0-0.36","5e3ff59bf2160b23942ada93","650c16f0f2faf8d7a0d14c09","651c0a37f893ceabafc0018c","null","null","<p style=""font-size: 60px; font-family: BACS"">DCmhRCdc</p>","","","","","","","","",""
"html-keyboard-response","369","427862","0.0-16.0-0.37","5e3ff59bf2160b23942ada93","650c16f0f2faf8d7a0d14c09","651c0a37f893ceabafc0018c","null","null","<p style=""font-size: 60px; font-family: BACS"">DCmhRCdc</p>","","","","","","","","",""
"html-keyboard-response","370","428864","0.0-16.0-0.38","5e3ff59bf2160b23942ada93","650c16f0f2faf8d7a0d14c09","651c0a37f893ceabafc0018c","null","null","<p style=""font-size: 60px; font-family: BACS"">DCmhRCdc</p>","","","","","","","","",""
"html-keyboard-response","371","429869","0.0-16.0-0.39","5e3ff59bf2160b23942ada93","650c16f0f2faf8d7a0d14c09","651c0a37f893ceabafc0018c","null","null","<p style=""font-size: 60px; font-family: BACS"">DCmhRCdc</p>","","","","","","","","",""
"html-keyboard-response","372","430873","0.0-16.0-0.40","5e3ff59bf2160b23942ada93","650c16f0f2faf8d7a0d14c09","651c0a37f893ceabafc0018c","null","null","<p style=""font-size: 60px; font-family: BACS"">DCmhRCdc</p>","","","","","","","","",""
"html-keyboard-response","373","431876","0.0-16.0-0.41","5e3ff59bf2160b23942ada93","650c16f0f2faf8d7a0d14c09","651c0a37f893ceabafc0018c","null","null","<p style=""font-size: 60px; font-family: BACS"">DCmhRCdc</p>","","","","","","","","",""
"html-keyboard-response","374","432884","0.0-16.0-0.42","5e3ff59bf2160b23942ada93","650c16f0f2faf8d7a0d14c09","651c0a37f893ceabafc0018c","null","null","<p style=""font-size: 60px; font-family: BACS"">DCmhRCdc</p>","","","","","","","","",""
"html-keyboard-response","375","433889","0.0-16.0-0.43","5e3ff59bf2160b23942ada93","650c16f0f2faf8d7a0d14c09","651c0a37f893ceabafc0018c","null","null","<p style=""font-size: 60px; font-family: BACS"">DCmhRCdc</p>","","","","","","","","",""
"html-keyboard-response","376","434892","0.0-16.0-0.44","5e3ff59bf2160b23942ada93","650c16f0f2faf8d7a0d14c09","651c0a37f893ceabafc0018c","null","null","<p style=""font-size: 60px; font-family: BACS"">DCmhRCdc</p>","","","","","","","","",""
"html-keyboard-response","377","435897","0.0-16.0-0.45","5e3ff59bf2160b23942ada93","650c16f0f2faf8d7a0d14c09","651c0a37f893ceabafc0018c","null","null","<p style=""font-size: 60px; font-family: BACS"">DCmhRCdc</p>","","","","","","","","",""
"html-keyboard-response","378","436900","0.0-16.0-0.46","5e3ff59bf2160b23942ada93","650c16f0f2faf8d7a0d14c09","651c0a37f893ceabafc0018c","null","null","<p style=""font-size: 60px; font-family: BACS"">DCmhRCdc</p>","","","","","","","","",""
"html-keyboard-response","379","437904","0.0-16.0-0.47","5e3ff59bf2160b23942ada93","650c16f0f2faf8d7a0d14c09","651c0a37f893ceabafc0018c","null","null","<p style=""font-size: 60px; font-family: BACS"">DCmhRCdc</p>","","","","","","","","",""
"html-keyboard-response","380","438908","0.0-16.0-0.48","5e3ff59bf2160b23942ada93","650c16f0f2faf8d7a0d14c09","651c0a37f893ceabafc0018c","null","null","<p style=""font-size: 60px; font-family: BACS"">DCmhRCdc</p>","","","","","","","","",""
"html-keyboard-response","381","439913","0.0-16.0-0.49","5e3ff59bf2160b23942ada93","650c16f0f2faf8d7a0d14c09","651c0a37f893ceabafc0018c","null","null","<p style=""font-size: 60px; font-family: BACS"">DCmhRCdc</p>","","","","","","","","",""
"html-keyboard-response","382","440916","0.0-16.0-0.50","5e3ff59bf2160b23942ada93","650c16f0f2faf8d7a0d14c09","651c0a37f893ceabafc0018c","null","null","<p style=""font-size: 60px; font-family: BACS"">DCmhRCdc</p>","","","","","","","","",""
"html-keyboard-response","383","441920","0.0-16.0-0.51","5e3ff59bf2160b23942ada93","650c16f0f2faf8d7a0d14c09","651c0a37f893ceabafc0018c","null","null","<p style=""font-size: 60px; font-family: BACS"">DCmhRCdc</p>","","","","","","","","",""
"html-keyboard-response","384","442925","0.0-16.0-0.52","5e3ff59bf2160b23942ada93","650c16f0f2faf8d7a0d14c09","651c0a37f893ceabafc0018c","null","null","<p style=""font-size: 60px; font-family: BACS"">DCmhRCdc</p>","","","","","","","","",""
"html-keyboard-response","385","443928","0.0-16.0-0.53","5e3ff59bf2160b23942ada93","650c16f0f2faf8d7a0d14c09","651c0a37f893ceabafc0018c","null","null","<p style=""font-size: 60px; font-family: BACS"">DCmhRCdc</p>","","","","","","","","",""
"html-keyboard-response","386","444932","0.0-16.0-0.54","5e3ff59bf2160b23942ada93","650c16f0f2faf8d7a0d14c09","651c0a37f893ceabafc0018c","null","null","<p style=""font-size: 60px; font-family: BACS"">DCmhRCdc</p>","","","","","","","","",""
"html-keyboard-response","387","445937","0.0-16.0-0.55","5e3ff59bf2160b23942ada93","650c16f0f2faf8d7a0d14c09","651c0a37f893ceabafc0018c","null","null","<p style=""font-size: 60px; font-family: BACS"">DCmhRCdc</p>","","","","","","","","",""
"html-keyboard-response","388","446941","0.0-16.0-0.56","5e3ff59bf2160b23942ada93","650c16f0f2faf8d7a0d14c09","651c0a37f893ceabafc0018c","null","null","<p style=""font-size: 60px; font-family: BACS"">DCmhRCdc</p>","","","","","","","","",""
"html-keyboard-response","389","447944","0.0-16.0-0.57","5e3ff59bf2160b23942ada93","650c16f0f2faf8d7a0d14c09","651c0a37f893ceabafc0018c","null","null","<p style=""font-size: 60px; font-family: BACS"">DCmhRCdc</p>","","","","","","","","",""
"html-keyboard-response","390","448949","0.0-16.0-0.58","5e3ff59bf2160b23942ada93","650c16f0f2faf8d7a0d14c09","651c0a37f893ceabafc0018c","null","null","<p style=""font-size: 60px; font-family: BACS"">DCmhRCdc</p>","","","","","","","","",""
"html-keyboard-response","391","449952","0.0-16.0-0.59","5e3ff59bf2160b23942ada93","650c16f0f2faf8d7a0d14c09","651c0a37f893ceabafc0018c","null","null","<p style=""font-size: 60px; font-family: BACS"">DCmhRCdc</p>","","","","","","","","",""
"html-keyboard-response","392","450958","0.0-16.0-0.60","5e3ff59bf2160b23942ada93","650c16f0f2faf8d7a0d14c09","651c0a37f893ceabafc0018c","null","null","<p style=""font-size: 60px; font-family: BACS"">DCmhRCdc</p>","","","","","","","","",""
"html-keyboard-response","393","451960","0.0-16.0-0.61","5e3ff59bf2160b23942ada93","650c16f0f2faf8d7a0d14c09","651c0a37f893ceabafc0018c","null","null","<p style=""font-size: 60px; font-family: BACS"">DCmhRCdc</p>","","","","","","","","",""
"html-keyboard-response","394","452965","0.0-16.0-0.62","5e3ff59bf2160b23942ada93","650c16f0f2faf8d7a0d14c09","651c0a37f893ceabafc0018c","null","null","<p style=""font-size: 60px; font-family: BACS"">DCmhRCdc</p>","","","","","","","","",""
"html-keyboard-response","395","453968","0.0-16.0-0.63","5e3ff59bf2160b23942ada93","650c16f0f2faf8d7a0d14c09","651c0a37f893ceabafc0018c","null","null","<p style=""font-size: 60px; font-family: BACS"">DCmhRCdc</p>","","","","","","","","",""
"html-keyboard-response","396","454972","0.0-16.0-0.64","5e3ff59bf2160b23942ada93","650c16f0f2faf8d7a0d14c09","651c0a37f893ceabafc0018c","null","null","<p style=""font-size: 60px; font-family: BACS"">DCmhRCdc</p>","","","","","","","","",""
"html-keyboard-response","397","455976","0.0-16.0-0.65","5e3ff59bf2160b23942ada93","650c16f0f2faf8d7a0d14c09","651c0a37f893ceabafc0018c","null","null","<p style=""font-size: 60px; font-family: BACS"">DCmhRCdc</p>","","","","","","","","",""
"html-keyboard-response","398","456981","0.0-16.0-0.66","5e3ff59bf2160b23942ada93","650c16f0f2faf8d7a0d14c09","651c0a37f893ceabafc0018c","null","null","<p style=""font-size: 60px; font-family: BACS"">DCmhRCdc</p>","","","","","","","","",""
"html-keyboard-response","399","457984","0.0-16.0-0.67","5e3ff59bf2160b23942ada93","650c16f0f2faf8d7a0d14c09","651c0a37f893ceabafc0018c","null","null","<p style=""font-size: 60px; font-family: BACS"">DCmhRCdc</p>","","","","","","","","",""
"html-keyboard-response","400","458987","0.0-16.0-0.68","5e3ff59bf2160b23942ada93","650c16f0f2faf8d7a0d14c09","651c0a37f893ceabafc0018c","null","null","<p style=""font-size: 60px; font-family: BACS"">DCmhRCdc</p>","","","","","","","","",""
