"trial_type","trial_index","time_elapsed","internal_node_id","subject_id","study_id","session_id","rt","response","stimulus","success","item","task","correct_response","correct","target","confound","name"
"pavlovia","0","3759","0.0-0.0","608edc13472b2dbc27b369fa","64b003020eef62ee308107cc","64b032109ba8ed9969490fd5","","","","","","","","","","",""
"survey-html-form","1","34173","0.0-1.0","608edc13472b2dbc27b369fa","64b003020eef62ee308107cc","64b032109ba8ed9969490fd5","30413","{""ID"":""608edc13472b2dbc27b369fa""}","","","","","","","","",""
"html-keyboard-response","2","38257","0.0-2.0","608edc13472b2dbc27b369fa","64b003020eef62ee308107cc","64b032109ba8ed9969490fd5","4083"," ","<p style=""font-size: 15px;"">Prima di cominciare, le chiediamo di leggere il modulo di consenso informato e confermare la sua volontà di partecipare all'esperimento.</p>
      <p style=""font-size: 15px;""> La preghiamo di ricordare che questo è un progetto di ricerca e che la sua partecipazione è completamente volontaria. Lei si potra' ritirare in qualunque momento, senza necessariamente dover dare alcuna spiegazione. Lo studio al quale Le si chiede di partecipare ha lo scopo di esaminare come i lettori elaborano le parole scritte. La somministrazione delle prove è individuale. Lei sarà impegnato in una sessione di lavoro della durata media di 10 minuti, e un questionario di 10 minuti. L’ordine delle prove ed il loro svolgimento sono stabiliti in modo tale da evitare un eventuale affaticamento. Tutte le prove saranno precedute da un breve addestramento in modo tale che abbia la possibilità di familiarizzare con il compito. Sono previste alcune pause nel corso dello svolgimento dell’esperimento. Una ricompensa di £4 (£8 per ora) Le verrà consegnata al termine della sessione di testing. Nonostante il testing preveda delle prove cognitive, il presente esperimento non costituisce una prova clinica che permetta la diagnosi di eventuali patologie.</p>
      <p style=""font-size: 15px;"">Tutti i dati raccolti grazie alla partecipazione Sua e di altre persone volontarie saranno custoditi in server sicuri e protetti da password, e non sarà consentito ad alcuna persona non autorizzata di accedervi. Le Sue informazioni personali saranno conservate separatamente dai risultati della presente ricerca, cui saranno associati soltanto attraverso un ID arbitrario. Grazie a questo processo di anonimizzazione dei dati, a nessun ricercatore sarà possibile analizzare i risultati sapendo da quale specifico partecipante essi provengono. Inoltre, questa procedura renderà impossibile la Sua identificazione anche nel momento in cui i risultati della ricerca fossero pubblicati su riviste scientifiche, o presentati a congressi o in qualsiasi altro pubblico consesso. Più in generale, i dati raccolti saranno trattati in accordo con le leggi sulla privacy e in conformità al Decreto Legislativo 30 giugno 2003 n. 196 “Codice in materia di protezione dei dati personali” e al Regolamento Europeo 2016/679 (General Data Protection Regulation - GDPR). Il Responsabile della protezione dei dati (RPD) è l’Avv. Valentina Carollo che può essere contattato ai seguenti indirizzi email: <a href=""mailto:dpo@sissa.it"">dpo@sissa.it</a> oppure <a href=""mailto:rpd@sissa.it"">rpd@sissa.it</a> - PEC: <a href=""mailto:protocollo@pec.sissa.it"">protocollo@pec.sissa.it</a>.</p>
      <p style=""font-size: 15px;""> Prima di esprimere il suo consenso alla partecipazione, Le ricordiamo ancora che in caso Lei abbia bisogno di delucidazioni su qualunque aspetto della procedura sperimentale, il ricercatore è a Sua completa disposizione (<a href=""mailto:aliebelt@sissa.it"">aliebelt@sissa.it</a>, <a href=""mailto:davide.crepaldi@sissa.it"">davide.crepaldi@sissa.it</a>).</p>
      <p style=""font-size: 15px;"">Se vuole scaricare il modulo di consenso informato, clicca qui: <a href=""BASL_modulo_consenso.pdf"" download>modulo di consenso</a>.</p>
      <p style=""font-size: 15px;""> Le chiediamo di premere la barra per continuare al consenso.</p>","","","","","","","",""
"survey-html-form","3","60722","0.0-3.0","608edc13472b2dbc27b369fa","64b003020eef62ee308107cc","64b032109ba8ed9969490fd5","22463","{""consent1"":""YES"",""consent2"":""YES"",""consent3"":""YES"",""consent4"":""YES"",""consent5"":""YES"",""consent6"":""YES""}","","","","","","","","",""
"fullscreen","4","66663","0.0-4.0","608edc13472b2dbc27b369fa","64b003020eef62ee308107cc","64b032109ba8ed9969490fd5","","","","true","","","","","","",""
"html-keyboard-response","5","71870","0.0-5.0","608edc13472b2dbc27b369fa","64b003020eef62ee308107cc","64b032109ba8ed9969490fd5","5205"," ","<p>Benvenuta/o, e grazie mille del tuo tempo!</p>
      <p>In questo esperimento sarai un esperto/un'esperta di linguaggio cui è stato chiesto di dare un'occhiata ad alcuni messaggi che la Terra ha ricevuto dallo spazio. Il tuo compito, in questa prima parte dell'esperimento, sarà di fare molta attenzione alle parole che ti verranno mostrate; più tardi, i leader del mondo ti chiederanno qualche informazione su quello che hai visto. Le parole si susseguiranno abbastanza velocemente; sembra che questi alieni abbiano una certa fretta :-) </p>
      <p>Per favore, chiama lo sperimentatore se ha qualche domanda.</p><p>Premi la barra per continuare.</p>","","","","","","","",""
"html-keyboard-response","6","77599","0.0-6.0","608edc13472b2dbc27b369fa","64b003020eef62ee308107cc","64b032109ba8ed9969490fd5","5727"," ","<p>Ecco un esempio delle parole che vedrai:</p>
      <img src='esempio.png' height='400px'>
      <p>Quando sei pronti per iniziare, premi la barra.</p></div>","","","","","","","",""
"html-keyboard-response","7","78610","0.0-7.0-0.0","608edc13472b2dbc27b369fa","64b003020eef62ee308107cc","64b032109ba8ed9969490fd5","null","null","<p style=""font-size: 60px; font-family: BACS"">BlmcldPc</p>","","","","","","","",""
"html-keyboard-response","8","79613","0.0-7.0-0.1","608edc13472b2dbc27b369fa","64b003020eef62ee308107cc","64b032109ba8ed9969490fd5","null","null","<p style=""font-size: 60px; font-family: BACS"">EltMBKlkD</p>","","","","","","","",""
"html-keyboard-response","9","80620","0.0-7.0-0.2","608edc13472b2dbc27b369fa","64b003020eef62ee308107cc","64b032109ba8ed9969490fd5","null","null","<p style=""font-size: 60px; font-family: BACS"">OLJblOJNk</p>","","","","","","","",""
"html-keyboard-response","10","81633","0.0-7.0-0.3","608edc13472b2dbc27b369fa","64b003020eef62ee308107cc","64b032109ba8ed9969490fd5","null","null","<p style=""font-size: 60px; font-family: BACS"">kPkRARDM</p>","","","","","","","",""
"html-keyboard-response","11","82643","0.0-7.0-0.4","608edc13472b2dbc27b369fa","64b003020eef62ee308107cc","64b032109ba8ed9969490fd5","null","null","<p style=""font-size: 60px; font-family: BACS"">mcOJAZbl</p>","","","","","","","",""
"html-keyboard-response","12","83650","0.0-7.0-0.5","608edc13472b2dbc27b369fa","64b003020eef62ee308107cc","64b032109ba8ed9969490fd5","null","null","<p style=""font-size: 60px; font-family: BACS"">ArQuArv</p>","","","","","","","",""
"html-keyboard-response","13","84654","0.0-7.0-0.6","608edc13472b2dbc27b369fa","64b003020eef62ee308107cc","64b032109ba8ed9969490fd5","null","null","<p style=""font-size: 60px; font-family: BACS"">kdaAJOJNk</p>","","","","","","","",""
"html-keyboard-response","14","85662","0.0-7.0-0.7","608edc13472b2dbc27b369fa","64b003020eef62ee308107cc","64b032109ba8ed9969490fd5","null","null","<p style=""font-size: 60px; font-family: BACS"">damYbravu</p>","","","","","","","",""
"html-keyboard-response","15","86664","0.0-7.0-0.8","608edc13472b2dbc27b369fa","64b003020eef62ee308107cc","64b032109ba8ed9969490fd5","null","null","<p style=""font-size: 60px; font-family: BACS"">GabkYArG</p>","","","","","","","",""
"html-keyboard-response","16","87675","0.0-7.0-0.9","608edc13472b2dbc27b369fa","64b003020eef62ee308107cc","64b032109ba8ed9969490fd5","null","null","<p style=""font-size: 60px; font-family: BACS"">DOBhYmAM</p>","","","","","","","",""
"html-keyboard-response","17","88676","0.0-7.0-0.10","608edc13472b2dbc27b369fa","64b003020eef62ee308107cc","64b032109ba8ed9969490fd5","null","null","<p style=""font-size: 60px; font-family: BACS"">GQrcOJNk</p>","","","","","","","",""
"html-keyboard-response","18","89677","0.0-7.0-0.11","608edc13472b2dbc27b369fa","64b003020eef62ee308107cc","64b032109ba8ed9969490fd5","null","null","<p style=""font-size: 60px; font-family: BACS"">OLJblYArG</p>","","","","","","","",""
"html-keyboard-response","19","90689","0.0-7.0-0.12","608edc13472b2dbc27b369fa","64b003020eef62ee308107cc","64b032109ba8ed9969490fd5","null","null","<p style=""font-size: 60px; font-family: BACS"">OMlTdPc</p>","","","","","","","",""
"html-keyboard-response","20","91697","0.0-7.0-0.13","608edc13472b2dbc27b369fa","64b003020eef62ee308107cc","64b032109ba8ed9969490fd5","null","null","<p style=""font-size: 60px; font-family: BACS"">EltMBKmE</p>","","","","","","","",""
"html-keyboard-response","21","92707","0.0-7.0-0.14","608edc13472b2dbc27b369fa","64b003020eef62ee308107cc","64b032109ba8ed9969490fd5","null","null","<p style=""font-size: 60px; font-family: BACS"">OLJblravu</p>","","","","","","","",""
"html-keyboard-response","22","93858","0.0-7.0-0.15","608edc13472b2dbc27b369fa","64b003020eef62ee308107cc","64b032109ba8ed9969490fd5","null","null","<p style=""font-size: 60px; font-family: BACS"">RlAKcKmE</p>","","","","","","","",""
"html-keyboard-response","23","95848","0.0-7.0-0.16","608edc13472b2dbc27b369fa","64b003020eef62ee308107cc","64b032109ba8ed9969490fd5","null","null","<p style=""font-size: 60px; font-family: BACS"">RKYkmAM</p>","","","","","","","",""
"html-keyboard-response","24","96862","0.0-7.0-0.17","608edc13472b2dbc27b369fa","64b003020eef62ee308107cc","64b032109ba8ed9969490fd5","null","null","<p style=""font-size: 60px; font-family: BACS"">DOBhYdPc</p>","","","","","","","",""
"html-keyboard-response","25","98858","0.0-7.0-0.18","608edc13472b2dbc27b369fa","64b003020eef62ee308107cc","64b032109ba8ed9969490fd5","null","null","<p style=""font-size: 60px; font-family: BACS"">kdaAJAZbl</p>","","","","","","","",""
"html-keyboard-response","26","100855","0.0-7.0-0.19","608edc13472b2dbc27b369fa","64b003020eef62ee308107cc","64b032109ba8ed9969490fd5","null","null","<p style=""font-size: 60px; font-family: BACS"">rLaZravu</p>","","","","","","","",""
"html-keyboard-response","27","101858","0.0-7.0-0.20","608edc13472b2dbc27b369fa","64b003020eef62ee308107cc","64b032109ba8ed9969490fd5","null","null","<p style=""font-size: 60px; font-family: BACS"">BlmclKmE</p>","","","","","","","",""
"html-keyboard-response","28","103856","0.0-7.0-0.21","608edc13472b2dbc27b369fa","64b003020eef62ee308107cc","64b032109ba8ed9969490fd5","null","null","<p style=""font-size: 60px; font-family: BACS"">damYbAZbl</p>","","","","","","","",""
"html-keyboard-response","29","105854","0.0-7.0-0.22","608edc13472b2dbc27b369fa","64b003020eef62ee308107cc","64b032109ba8ed9969490fd5","null","null","<p style=""font-size: 60px; font-family: BACS"">GQrcYArG</p>","","","","","","","",""
"html-keyboard-response","30","107860","0.0-7.0-0.23","608edc13472b2dbc27b369fa","64b003020eef62ee308107cc","64b032109ba8ed9969490fd5","null","null","<p style=""font-size: 60px; font-family: BACS"">mcOJOJNk</p>","","","","","","","",""
"html-keyboard-response","31","109859","0.0-7.0-0.24","608edc13472b2dbc27b369fa","64b003020eef62ee308107cc","64b032109ba8ed9969490fd5","null","null","<p style=""font-size: 60px; font-family: BACS"">GabkAZbl</p>","","","","","","","",""
"html-keyboard-response","32","110866","0.0-7.0-0.25","608edc13472b2dbc27b369fa","64b003020eef62ee308107cc","64b032109ba8ed9969490fd5","null","null","<p style=""font-size: 60px; font-family: BACS"">OLJblArv</p>","","","","","","","",""
"html-keyboard-response","33","111867","0.0-7.0-0.26","608edc13472b2dbc27b369fa","64b003020eef62ee308107cc","64b032109ba8ed9969490fd5","null","null","<p style=""font-size: 60px; font-family: BACS"">McMDdPc</p>","","","","","","","",""
"html-keyboard-response","34","112870","0.0-7.0-0.27","608edc13472b2dbc27b369fa","64b003020eef62ee308107cc","64b032109ba8ed9969490fd5","null","null","<p style=""font-size: 60px; font-family: BACS"">ArQuravu</p>","","","","","","","",""
"html-keyboard-response","35","113885","0.0-7.0-0.28","608edc13472b2dbc27b369fa","64b003020eef62ee308107cc","64b032109ba8ed9969490fd5","null","null","<p style=""font-size: 60px; font-family: BACS"">McMDKmE</p>","","","","","","","",""
"html-keyboard-response","36","114900","0.0-7.0-0.29","608edc13472b2dbc27b369fa","64b003020eef62ee308107cc","64b032109ba8ed9969490fd5","null","null","<p style=""font-size: 60px; font-family: BACS"">RlAKcdPc</p>","","","","","","","",""
"html-keyboard-response","37","115904","0.0-7.0-0.30","608edc13472b2dbc27b369fa","64b003020eef62ee308107cc","64b032109ba8ed9969490fd5","null","null","<p style=""font-size: 60px; font-family: BACS"">kNuaYArG</p>","","","","","","","",""
"html-keyboard-response","38","116914","0.0-7.0-0.31","608edc13472b2dbc27b369fa","64b003020eef62ee308107cc","64b032109ba8ed9969490fd5","null","null","<p style=""font-size: 60px; font-family: BACS"">damYbOJNk</p>","","","","","","","",""
"html-keyboard-response","39","117915","0.0-7.0-0.32","608edc13472b2dbc27b369fa","64b003020eef62ee308107cc","64b032109ba8ed9969490fd5","null","null","<p style=""font-size: 60px; font-family: BACS"">uvaUArv</p>","","","","","","","",""
"html-keyboard-response","40","118916","0.0-7.0-0.33","608edc13472b2dbc27b369fa","64b003020eef62ee308107cc","64b032109ba8ed9969490fd5","null","null","<p style=""font-size: 60px; font-family: BACS"">BlmclRDM</p>","","","","","","","",""
"html-keyboard-response","41","119928","0.0-7.0-0.34","608edc13472b2dbc27b369fa","64b003020eef62ee308107cc","64b032109ba8ed9969490fd5","null","null","<p style=""font-size: 60px; font-family: BACS"">PcBTKmE</p>","","","","","","","",""
"html-keyboard-response","42","120935","0.0-7.0-0.35","608edc13472b2dbc27b369fa","64b003020eef62ee308107cc","64b032109ba8ed9969490fd5","null","null","<p style=""font-size: 60px; font-family: BACS"">RKYkKlkD</p>","","","","","","","",""
"html-keyboard-response","43","121940","0.0-7.0-0.36","608edc13472b2dbc27b369fa","64b003020eef62ee308107cc","64b032109ba8ed9969490fd5","null","null","<p style=""font-size: 60px; font-family: BACS"">kNuaArv</p>","","","","","","","",""
"html-keyboard-response","44","122950","0.0-7.0-0.37","608edc13472b2dbc27b369fa","64b003020eef62ee308107cc","64b032109ba8ed9969490fd5","null","null","<p style=""font-size: 60px; font-family: BACS"">DOBhYKmE</p>","","","","","","","",""
"html-keyboard-response","45","123957","0.0-7.0-0.38","608edc13472b2dbc27b369fa","64b003020eef62ee308107cc","64b032109ba8ed9969490fd5","null","null","<p style=""font-size: 60px; font-family: BACS"">kdaAJravu</p>","","","","","","","",""
"html-keyboard-response","46","124958","0.0-7.0-0.39","608edc13472b2dbc27b369fa","64b003020eef62ee308107cc","64b032109ba8ed9969490fd5","null","null","<p style=""font-size: 60px; font-family: BACS"">GQrcArv</p>","","","","","","","",""
"html-keyboard-response","47","128032","0.0-7.0-0.40","608edc13472b2dbc27b369fa","64b003020eef62ee308107cc","64b032109ba8ed9969490fd5","null","null","<p style=""font-size: 60px; font-family: BACS"">RlAKcRDM</p>","","","","","","","",""
"html-keyboard-response","48","129041","0.0-7.0-0.41","608edc13472b2dbc27b369fa","64b003020eef62ee308107cc","64b032109ba8ed9969490fd5","null","null","<p style=""font-size: 60px; font-family: BACS"">mcOJYArG</p>","","","","","","","",""
"html-keyboard-response","49","130046","0.0-7.0-0.42","608edc13472b2dbc27b369fa","64b003020eef62ee308107cc","64b032109ba8ed9969490fd5","null","null","<p style=""font-size: 60px; font-family: BACS"">RlAKcKlkD</p>","","","","","","","",""
"html-keyboard-response","50","131048","0.0-7.0-0.43","608edc13472b2dbc27b369fa","64b003020eef62ee308107cc","64b032109ba8ed9969490fd5","null","null","<p style=""font-size: 60px; font-family: BACS"">PcBTRDM</p>","","","","","","","",""
"html-keyboard-response","51","132055","0.0-7.0-0.44","608edc13472b2dbc27b369fa","64b003020eef62ee308107cc","64b032109ba8ed9969490fd5","null","null","<p style=""font-size: 60px; font-family: BACS"">rLaZYArG</p>","","","","","","","",""
"html-keyboard-response","52","133860","0.0-7.0-0.45","608edc13472b2dbc27b369fa","64b003020eef62ee308107cc","64b032109ba8ed9969490fd5","null","null","<p style=""font-size: 60px; font-family: BACS"">kNuaAZbl</p>","","","","","","","",""
"html-keyboard-response","53","135858","0.0-7.0-0.46","608edc13472b2dbc27b369fa","64b003020eef62ee308107cc","64b032109ba8ed9969490fd5","null","null","<p style=""font-size: 60px; font-family: BACS"">kPkRAmAM</p>","","","","","","","",""
"html-keyboard-response","54","137857","0.0-7.0-0.47","608edc13472b2dbc27b369fa","64b003020eef62ee308107cc","64b032109ba8ed9969490fd5","null","null","<p style=""font-size: 60px; font-family: BACS"">ArQuAZbl</p>","","","","","","","",""
"html-keyboard-response","55","139459","0.0-7.0-0.48","608edc13472b2dbc27b369fa","64b003020eef62ee308107cc","64b032109ba8ed9969490fd5","null","null","<p style=""font-size: 60px; font-family: BACS"">RKYkRDM</p>","","","","","","","",""
"html-keyboard-response","56","140471","0.0-7.0-0.49","608edc13472b2dbc27b369fa","64b003020eef62ee308107cc","64b032109ba8ed9969490fd5","null","null","<p style=""font-size: 60px; font-family: BACS"">kdaAJYArG</p>","","","","","","","",""
"html-keyboard-response","57","141472","0.0-7.0-0.50","608edc13472b2dbc27b369fa","64b003020eef62ee308107cc","64b032109ba8ed9969490fd5","null","null","<p style=""font-size: 60px; font-family: BACS"">McMDmAM</p>","","","","","","","",""
"html-keyboard-response","58","142474","0.0-7.0-0.51","608edc13472b2dbc27b369fa","64b003020eef62ee308107cc","64b032109ba8ed9969490fd5","null","null","<p style=""font-size: 60px; font-family: BACS"">ArQuYArG</p>","","","","","","","",""
"html-keyboard-response","59","143480","0.0-7.0-0.52","608edc13472b2dbc27b369fa","64b003020eef62ee308107cc","64b032109ba8ed9969490fd5","null","null","<p style=""font-size: 60px; font-family: BACS"">DOBhYKlkD</p>","","","","","","","",""
"html-keyboard-response","60","144489","0.0-7.0-0.53","608edc13472b2dbc27b369fa","64b003020eef62ee308107cc","64b032109ba8ed9969490fd5","null","null","<p style=""font-size: 60px; font-family: BACS"">damYbArv</p>","","","","","","","",""
"html-keyboard-response","61","145849","0.0-7.0-0.54","608edc13472b2dbc27b369fa","64b003020eef62ee308107cc","64b032109ba8ed9969490fd5","null","null","<p style=""font-size: 60px; font-family: BACS"">OMlTKmE</p>","","","","","","","",""
"html-keyboard-response","62","146854","0.0-7.0-0.55","608edc13472b2dbc27b369fa","64b003020eef62ee308107cc","64b032109ba8ed9969490fd5","null","null","<p style=""font-size: 60px; font-family: BACS"">rLaZArv</p>","","","","","","","",""
"html-keyboard-response","63","147861","0.0-7.0-0.56","608edc13472b2dbc27b369fa","64b003020eef62ee308107cc","64b032109ba8ed9969490fd5","null","null","<p style=""font-size: 60px; font-family: BACS"">kdEdYmAM</p>","","","","","","","",""
"html-keyboard-response","64","149854","0.0-7.0-0.57","608edc13472b2dbc27b369fa","64b003020eef62ee308107cc","64b032109ba8ed9969490fd5","null","null","<p style=""font-size: 60px; font-family: BACS"">EltMBdPc</p>","","","","","","","",""
"html-keyboard-response","65","150869","0.0-7.0-0.58","608edc13472b2dbc27b369fa","64b003020eef62ee308107cc","64b032109ba8ed9969490fd5","null","null","<p style=""font-size: 60px; font-family: BACS"">OMlTKlkD</p>","","","","","","","",""
"html-keyboard-response","66","152849","0.0-7.0-0.59","608edc13472b2dbc27b369fa","64b003020eef62ee308107cc","64b032109ba8ed9969490fd5","null","null","<p style=""font-size: 60px; font-family: BACS"">McMDRDM</p>","","","","","","","",""
"html-keyboard-response","67","153859","0.0-7.0-0.60","608edc13472b2dbc27b369fa","64b003020eef62ee308107cc","64b032109ba8ed9969490fd5","null","null","<p style=""font-size: 60px; font-family: BACS"">PcBTKlkD</p>","","","","","","","",""
"html-keyboard-response","68","155853","0.0-7.0-0.61","608edc13472b2dbc27b369fa","64b003020eef62ee308107cc","64b032109ba8ed9969490fd5","null","null","<p style=""font-size: 60px; font-family: BACS"">uvaUAZbl</p>","","","","","","","",""
"html-keyboard-response","69","156858","0.0-7.0-0.62","608edc13472b2dbc27b369fa","64b003020eef62ee308107cc","64b032109ba8ed9969490fd5","null","null","<p style=""font-size: 60px; font-family: BACS"">PcBTmAM</p>","","","","","","","",""
"html-keyboard-response","70","157860","0.0-7.0-0.63","608edc13472b2dbc27b369fa","64b003020eef62ee308107cc","64b032109ba8ed9969490fd5","null","null","<p style=""font-size: 60px; font-family: BACS"">kPkRAKmE</p>","","","","","","","",""
"html-keyboard-response","71","158862","0.0-7.0-0.64","608edc13472b2dbc27b369fa","64b003020eef62ee308107cc","64b032109ba8ed9969490fd5","null","null","<p style=""font-size: 60px; font-family: BACS"">mcOJArv</p>","","","","","","","",""
"html-keyboard-response","72","159871","0.0-7.0-0.65","608edc13472b2dbc27b369fa","64b003020eef62ee308107cc","64b032109ba8ed9969490fd5","null","null","<p style=""font-size: 60px; font-family: BACS"">kdEdYKlkD</p>","","","","","","","",""
"html-keyboard-response","73","160878","0.0-7.0-0.66","608edc13472b2dbc27b369fa","64b003020eef62ee308107cc","64b032109ba8ed9969490fd5","null","null","<p style=""font-size: 60px; font-family: BACS"">GQrcravu</p>","","","","","","","",""
"html-keyboard-response","74","161879","0.0-7.0-0.67","608edc13472b2dbc27b369fa","64b003020eef62ee308107cc","64b032109ba8ed9969490fd5","null","null","<p style=""font-size: 60px; font-family: BACS"">uvaUOJNk</p>","","","","","","","",""
"html-keyboard-response","75","162880","0.0-7.0-0.68","608edc13472b2dbc27b369fa","64b003020eef62ee308107cc","64b032109ba8ed9969490fd5","null","null","<p style=""font-size: 60px; font-family: BACS"">BlmclmAM</p>","","","","","","","",""
"html-keyboard-response","76","163891","0.0-7.0-0.69","608edc13472b2dbc27b369fa","64b003020eef62ee308107cc","64b032109ba8ed9969490fd5","null","null","<p style=""font-size: 60px; font-family: BACS"">Gabkravu</p>","","","","","","","",""
"html-keyboard-response","77","164903","0.0-7.0-0.70","608edc13472b2dbc27b369fa","64b003020eef62ee308107cc","64b032109ba8ed9969490fd5","null","null","<p style=""font-size: 60px; font-family: BACS"">kdEdYRDM</p>","","","","","","","",""
"html-keyboard-response","78","165914","0.0-7.0-0.71","608edc13472b2dbc27b369fa","64b003020eef62ee308107cc","64b032109ba8ed9969490fd5","null","null","<p style=""font-size: 60px; font-family: BACS"">uvaUravu</p>","","","","","","","",""
"html-keyboard-response","79","166925","0.0-7.0-0.72","608edc13472b2dbc27b369fa","64b003020eef62ee308107cc","64b032109ba8ed9969490fd5","null","null","<p style=""font-size: 60px; font-family: BACS"">EltMBmAM</p>","","","","","","","",""
"html-keyboard-response","80","167939","0.0-7.0-0.73","608edc13472b2dbc27b369fa","64b003020eef62ee308107cc","64b032109ba8ed9969490fd5","null","null","<p style=""font-size: 60px; font-family: BACS"">OMlTRDM</p>","","","","","","","",""
"html-keyboard-response","81","168947","0.0-7.0-0.74","608edc13472b2dbc27b369fa","64b003020eef62ee308107cc","64b032109ba8ed9969490fd5","null","null","<p style=""font-size: 60px; font-family: BACS"">GabkOJNk</p>","","","","","","","",""
"html-keyboard-response","82","170856","0.0-7.0-0.75","608edc13472b2dbc27b369fa","64b003020eef62ee308107cc","64b032109ba8ed9969490fd5","null","null","<p style=""font-size: 60px; font-family: BACS"">RKYkdPc</p>","","","","","","","",""
"html-keyboard-response","83","172858","0.0-7.0-0.76","608edc13472b2dbc27b369fa","64b003020eef62ee308107cc","64b032109ba8ed9969490fd5","null","null","<p style=""font-size: 60px; font-family: BACS"">rLaZAZbl</p>","","","","","","","",""
"html-keyboard-response","84","174848","0.0-7.0-0.77","608edc13472b2dbc27b369fa","64b003020eef62ee308107cc","64b032109ba8ed9969490fd5","null","null","<p style=""font-size: 60px; font-family: BACS"">kPkRAKlkD</p>","","","","","","","",""
"html-keyboard-response","85","175854","0.0-7.0-0.78","608edc13472b2dbc27b369fa","64b003020eef62ee308107cc","64b032109ba8ed9969490fd5","null","null","<p style=""font-size: 60px; font-family: BACS"">kdEdYdPc</p>","","","","","","","",""
"html-keyboard-response","86","177851","0.0-7.0-0.79","608edc13472b2dbc27b369fa","64b003020eef62ee308107cc","64b032109ba8ed9969490fd5","null","null","<p style=""font-size: 60px; font-family: BACS"">kNuaOJNk</p>","","","","","","","",""
"html-keyboard-response","87","186998","0.0-8.0","608edc13472b2dbc27b369fa","64b003020eef62ee308107cc","64b032109ba8ed9969490fd5","9147"," ","<p>Ottimo, hai visto il primo blocco di parole. Ora puoi prenderti una piccola pausa.</p>
      <p>Premi la barra quando sei pronta/o per riprendere.</p>","","","","","","","",""
"html-keyboard-response","88","188002","0.0-9.0-0.0","608edc13472b2dbc27b369fa","64b003020eef62ee308107cc","64b032109ba8ed9969490fd5","null","null","<p style=""font-size: 60px; font-family: BACS"">GabkYArG</p>","","","","","","","",""
"html-keyboard-response","89","189009","0.0-9.0-0.1","608edc13472b2dbc27b369fa","64b003020eef62ee308107cc","64b032109ba8ed9969490fd5","null","null","<p style=""font-size: 60px; font-family: BACS"">ArQuravu</p>","","","","","","","",""
"html-keyboard-response","90","190010","0.0-9.0-0.2","608edc13472b2dbc27b369fa","64b003020eef62ee308107cc","64b032109ba8ed9969490fd5","null","null","<p style=""font-size: 60px; font-family: BACS"">GQrcArv</p>","","","","","","","",""
"html-keyboard-response","91","191851","0.0-9.0-0.3","608edc13472b2dbc27b369fa","64b003020eef62ee308107cc","64b032109ba8ed9969490fd5","null","null","<p style=""font-size: 60px; font-family: BACS"">kdaAJAZbl</p>","","","","","","","",""
"html-keyboard-response","92","192856","0.0-9.0-0.4","608edc13472b2dbc27b369fa","64b003020eef62ee308107cc","64b032109ba8ed9969490fd5","null","null","<p style=""font-size: 60px; font-family: BACS"">uvaUArv</p>","","","","","","","",""
"html-keyboard-response","93","194861","0.0-9.0-0.5","608edc13472b2dbc27b369fa","64b003020eef62ee308107cc","64b032109ba8ed9969490fd5","null","null","<p style=""font-size: 60px; font-family: BACS"">McMDdPc</p>","","","","","","","",""
"html-keyboard-response","94","196849","0.0-9.0-0.6","608edc13472b2dbc27b369fa","64b003020eef62ee308107cc","64b032109ba8ed9969490fd5","null","null","<p style=""font-size: 60px; font-family: BACS"">OMlTRDM</p>","","","","","","","",""
"html-keyboard-response","95","197859","0.0-9.0-0.7","608edc13472b2dbc27b369fa","64b003020eef62ee308107cc","64b032109ba8ed9969490fd5","null","null","<p style=""font-size: 60px; font-family: BACS"">PcBTmAM</p>","","","","","","","",""
"html-keyboard-response","96","199859","0.0-9.0-0.8","608edc13472b2dbc27b369fa","64b003020eef62ee308107cc","64b032109ba8ed9969490fd5","null","null","<p style=""font-size: 60px; font-family: BACS"">RlAKcdPc</p>","","","","","","","",""
"html-keyboard-response","97","201846","0.0-9.0-0.9","608edc13472b2dbc27b369fa","64b003020eef62ee308107cc","64b032109ba8ed9969490fd5","null","null","<p style=""font-size: 60px; font-family: BACS"">kdaAJYArG</p>","","","","","","","",""
"html-keyboard-response","98","202850","0.0-9.0-0.10","608edc13472b2dbc27b369fa","64b003020eef62ee308107cc","64b032109ba8ed9969490fd5","null","null","<p style=""font-size: 60px; font-family: BACS"">rLaZAZbl</p>","","","","","","","",""
"html-keyboard-response","99","203857","0.0-9.0-0.11","608edc13472b2dbc27b369fa","64b003020eef62ee308107cc","64b032109ba8ed9969490fd5","null","null","<p style=""font-size: 60px; font-family: BACS"">RKYkRDM</p>","","","","","","","",""
"html-keyboard-response","100","205855","0.0-9.0-0.12","608edc13472b2dbc27b369fa","64b003020eef62ee308107cc","64b032109ba8ed9969490fd5","null","null","<p style=""font-size: 60px; font-family: BACS"">uvaUOJNk</p>","","","","","","","",""
"html-keyboard-response","101","206861","0.0-9.0-0.13","608edc13472b2dbc27b369fa","64b003020eef62ee308107cc","64b032109ba8ed9969490fd5","null","null","<p style=""font-size: 60px; font-family: BACS"">EltMBmAM</p>","","","","","","","",""
"html-keyboard-response","102","208847","0.0-9.0-0.14","608edc13472b2dbc27b369fa","64b003020eef62ee308107cc","64b032109ba8ed9969490fd5","null","null","<p style=""font-size: 60px; font-family: BACS"">kdEdYRDM</p>","","","","","","","",""
"html-keyboard-response","103","209853","0.0-9.0-0.15","608edc13472b2dbc27b369fa","64b003020eef62ee308107cc","64b032109ba8ed9969490fd5","null","null","<p style=""font-size: 60px; font-family: BACS"">Gabkravu</p>","","","","","","","",""
"html-keyboard-response","104","211857","0.0-9.0-0.16","608edc13472b2dbc27b369fa","64b003020eef62ee308107cc","64b032109ba8ed9969490fd5","null","null","<p style=""font-size: 60px; font-family: BACS"">kNuaArv</p>","","","","","","","",""
"html-keyboard-response","105","213857","0.0-9.0-0.17","608edc13472b2dbc27b369fa","64b003020eef62ee308107cc","64b032109ba8ed9969490fd5","null","null","<p style=""font-size: 60px; font-family: BACS"">rLaZYArG</p>","","","","","","","",""
"html-keyboard-response","106","215860","0.0-9.0-0.18","608edc13472b2dbc27b369fa","64b003020eef62ee308107cc","64b032109ba8ed9969490fd5","null","null","<p style=""font-size: 60px; font-family: BACS"">DOBhYmAM</p>","","","","","","","",""
"html-keyboard-response","107","217743","0.0-9.0-0.19","608edc13472b2dbc27b369fa","64b003020eef62ee308107cc","64b032109ba8ed9969490fd5","null","null","<p style=""font-size: 60px; font-family: BACS"">uvaUAZbl</p>","","","","","","","",""
"html-keyboard-response","108","218747","0.0-9.0-0.20","608edc13472b2dbc27b369fa","64b003020eef62ee308107cc","64b032109ba8ed9969490fd5","null","null","<p style=""font-size: 60px; font-family: BACS"">RKYkdPc</p>","","","","","","","",""
"html-keyboard-response","109","219847","0.0-9.0-0.21","608edc13472b2dbc27b369fa","64b003020eef62ee308107cc","64b032109ba8ed9969490fd5","null","null","<p style=""font-size: 60px; font-family: BACS"">BlmclmAM</p>","","","","","","","",""
"html-keyboard-response","110","220854","0.0-9.0-0.22","608edc13472b2dbc27b369fa","64b003020eef62ee308107cc","64b032109ba8ed9969490fd5","null","null","<p style=""font-size: 60px; font-family: BACS"">GQrcravu</p>","","","","","","","",""
"html-keyboard-response","111","222847","0.0-9.0-0.23","608edc13472b2dbc27b369fa","64b003020eef62ee308107cc","64b032109ba8ed9969490fd5","null","null","<p style=""font-size: 60px; font-family: BACS"">kPkRARDM</p>","","","","","","","",""
"html-keyboard-response","112","223856","0.0-9.0-0.24","608edc13472b2dbc27b369fa","64b003020eef62ee308107cc","64b032109ba8ed9969490fd5","null","null","<p style=""font-size: 60px; font-family: BACS"">OMlTKmE</p>","","","","","","","",""
"html-keyboard-response","113","224860","0.0-9.0-0.25","608edc13472b2dbc27b369fa","64b003020eef62ee308107cc","64b032109ba8ed9969490fd5","null","null","<p style=""font-size: 60px; font-family: BACS"">DOBhYKlkD</p>","","","","","","","",""
"html-keyboard-response","114","226860","0.0-9.0-0.26","608edc13472b2dbc27b369fa","64b003020eef62ee308107cc","64b032109ba8ed9969490fd5","null","null","<p style=""font-size: 60px; font-family: BACS"">mcOJArv</p>","","","","","","","",""
"html-keyboard-response","115","228848","0.0-9.0-0.27","608edc13472b2dbc27b369fa","64b003020eef62ee308107cc","64b032109ba8ed9969490fd5","null","null","<p style=""font-size: 60px; font-family: BACS"">OLJblYArG</p>","","","","","","","",""
"html-keyboard-response","116","229856","0.0-9.0-0.28","608edc13472b2dbc27b369fa","64b003020eef62ee308107cc","64b032109ba8ed9969490fd5","null","null","<p style=""font-size: 60px; font-family: BACS"">RKYkKlkD</p>","","","","","","","",""
"html-keyboard-response","117","230864","0.0-9.0-0.29","608edc13472b2dbc27b369fa","64b003020eef62ee308107cc","64b032109ba8ed9969490fd5","null","null","<p style=""font-size: 60px; font-family: BACS"">OMlTdPc</p>","","","","","","","",""
"html-keyboard-response","118","232853","0.0-9.0-0.30","608edc13472b2dbc27b369fa","64b003020eef62ee308107cc","64b032109ba8ed9969490fd5","null","null","<p style=""font-size: 60px; font-family: BACS"">GQrcYArG</p>","","","","","","","",""
"html-keyboard-response","119","233853","0.0-9.0-0.31","608edc13472b2dbc27b369fa","64b003020eef62ee308107cc","64b032109ba8ed9969490fd5","null","null","<p style=""font-size: 60px; font-family: BACS"">McMDKmE</p>","","","","","","","",""
"html-keyboard-response","120","234855","0.0-9.0-0.32","608edc13472b2dbc27b369fa","64b003020eef62ee308107cc","64b032109ba8ed9969490fd5","null","null","<p style=""font-size: 60px; font-family: BACS"">kdEdYKlkD</p>","","","","","","","",""
"html-keyboard-response","121","236859","0.0-9.0-0.33","608edc13472b2dbc27b369fa","64b003020eef62ee308107cc","64b032109ba8ed9969490fd5","null","null","<p style=""font-size: 60px; font-family: BACS"">PcBTKmE</p>","","","","","","","",""
"html-keyboard-response","122","238856","0.0-9.0-0.34","608edc13472b2dbc27b369fa","64b003020eef62ee308107cc","64b032109ba8ed9969490fd5","null","null","<p style=""font-size: 60px; font-family: BACS"">McMDmAM</p>","","","","","","","",""
"html-keyboard-response","123","240861","0.0-9.0-0.35","608edc13472b2dbc27b369fa","64b003020eef62ee308107cc","64b032109ba8ed9969490fd5","null","null","<p style=""font-size: 60px; font-family: BACS"">rLaZArv</p>","","","","","","","",""
"html-keyboard-response","124","242848","0.0-9.0-0.36","608edc13472b2dbc27b369fa","64b003020eef62ee308107cc","64b032109ba8ed9969490fd5","null","null","<p style=""font-size: 60px; font-family: BACS"">ArQuYArG</p>","","","","","","","",""
"html-keyboard-response","125","243858","0.0-9.0-0.37","608edc13472b2dbc27b369fa","64b003020eef62ee308107cc","64b032109ba8ed9969490fd5","null","null","<p style=""font-size: 60px; font-family: BACS"">EltMBKlkD</p>","","","","","","","",""
"html-keyboard-response","126","245859","0.0-9.0-0.38","608edc13472b2dbc27b369fa","64b003020eef62ee308107cc","64b032109ba8ed9969490fd5","null","null","<p style=""font-size: 60px; font-family: BACS"">kdaAJravu</p>","","","","","","","",""
"html-keyboard-response","127","247861","0.0-9.0-0.39","608edc13472b2dbc27b369fa","64b003020eef62ee308107cc","64b032109ba8ed9969490fd5","null","null","<p style=""font-size: 60px; font-family: BACS"">OLJblArv</p>","","","","","","","",""
"html-keyboard-response","128","249853","0.0-9.0-0.40","608edc13472b2dbc27b369fa","64b003020eef62ee308107cc","64b032109ba8ed9969490fd5","null","null","<p style=""font-size: 60px; font-family: BACS"">DOBhYKmE</p>","","","","","","","",""
"html-keyboard-response","129","251848","0.0-9.0-0.41","608edc13472b2dbc27b369fa","64b003020eef62ee308107cc","64b032109ba8ed9969490fd5","null","null","<p style=""font-size: 60px; font-family: BACS"">uvaUravu</p>","","","","","","","",""
"html-keyboard-response","130","252925","0.0-9.0-0.42","608edc13472b2dbc27b369fa","64b003020eef62ee308107cc","64b032109ba8ed9969490fd5","null","null","<p style=""font-size: 60px; font-family: BACS"">GabkOJNk</p>","","","","","","","",""
"html-keyboard-response","131","254851","0.0-9.0-0.43","608edc13472b2dbc27b369fa","64b003020eef62ee308107cc","64b032109ba8ed9969490fd5","null","null","<p style=""font-size: 60px; font-family: BACS"">RlAKcKlkD</p>","","","","","","","",""
"html-keyboard-response","132","255855","0.0-9.0-0.44","608edc13472b2dbc27b369fa","64b003020eef62ee308107cc","64b032109ba8ed9969490fd5","null","null","<p style=""font-size: 60px; font-family: BACS"">GabkAZbl</p>","","","","","","","",""
"html-keyboard-response","133","257794","0.0-9.0-0.45","608edc13472b2dbc27b369fa","64b003020eef62ee308107cc","64b032109ba8ed9969490fd5","null","null","<p style=""font-size: 60px; font-family: BACS"">OMlTKlkD</p>","","","","","","","",""
"html-keyboard-response","134","258851","0.0-9.0-0.46","608edc13472b2dbc27b369fa","64b003020eef62ee308107cc","64b032109ba8ed9969490fd5","null","null","<p style=""font-size: 60px; font-family: BACS"">RlAKcKmE</p>","","","","","","","",""
"html-keyboard-response","135","259860","0.0-9.0-0.47","608edc13472b2dbc27b369fa","64b003020eef62ee308107cc","64b032109ba8ed9969490fd5","null","null","<p style=""font-size: 60px; font-family: BACS"">kdEdYmAM</p>","","","","","","","",""
"html-keyboard-response","136","260874","0.0-9.0-0.48","608edc13472b2dbc27b369fa","64b003020eef62ee308107cc","64b032109ba8ed9969490fd5","null","null","<p style=""font-size: 60px; font-family: BACS"">kPkRAKmE</p>","","","","","","","",""
"html-keyboard-response","137","262849","0.0-9.0-0.49","608edc13472b2dbc27b369fa","64b003020eef62ee308107cc","64b032109ba8ed9969490fd5","null","null","<p style=""font-size: 60px; font-family: BACS"">BlmclRDM</p>","","","","","","","",""
"html-keyboard-response","138","263859","0.0-9.0-0.50","608edc13472b2dbc27b369fa","64b003020eef62ee308107cc","64b032109ba8ed9969490fd5","null","null","<p style=""font-size: 60px; font-family: BACS"">kPkRAKlkD</p>","","","","","","","",""
"html-keyboard-response","139","265848","0.0-9.0-0.51","608edc13472b2dbc27b369fa","64b003020eef62ee308107cc","64b032109ba8ed9969490fd5","null","null","<p style=""font-size: 60px; font-family: BACS"">RlAKcRDM</p>","","","","","","","",""
"html-keyboard-response","140","266856","0.0-9.0-0.52","608edc13472b2dbc27b369fa","64b003020eef62ee308107cc","64b032109ba8ed9969490fd5","null","null","<p style=""font-size: 60px; font-family: BACS"">damYbravu</p>","","","","","","","",""
"html-keyboard-response","141","268847","0.0-9.0-0.53","608edc13472b2dbc27b369fa","64b003020eef62ee308107cc","64b032109ba8ed9969490fd5","null","null","<p style=""font-size: 60px; font-family: BACS"">kdaAJOJNk</p>","","","","","","","",""
"html-keyboard-response","142","269852","0.0-9.0-0.54","608edc13472b2dbc27b369fa","64b003020eef62ee308107cc","64b032109ba8ed9969490fd5","null","null","<p style=""font-size: 60px; font-family: BACS"">mcOJAZbl</p>","","","","","","","",""
"html-keyboard-response","143","270860","0.0-9.0-0.55","608edc13472b2dbc27b369fa","64b003020eef62ee308107cc","64b032109ba8ed9969490fd5","null","null","<p style=""font-size: 60px; font-family: BACS"">kNuaYArG</p>","","","","","","","",""
"html-keyboard-response","144","272861","0.0-9.0-0.56","608edc13472b2dbc27b369fa","64b003020eef62ee308107cc","64b032109ba8ed9969490fd5","null","null","<p style=""font-size: 60px; font-family: BACS"">GQrcOJNk</p>","","","","","","","",""
"html-keyboard-response","145","274852","0.0-9.0-0.57","608edc13472b2dbc27b369fa","64b003020eef62ee308107cc","64b032109ba8ed9969490fd5","null","null","<p style=""font-size: 60px; font-family: BACS"">kNuaAZbl</p>","","","","","","","",""
"html-keyboard-response","146","275860","0.0-9.0-0.58","608edc13472b2dbc27b369fa","64b003020eef62ee308107cc","64b032109ba8ed9969490fd5","null","null","<p style=""font-size: 60px; font-family: BACS"">kdEdYdPc</p>","","","","","","","",""
"html-keyboard-response","147","276860","0.0-9.0-0.59","608edc13472b2dbc27b369fa","64b003020eef62ee308107cc","64b032109ba8ed9969490fd5","null","null","<p style=""font-size: 60px; font-family: BACS"">kNuaOJNk</p>","","","","","","","",""
"html-keyboard-response","148","278851","0.0-9.0-0.60","608edc13472b2dbc27b369fa","64b003020eef62ee308107cc","64b032109ba8ed9969490fd5","null","null","<p style=""font-size: 60px; font-family: BACS"">DOBhYdPc</p>","","","","","","","",""
"html-keyboard-response","149","279853","0.0-9.0-0.61","608edc13472b2dbc27b369fa","64b003020eef62ee308107cc","64b032109ba8ed9969490fd5","null","null","<p style=""font-size: 60px; font-family: BACS"">kPkRAmAM</p>","","","","","","","",""
"html-keyboard-response","150","280855","0.0-9.0-0.62","608edc13472b2dbc27b369fa","64b003020eef62ee308107cc","64b032109ba8ed9969490fd5","null","null","<p style=""font-size: 60px; font-family: BACS"">damYbOJNk</p>","","","","","","","",""
"html-keyboard-response","151","282850","0.0-9.0-0.63","608edc13472b2dbc27b369fa","64b003020eef62ee308107cc","64b032109ba8ed9969490fd5","null","null","<p style=""font-size: 60px; font-family: BACS"">ArQuAZbl</p>","","","","","","","",""
"html-keyboard-response","152","283856","0.0-9.0-0.64","608edc13472b2dbc27b369fa","64b003020eef62ee308107cc","64b032109ba8ed9969490fd5","null","null","<p style=""font-size: 60px; font-family: BACS"">McMDRDM</p>","","","","","","","",""
"html-keyboard-response","153","284869","0.0-9.0-0.65","608edc13472b2dbc27b369fa","64b003020eef62ee308107cc","64b032109ba8ed9969490fd5","null","null","<p style=""font-size: 60px; font-family: BACS"">mcOJYArG</p>","","","","","","","",""
"html-keyboard-response","154","286860","0.0-9.0-0.66","608edc13472b2dbc27b369fa","64b003020eef62ee308107cc","64b032109ba8ed9969490fd5","null","null","<p style=""font-size: 60px; font-family: BACS"">OLJblOJNk</p>","","","","","","","",""
"html-keyboard-response","155","288861","0.0-9.0-0.67","608edc13472b2dbc27b369fa","64b003020eef62ee308107cc","64b032109ba8ed9969490fd5","null","null","<p style=""font-size: 60px; font-family: BACS"">damYbArv</p>","","","","","","","",""
"html-keyboard-response","156","290859","0.0-9.0-0.68","608edc13472b2dbc27b369fa","64b003020eef62ee308107cc","64b032109ba8ed9969490fd5","null","null","<p style=""font-size: 60px; font-family: BACS"">BlmcldPc</p>","","","","","","","",""
"html-keyboard-response","157","291875","0.0-9.0-0.69","608edc13472b2dbc27b369fa","64b003020eef62ee308107cc","64b032109ba8ed9969490fd5","null","null","<p style=""font-size: 60px; font-family: BACS"">mcOJOJNk</p>","","","","","","","",""
"html-keyboard-response","158","292880","0.0-9.0-0.70","608edc13472b2dbc27b369fa","64b003020eef62ee308107cc","64b032109ba8ed9969490fd5","null","null","<p style=""font-size: 60px; font-family: BACS"">EltMBdPc</p>","","","","","","","",""
"html-keyboard-response","159","294849","0.0-9.0-0.71","608edc13472b2dbc27b369fa","64b003020eef62ee308107cc","64b032109ba8ed9969490fd5","null","null","<p style=""font-size: 60px; font-family: BACS"">rLaZravu</p>","","","","","","","",""
"html-keyboard-response","160","295854","0.0-9.0-0.72","608edc13472b2dbc27b369fa","64b003020eef62ee308107cc","64b032109ba8ed9969490fd5","null","null","<p style=""font-size: 60px; font-family: BACS"">EltMBKmE</p>","","","","","","","",""
"html-keyboard-response","161","296858","0.0-9.0-0.73","608edc13472b2dbc27b369fa","64b003020eef62ee308107cc","64b032109ba8ed9969490fd5","null","null","<p style=""font-size: 60px; font-family: BACS"">RKYkmAM</p>","","","","","","","",""
"html-keyboard-response","162","297873","0.0-9.0-0.74","608edc13472b2dbc27b369fa","64b003020eef62ee308107cc","64b032109ba8ed9969490fd5","null","null","<p style=""font-size: 60px; font-family: BACS"">PcBTKlkD</p>","","","","","","","",""
"html-keyboard-response","163","299857","0.0-9.0-0.75","608edc13472b2dbc27b369fa","64b003020eef62ee308107cc","64b032109ba8ed9969490fd5","null","null","<p style=""font-size: 60px; font-family: BACS"">OLJblravu</p>","","","","","","","",""
"html-keyboard-response","164","300870","0.0-9.0-0.76","608edc13472b2dbc27b369fa","64b003020eef62ee308107cc","64b032109ba8ed9969490fd5","null","null","<p style=""font-size: 60px; font-family: BACS"">BlmclKmE</p>","","","","","","","",""
"html-keyboard-response","165","302858","0.0-9.0-0.77","608edc13472b2dbc27b369fa","64b003020eef62ee308107cc","64b032109ba8ed9969490fd5","null","null","<p style=""font-size: 60px; font-family: BACS"">ArQuArv</p>","","","","","","","",""
"html-keyboard-response","166","304762","0.0-9.0-0.78","608edc13472b2dbc27b369fa","64b003020eef62ee308107cc","64b032109ba8ed9969490fd5","null","null","<p style=""font-size: 60px; font-family: BACS"">damYbAZbl</p>","","","","","","","",""
"html-keyboard-response","167","305764","0.0-9.0-0.79","608edc13472b2dbc27b369fa","64b003020eef62ee308107cc","64b032109ba8ed9969490fd5","null","null","<p style=""font-size: 60px; font-family: BACS"">PcBTRDM</p>","","","","","","","",""
"html-keyboard-response","168","306934","0.0-10.0","608edc13472b2dbc27b369fa","64b003020eef62ee308107cc","64b032109ba8ed9969490fd5","1169"," ","<p>Ottimo, hai visto il secondo blocco di parole. Ora puoi prenderti una piccola pausa.</p>
      <p>Premi la barra quando sei pronta/o per riprendere.</p>","","","","","","","",""
"html-keyboard-response","169","308847","0.0-11.0-0.0","608edc13472b2dbc27b369fa","64b003020eef62ee308107cc","64b032109ba8ed9969490fd5","null","null","<p style=""font-size: 60px; font-family: BACS"">damYbArv</p>","","","","","","","",""
"html-keyboard-response","170","309859","0.0-11.0-0.1","608edc13472b2dbc27b369fa","64b003020eef62ee308107cc","64b032109ba8ed9969490fd5","null","null","<p style=""font-size: 60px; font-family: BACS"">kPkRAmAM</p>","","","","","","","",""
"html-keyboard-response","171","311851","0.0-11.0-0.2","608edc13472b2dbc27b369fa","64b003020eef62ee308107cc","64b032109ba8ed9969490fd5","null","null","<p style=""font-size: 60px; font-family: BACS"">GQrcArv</p>","","","","","","","",""
"html-keyboard-response","172","313859","0.0-11.0-0.3","608edc13472b2dbc27b369fa","64b003020eef62ee308107cc","64b032109ba8ed9969490fd5","null","null","<p style=""font-size: 60px; font-family: BACS"">PcBTRDM</p>","","","","","","","",""
"html-keyboard-response","173","315859","0.0-11.0-0.4","608edc13472b2dbc27b369fa","64b003020eef62ee308107cc","64b032109ba8ed9969490fd5","null","null","<p style=""font-size: 60px; font-family: BACS"">uvaUravu</p>","","","","","","","",""
"html-keyboard-response","174","317581","0.0-11.0-0.5","608edc13472b2dbc27b369fa","64b003020eef62ee308107cc","64b032109ba8ed9969490fd5","null","null","<p style=""font-size: 60px; font-family: BACS"">DOBhYdPc</p>","","","","","","","",""
"html-keyboard-response","175","318855","0.0-11.0-0.6","608edc13472b2dbc27b369fa","64b003020eef62ee308107cc","64b032109ba8ed9969490fd5","null","null","<p style=""font-size: 60px; font-family: BACS"">mcOJOJNk</p>","","","","","","","",""
"html-keyboard-response","176","319868","0.0-11.0-0.7","608edc13472b2dbc27b369fa","64b003020eef62ee308107cc","64b032109ba8ed9969490fd5","null","null","<p style=""font-size: 60px; font-family: BACS"">uvaUAZbl</p>","","","","","","","",""
"html-keyboard-response","177","321855","0.0-11.0-0.8","608edc13472b2dbc27b369fa","64b003020eef62ee308107cc","64b032109ba8ed9969490fd5","null","null","<p style=""font-size: 60px; font-family: BACS"">kNuaArv</p>","","","","","","","",""
"html-keyboard-response","178","322861","0.0-11.0-0.9","608edc13472b2dbc27b369fa","64b003020eef62ee308107cc","64b032109ba8ed9969490fd5","null","null","<p style=""font-size: 60px; font-family: BACS"">OLJblravu</p>","","","","","","","",""
"html-keyboard-response","179","324860","0.0-11.0-0.10","608edc13472b2dbc27b369fa","64b003020eef62ee308107cc","64b032109ba8ed9969490fd5","null","null","<p style=""font-size: 60px; font-family: BACS"">RlAKcKmE</p>","","","","","","","",""
"html-keyboard-response","180","326858","0.0-11.0-0.11","608edc13472b2dbc27b369fa","64b003020eef62ee308107cc","64b032109ba8ed9969490fd5","null","null","<p style=""font-size: 60px; font-family: BACS"">RKYkmAM</p>","","","","","","","",""
"html-keyboard-response","181","328854","0.0-11.0-0.12","608edc13472b2dbc27b369fa","64b003020eef62ee308107cc","64b032109ba8ed9969490fd5","null","null","<p style=""font-size: 60px; font-family: BACS"">kdEdYKlkD</p>","","","","","","","",""
"html-keyboard-response","182","329864","0.0-11.0-0.13","608edc13472b2dbc27b369fa","64b003020eef62ee308107cc","64b032109ba8ed9969490fd5","null","null","<p style=""font-size: 60px; font-family: BACS"">GQrcOJNk</p>","","","","","","","",""
"html-keyboard-response","183","331858","0.0-11.0-0.14","608edc13472b2dbc27b369fa","64b003020eef62ee308107cc","64b032109ba8ed9969490fd5","null","null","<p style=""font-size: 60px; font-family: BACS"">DOBhYmAM</p>","","","","","","","",""
"html-keyboard-response","184","332874","0.0-11.0-0.15","608edc13472b2dbc27b369fa","64b003020eef62ee308107cc","64b032109ba8ed9969490fd5","null","null","<p style=""font-size: 60px; font-family: BACS"">ArQuArv</p>","","","","","","","",""
"html-keyboard-response","185","334856","0.0-11.0-0.16","608edc13472b2dbc27b369fa","64b003020eef62ee308107cc","64b032109ba8ed9969490fd5","null","null","<p style=""font-size: 60px; font-family: BACS"">kdaAJYArG</p>","","","","","","","",""
"html-keyboard-response","186","336849","0.0-11.0-0.17","608edc13472b2dbc27b369fa","64b003020eef62ee308107cc","64b032109ba8ed9969490fd5","null","null","<p style=""font-size: 60px; font-family: BACS"">McMDdPc</p>","","","","","","","",""
"html-keyboard-response","187","337863","0.0-11.0-0.18","608edc13472b2dbc27b369fa","64b003020eef62ee308107cc","64b032109ba8ed9969490fd5","null","null","<p style=""font-size: 60px; font-family: BACS"">OMlTRDM</p>","","","","","","","",""
"html-keyboard-response","188","339854","0.0-11.0-0.19","608edc13472b2dbc27b369fa","64b003020eef62ee308107cc","64b032109ba8ed9969490fd5","null","null","<p style=""font-size: 60px; font-family: BACS"">RKYkdPc</p>","","","","","","","",""
"html-keyboard-response","189","340865","0.0-11.0-0.20","608edc13472b2dbc27b369fa","64b003020eef62ee308107cc","64b032109ba8ed9969490fd5","null","null","<p style=""font-size: 60px; font-family: BACS"">RlAKcKlkD</p>","","","","","","","",""
"html-keyboard-response","190","342861","0.0-11.0-0.21","608edc13472b2dbc27b369fa","64b003020eef62ee308107cc","64b032109ba8ed9969490fd5","null","null","<p style=""font-size: 60px; font-family: BACS"">OLJblYArG</p>","","","","","","","",""
"html-keyboard-response","191","344854","0.0-11.0-0.22","608edc13472b2dbc27b369fa","64b003020eef62ee308107cc","64b032109ba8ed9969490fd5","null","null","<p style=""font-size: 60px; font-family: BACS"">DOBhYKmE</p>","","","","","","","",""
"html-keyboard-response","192","345870","0.0-11.0-0.23","608edc13472b2dbc27b369fa","64b003020eef62ee308107cc","64b032109ba8ed9969490fd5","null","null","<p style=""font-size: 60px; font-family: BACS"">kPkRARDM</p>","","","","","","","",""
"html-keyboard-response","193","347190","0.0-11.0-0.24","608edc13472b2dbc27b369fa","64b003020eef62ee308107cc","64b032109ba8ed9969490fd5","null","null","<p style=""font-size: 60px; font-family: BACS"">PcBTKmE</p>","","","","","","","",""
"html-keyboard-response","194","348852","0.0-11.0-0.25","608edc13472b2dbc27b369fa","64b003020eef62ee308107cc","64b032109ba8ed9969490fd5","null","null","<p style=""font-size: 60px; font-family: BACS"">OMlTdPc</p>","","","","","","","",""
"html-keyboard-response","195","349856","0.0-11.0-0.26","608edc13472b2dbc27b369fa","64b003020eef62ee308107cc","64b032109ba8ed9969490fd5","null","null","<p style=""font-size: 60px; font-family: BACS"">ArQuAZbl</p>","","","","","","","",""
"html-keyboard-response","196","350858","0.0-11.0-0.27","608edc13472b2dbc27b369fa","64b003020eef62ee308107cc","64b032109ba8ed9969490fd5","null","null","<p style=""font-size: 60px; font-family: BACS"">kNuaOJNk</p>","","","","","","","",""
"html-keyboard-response","197","352854","0.0-11.0-0.28","608edc13472b2dbc27b369fa","64b003020eef62ee308107cc","64b032109ba8ed9969490fd5","null","null","<p style=""font-size: 60px; font-family: BACS"">GQrcravu</p>","","","","","","","",""
"html-keyboard-response","198","353858","0.0-11.0-0.29","608edc13472b2dbc27b369fa","64b003020eef62ee308107cc","64b032109ba8ed9969490fd5","null","null","<p style=""font-size: 60px; font-family: BACS"">mcOJArv</p>","","","","","","","",""
"html-keyboard-response","199","355853","0.0-11.0-0.30","608edc13472b2dbc27b369fa","64b003020eef62ee308107cc","64b032109ba8ed9969490fd5","null","null","<p style=""font-size: 60px; font-family: BACS"">ArQuYArG</p>","","","","","","","",""
"html-keyboard-response","200","357847","0.0-11.0-0.31","608edc13472b2dbc27b369fa","64b003020eef62ee308107cc","64b032109ba8ed9969490fd5","null","null","<p style=""font-size: 60px; font-family: BACS"">OLJblArv</p>","","","","","","","",""
"html-keyboard-response","201","358854","0.0-11.0-0.32","608edc13472b2dbc27b369fa","64b003020eef62ee308107cc","64b032109ba8ed9969490fd5","null","null","<p style=""font-size: 60px; font-family: BACS"">OMlTKlkD</p>","","","","","","","",""
"html-keyboard-response","202","360861","0.0-11.0-0.33","608edc13472b2dbc27b369fa","64b003020eef62ee308107cc","64b032109ba8ed9969490fd5","null","null","<p style=""font-size: 60px; font-family: BACS"">kPkRAKmE</p>","","","","","","","",""
"html-keyboard-response","203","361874","0.0-11.0-0.34","608edc13472b2dbc27b369fa","64b003020eef62ee308107cc","64b032109ba8ed9969490fd5","null","null","<p style=""font-size: 60px; font-family: BACS"">EltMBKlkD</p>","","","","","","","",""
"html-keyboard-response","204","363848","0.0-11.0-0.35","608edc13472b2dbc27b369fa","64b003020eef62ee308107cc","64b032109ba8ed9969490fd5","null","null","<p style=""font-size: 60px; font-family: BACS"">RlAKcdPc</p>","","","","","","","",""
"html-keyboard-response","205","364859","0.0-11.0-0.36","608edc13472b2dbc27b369fa","64b003020eef62ee308107cc","64b032109ba8ed9969490fd5","null","null","<p style=""font-size: 60px; font-family: BACS"">GabkAZbl</p>","","","","","","","",""
"html-keyboard-response","206","366849","0.0-11.0-0.37","608edc13472b2dbc27b369fa","64b003020eef62ee308107cc","64b032109ba8ed9969490fd5","null","null","<p style=""font-size: 60px; font-family: BACS"">kNuaYArG</p>","","","","","","","",""
"html-keyboard-response","207","367855","0.0-11.0-0.38","608edc13472b2dbc27b369fa","64b003020eef62ee308107cc","64b032109ba8ed9969490fd5","null","null","<p style=""font-size: 60px; font-family: BACS"">EltMBmAM</p>","","","","","","","",""
"html-keyboard-response","208","369854","0.0-11.0-0.39","608edc13472b2dbc27b369fa","64b003020eef62ee308107cc","64b032109ba8ed9969490fd5","null","null","<p style=""font-size: 60px; font-family: BACS"">McMDRDM</p>","","","","","","","",""
"html-keyboard-response","209","371858","0.0-11.0-0.40","608edc13472b2dbc27b369fa","64b003020eef62ee308107cc","64b032109ba8ed9969490fd5","null","null","<p style=""font-size: 60px; font-family: BACS"">EltMBdPc</p>","","","","","","","",""
"html-keyboard-response","210","373853","0.0-11.0-0.41","608edc13472b2dbc27b369fa","64b003020eef62ee308107cc","64b032109ba8ed9969490fd5","null","null","<p style=""font-size: 60px; font-family: BACS"">OMlTKmE</p>","","","","","","","",""
"html-keyboard-response","211","374867","0.0-11.0-0.42","608edc13472b2dbc27b369fa","64b003020eef62ee308107cc","64b032109ba8ed9969490fd5","null","null","<p style=""font-size: 60px; font-family: BACS"">kNuaAZbl</p>","","","","","","","",""
"html-keyboard-response","212","376080","0.0-11.0-0.43","608edc13472b2dbc27b369fa","64b003020eef62ee308107cc","64b032109ba8ed9969490fd5","null","null","<p style=""font-size: 60px; font-family: BACS"">damYbOJNk</p>","","","","","","","",""
"html-keyboard-response","213","377858","0.0-11.0-0.44","608edc13472b2dbc27b369fa","64b003020eef62ee308107cc","64b032109ba8ed9969490fd5","null","null","<p style=""font-size: 60px; font-family: BACS"">BlmclmAM</p>","","","","","","","",""
"html-keyboard-response","214","378868","0.0-11.0-0.45","608edc13472b2dbc27b369fa","64b003020eef62ee308107cc","64b032109ba8ed9969490fd5","null","null","<p style=""font-size: 60px; font-family: BACS"">GQrcYArG</p>","","","","","","","",""
"html-keyboard-response","215","380854","0.0-11.0-0.46","608edc13472b2dbc27b369fa","64b003020eef62ee308107cc","64b032109ba8ed9969490fd5","null","null","<p style=""font-size: 60px; font-family: BACS"">PcBTKlkD</p>","","","","","","","",""
"html-keyboard-response","216","381858","0.0-11.0-0.47","608edc13472b2dbc27b369fa","64b003020eef62ee308107cc","64b032109ba8ed9969490fd5","null","null","<p style=""font-size: 60px; font-family: BACS"">RKYkRDM</p>","","","","","","","",""
"html-keyboard-response","217","382861","0.0-11.0-0.48","608edc13472b2dbc27b369fa","64b003020eef62ee308107cc","64b032109ba8ed9969490fd5","null","null","<p style=""font-size: 60px; font-family: BACS"">kPkRAKlkD</p>","","","","","","","",""
"html-keyboard-response","218","384057","0.0-11.0-0.49","608edc13472b2dbc27b369fa","64b003020eef62ee308107cc","64b032109ba8ed9969490fd5","null","null","<p style=""font-size: 60px; font-family: BACS"">rLaZYArG</p>","","","","","","","",""
"html-keyboard-response","219","385849","0.0-11.0-0.50","608edc13472b2dbc27b369fa","64b003020eef62ee308107cc","64b032109ba8ed9969490fd5","null","null","<p style=""font-size: 60px; font-family: BACS"">mcOJAZbl</p>","","","","","","","",""
"html-keyboard-response","220","387852","0.0-11.0-0.51","608edc13472b2dbc27b369fa","64b003020eef62ee308107cc","64b032109ba8ed9969490fd5","null","null","<p style=""font-size: 60px; font-family: BACS"">kdaAJOJNk</p>","","","","","","","",""
"html-keyboard-response","221","389849","0.0-11.0-0.52","608edc13472b2dbc27b369fa","64b003020eef62ee308107cc","64b032109ba8ed9969490fd5","null","null","<p style=""font-size: 60px; font-family: BACS"">BlmcldPc</p>","","","","","","","",""
"html-keyboard-response","222","390866","0.0-11.0-0.53","608edc13472b2dbc27b369fa","64b003020eef62ee308107cc","64b032109ba8ed9969490fd5","null","null","<p style=""font-size: 60px; font-family: BACS"">kdaAJravu</p>","","","","","","","",""
"html-keyboard-response","223","392462","0.0-11.0-0.54","608edc13472b2dbc27b369fa","64b003020eef62ee308107cc","64b032109ba8ed9969490fd5","null","null","<p style=""font-size: 60px; font-family: BACS"">uvaUOJNk</p>","","","","","","","",""
"html-keyboard-response","224","393856","0.0-11.0-0.55","608edc13472b2dbc27b369fa","64b003020eef62ee308107cc","64b032109ba8ed9969490fd5","null","null","<p style=""font-size: 60px; font-family: BACS"">kdaAJAZbl</p>","","","","","","","",""
"html-keyboard-response","225","395854","0.0-11.0-0.56","608edc13472b2dbc27b369fa","64b003020eef62ee308107cc","64b032109ba8ed9969490fd5","null","null","<p style=""font-size: 60px; font-family: BACS"">BlmclRDM</p>","","","","","","","",""
"html-keyboard-response","226","397853","0.0-11.0-0.57","608edc13472b2dbc27b369fa","64b003020eef62ee308107cc","64b032109ba8ed9969490fd5","null","null","<p style=""font-size: 60px; font-family: BACS"">ArQuravu</p>","","","","","","","",""
"html-keyboard-response","227","398858","0.0-11.0-0.58","608edc13472b2dbc27b369fa","64b003020eef62ee308107cc","64b032109ba8ed9969490fd5","null","null","<p style=""font-size: 60px; font-family: BACS"">McMDKmE</p>","","","","","","","",""
"html-keyboard-response","228","399859","0.0-11.0-0.59","608edc13472b2dbc27b369fa","64b003020eef62ee308107cc","64b032109ba8ed9969490fd5","null","null","<p style=""font-size: 60px; font-family: BACS"">Gabkravu</p>","","","","","","","",""
"html-keyboard-response","229","400864","0.0-11.0-0.60","608edc13472b2dbc27b369fa","64b003020eef62ee308107cc","64b032109ba8ed9969490fd5","null","null","<p style=""font-size: 60px; font-family: BACS"">rLaZArv</p>","","","","","","","",""
"html-keyboard-response","230","402856","0.0-11.0-0.61","608edc13472b2dbc27b369fa","64b003020eef62ee308107cc","64b032109ba8ed9969490fd5","null","null","<p style=""font-size: 60px; font-family: BACS"">damYbravu</p>","","","","","","","",""
"html-keyboard-response","231","403856","0.0-11.0-0.62","608edc13472b2dbc27b369fa","64b003020eef62ee308107cc","64b032109ba8ed9969490fd5","null","null","<p style=""font-size: 60px; font-family: BACS"">RKYkKlkD</p>","","","","","","","",""
"html-keyboard-response","232","404874","0.0-11.0-0.63","608edc13472b2dbc27b369fa","64b003020eef62ee308107cc","64b032109ba8ed9969490fd5","null","null","<p style=""font-size: 60px; font-family: BACS"">kdEdYdPc</p>","","","","","","","",""
"html-keyboard-response","233","405881","0.0-11.0-0.64","608edc13472b2dbc27b369fa","64b003020eef62ee308107cc","64b032109ba8ed9969490fd5","null","null","<p style=""font-size: 60px; font-family: BACS"">rLaZravu</p>","","","","","","","",""
"html-keyboard-response","234","407861","0.0-11.0-0.65","608edc13472b2dbc27b369fa","64b003020eef62ee308107cc","64b032109ba8ed9969490fd5","null","null","<p style=""font-size: 60px; font-family: BACS"">damYbAZbl</p>","","","","","","","",""
"html-keyboard-response","235","409869","0.0-11.0-0.66","608edc13472b2dbc27b369fa","64b003020eef62ee308107cc","64b032109ba8ed9969490fd5","null","null","<p style=""font-size: 60px; font-family: BACS"">kdEdYmAM</p>","","","","","","","",""
"html-keyboard-response","236","411855","0.0-11.0-0.67","608edc13472b2dbc27b369fa","64b003020eef62ee308107cc","64b032109ba8ed9969490fd5","null","null","<p style=""font-size: 60px; font-family: BACS"">DOBhYKlkD</p>","","","","","","","",""
"html-keyboard-response","237","412861","0.0-11.0-0.68","608edc13472b2dbc27b369fa","64b003020eef62ee308107cc","64b032109ba8ed9969490fd5","null","null","<p style=""font-size: 60px; font-family: BACS"">GabkOJNk</p>","","","","","","","",""
"html-keyboard-response","238","414854","0.0-11.0-0.69","608edc13472b2dbc27b369fa","64b003020eef62ee308107cc","64b032109ba8ed9969490fd5","null","null","<p style=""font-size: 60px; font-family: BACS"">PcBTmAM</p>","","","","","","","",""
"html-keyboard-response","239","416856","0.0-11.0-0.70","608edc13472b2dbc27b369fa","64b003020eef62ee308107cc","64b032109ba8ed9969490fd5","null","null","<p style=""font-size: 60px; font-family: BACS"">EltMBKmE</p>","","","","","","","",""
"html-keyboard-response","240","417860","0.0-11.0-0.71","608edc13472b2dbc27b369fa","64b003020eef62ee308107cc","64b032109ba8ed9969490fd5","null","null","<p style=""font-size: 60px; font-family: BACS"">OLJblOJNk</p>","","","","","","","",""
"html-keyboard-response","241","419854","0.0-11.0-0.72","608edc13472b2dbc27b369fa","64b003020eef62ee308107cc","64b032109ba8ed9969490fd5","null","null","<p style=""font-size: 60px; font-family: BACS"">rLaZAZbl</p>","","","","","","","",""
"html-keyboard-response","242","420857","0.0-11.0-0.73","608edc13472b2dbc27b369fa","64b003020eef62ee308107cc","64b032109ba8ed9969490fd5","null","null","<p style=""font-size: 60px; font-family: BACS"">McMDmAM</p>","","","","","","","",""
"html-keyboard-response","243","422848","0.0-11.0-0.74","608edc13472b2dbc27b369fa","64b003020eef62ee308107cc","64b032109ba8ed9969490fd5","null","null","<p style=""font-size: 60px; font-family: BACS"">kdEdYRDM</p>","","","","","","","",""
"html-keyboard-response","244","423852","0.0-11.0-0.75","608edc13472b2dbc27b369fa","64b003020eef62ee308107cc","64b032109ba8ed9969490fd5","null","null","<p style=""font-size: 60px; font-family: BACS"">GabkYArG</p>","","","","","","","",""
"html-keyboard-response","245","424855","0.0-11.0-0.76","608edc13472b2dbc27b369fa","64b003020eef62ee308107cc","64b032109ba8ed9969490fd5","null","null","<p style=""font-size: 60px; font-family: BACS"">BlmclKmE</p>","","","","","","","",""
"html-keyboard-response","246","426847","0.0-11.0-0.77","608edc13472b2dbc27b369fa","64b003020eef62ee308107cc","64b032109ba8ed9969490fd5","null","null","<p style=""font-size: 60px; font-family: BACS"">mcOJYArG</p>","","","","","","","",""
"html-keyboard-response","247","427858","0.0-11.0-0.78","608edc13472b2dbc27b369fa","64b003020eef62ee308107cc","64b032109ba8ed9969490fd5","null","null","<p style=""font-size: 60px; font-family: BACS"">RlAKcRDM</p>","","","","","","","",""
"html-keyboard-response","248","428874","0.0-11.0-0.79","608edc13472b2dbc27b369fa","64b003020eef62ee308107cc","64b032109ba8ed9969490fd5","null","null","<p style=""font-size: 60px; font-family: BACS"">uvaUArv</p>","","","","","","","",""
"html-keyboard-response","249","436544","0.0-12.0","608edc13472b2dbc27b369fa","64b003020eef62ee308107cc","64b032109ba8ed9969490fd5","7670"," ","<p>Ottimo, hai visto il terzo blocco di parole. Ora puoi prenderti una piccola pausa.</p>
      <p>Premi la barra quando sei pronta/o per riprendere.</p>","","","","","","","",""
"html-keyboard-response","250","437558","0.0-13.0-0.0","608edc13472b2dbc27b369fa","64b003020eef62ee308107cc","64b032109ba8ed9969490fd5","null","null","<p style=""font-size: 60px; font-family: BACS"">mcOJYArG</p>","","","","","","","",""
"html-keyboard-response","251","438857","0.0-13.0-0.1","608edc13472b2dbc27b369fa","64b003020eef62ee308107cc","64b032109ba8ed9969490fd5","null","null","<p style=""font-size: 60px; font-family: BACS"">McMDRDM</p>","","","","","","","",""
"html-keyboard-response","252","440857","0.0-13.0-0.2","608edc13472b2dbc27b369fa","64b003020eef62ee308107cc","64b032109ba8ed9969490fd5","null","null","<p style=""font-size: 60px; font-family: BACS"">GQrcArv</p>","","","","","","","",""
"html-keyboard-response","253","441870","0.0-13.0-0.3","608edc13472b2dbc27b369fa","64b003020eef62ee308107cc","64b032109ba8ed9969490fd5","null","null","<p style=""font-size: 60px; font-family: BACS"">OMlTdPc</p>","","","","","","","",""
"html-keyboard-response","254","443853","0.0-13.0-0.4","608edc13472b2dbc27b369fa","64b003020eef62ee308107cc","64b032109ba8ed9969490fd5","null","null","<p style=""font-size: 60px; font-family: BACS"">kNuaAZbl</p>","","","","","","","",""
"html-keyboard-response","255","444866","0.0-13.0-0.5","608edc13472b2dbc27b369fa","64b003020eef62ee308107cc","64b032109ba8ed9969490fd5","null","null","<p style=""font-size: 60px; font-family: BACS"">RKYkdPc</p>","","","","","","","",""
"html-keyboard-response","256","446009","0.0-13.0-0.6","608edc13472b2dbc27b369fa","64b003020eef62ee308107cc","64b032109ba8ed9969490fd5","null","null","<p style=""font-size: 60px; font-family: BACS"">DOBhYKmE</p>","","","","","","","",""
"html-keyboard-response","257","447852","0.0-13.0-0.7","608edc13472b2dbc27b369fa","64b003020eef62ee308107cc","64b032109ba8ed9969490fd5","null","null","<p style=""font-size: 60px; font-family: BACS"">kdEdYdPc</p>","","","","","","","",""
"html-keyboard-response","258","448855","0.0-13.0-0.8","608edc13472b2dbc27b369fa","64b003020eef62ee308107cc","64b032109ba8ed9969490fd5","null","null","<p style=""font-size: 60px; font-family: BACS"">damYbAZbl</p>","","","","","","","",""
"html-keyboard-response","259","450852","0.0-13.0-0.9","608edc13472b2dbc27b369fa","64b003020eef62ee308107cc","64b032109ba8ed9969490fd5","null","null","<p style=""font-size: 60px; font-family: BACS"">GQrcYArG</p>","","","","","","","",""
"html-keyboard-response","260","451859","0.0-13.0-0.10","608edc13472b2dbc27b369fa","64b003020eef62ee308107cc","64b032109ba8ed9969490fd5","null","null","<p style=""font-size: 60px; font-family: BACS"">kPkRAKlkD</p>","","","","","","","",""
"html-keyboard-response","261","453846","0.0-13.0-0.11","608edc13472b2dbc27b369fa","64b003020eef62ee308107cc","64b032109ba8ed9969490fd5","null","null","<p style=""font-size: 60px; font-family: BACS"">OLJblravu</p>","","","","","","","",""
"html-keyboard-response","262","454862","0.0-13.0-0.12","608edc13472b2dbc27b369fa","64b003020eef62ee308107cc","64b032109ba8ed9969490fd5","null","null","<p style=""font-size: 60px; font-family: BACS"">EltMBdPc</p>","","","","","","","",""
"html-keyboard-response","263","456856","0.0-13.0-0.13","608edc13472b2dbc27b369fa","64b003020eef62ee308107cc","64b032109ba8ed9969490fd5","null","null","<p style=""font-size: 60px; font-family: BACS"">GabkYArG</p>","","","","","","","",""
"html-keyboard-response","264","458859","0.0-13.0-0.14","608edc13472b2dbc27b369fa","64b003020eef62ee308107cc","64b032109ba8ed9969490fd5","null","null","<p style=""font-size: 60px; font-family: BACS"">mcOJOJNk</p>","","","","","","","",""
"html-keyboard-response","265","459860","0.0-13.0-0.15","608edc13472b2dbc27b369fa","64b003020eef62ee308107cc","64b032109ba8ed9969490fd5","null","null","<p style=""font-size: 60px; font-family: BACS"">RKYkKlkD</p>","","","","","","","",""
"html-keyboard-response","266","461853","0.0-13.0-0.16","608edc13472b2dbc27b369fa","64b003020eef62ee308107cc","64b032109ba8ed9969490fd5","null","null","<p style=""font-size: 60px; font-family: BACS"">RlAKcKmE</p>","","","","","","","",""
"html-keyboard-response","267","462855","0.0-13.0-0.17","608edc13472b2dbc27b369fa","64b003020eef62ee308107cc","64b032109ba8ed9969490fd5","null","null","<p style=""font-size: 60px; font-family: BACS"">OLJblOJNk</p>","","","","","","","",""
"html-keyboard-response","268","463868","0.0-13.0-0.18","608edc13472b2dbc27b369fa","64b003020eef62ee308107cc","64b032109ba8ed9969490fd5","null","null","<p style=""font-size: 60px; font-family: BACS"">ArQuArv</p>","","","","","","","",""
"html-keyboard-response","269","465858","0.0-13.0-0.19","608edc13472b2dbc27b369fa","64b003020eef62ee308107cc","64b032109ba8ed9969490fd5","null","null","<p style=""font-size: 60px; font-family: BACS"">RlAKcdPc</p>","","","","","","","",""
"html-keyboard-response","270","466859","0.0-13.0-0.20","608edc13472b2dbc27b369fa","64b003020eef62ee308107cc","64b032109ba8ed9969490fd5","null","null","<p style=""font-size: 60px; font-family: BACS"">OMlTRDM</p>","","","","","","","",""
"html-keyboard-response","271","468852","0.0-13.0-0.21","608edc13472b2dbc27b369fa","64b003020eef62ee308107cc","64b032109ba8ed9969490fd5","null","null","<p style=""font-size: 60px; font-family: BACS"">RlAKcKlkD</p>","","","","","","","",""
"html-keyboard-response","272","469855","0.0-13.0-0.22","608edc13472b2dbc27b369fa","64b003020eef62ee308107cc","64b032109ba8ed9969490fd5","null","null","<p style=""font-size: 60px; font-family: BACS"">McMDKmE</p>","","","","","","","",""
"html-keyboard-response","273","471858","0.0-13.0-0.23","608edc13472b2dbc27b369fa","64b003020eef62ee308107cc","64b032109ba8ed9969490fd5","null","null","<p style=""font-size: 60px; font-family: BACS"">OLJblArv</p>","","","","","","","",""
"html-keyboard-response","274","473853","0.0-13.0-0.24","608edc13472b2dbc27b369fa","64b003020eef62ee308107cc","64b032109ba8ed9969490fd5","null","null","<p style=""font-size: 60px; font-family: BACS"">ArQuAZbl</p>","","","","","","","",""
"html-keyboard-response","275","474857","0.0-13.0-0.25","608edc13472b2dbc27b369fa","64b003020eef62ee308107cc","64b032109ba8ed9969490fd5","null","null","<p style=""font-size: 60px; font-family: BACS"">OLJblYArG</p>","","","","","","","",""
"html-keyboard-response","276","475872","0.0-13.0-0.26","608edc13472b2dbc27b369fa","64b003020eef62ee308107cc","64b032109ba8ed9969490fd5","null","null","<p style=""font-size: 60px; font-family: BACS"">kNuaOJNk</p>","","","","","","","",""
"html-keyboard-response","277","477849","0.0-13.0-0.27","608edc13472b2dbc27b369fa","64b003020eef62ee308107cc","64b032109ba8ed9969490fd5","null","null","<p style=""font-size: 60px; font-family: BACS"">GQrcravu</p>","","","","","","","",""
"html-keyboard-response","278","479859","0.0-13.0-0.28","608edc13472b2dbc27b369fa","64b003020eef62ee308107cc","64b032109ba8ed9969490fd5","null","null","<p style=""font-size: 60px; font-family: BACS"">ArQuYArG</p>","","","","","","","",""
"html-keyboard-response","279","481849","0.0-13.0-0.29","608edc13472b2dbc27b369fa","64b003020eef62ee308107cc","64b032109ba8ed9969490fd5","null","null","<p style=""font-size: 60px; font-family: BACS"">kdEdYRDM</p>","","","","","","","",""
"html-keyboard-response","280","482859","0.0-13.0-0.30","608edc13472b2dbc27b369fa","64b003020eef62ee308107cc","64b032109ba8ed9969490fd5","null","null","<p style=""font-size: 60px; font-family: BACS"">DOBhYmAM</p>","","","","","","","",""
"html-keyboard-response","281","484846","0.0-13.0-0.31","608edc13472b2dbc27b369fa","64b003020eef62ee308107cc","64b032109ba8ed9969490fd5","null","null","<p style=""font-size: 60px; font-family: BACS"">BlmclKmE</p>","","","","","","","",""
"html-keyboard-response","282","485858","0.0-13.0-0.32","608edc13472b2dbc27b369fa","64b003020eef62ee308107cc","64b032109ba8ed9969490fd5","null","null","<p style=""font-size: 60px; font-family: BACS"">RKYkmAM</p>","","","","","","","",""
"html-keyboard-response","283","487851","0.0-13.0-0.33","608edc13472b2dbc27b369fa","64b003020eef62ee308107cc","64b032109ba8ed9969490fd5","null","null","<p style=""font-size: 60px; font-family: BACS"">PcBTKmE</p>","","","","","","","",""
"html-keyboard-response","284","488855","0.0-13.0-0.34","608edc13472b2dbc27b369fa","64b003020eef62ee308107cc","64b032109ba8ed9969490fd5","null","null","<p style=""font-size: 60px; font-family: BACS"">damYbOJNk</p>","","","","","","","",""
"html-keyboard-response","285","490852","0.0-13.0-0.35","608edc13472b2dbc27b369fa","64b003020eef62ee308107cc","64b032109ba8ed9969490fd5","null","null","<p style=""font-size: 60px; font-family: BACS"">mcOJArv</p>","","","","","","","",""
"html-keyboard-response","286","492169","0.0-13.0-0.36","608edc13472b2dbc27b369fa","64b003020eef62ee308107cc","64b032109ba8ed9969490fd5","null","null","<p style=""font-size: 60px; font-family: BACS"">kPkRAmAM</p>","","","","","","","",""
"html-keyboard-response","287","493851","0.0-13.0-0.37","608edc13472b2dbc27b369fa","64b003020eef62ee308107cc","64b032109ba8ed9969490fd5","null","null","<p style=""font-size: 60px; font-family: BACS"">kdaAJOJNk</p>","","","","","","","",""
"html-keyboard-response","288","494853","0.0-13.0-0.38","608edc13472b2dbc27b369fa","64b003020eef62ee308107cc","64b032109ba8ed9969490fd5","null","null","<p style=""font-size: 60px; font-family: BACS"">uvaUravu</p>","","","","","","","",""
"html-keyboard-response","289","495855","0.0-13.0-0.39","608edc13472b2dbc27b369fa","64b003020eef62ee308107cc","64b032109ba8ed9969490fd5","null","null","<p style=""font-size: 60px; font-family: BACS"">kdaAJAZbl</p>","","","","","","","",""
"html-keyboard-response","290","496860","0.0-13.0-0.40","608edc13472b2dbc27b369fa","64b003020eef62ee308107cc","64b032109ba8ed9969490fd5","null","null","<p style=""font-size: 60px; font-family: BACS"">BlmcldPc</p>","","","","","","","",""
"html-keyboard-response","291","498850","0.0-13.0-0.41","608edc13472b2dbc27b369fa","64b003020eef62ee308107cc","64b032109ba8ed9969490fd5","null","null","<p style=""font-size: 60px; font-family: BACS"">EltMBmAM</p>","","","","","","","",""
"html-keyboard-response","292","499859","0.0-13.0-0.42","608edc13472b2dbc27b369fa","64b003020eef62ee308107cc","64b032109ba8ed9969490fd5","null","null","<p style=""font-size: 60px; font-family: BACS"">rLaZAZbl</p>","","","","","","","",""
"html-keyboard-response","293","501846","0.0-13.0-0.43","608edc13472b2dbc27b369fa","64b003020eef62ee308107cc","64b032109ba8ed9969490fd5","null","null","<p style=""font-size: 60px; font-family: BACS"">uvaUOJNk</p>","","","","","","","",""
"html-keyboard-response","294","502848","0.0-13.0-0.44","608edc13472b2dbc27b369fa","64b003020eef62ee308107cc","64b032109ba8ed9969490fd5","null","null","<p style=""font-size: 60px; font-family: BACS"">BlmclRDM</p>","","","","","","","",""
"html-keyboard-response","295","503851","0.0-13.0-0.45","608edc13472b2dbc27b369fa","64b003020eef62ee308107cc","64b032109ba8ed9969490fd5","null","null","<p style=""font-size: 60px; font-family: BACS"">kNuaYArG</p>","","","","","","","",""
"html-keyboard-response","296","505856","0.0-13.0-0.46","608edc13472b2dbc27b369fa","64b003020eef62ee308107cc","64b032109ba8ed9969490fd5","null","null","<p style=""font-size: 60px; font-family: BACS"">BlmclmAM</p>","","","","","","","",""
"html-keyboard-response","297","507857","0.0-13.0-0.47","608edc13472b2dbc27b369fa","64b003020eef62ee308107cc","64b032109ba8ed9969490fd5","null","null","<p style=""font-size: 60px; font-family: BACS"">EltMBKlkD</p>","","","","","","","",""
"html-keyboard-response","298","509859","0.0-13.0-0.48","608edc13472b2dbc27b369fa","64b003020eef62ee308107cc","64b032109ba8ed9969490fd5","null","null","<p style=""font-size: 60px; font-family: BACS"">McMDdPc</p>","","","","","","","",""
"html-keyboard-response","299","510875","0.0-13.0-0.49","608edc13472b2dbc27b369fa","64b003020eef62ee308107cc","64b032109ba8ed9969490fd5","null","null","<p style=""font-size: 60px; font-family: BACS"">kdEdYmAM</p>","","","","","","","",""
"html-keyboard-response","300","512858","0.0-13.0-0.50","608edc13472b2dbc27b369fa","64b003020eef62ee308107cc","64b032109ba8ed9969490fd5","null","null","<p style=""font-size: 60px; font-family: BACS"">uvaUAZbl</p>","","","","","","","",""
"html-keyboard-response","301","514854","0.0-13.0-0.51","608edc13472b2dbc27b369fa","64b003020eef62ee308107cc","64b032109ba8ed9969490fd5","null","null","<p style=""font-size: 60px; font-family: BACS"">kPkRARDM</p>","","","","","","","",""
"html-keyboard-response","302","515856","0.0-13.0-0.52","608edc13472b2dbc27b369fa","64b003020eef62ee308107cc","64b032109ba8ed9969490fd5","null","null","<p style=""font-size: 60px; font-family: BACS"">OMlTKmE</p>","","","","","","","",""
"html-keyboard-response","303","516860","0.0-13.0-0.53","608edc13472b2dbc27b369fa","64b003020eef62ee308107cc","64b032109ba8ed9969490fd5","null","null","<p style=""font-size: 60px; font-family: BACS"">damYbravu</p>","","","","","","","",""
"html-keyboard-response","304","517873","0.0-13.0-0.54","608edc13472b2dbc27b369fa","64b003020eef62ee308107cc","64b032109ba8ed9969490fd5","null","null","<p style=""font-size: 60px; font-family: BACS"">rLaZYArG</p>","","","","","","","",""
"html-keyboard-response","305","519859","0.0-13.0-0.55","608edc13472b2dbc27b369fa","64b003020eef62ee308107cc","64b032109ba8ed9969490fd5","null","null","<p style=""font-size: 60px; font-family: BACS"">DOBhYdPc</p>","","","","","","","",""
"html-keyboard-response","306","520872","0.0-13.0-0.56","608edc13472b2dbc27b369fa","64b003020eef62ee308107cc","64b032109ba8ed9969490fd5","null","null","<p style=""font-size: 60px; font-family: BACS"">kdEdYKlkD</p>","","","","","","","",""
"html-keyboard-response","307","522847","0.0-13.0-0.57","608edc13472b2dbc27b369fa","64b003020eef62ee308107cc","64b032109ba8ed9969490fd5","null","null","<p style=""font-size: 60px; font-family: BACS"">EltMBKmE</p>","","","","","","","",""
"html-keyboard-response","308","523859","0.0-13.0-0.58","608edc13472b2dbc27b369fa","64b003020eef62ee308107cc","64b032109ba8ed9969490fd5","null","null","<p style=""font-size: 60px; font-family: BACS"">RlAKcRDM</p>","","","","","","","",""
"html-keyboard-response","309","525858","0.0-13.0-0.59","608edc13472b2dbc27b369fa","64b003020eef62ee308107cc","64b032109ba8ed9969490fd5","null","null","<p style=""font-size: 60px; font-family: BACS"">GabkAZbl</p>","","","","","","","",""
"html-keyboard-response","310","527854","0.0-13.0-0.60","608edc13472b2dbc27b369fa","64b003020eef62ee308107cc","64b032109ba8ed9969490fd5","null","null","<p style=""font-size: 60px; font-family: BACS"">McMDmAM</p>","","","","","","","",""
"html-keyboard-response","311","529854","0.0-13.0-0.61","608edc13472b2dbc27b369fa","64b003020eef62ee308107cc","64b032109ba8ed9969490fd5","null","null","<p style=""font-size: 60px; font-family: BACS"">damYbArv</p>","","","","","","","",""
"html-keyboard-response","312","530859","0.0-13.0-0.62","608edc13472b2dbc27b369fa","64b003020eef62ee308107cc","64b032109ba8ed9969490fd5","null","null","<p style=""font-size: 60px; font-family: BACS"">rLaZravu</p>","","","","","","","",""
"html-keyboard-response","313","532850","0.0-13.0-0.63","608edc13472b2dbc27b369fa","64b003020eef62ee308107cc","64b032109ba8ed9969490fd5","null","null","<p style=""font-size: 60px; font-family: BACS"">OMlTKlkD</p>","","","","","","","",""
"html-keyboard-response","314","533859","0.0-13.0-0.64","608edc13472b2dbc27b369fa","64b003020eef62ee308107cc","64b032109ba8ed9969490fd5","null","null","<p style=""font-size: 60px; font-family: BACS"">rLaZArv</p>","","","","","","","",""
"html-keyboard-response","315","535851","0.0-13.0-0.65","608edc13472b2dbc27b369fa","64b003020eef62ee308107cc","64b032109ba8ed9969490fd5","null","null","<p style=""font-size: 60px; font-family: BACS"">kdaAJravu</p>","","","","","","","",""
"html-keyboard-response","316","536864","0.0-13.0-0.66","608edc13472b2dbc27b369fa","64b003020eef62ee308107cc","64b032109ba8ed9969490fd5","null","null","<p style=""font-size: 60px; font-family: BACS"">uvaUArv</p>","","","","","","","",""
"html-keyboard-response","317","538853","0.0-13.0-0.67","608edc13472b2dbc27b369fa","64b003020eef62ee308107cc","64b032109ba8ed9969490fd5","null","null","<p style=""font-size: 60px; font-family: BACS"">GQrcOJNk</p>","","","","","","","",""
"html-keyboard-response","318","540852","0.0-13.0-0.68","608edc13472b2dbc27b369fa","64b003020eef62ee308107cc","64b032109ba8ed9969490fd5","null","null","<p style=""font-size: 60px; font-family: BACS"">PcBTKlkD</p>","","","","","","","",""
"html-keyboard-response","319","542849","0.0-13.0-0.69","608edc13472b2dbc27b369fa","64b003020eef62ee308107cc","64b032109ba8ed9969490fd5","null","null","<p style=""font-size: 60px; font-family: BACS"">kdaAJYArG</p>","","","","","","","",""
"html-keyboard-response","320","543854","0.0-13.0-0.70","608edc13472b2dbc27b369fa","64b003020eef62ee308107cc","64b032109ba8ed9969490fd5","null","null","<p style=""font-size: 60px; font-family: BACS"">PcBTRDM</p>","","","","","","","",""
"html-keyboard-response","321","545849","0.0-13.0-0.71","608edc13472b2dbc27b369fa","64b003020eef62ee308107cc","64b032109ba8ed9969490fd5","null","null","<p style=""font-size: 60px; font-family: BACS"">Gabkravu</p>","","","","","","","",""
"html-keyboard-response","322","546865","0.0-13.0-0.72","608edc13472b2dbc27b369fa","64b003020eef62ee308107cc","64b032109ba8ed9969490fd5","null","null","<p style=""font-size: 60px; font-family: BACS"">RKYkRDM</p>","","","","","","","",""
"html-keyboard-response","323","548860","0.0-13.0-0.73","608edc13472b2dbc27b369fa","64b003020eef62ee308107cc","64b032109ba8ed9969490fd5","null","null","<p style=""font-size: 60px; font-family: BACS"">GabkOJNk</p>","","","","","","","",""
"html-keyboard-response","324","549872","0.0-13.0-0.74","608edc13472b2dbc27b369fa","64b003020eef62ee308107cc","64b032109ba8ed9969490fd5","null","null","<p style=""font-size: 60px; font-family: BACS"">kNuaArv</p>","","","","","","","",""
"html-keyboard-response","325","551853","0.0-13.0-0.75","608edc13472b2dbc27b369fa","64b003020eef62ee308107cc","64b032109ba8ed9969490fd5","null","null","<p style=""font-size: 60px; font-family: BACS"">PcBTmAM</p>","","","","","","","",""
"html-keyboard-response","326","553855","0.0-13.0-0.76","608edc13472b2dbc27b369fa","64b003020eef62ee308107cc","64b032109ba8ed9969490fd5","null","null","<p style=""font-size: 60px; font-family: BACS"">mcOJAZbl</p>","","","","","","","",""
"html-keyboard-response","327","554858","0.0-13.0-0.77","608edc13472b2dbc27b369fa","64b003020eef62ee308107cc","64b032109ba8ed9969490fd5","null","null","<p style=""font-size: 60px; font-family: BACS"">kPkRAKmE</p>","","","","","","","",""
"html-keyboard-response","328","555859","0.0-13.0-0.78","608edc13472b2dbc27b369fa","64b003020eef62ee308107cc","64b032109ba8ed9969490fd5","null","null","<p style=""font-size: 60px; font-family: BACS"">ArQuravu</p>","","","","","","","",""
"html-keyboard-response","329","556874","0.0-13.0-0.79","608edc13472b2dbc27b369fa","64b003020eef62ee308107cc","64b032109ba8ed9969490fd5","null","null","<p style=""font-size: 60px; font-family: BACS"">DOBhYKlkD</p>","","","","","","","",""
"html-keyboard-response","330","558655","0.0-14.0","608edc13472b2dbc27b369fa","64b003020eef62ee308107cc","64b032109ba8ed9969490fd5","1780"," ","<p>Ottimo, hai visto il quarto blocco di parole. Ora puoi prenderti una piccola pausa.</p>
      <p>Premi la barra quando sei pronta/o per riprendere.</p>","","","","","","","",""
"html-keyboard-response","331","559668","0.0-15.0-0.0","608edc13472b2dbc27b369fa","64b003020eef62ee308107cc","64b032109ba8ed9969490fd5","null","null","<p style=""font-size: 60px; font-family: BACS"">kNuaOJNk</p>","","","","","","","",""
"html-keyboard-response","332","560853","0.0-15.0-0.1","608edc13472b2dbc27b369fa","64b003020eef62ee308107cc","64b032109ba8ed9969490fd5","null","null","<p style=""font-size: 60px; font-family: BACS"">kNuaOJNk</p>","","","","","","","",""
"html-keyboard-response","333","561858","0.0-15.0-0.2","608edc13472b2dbc27b369fa","64b003020eef62ee308107cc","64b032109ba8ed9969490fd5","null","null","<p style=""font-size: 60px; font-family: BACS"">kNuaOJNk</p>","","","","","","","",""
"html-keyboard-response","334","562870","0.0-15.0-0.3","608edc13472b2dbc27b369fa","64b003020eef62ee308107cc","64b032109ba8ed9969490fd5","null","null","<p style=""font-size: 60px; font-family: BACS"">kNuaOJNk</p>","","","","","","","",""
"html-keyboard-response","335","564847","0.0-15.0-0.4","608edc13472b2dbc27b369fa","64b003020eef62ee308107cc","64b032109ba8ed9969490fd5","null","null","<p style=""font-size: 60px; font-family: BACS"">kNuaOJNk</p>","","","","","","","",""
"html-keyboard-response","336","565853","0.0-15.0-0.5","608edc13472b2dbc27b369fa","64b003020eef62ee308107cc","64b032109ba8ed9969490fd5","null","null","<p style=""font-size: 60px; font-family: BACS"">kNuaOJNk</p>","","","","","","","",""
"html-keyboard-response","337","566859","0.0-15.0-0.6","608edc13472b2dbc27b369fa","64b003020eef62ee308107cc","64b032109ba8ed9969490fd5","null","null","<p style=""font-size: 60px; font-family: BACS"">kNuaOJNk</p>","","","","","","","",""
"html-keyboard-response","338","567860","0.0-15.0-0.7","608edc13472b2dbc27b369fa","64b003020eef62ee308107cc","64b032109ba8ed9969490fd5","null","null","<p style=""font-size: 60px; font-family: BACS"">kNuaOJNk</p>","","","","","","","",""
"html-keyboard-response","339","569855","0.0-15.0-0.8","608edc13472b2dbc27b369fa","64b003020eef62ee308107cc","64b032109ba8ed9969490fd5","null","null","<p style=""font-size: 60px; font-family: BACS"">kNuaOJNk</p>","","","","","","","",""
"html-keyboard-response","340","570869","0.0-15.0-0.9","608edc13472b2dbc27b369fa","64b003020eef62ee308107cc","64b032109ba8ed9969490fd5","null","null","<p style=""font-size: 60px; font-family: BACS"">kNuaOJNk</p>","","","","","","","",""
"html-keyboard-response","341","571884","0.0-15.0-0.10","608edc13472b2dbc27b369fa","64b003020eef62ee308107cc","64b032109ba8ed9969490fd5","null","null","<p style=""font-size: 60px; font-family: BACS"">kNuaOJNk</p>","","","","","","","",""
"html-keyboard-response","342","573852","0.0-15.0-0.11","608edc13472b2dbc27b369fa","64b003020eef62ee308107cc","64b032109ba8ed9969490fd5","null","null","<p style=""font-size: 60px; font-family: BACS"">kNuaOJNk</p>","","","","","","","",""
"html-keyboard-response","343","574854","0.0-15.0-0.12","608edc13472b2dbc27b369fa","64b003020eef62ee308107cc","64b032109ba8ed9969490fd5","null","null","<p style=""font-size: 60px; font-family: BACS"">kNuaOJNk</p>","","","","","","","",""
"html-keyboard-response","344","575864","0.0-15.0-0.13","608edc13472b2dbc27b369fa","64b003020eef62ee308107cc","64b032109ba8ed9969490fd5","null","null","<p style=""font-size: 60px; font-family: BACS"">kNuaOJNk</p>","","","","","","","",""
"html-keyboard-response","345","577853","0.0-15.0-0.14","608edc13472b2dbc27b369fa","64b003020eef62ee308107cc","64b032109ba8ed9969490fd5","null","null","<p style=""font-size: 60px; font-family: BACS"">kNuaOJNk</p>","","","","","","","",""
"html-keyboard-response","346","578861","0.0-15.0-0.15","608edc13472b2dbc27b369fa","64b003020eef62ee308107cc","64b032109ba8ed9969490fd5","null","null","<p style=""font-size: 60px; font-family: BACS"">kNuaOJNk</p>","","","","","","","",""
"html-keyboard-response","347","580269","0.0-15.0-0.16","608edc13472b2dbc27b369fa","64b003020eef62ee308107cc","64b032109ba8ed9969490fd5","null","null","<p style=""font-size: 60px; font-family: BACS"">kNuaOJNk</p>","","","","","","","",""
"html-keyboard-response","348","581851","0.0-15.0-0.17","608edc13472b2dbc27b369fa","64b003020eef62ee308107cc","64b032109ba8ed9969490fd5","null","null","<p style=""font-size: 60px; font-family: BACS"">kNuaOJNk</p>","","","","","","","",""
"html-keyboard-response","349","582861","0.0-15.0-0.18","608edc13472b2dbc27b369fa","64b003020eef62ee308107cc","64b032109ba8ed9969490fd5","null","null","<p style=""font-size: 60px; font-family: BACS"">kNuaOJNk</p>","","","","","","","",""
"html-keyboard-response","350","584847","0.0-15.0-0.19","608edc13472b2dbc27b369fa","64b003020eef62ee308107cc","64b032109ba8ed9969490fd5","null","null","<p style=""font-size: 60px; font-family: BACS"">kNuaOJNk</p>","","","","","","","",""
"html-keyboard-response","351","585859","0.0-15.0-0.20","608edc13472b2dbc27b369fa","64b003020eef62ee308107cc","64b032109ba8ed9969490fd5","null","null","<p style=""font-size: 60px; font-family: BACS"">kNuaOJNk</p>","","","","","","","",""
"html-keyboard-response","352","587849","0.0-15.0-0.21","608edc13472b2dbc27b369fa","64b003020eef62ee308107cc","64b032109ba8ed9969490fd5","null","null","<p style=""font-size: 60px; font-family: BACS"">kNuaOJNk</p>","","","","","","","",""
"html-keyboard-response","353","588855","0.0-15.0-0.22","608edc13472b2dbc27b369fa","64b003020eef62ee308107cc","64b032109ba8ed9969490fd5","null","null","<p style=""font-size: 60px; font-family: BACS"">kNuaOJNk</p>","","","","","","","",""
"html-keyboard-response","354","589859","0.0-15.0-0.23","608edc13472b2dbc27b369fa","64b003020eef62ee308107cc","64b032109ba8ed9969490fd5","null","null","<p style=""font-size: 60px; font-family: BACS"">kNuaOJNk</p>","","","","","","","",""
"html-keyboard-response","355","591856","0.0-15.0-0.24","608edc13472b2dbc27b369fa","64b003020eef62ee308107cc","64b032109ba8ed9969490fd5","null","null","<p style=""font-size: 60px; font-family: BACS"">kNuaOJNk</p>","","","","","","","",""
"html-keyboard-response","356","593851","0.0-15.0-0.25","608edc13472b2dbc27b369fa","64b003020eef62ee308107cc","64b032109ba8ed9969490fd5","null","null","<p style=""font-size: 60px; font-family: BACS"">kNuaOJNk</p>","","","","","","","",""
"html-keyboard-response","357","594852","0.0-15.0-0.26","608edc13472b2dbc27b369fa","64b003020eef62ee308107cc","64b032109ba8ed9969490fd5","null","null","<p style=""font-size: 60px; font-family: BACS"">kNuaOJNk</p>","","","","","","","",""
"html-keyboard-response","358","595853","0.0-15.0-0.27","608edc13472b2dbc27b369fa","64b003020eef62ee308107cc","64b032109ba8ed9969490fd5","null","null","<p style=""font-size: 60px; font-family: BACS"">kNuaOJNk</p>","","","","","","","",""
"html-keyboard-response","359","596865","0.0-15.0-0.28","608edc13472b2dbc27b369fa","64b003020eef62ee308107cc","64b032109ba8ed9969490fd5","null","null","<p style=""font-size: 60px; font-family: BACS"">kNuaOJNk</p>","","","","","","","",""
"html-keyboard-response","360","598852","0.0-15.0-0.29","608edc13472b2dbc27b369fa","64b003020eef62ee308107cc","64b032109ba8ed9969490fd5","null","null","<p style=""font-size: 60px; font-family: BACS"">kNuaOJNk</p>","","","","","","","",""
"html-keyboard-response","361","599858","0.0-15.0-0.30","608edc13472b2dbc27b369fa","64b003020eef62ee308107cc","64b032109ba8ed9969490fd5","null","null","<p style=""font-size: 60px; font-family: BACS"">kNuaOJNk</p>","","","","","","","",""
"html-keyboard-response","362","601854","0.0-15.0-0.31","608edc13472b2dbc27b369fa","64b003020eef62ee308107cc","64b032109ba8ed9969490fd5","null","null","<p style=""font-size: 60px; font-family: BACS"">kNuaOJNk</p>","","","","","","","",""
"html-keyboard-response","363","602858","0.0-15.0-0.32","608edc13472b2dbc27b369fa","64b003020eef62ee308107cc","64b032109ba8ed9969490fd5","null","null","<p style=""font-size: 60px; font-family: BACS"">kNuaOJNk</p>","","","","","","","",""
"html-keyboard-response","364","604859","0.0-15.0-0.33","608edc13472b2dbc27b369fa","64b003020eef62ee308107cc","64b032109ba8ed9969490fd5","null","null","<p style=""font-size: 60px; font-family: BACS"">kNuaOJNk</p>","","","","","","","",""
"html-keyboard-response","365","605872","0.0-15.0-0.34","608edc13472b2dbc27b369fa","64b003020eef62ee308107cc","64b032109ba8ed9969490fd5","null","null","<p style=""font-size: 60px; font-family: BACS"">kNuaOJNk</p>","","","","","","","",""
"html-keyboard-response","366","607848","0.0-15.0-0.35","608edc13472b2dbc27b369fa","64b003020eef62ee308107cc","64b032109ba8ed9969490fd5","null","null","<p style=""font-size: 60px; font-family: BACS"">kNuaOJNk</p>","","","","","","","",""
"html-keyboard-response","367","609858","0.0-15.0-0.36","608edc13472b2dbc27b369fa","64b003020eef62ee308107cc","64b032109ba8ed9969490fd5","null","null","<p style=""font-size: 60px; font-family: BACS"">kNuaOJNk</p>","","","","","","","",""
"html-keyboard-response","368","611848","0.0-15.0-0.37","608edc13472b2dbc27b369fa","64b003020eef62ee308107cc","64b032109ba8ed9969490fd5","null","null","<p style=""font-size: 60px; font-family: BACS"">kNuaOJNk</p>","","","","","","","",""
"html-keyboard-response","369","612862","0.0-15.0-0.38","608edc13472b2dbc27b369fa","64b003020eef62ee308107cc","64b032109ba8ed9969490fd5","null","null","<p style=""font-size: 60px; font-family: BACS"">kNuaOJNk</p>","","","","","","","",""
"html-keyboard-response","370","614854","0.0-15.0-0.39","608edc13472b2dbc27b369fa","64b003020eef62ee308107cc","64b032109ba8ed9969490fd5","null","null","<p style=""font-size: 60px; font-family: BACS"">kNuaOJNk</p>","","","","","","","",""
"html-keyboard-response","371","615868","0.0-15.0-0.40","608edc13472b2dbc27b369fa","64b003020eef62ee308107cc","64b032109ba8ed9969490fd5","null","null","<p style=""font-size: 60px; font-family: BACS"">kNuaOJNk</p>","","","","","","","",""
"html-keyboard-response","372","617859","0.0-15.0-0.41","608edc13472b2dbc27b369fa","64b003020eef62ee308107cc","64b032109ba8ed9969490fd5","null","null","<p style=""font-size: 60px; font-family: BACS"">kNuaOJNk</p>","","","","","","","",""
"html-keyboard-response","373","619798","0.0-15.0-0.42","608edc13472b2dbc27b369fa","64b003020eef62ee308107cc","64b032109ba8ed9969490fd5","null","null","<p style=""font-size: 60px; font-family: BACS"">kNuaOJNk</p>","","","","","","","",""
"html-keyboard-response","374","620851","0.0-15.0-0.43","608edc13472b2dbc27b369fa","64b003020eef62ee308107cc","64b032109ba8ed9969490fd5","null","null","<p style=""font-size: 60px; font-family: BACS"">kNuaOJNk</p>","","","","","","","",""
"html-keyboard-response","375","622857","0.0-15.0-0.44","608edc13472b2dbc27b369fa","64b003020eef62ee308107cc","64b032109ba8ed9969490fd5","null","null","<p style=""font-size: 60px; font-family: BACS"">kNuaOJNk</p>","","","","","","","",""
"html-keyboard-response","376","623872","0.0-15.0-0.45","608edc13472b2dbc27b369fa","64b003020eef62ee308107cc","64b032109ba8ed9969490fd5","null","null","<p style=""font-size: 60px; font-family: BACS"">kNuaOJNk</p>","","","","","","","",""
"html-keyboard-response","377","625847","0.0-15.0-0.46","608edc13472b2dbc27b369fa","64b003020eef62ee308107cc","64b032109ba8ed9969490fd5","null","null","<p style=""font-size: 60px; font-family: BACS"">kNuaOJNk</p>","","","","","","","",""
"html-keyboard-response","378","626857","0.0-15.0-0.47","608edc13472b2dbc27b369fa","64b003020eef62ee308107cc","64b032109ba8ed9969490fd5","null","null","<p style=""font-size: 60px; font-family: BACS"">kNuaOJNk</p>","","","","","","","",""
"html-keyboard-response","379","627872","0.0-15.0-0.48","608edc13472b2dbc27b369fa","64b003020eef62ee308107cc","64b032109ba8ed9969490fd5","null","null","<p style=""font-size: 60px; font-family: BACS"">kNuaOJNk</p>","","","","","","","",""
"html-keyboard-response","380","629854","0.0-15.0-0.49","608edc13472b2dbc27b369fa","64b003020eef62ee308107cc","64b032109ba8ed9969490fd5","null","null","<p style=""font-size: 60px; font-family: BACS"">kNuaOJNk</p>","","","","","","","",""
"html-keyboard-response","381","630858","0.0-15.0-0.50","608edc13472b2dbc27b369fa","64b003020eef62ee308107cc","64b032109ba8ed9969490fd5","null","null","<p style=""font-size: 60px; font-family: BACS"">kNuaOJNk</p>","","","","","","","",""
"html-keyboard-response","382","632850","0.0-15.0-0.51","608edc13472b2dbc27b369fa","64b003020eef62ee308107cc","64b032109ba8ed9969490fd5","null","null","<p style=""font-size: 60px; font-family: BACS"">kNuaOJNk</p>","","","","","","","",""
"html-keyboard-response","383","633855","0.0-15.0-0.52","608edc13472b2dbc27b369fa","64b003020eef62ee308107cc","64b032109ba8ed9969490fd5","null","null","<p style=""font-size: 60px; font-family: BACS"">kNuaOJNk</p>","","","","","","","",""
"html-keyboard-response","384","634861","0.0-15.0-0.53","608edc13472b2dbc27b369fa","64b003020eef62ee308107cc","64b032109ba8ed9969490fd5","null","null","<p style=""font-size: 60px; font-family: BACS"">kNuaOJNk</p>","","","","","","","",""
"html-keyboard-response","385","636858","0.0-15.0-0.54","608edc13472b2dbc27b369fa","64b003020eef62ee308107cc","64b032109ba8ed9969490fd5","null","null","<p style=""font-size: 60px; font-family: BACS"">kNuaOJNk</p>","","","","","","","",""
"html-keyboard-response","386","637859","0.0-15.0-0.55","608edc13472b2dbc27b369fa","64b003020eef62ee308107cc","64b032109ba8ed9969490fd5","null","null","<p style=""font-size: 60px; font-family: BACS"">kNuaOJNk</p>","","","","","","","",""
"html-keyboard-response","387","639847","0.0-15.0-0.56","608edc13472b2dbc27b369fa","64b003020eef62ee308107cc","64b032109ba8ed9969490fd5","null","null","<p style=""font-size: 60px; font-family: BACS"">kNuaOJNk</p>","","","","","","","",""
"html-keyboard-response","388","640859","0.0-15.0-0.57","608edc13472b2dbc27b369fa","64b003020eef62ee308107cc","64b032109ba8ed9969490fd5","null","null","<p style=""font-size: 60px; font-family: BACS"">kNuaOJNk</p>","","","","","","","",""
"html-keyboard-response","389","642857","0.0-15.0-0.58","608edc13472b2dbc27b369fa","64b003020eef62ee308107cc","64b032109ba8ed9969490fd5","null","null","<p style=""font-size: 60px; font-family: BACS"">kNuaOJNk</p>","","","","","","","",""
"html-keyboard-response","390","644856","0.0-15.0-0.59","608edc13472b2dbc27b369fa","64b003020eef62ee308107cc","64b032109ba8ed9969490fd5","null","null","<p style=""font-size: 60px; font-family: BACS"">kNuaOJNk</p>","","","","","","","",""
"html-keyboard-response","391","645858","0.0-15.0-0.60","608edc13472b2dbc27b369fa","64b003020eef62ee308107cc","64b032109ba8ed9969490fd5","null","null","<p style=""font-size: 60px; font-family: BACS"">kNuaOJNk</p>","","","","","","","",""
"html-keyboard-response","392","647854","0.0-15.0-0.61","608edc13472b2dbc27b369fa","64b003020eef62ee308107cc","64b032109ba8ed9969490fd5","null","null","<p style=""font-size: 60px; font-family: BACS"">kNuaOJNk</p>","","","","","","","",""
"html-keyboard-response","393","648868","0.0-15.0-0.62","608edc13472b2dbc27b369fa","64b003020eef62ee308107cc","64b032109ba8ed9969490fd5","null","null","<p style=""font-size: 60px; font-family: BACS"">kNuaOJNk</p>","","","","","","","",""
"html-keyboard-response","394","650858","0.0-15.0-0.63","608edc13472b2dbc27b369fa","64b003020eef62ee308107cc","64b032109ba8ed9969490fd5","null","null","<p style=""font-size: 60px; font-family: BACS"">kNuaOJNk</p>","","","","","","","",""
"html-keyboard-response","395","652854","0.0-15.0-0.64","608edc13472b2dbc27b369fa","64b003020eef62ee308107cc","64b032109ba8ed9969490fd5","null","null","<p style=""font-size: 60px; font-family: BACS"">kNuaOJNk</p>","","","","","","","",""
"html-keyboard-response","396","654851","0.0-15.0-0.65","608edc13472b2dbc27b369fa","64b003020eef62ee308107cc","64b032109ba8ed9969490fd5","null","null","<p style=""font-size: 60px; font-family: BACS"">kNuaOJNk</p>","","","","","","","",""
"html-keyboard-response","397","655855","0.0-15.0-0.66","608edc13472b2dbc27b369fa","64b003020eef62ee308107cc","64b032109ba8ed9969490fd5","null","null","<p style=""font-size: 60px; font-family: BACS"">kNuaOJNk</p>","","","","","","","",""
"html-keyboard-response","398","656858","0.0-15.0-0.67","608edc13472b2dbc27b369fa","64b003020eef62ee308107cc","64b032109ba8ed9969490fd5","null","null","<p style=""font-size: 60px; font-family: BACS"">kNuaOJNk</p>","","","","","","","",""
"html-keyboard-response","399","658048","0.0-15.0-0.68","608edc13472b2dbc27b369fa","64b003020eef62ee308107cc","64b032109ba8ed9969490fd5","null","null","<p style=""font-size: 60px; font-family: BACS"">kNuaOJNk</p>","","","","","","","",""
"html-keyboard-response","400","659851","0.0-15.0-0.69","608edc13472b2dbc27b369fa","64b003020eef62ee308107cc","64b032109ba8ed9969490fd5","null","null","<p style=""font-size: 60px; font-family: BACS"">kNuaOJNk</p>","","","","","","","",""
"html-keyboard-response","401","660858","0.0-15.0-0.70","608edc13472b2dbc27b369fa","64b003020eef62ee308107cc","64b032109ba8ed9969490fd5","null","null","<p style=""font-size: 60px; font-family: BACS"">kNuaOJNk</p>","","","","","","","",""
"html-keyboard-response","402","662848","0.0-15.0-0.71","608edc13472b2dbc27b369fa","64b003020eef62ee308107cc","64b032109ba8ed9969490fd5","null","null","<p style=""font-size: 60px; font-family: BACS"">kNuaOJNk</p>","","","","","","","",""
