"trial_type","trial_index","time_elapsed","internal_node_id","subject_id","study_id","session_id","rt","response","stimulus","success","item","task","correct_response","testing_condition","correct","target","confound","name","view_history"
"pavlovia","0","673","0.0-0.0","5fbbdd11ff4568d9cc3536fb","64e77d7b61f440b60e28659d","64ec9534bc04d6f238a506ed","","","","","","","","","","","","",""
"survey-html-form","1","4637","0.0-1.0","5fbbdd11ff4568d9cc3536fb","64e77d7b61f440b60e28659d","64ec9534bc04d6f238a506ed","3960","{""ID"":""5fbbdd11ff4568d9cc3536fb""}","","","","","","","","","","",""
"html-keyboard-response","2","19599","0.0-2.0","5fbbdd11ff4568d9cc3536fb","64e77d7b61f440b60e28659d","64ec9534bc04d6f238a506ed","14959"," ","<p style=""font-size: 15px;"">Before beginning, we ask that you read the consent information and confirm your agreement to participate in the experiment.</p>
      <p style=""font-size: 15px;""> We ask that you remember that this is a research project and that your participation is entirely voluntary. You can stop your participation at any time, without needing to provide any explanation. The study we're asking you to participate in aims at examining how readers process written words. You will be engaged in a session of apprximately 20 minutes, followed by a brief questionnaire. You will have the opportunity to take a few breaks during the experiment. You will be paid £4 for your participation, corresponding to a rate of £8/hour. While this experiment looks at cognitive faculties, this experiment doesn't constitute clinical proof of eventual pathologies.</p>
      <p style=""font-size: 15px;"">All of the information collected thanks to yours and others' participation will be held in a secure password-protected server, and will not be shared with anyone not authorised to view it. Your personal information will be kept with an arbitrary participant ID. Thanks to this data anonymity process, any researcher analysing the data won't be able to track the information back to a specific participant. Therefore, this process will make identifying you impossibile, even when results from the study will be published in scientific reviews, presented at congresses, or at any other public forum. More generally, the collected data will be treated in accordance with the laws on privacy and conformity to the Legislative Degree n. 196 ""Code regarding the protection of personal data"" of the 30th of June 2003 and to the European Regulation 2016/670 (General Data Protection Regulation - GDPR). The Data Protection Officer is Avv. Valentina Carollo, who can be contacted at the following email addresses: <a href=""mailto:dpo@sissa.it"">dpo@sissa.it</a> or <a href=""mailto:rpd@sissa.it"">rpd@sissa.it</a> - PEC: <a href=""mailto:protocollo@pec.sissa.it"">protocollo@pec.sissa.it</a>.</p>
      <p style=""font-size: 15px;""> Before expressing your consent to participate, we would like to remind you again that in case you need explanations on any aspect of the experimental procedure, the researcher is at your disposition (<a href=""mailto:aliebelt@sissa.it"">aliebelt@sissa.it</a>, <a href=""mailto:davide.crepaldi@sissa.it"">davide.crepaldi@sissa.it</a>).</p>
      <p style=""font-size: 15px;"">If you would like to download the informed consent form, you can do so here: <a href=""BASL-Informed_Consent.pdf"" download>informed consent form</a>.</p>
      <p style=""font-size: 15px;"">We ask that you press the spacebar to proceed to the consent section.</p>","","","","","","","","","",""
"survey-html-form","3","43531","0.0-3.0","5fbbdd11ff4568d9cc3536fb","64e77d7b61f440b60e28659d","64ec9534bc04d6f238a506ed","23929","{""consent1"":""YES"",""consent2"":""YES"",""consent3"":""YES"",""consent4"":""YES"",""consent5"":""YES"",""consent6"":""YES""}","","","","","","","","","","",""
"fullscreen","4","48027","0.0-4.0","5fbbdd11ff4568d9cc3536fb","64e77d7b61f440b60e28659d","64ec9534bc04d6f238a506ed","","","","true","","","","","","","","",""
"html-keyboard-response","5","65484","0.0-5.0","5fbbdd11ff4568d9cc3536fb","64e77d7b61f440b60e28659d","64ec9534bc04d6f238a506ed","17455"," ","<p>Welcome, and thank you very much for your time!</p>
      <p>In this experiment, you'll be a language expert who's been asked to take a look at words that Earth has received in its first communication with aliens. Your task, in this first part of the experiment, is to pay close attention to the words you'll be shown; later, world leaders will ask you questions on what you saw. The words will be shown to you quite quickly; it seems that the aliens were in a hurry :-)</p>
      <p>Press the spacebar to continue.<p>","","","","","","","","","",""
"html-keyboard-response","6","69641","0.0-6.0","5fbbdd11ff4568d9cc3536fb","64e77d7b61f440b60e28659d","64ec9534bc04d6f238a506ed","4156"," ","<p>Here is an example of the words you'll see:</p>
      <img src='esempio.png' height='400px'>
      <p>When you're ready to begin, press the spacebar.</p></div>","","","","","","","","","",""
"html-keyboard-response","7","70648","0.0-7.0-0.0","5fbbdd11ff4568d9cc3536fb","64e77d7b61f440b60e28659d","64ec9534bc04d6f238a506ed","null","null","<p style=""font-size: 60px; font-family: BACS"">PlEKEcR</p>","","","","","","","","","",""
"html-keyboard-response","8","71650","0.0-7.0-0.1","5fbbdd11ff4568d9cc3536fb","64e77d7b61f440b60e28659d","64ec9534bc04d6f238a506ed","null","null","<p style=""font-size: 60px; font-family: BACS"">kGamNYUYa</p>","","","","","","","","","",""
"html-keyboard-response","9","72652","0.0-7.0-0.2","5fbbdd11ff4568d9cc3536fb","64e77d7b61f440b60e28659d","64ec9534bc04d6f238a506ed","null","null","<p style=""font-size: 60px; font-family: BACS"">UJkGYaOk</p>","","","","","","","","","",""
"html-keyboard-response","10","73655","0.0-7.0-0.3","5fbbdd11ff4568d9cc3536fb","64e77d7b61f440b60e28659d","64ec9534bc04d6f238a506ed","null","null","<p style=""font-size: 60px; font-family: BACS"">TdTDEcR</p>","","","","","","","","","",""
"html-keyboard-response","11","74661","0.0-7.0-0.4","5fbbdd11ff4568d9cc3536fb","64e77d7b61f440b60e28659d","64ec9534bc04d6f238a506ed","null","null","<p style=""font-size: 60px; font-family: BACS"">NAacQJZr</p>","","","","","","","","","",""
"html-keyboard-response","12","75665","0.0-7.0-0.5","5fbbdd11ff4568d9cc3536fb","64e77d7b61f440b60e28659d","64ec9534bc04d6f238a506ed","null","null","<p style=""font-size: 60px; font-family: BACS"">mdkKBbM</p>","","","","","","","","","",""
"html-keyboard-response","13","76671","0.0-7.0-0.6","5fbbdd11ff4568d9cc3536fb","64e77d7b61f440b60e28659d","64ec9534bc04d6f238a506ed","null","null","<p style=""font-size: 60px; font-family: BACS"">YObAYbBT</p>","","","","","","","","","",""
"html-keyboard-response","14","77673","0.0-7.0-0.7","5fbbdd11ff4568d9cc3536fb","64e77d7b61f440b60e28659d","64ec9534bc04d6f238a506ed","null","null","<p style=""font-size: 60px; font-family: BACS"">JAdLmYUYa</p>","","","","","","","","","",""
"html-keyboard-response","15","78674","0.0-7.0-0.8","5fbbdd11ff4568d9cc3536fb","64e77d7b61f440b60e28659d","64ec9534bc04d6f238a506ed","null","null","<p style=""font-size: 60px; font-family: BACS"">AlQaQJcL</p>","","","","","","","","","",""
"html-keyboard-response","16","79677","0.0-7.0-0.9","5fbbdd11ff4568d9cc3536fb","64e77d7b61f440b60e28659d","64ec9534bc04d6f238a506ed","null","null","<p style=""font-size: 60px; font-family: BACS"">KMOcYbBT</p>","","","","","","","","","",""
"html-keyboard-response","17","80682","0.0-7.0-0.10","5fbbdd11ff4568d9cc3536fb","64e77d7b61f440b60e28659d","64ec9534bc04d6f238a506ed","null","null","<p style=""font-size: 60px; font-family: BACS"">CYPcTRK</p>","","","","","","","","","",""
"html-keyboard-response","18","81683","0.0-7.0-0.11","5fbbdd11ff4568d9cc3536fb","64e77d7b61f440b60e28659d","64ec9534bc04d6f238a506ed","null","null","<p style=""font-size: 60px; font-family: BACS"">LdQvYaOk</p>","","","","","","","","","",""
"html-keyboard-response","19","82688","0.0-7.0-0.12","5fbbdd11ff4568d9cc3536fb","64e77d7b61f440b60e28659d","64ec9534bc04d6f238a506ed","null","null","<p style=""font-size: 60px; font-family: BACS"">AbkaJZr</p>","","","","","","","","","",""
"html-keyboard-response","20","83693","0.0-7.0-0.13","5fbbdd11ff4568d9cc3536fb","64e77d7b61f440b60e28659d","64ec9534bc04d6f238a506ed","null","null","<p style=""font-size: 60px; font-family: BACS"">AlQaQYaOk</p>","","","","","","","","","",""
"html-keyboard-response","21","84700","0.0-7.0-0.14","5fbbdd11ff4568d9cc3536fb","64e77d7b61f440b60e28659d","64ec9534bc04d6f238a506ed","null","null","<p style=""font-size: 60px; font-family: BACS"">TdTDTRK</p>","","","","","","","","","",""
"html-keyboard-response","22","85702","0.0-7.0-0.15","5fbbdd11ff4568d9cc3536fb","64e77d7b61f440b60e28659d","64ec9534bc04d6f238a506ed","null","null","<p style=""font-size: 60px; font-family: BACS"">OtlRPTl</p>","","","","","","","","","",""
"html-keyboard-response","23","86709","0.0-7.0-0.16","5fbbdd11ff4568d9cc3536fb","64e77d7b61f440b60e28659d","64ec9534bc04d6f238a506ed","null","null","<p style=""font-size: 60px; font-family: BACS"">JAdLmYaOk</p>","","","","","","","","","",""
"html-keyboard-response","24","87713","0.0-7.0-0.17","5fbbdd11ff4568d9cc3536fb","64e77d7b61f440b60e28659d","64ec9534bc04d6f238a506ed","null","null","<p style=""font-size: 60px; font-family: BACS"">AmaclJcL</p>","","","","","","","","","",""
"html-keyboard-response","25","88718","0.0-7.0-0.18","5fbbdd11ff4568d9cc3536fb","64e77d7b61f440b60e28659d","64ec9534bc04d6f238a506ed","null","null","<p style=""font-size: 60px; font-family: BACS"">PlEKPTl</p>","","","","","","","","","",""
"html-keyboard-response","26","89723","0.0-7.0-0.19","5fbbdd11ff4568d9cc3536fb","64e77d7b61f440b60e28659d","64ec9534bc04d6f238a506ed","null","null","<p style=""font-size: 60px; font-family: BACS"">KMOcEcR</p>","","","","","","","","","",""
"html-keyboard-response","27","90725","0.0-7.0-0.20","5fbbdd11ff4568d9cc3536fb","64e77d7b61f440b60e28659d","64ec9534bc04d6f238a506ed","null","null","<p style=""font-size: 60px; font-family: BACS"">kGamNJcL</p>","","","","","","","","","",""
"html-keyboard-response","28","91729","0.0-7.0-0.21","5fbbdd11ff4568d9cc3536fb","64e77d7b61f440b60e28659d","64ec9534bc04d6f238a506ed","null","null","<p style=""font-size: 60px; font-family: BACS"">mdkKPTl</p>","","","","","","","","","",""
"html-keyboard-response","29","92735","0.0-7.0-0.22","5fbbdd11ff4568d9cc3536fb","64e77d7b61f440b60e28659d","64ec9534bc04d6f238a506ed","null","null","<p style=""font-size: 60px; font-family: BACS"">NAacQJcL</p>","","","","","","","","","",""
"html-keyboard-response","30","93739","0.0-7.0-0.23","5fbbdd11ff4568d9cc3536fb","64e77d7b61f440b60e28659d","64ec9534bc04d6f238a506ed","null","null","<p style=""font-size: 60px; font-family: BACS"">kGamNUdvY</p>","","","","","","","","","",""
"html-keyboard-response","31","94744","0.0-7.0-0.24","5fbbdd11ff4568d9cc3536fb","64e77d7b61f440b60e28659d","64ec9534bc04d6f238a506ed","null","null","<p style=""font-size: 60px; font-family: BACS"">AbkaYaOk</p>","","","","","","","","","",""
"html-keyboard-response","32","95749","0.0-7.0-0.25","5fbbdd11ff4568d9cc3536fb","64e77d7b61f440b60e28659d","64ec9534bc04d6f238a506ed","null","null","<p style=""font-size: 60px; font-family: BACS"">UJkGJZr</p>","","","","","","","","","",""
"html-keyboard-response","33","96753","0.0-7.0-0.26","5fbbdd11ff4568d9cc3536fb","64e77d7b61f440b60e28659d","64ec9534bc04d6f238a506ed","null","null","<p style=""font-size: 60px; font-family: BACS"">LdQvYUYa</p>","","","","","","","","","",""
"html-keyboard-response","34","97758","0.0-7.0-0.27","5fbbdd11ff4568d9cc3536fb","64e77d7b61f440b60e28659d","64ec9534bc04d6f238a506ed","null","null","<p style=""font-size: 60px; font-family: BACS"">NAacQYaOk</p>","","","","","","","","","",""
"html-keyboard-response","35","98763","0.0-7.0-0.28","5fbbdd11ff4568d9cc3536fb","64e77d7b61f440b60e28659d","64ec9534bc04d6f238a506ed","null","null","<p style=""font-size: 60px; font-family: BACS"">UJkGJcL</p>","","","","","","","","","",""
"html-keyboard-response","36","99768","0.0-7.0-0.29","5fbbdd11ff4568d9cc3536fb","64e77d7b61f440b60e28659d","64ec9534bc04d6f238a506ed","null","null","<p style=""font-size: 60px; font-family: BACS"">PlEKTRK</p>","","","","","","","","","",""
"html-keyboard-response","37","100772","0.0-7.0-0.30","5fbbdd11ff4568d9cc3536fb","64e77d7b61f440b60e28659d","64ec9534bc04d6f238a506ed","null","null","<p style=""font-size: 60px; font-family: BACS"">KMOcBbM</p>","","","","","","","","","",""
"html-keyboard-response","38","101777","0.0-7.0-0.31","5fbbdd11ff4568d9cc3536fb","64e77d7b61f440b60e28659d","64ec9534bc04d6f238a506ed","null","null","<p style=""font-size: 60px; font-family: BACS"">NAacQYUYa</p>","","","","","","","","","",""
"html-keyboard-response","39","102780","0.0-7.0-0.32","5fbbdd11ff4568d9cc3536fb","64e77d7b61f440b60e28659d","64ec9534bc04d6f238a506ed","null","null","<p style=""font-size: 60px; font-family: BACS"">hCktBbM</p>","","","","","","","","","",""
"html-keyboard-response","40","103785","0.0-7.0-0.33","5fbbdd11ff4568d9cc3536fb","64e77d7b61f440b60e28659d","64ec9534bc04d6f238a506ed","null","null","<p style=""font-size: 60px; font-family: BACS"">OtlREcR</p>","","","","","","","","","",""
"html-keyboard-response","41","104791","0.0-7.0-0.34","5fbbdd11ff4568d9cc3536fb","64e77d7b61f440b60e28659d","64ec9534bc04d6f238a506ed","null","null","<p style=""font-size: 60px; font-family: BACS"">TdTDYbBT</p>","","","","","","","","","",""
"html-keyboard-response","42","105796","0.0-7.0-0.35","5fbbdd11ff4568d9cc3536fb","64e77d7b61f440b60e28659d","64ec9534bc04d6f238a506ed","null","null","<p style=""font-size: 60px; font-family: BACS"">NaJbUdvY</p>","","","","","","","","","",""
"html-keyboard-response","43","106801","0.0-7.0-0.36","5fbbdd11ff4568d9cc3536fb","64e77d7b61f440b60e28659d","64ec9534bc04d6f238a506ed","null","null","<p style=""font-size: 60px; font-family: BACS"">AmaclYUYa</p>","","","","","","","","","",""
"html-keyboard-response","44","107806","0.0-7.0-0.37","5fbbdd11ff4568d9cc3536fb","64e77d7b61f440b60e28659d","64ec9534bc04d6f238a506ed","null","null","<p style=""font-size: 60px; font-family: BACS"">PlEKBbM</p>","","","","","","","","","",""
"html-keyboard-response","45","108812","0.0-7.0-0.38","5fbbdd11ff4568d9cc3536fb","64e77d7b61f440b60e28659d","64ec9534bc04d6f238a506ed","null","null","<p style=""font-size: 60px; font-family: BACS"">AbkaJcL</p>","","","","","","","","","",""
"html-keyboard-response","46","109813","0.0-7.0-0.39","5fbbdd11ff4568d9cc3536fb","64e77d7b61f440b60e28659d","64ec9534bc04d6f238a506ed","null","null","<p style=""font-size: 60px; font-family: BACS"">NaJbYaOk</p>","","","","","","","","","",""
"html-keyboard-response","47","110818","0.0-7.0-0.40","5fbbdd11ff4568d9cc3536fb","64e77d7b61f440b60e28659d","64ec9534bc04d6f238a506ed","null","null","<p style=""font-size: 60px; font-family: BACS"">vkYGlUdvY</p>","","","","","","","","","",""
"html-keyboard-response","48","111823","0.0-7.0-0.41","5fbbdd11ff4568d9cc3536fb","64e77d7b61f440b60e28659d","64ec9534bc04d6f238a506ed","null","null","<p style=""font-size: 60px; font-family: BACS"">YObAPTl</p>","","","","","","","","","",""
"html-keyboard-response","49","112828","0.0-7.0-0.42","5fbbdd11ff4568d9cc3536fb","64e77d7b61f440b60e28659d","64ec9534bc04d6f238a506ed","null","null","<p style=""font-size: 60px; font-family: BACS"">vkYGlJcL</p>","","","","","","","","","",""
"html-keyboard-response","50","113833","0.0-7.0-0.43","5fbbdd11ff4568d9cc3536fb","64e77d7b61f440b60e28659d","64ec9534bc04d6f238a506ed","null","null","<p style=""font-size: 60px; font-family: BACS"">TdTDPTl</p>","","","","","","","","","",""
"html-keyboard-response","51","114837","0.0-7.0-0.44","5fbbdd11ff4568d9cc3536fb","64e77d7b61f440b60e28659d","64ec9534bc04d6f238a506ed","null","null","<p style=""font-size: 60px; font-family: BACS"">AlQaQYUYa</p>","","","","","","","","","",""
"html-keyboard-response","52","115842","0.0-7.0-0.45","5fbbdd11ff4568d9cc3536fb","64e77d7b61f440b60e28659d","64ec9534bc04d6f238a506ed","null","null","<p style=""font-size: 60px; font-family: BACS"">LdQvJZr</p>","","","","","","","","","",""
"html-keyboard-response","53","116847","0.0-7.0-0.46","5fbbdd11ff4568d9cc3536fb","64e77d7b61f440b60e28659d","64ec9534bc04d6f238a506ed","null","null","<p style=""font-size: 60px; font-family: BACS"">hCktYbBT</p>","","","","","","","","","",""
"html-keyboard-response","54","117852","0.0-7.0-0.47","5fbbdd11ff4568d9cc3536fb","64e77d7b61f440b60e28659d","64ec9534bc04d6f238a506ed","null","null","<p style=""font-size: 60px; font-family: BACS"">tDPRkBbM</p>","","","","","","","","","",""
"html-keyboard-response","55","118856","0.0-7.0-0.48","5fbbdd11ff4568d9cc3536fb","64e77d7b61f440b60e28659d","64ec9534bc04d6f238a506ed","null","null","<p style=""font-size: 60px; font-family: BACS"">KMOcTRK</p>","","","","","","","","","",""
"html-keyboard-response","56","119858","0.0-7.0-0.49","5fbbdd11ff4568d9cc3536fb","64e77d7b61f440b60e28659d","64ec9534bc04d6f238a506ed","null","null","<p style=""font-size: 60px; font-family: BACS"">AlQaQUdvY</p>","","","","","","","","","",""
"html-keyboard-response","57","120860","0.0-7.0-0.50","5fbbdd11ff4568d9cc3536fb","64e77d7b61f440b60e28659d","64ec9534bc04d6f238a506ed","null","null","<p style=""font-size: 60px; font-family: BACS"">hCktTRK</p>","","","","","","","","","",""
"html-keyboard-response","58","121864","0.0-7.0-0.51","5fbbdd11ff4568d9cc3536fb","64e77d7b61f440b60e28659d","64ec9534bc04d6f238a506ed","null","null","<p style=""font-size: 60px; font-family: BACS"">tDPRkPTl</p>","","","","","","","","","",""
"html-keyboard-response","59","122865","0.0-7.0-0.52","5fbbdd11ff4568d9cc3536fb","64e77d7b61f440b60e28659d","64ec9534bc04d6f238a506ed","null","null","<p style=""font-size: 60px; font-family: BACS"">OtlRBbM</p>","","","","","","","","","",""
"html-keyboard-response","60","123870","0.0-7.0-0.53","5fbbdd11ff4568d9cc3536fb","64e77d7b61f440b60e28659d","64ec9534bc04d6f238a506ed","null","null","<p style=""font-size: 60px; font-family: BACS"">CchtdPTl</p>","","","","","","","","","",""
"html-keyboard-response","61","124875","0.0-7.0-0.54","5fbbdd11ff4568d9cc3536fb","64e77d7b61f440b60e28659d","64ec9534bc04d6f238a506ed","null","null","<p style=""font-size: 60px; font-family: BACS"">JAdLmJZr</p>","","","","","","","","","",""
"html-keyboard-response","62","125879","0.0-7.0-0.55","5fbbdd11ff4568d9cc3536fb","64e77d7b61f440b60e28659d","64ec9534bc04d6f238a506ed","null","null","<p style=""font-size: 60px; font-family: BACS"">CchtdTRK</p>","","","","","","","","","",""
"html-keyboard-response","63","126883","0.0-7.0-0.56","5fbbdd11ff4568d9cc3536fb","64e77d7b61f440b60e28659d","64ec9534bc04d6f238a506ed","null","null","<p style=""font-size: 60px; font-family: BACS"">vkYGlYUYa</p>","","","","","","","","","",""
"html-keyboard-response","64","127886","0.0-7.0-0.57","5fbbdd11ff4568d9cc3536fb","64e77d7b61f440b60e28659d","64ec9534bc04d6f238a506ed","null","null","<p style=""font-size: 60px; font-family: BACS"">LdQvUdvY</p>","","","","","","","","","",""
"html-keyboard-response","65","128890","0.0-7.0-0.58","5fbbdd11ff4568d9cc3536fb","64e77d7b61f440b60e28659d","64ec9534bc04d6f238a506ed","null","null","<p style=""font-size: 60px; font-family: BACS"">mdkKEcR</p>","","","","","","","","","",""
"html-keyboard-response","66","129895","0.0-7.0-0.59","5fbbdd11ff4568d9cc3536fb","64e77d7b61f440b60e28659d","64ec9534bc04d6f238a506ed","null","null","<p style=""font-size: 60px; font-family: BACS"">OtlRYbBT</p>","","","","","","","","","",""
"html-keyboard-response","67","130900","0.0-7.0-0.60","5fbbdd11ff4568d9cc3536fb","64e77d7b61f440b60e28659d","64ec9534bc04d6f238a506ed","null","null","<p style=""font-size: 60px; font-family: BACS"">AmaclJZr</p>","","","","","","","","","",""
"html-keyboard-response","68","131904","0.0-7.0-0.61","5fbbdd11ff4568d9cc3536fb","64e77d7b61f440b60e28659d","64ec9534bc04d6f238a506ed","null","null","<p style=""font-size: 60px; font-family: BACS"">tDPRkTRK</p>","","","","","","","","","",""
"html-keyboard-response","69","132909","0.0-7.0-0.62","5fbbdd11ff4568d9cc3536fb","64e77d7b61f440b60e28659d","64ec9534bc04d6f238a506ed","null","null","<p style=""font-size: 60px; font-family: BACS"">UJkGUdvY</p>","","","","","","","","","",""
"html-keyboard-response","70","133913","0.0-7.0-0.63","5fbbdd11ff4568d9cc3536fb","64e77d7b61f440b60e28659d","64ec9534bc04d6f238a506ed","null","null","<p style=""font-size: 60px; font-family: BACS"">CYPcBbM</p>","","","","","","","","","",""
"html-keyboard-response","71","134919","0.0-7.0-0.64","5fbbdd11ff4568d9cc3536fb","64e77d7b61f440b60e28659d","64ec9534bc04d6f238a506ed","null","null","<p style=""font-size: 60px; font-family: BACS"">kGamNJZr</p>","","","","","","","","","",""
"html-keyboard-response","72","135923","0.0-7.0-0.65","5fbbdd11ff4568d9cc3536fb","64e77d7b61f440b60e28659d","64ec9534bc04d6f238a506ed","null","null","<p style=""font-size: 60px; font-family: BACS"">CYPcPTl</p>","","","","","","","","","",""
"html-keyboard-response","73","136924","0.0-7.0-0.66","5fbbdd11ff4568d9cc3536fb","64e77d7b61f440b60e28659d","64ec9534bc04d6f238a506ed","null","null","<p style=""font-size: 60px; font-family: BACS"">JAdLmJcL</p>","","","","","","","","","",""
"html-keyboard-response","74","137929","0.0-7.0-0.67","5fbbdd11ff4568d9cc3536fb","64e77d7b61f440b60e28659d","64ec9534bc04d6f238a506ed","null","null","<p style=""font-size: 60px; font-family: BACS"">mdkKYbBT</p>","","","","","","","","","",""
"html-keyboard-response","75","138931","0.0-7.0-0.68","5fbbdd11ff4568d9cc3536fb","64e77d7b61f440b60e28659d","64ec9534bc04d6f238a506ed","null","null","<p style=""font-size: 60px; font-family: BACS"">YObATRK</p>","","","","","","","","","",""
"html-keyboard-response","76","139936","0.0-7.0-0.69","5fbbdd11ff4568d9cc3536fb","64e77d7b61f440b60e28659d","64ec9534bc04d6f238a506ed","null","null","<p style=""font-size: 60px; font-family: BACS"">vkYGlYaOk</p>","","","","","","","","","",""
"html-keyboard-response","77","140940","0.0-7.0-0.70","5fbbdd11ff4568d9cc3536fb","64e77d7b61f440b60e28659d","64ec9534bc04d6f238a506ed","null","null","<p style=""font-size: 60px; font-family: BACS"">CYPcEcR</p>","","","","","","","","","",""
"html-keyboard-response","78","141944","0.0-7.0-0.71","5fbbdd11ff4568d9cc3536fb","64e77d7b61f440b60e28659d","64ec9534bc04d6f238a506ed","null","null","<p style=""font-size: 60px; font-family: BACS"">AbkaUdvY</p>","","","","","","","","","",""
"html-keyboard-response","79","142948","0.0-7.0-0.72","5fbbdd11ff4568d9cc3536fb","64e77d7b61f440b60e28659d","64ec9534bc04d6f238a506ed","null","null","<p style=""font-size: 60px; font-family: BACS"">NaJbYUYa</p>","","","","","","","","","",""
"html-keyboard-response","80","143953","0.0-7.0-0.73","5fbbdd11ff4568d9cc3536fb","64e77d7b61f440b60e28659d","64ec9534bc04d6f238a506ed","null","null","<p style=""font-size: 60px; font-family: BACS"">hCktEcR</p>","","","","","","","","","",""
"html-keyboard-response","81","144956","0.0-7.0-0.74","5fbbdd11ff4568d9cc3536fb","64e77d7b61f440b60e28659d","64ec9534bc04d6f238a506ed","null","null","<p style=""font-size: 60px; font-family: BACS"">CchtdYbBT</p>","","","","","","","","","",""
"html-keyboard-response","82","145961","0.0-7.0-0.75","5fbbdd11ff4568d9cc3536fb","64e77d7b61f440b60e28659d","64ec9534bc04d6f238a506ed","null","null","<p style=""font-size: 60px; font-family: BACS"">NaJbJZr</p>","","","","","","","","","",""
"html-keyboard-response","83","146967","0.0-7.0-0.76","5fbbdd11ff4568d9cc3536fb","64e77d7b61f440b60e28659d","64ec9534bc04d6f238a506ed","null","null","<p style=""font-size: 60px; font-family: BACS"">tDPRkYbBT</p>","","","","","","","","","",""
"html-keyboard-response","84","147970","0.0-7.0-0.77","5fbbdd11ff4568d9cc3536fb","64e77d7b61f440b60e28659d","64ec9534bc04d6f238a506ed","null","null","<p style=""font-size: 60px; font-family: BACS"">AmaclUdvY</p>","","","","","","","","","",""
"html-keyboard-response","85","148974","0.0-7.0-0.78","5fbbdd11ff4568d9cc3536fb","64e77d7b61f440b60e28659d","64ec9534bc04d6f238a506ed","null","null","<p style=""font-size: 60px; font-family: BACS"">CchtdEcR</p>","","","","","","","","","",""
"html-keyboard-response","86","149979","0.0-7.0-0.79","5fbbdd11ff4568d9cc3536fb","64e77d7b61f440b60e28659d","64ec9534bc04d6f238a506ed","null","null","<p style=""font-size: 60px; font-family: BACS"">YObABbM</p>","","","","","","","","","",""
"html-keyboard-response","87","156242","0.0-8.0","5fbbdd11ff4568d9cc3536fb","64e77d7b61f440b60e28659d","64ec9534bc04d6f238a506ed","6262"," ","<p>Great, you've seen the first block of words. You may now take a short break.</p>
      <p>Press the spacebar when you're ready to continue.</p>","","","","","","","","","",""
"html-keyboard-response","88","157243","0.0-9.0-0.0","5fbbdd11ff4568d9cc3536fb","64e77d7b61f440b60e28659d","64ec9534bc04d6f238a506ed","null","null","<p style=""font-size: 60px; font-family: BACS"">PlEKEcR</p>","","","","","","","","","",""
"html-keyboard-response","89","158249","0.0-9.0-0.1","5fbbdd11ff4568d9cc3536fb","64e77d7b61f440b60e28659d","64ec9534bc04d6f238a506ed","null","null","<p style=""font-size: 60px; font-family: BACS"">CYPcBbM</p>","","","","","","","","","",""
"html-keyboard-response","90","159254","0.0-9.0-0.2","5fbbdd11ff4568d9cc3536fb","64e77d7b61f440b60e28659d","64ec9534bc04d6f238a506ed","null","null","<p style=""font-size: 60px; font-family: BACS"">vkYGlJcL</p>","","","","","","","","","",""
"html-keyboard-response","91","160257","0.0-9.0-0.3","5fbbdd11ff4568d9cc3536fb","64e77d7b61f440b60e28659d","64ec9534bc04d6f238a506ed","null","null","<p style=""font-size: 60px; font-family: BACS"">NaJbUdvY</p>","","","","","","","","","",""
"html-keyboard-response","92","161261","0.0-9.0-0.4","5fbbdd11ff4568d9cc3536fb","64e77d7b61f440b60e28659d","64ec9534bc04d6f238a506ed","null","null","<p style=""font-size: 60px; font-family: BACS"">UJkGJcL</p>","","","","","","","","","",""
"html-keyboard-response","93","162265","0.0-9.0-0.5","5fbbdd11ff4568d9cc3536fb","64e77d7b61f440b60e28659d","64ec9534bc04d6f238a506ed","null","null","<p style=""font-size: 60px; font-family: BACS"">KMOcBbM</p>","","","","","","","","","",""
"html-keyboard-response","94","163270","0.0-9.0-0.6","5fbbdd11ff4568d9cc3536fb","64e77d7b61f440b60e28659d","64ec9534bc04d6f238a506ed","null","null","<p style=""font-size: 60px; font-family: BACS"">OtlREcR</p>","","","","","","","","","",""
"html-keyboard-response","95","164274","0.0-9.0-0.7","5fbbdd11ff4568d9cc3536fb","64e77d7b61f440b60e28659d","64ec9534bc04d6f238a506ed","null","null","<p style=""font-size: 60px; font-family: BACS"">PlEKTRK</p>","","","","","","","","","",""
"html-keyboard-response","96","165276","0.0-9.0-0.8","5fbbdd11ff4568d9cc3536fb","64e77d7b61f440b60e28659d","64ec9534bc04d6f238a506ed","null","null","<p style=""font-size: 60px; font-family: BACS"">hCktEcR</p>","","","","","","","","","",""
"html-keyboard-response","97","166281","0.0-9.0-0.9","5fbbdd11ff4568d9cc3536fb","64e77d7b61f440b60e28659d","64ec9534bc04d6f238a506ed","null","null","<p style=""font-size: 60px; font-family: BACS"">LdQvJZr</p>","","","","","","","","","",""
"html-keyboard-response","98","167286","0.0-9.0-0.10","5fbbdd11ff4568d9cc3536fb","64e77d7b61f440b60e28659d","64ec9534bc04d6f238a506ed","null","null","<p style=""font-size: 60px; font-family: BACS"">UJkGUdvY</p>","","","","","","","","","",""
"html-keyboard-response","99","168290","0.0-9.0-0.11","5fbbdd11ff4568d9cc3536fb","64e77d7b61f440b60e28659d","64ec9534bc04d6f238a506ed","null","null","<p style=""font-size: 60px; font-family: BACS"">kGamNYUYa</p>","","","","","","","","","",""
"html-keyboard-response","100","169292","0.0-9.0-0.12","5fbbdd11ff4568d9cc3536fb","64e77d7b61f440b60e28659d","64ec9534bc04d6f238a506ed","null","null","<p style=""font-size: 60px; font-family: BACS"">tDPRkTRK</p>","","","","","","","","","",""
"html-keyboard-response","101","170296","0.0-9.0-0.13","5fbbdd11ff4568d9cc3536fb","64e77d7b61f440b60e28659d","64ec9534bc04d6f238a506ed","null","null","<p style=""font-size: 60px; font-family: BACS"">mdkKYbBT</p>","","","","","","","","","",""
"html-keyboard-response","102","171300","0.0-9.0-0.14","5fbbdd11ff4568d9cc3536fb","64e77d7b61f440b60e28659d","64ec9534bc04d6f238a506ed","null","null","<p style=""font-size: 60px; font-family: BACS"">NaJbYUYa</p>","","","","","","","","","",""
"html-keyboard-response","103","172304","0.0-9.0-0.15","5fbbdd11ff4568d9cc3536fb","64e77d7b61f440b60e28659d","64ec9534bc04d6f238a506ed","null","null","<p style=""font-size: 60px; font-family: BACS"">hCktYbBT</p>","","","","","","","","","",""
"html-keyboard-response","104","173309","0.0-9.0-0.16","5fbbdd11ff4568d9cc3536fb","64e77d7b61f440b60e28659d","64ec9534bc04d6f238a506ed","null","null","<p style=""font-size: 60px; font-family: BACS"">CYPcEcR</p>","","","","","","","","","",""
"html-keyboard-response","105","174311","0.0-9.0-0.17","5fbbdd11ff4568d9cc3536fb","64e77d7b61f440b60e28659d","64ec9534bc04d6f238a506ed","null","null","<p style=""font-size: 60px; font-family: BACS"">OtlRBbM</p>","","","","","","","","","",""
"html-keyboard-response","106","175316","0.0-9.0-0.18","5fbbdd11ff4568d9cc3536fb","64e77d7b61f440b60e28659d","64ec9534bc04d6f238a506ed","null","null","<p style=""font-size: 60px; font-family: BACS"">AlQaQYUYa</p>","","","","","","","","","",""
"html-keyboard-response","107","176321","0.0-9.0-0.19","5fbbdd11ff4568d9cc3536fb","64e77d7b61f440b60e28659d","64ec9534bc04d6f238a506ed","null","null","<p style=""font-size: 60px; font-family: BACS"">CYPcTRK</p>","","","","","","","","","",""
"html-keyboard-response","108","177325","0.0-9.0-0.20","5fbbdd11ff4568d9cc3536fb","64e77d7b61f440b60e28659d","64ec9534bc04d6f238a506ed","null","null","<p style=""font-size: 60px; font-family: BACS"">KMOcYbBT</p>","","","","","","","","","",""
"html-keyboard-response","109","178329","0.0-9.0-0.21","5fbbdd11ff4568d9cc3536fb","64e77d7b61f440b60e28659d","64ec9534bc04d6f238a506ed","null","null","<p style=""font-size: 60px; font-family: BACS"">tDPRkPTl</p>","","","","","","","","","",""
"html-keyboard-response","110","179332","0.0-9.0-0.22","5fbbdd11ff4568d9cc3536fb","64e77d7b61f440b60e28659d","64ec9534bc04d6f238a506ed","null","null","<p style=""font-size: 60px; font-family: BACS"">YObABbM</p>","","","","","","","","","",""
"html-keyboard-response","111","180336","0.0-9.0-0.23","5fbbdd11ff4568d9cc3536fb","64e77d7b61f440b60e28659d","64ec9534bc04d6f238a506ed","null","null","<p style=""font-size: 60px; font-family: BACS"">mdkKEcR</p>","","","","","","","","","",""
"html-keyboard-response","112","181341","0.0-9.0-0.24","5fbbdd11ff4568d9cc3536fb","64e77d7b61f440b60e28659d","64ec9534bc04d6f238a506ed","null","null","<p style=""font-size: 60px; font-family: BACS"">YObATRK</p>","","","","","","","","","",""
"html-keyboard-response","113","182346","0.0-9.0-0.25","5fbbdd11ff4568d9cc3536fb","64e77d7b61f440b60e28659d","64ec9534bc04d6f238a506ed","null","null","<p style=""font-size: 60px; font-family: BACS"">JAdLmJZr</p>","","","","","","","","","",""
"html-keyboard-response","114","183350","0.0-9.0-0.26","5fbbdd11ff4568d9cc3536fb","64e77d7b61f440b60e28659d","64ec9534bc04d6f238a506ed","null","null","<p style=""font-size: 60px; font-family: BACS"">AmaclJcL</p>","","","","","","","","","",""
"html-keyboard-response","115","184354","0.0-9.0-0.27","5fbbdd11ff4568d9cc3536fb","64e77d7b61f440b60e28659d","64ec9534bc04d6f238a506ed","null","null","<p style=""font-size: 60px; font-family: BACS"">YObAYbBT</p>","","","","","","","","","",""
"html-keyboard-response","116","185358","0.0-9.0-0.28","5fbbdd11ff4568d9cc3536fb","64e77d7b61f440b60e28659d","64ec9534bc04d6f238a506ed","null","null","<p style=""font-size: 60px; font-family: BACS"">NaJbJZr</p>","","","","","","","","","",""
"html-keyboard-response","117","186362","0.0-9.0-0.29","5fbbdd11ff4568d9cc3536fb","64e77d7b61f440b60e28659d","64ec9534bc04d6f238a506ed","null","null","<p style=""font-size: 60px; font-family: BACS"">OtlRYbBT</p>","","","","","","","","","",""
"html-keyboard-response","118","187368","0.0-9.0-0.30","5fbbdd11ff4568d9cc3536fb","64e77d7b61f440b60e28659d","64ec9534bc04d6f238a506ed","null","null","<p style=""font-size: 60px; font-family: BACS"">UJkGYaOk</p>","","","","","","","","","",""
"html-keyboard-response","119","188370","0.0-9.0-0.31","5fbbdd11ff4568d9cc3536fb","64e77d7b61f440b60e28659d","64ec9534bc04d6f238a506ed","null","null","<p style=""font-size: 60px; font-family: BACS"">TdTDEcR</p>","","","","","","","","","",""
"html-keyboard-response","120","189374","0.0-9.0-0.32","5fbbdd11ff4568d9cc3536fb","64e77d7b61f440b60e28659d","64ec9534bc04d6f238a506ed","null","null","<p style=""font-size: 60px; font-family: BACS"">AlQaQJcL</p>","","","","","","","","","",""
"html-keyboard-response","121","190376","0.0-9.0-0.33","5fbbdd11ff4568d9cc3536fb","64e77d7b61f440b60e28659d","64ec9534bc04d6f238a506ed","null","null","<p style=""font-size: 60px; font-family: BACS"">NAacQYUYa</p>","","","","","","","","","",""
"html-keyboard-response","122","191381","0.0-9.0-0.34","5fbbdd11ff4568d9cc3536fb","64e77d7b61f440b60e28659d","64ec9534bc04d6f238a506ed","null","null","<p style=""font-size: 60px; font-family: BACS"">AbkaUdvY</p>","","","","","","","","","",""
"html-keyboard-response","123","192385","0.0-9.0-0.35","5fbbdd11ff4568d9cc3536fb","64e77d7b61f440b60e28659d","64ec9534bc04d6f238a506ed","null","null","<p style=""font-size: 60px; font-family: BACS"">mdkKBbM</p>","","","","","","","","","",""
"html-keyboard-response","124","193388","0.0-9.0-0.36","5fbbdd11ff4568d9cc3536fb","64e77d7b61f440b60e28659d","64ec9534bc04d6f238a506ed","null","null","<p style=""font-size: 60px; font-family: BACS"">AmaclUdvY</p>","","","","","","","","","",""
"html-keyboard-response","125","194392","0.0-9.0-0.37","5fbbdd11ff4568d9cc3536fb","64e77d7b61f440b60e28659d","64ec9534bc04d6f238a506ed","null","null","<p style=""font-size: 60px; font-family: BACS"">NAacQJcL</p>","","","","","","","","","",""
"html-keyboard-response","126","195396","0.0-9.0-0.38","5fbbdd11ff4568d9cc3536fb","64e77d7b61f440b60e28659d","64ec9534bc04d6f238a506ed","null","null","<p style=""font-size: 60px; font-family: BACS"">UJkGJZr</p>","","","","","","","","","",""
"html-keyboard-response","127","196402","0.0-9.0-0.39","5fbbdd11ff4568d9cc3536fb","64e77d7b61f440b60e28659d","64ec9534bc04d6f238a506ed","null","null","<p style=""font-size: 60px; font-family: BACS"">vkYGlYaOk</p>","","","","","","","","","",""
"html-keyboard-response","128","197405","0.0-9.0-0.40","5fbbdd11ff4568d9cc3536fb","64e77d7b61f440b60e28659d","64ec9534bc04d6f238a506ed","null","null","<p style=""font-size: 60px; font-family: BACS"">hCktBbM</p>","","","","","","","","","",""
"html-keyboard-response","129","198409","0.0-9.0-0.41","5fbbdd11ff4568d9cc3536fb","64e77d7b61f440b60e28659d","64ec9534bc04d6f238a506ed","null","null","<p style=""font-size: 60px; font-family: BACS"">LdQvUdvY</p>","","","","","","","","","",""
"html-keyboard-response","130","199413","0.0-9.0-0.42","5fbbdd11ff4568d9cc3536fb","64e77d7b61f440b60e28659d","64ec9534bc04d6f238a506ed","null","null","<p style=""font-size: 60px; font-family: BACS"">PlEKBbM</p>","","","","","","","","","",""
"html-keyboard-response","131","200417","0.0-9.0-0.43","5fbbdd11ff4568d9cc3536fb","64e77d7b61f440b60e28659d","64ec9534bc04d6f238a506ed","null","null","<p style=""font-size: 60px; font-family: BACS"">kGamNJcL</p>","","","","","","","","","",""
"html-keyboard-response","132","201422","0.0-9.0-0.44","5fbbdd11ff4568d9cc3536fb","64e77d7b61f440b60e28659d","64ec9534bc04d6f238a506ed","null","null","<p style=""font-size: 60px; font-family: BACS"">vkYGlYUYa</p>","","","","","","","","","",""
"html-keyboard-response","133","202427","0.0-9.0-0.45","5fbbdd11ff4568d9cc3536fb","64e77d7b61f440b60e28659d","64ec9534bc04d6f238a506ed","null","null","<p style=""font-size: 60px; font-family: BACS"">mdkKPTl</p>","","","","","","","","","",""
"html-keyboard-response","134","203430","0.0-9.0-0.46","5fbbdd11ff4568d9cc3536fb","64e77d7b61f440b60e28659d","64ec9534bc04d6f238a506ed","null","null","<p style=""font-size: 60px; font-family: BACS"">CchtdEcR</p>","","","","","","","","","",""
"html-keyboard-response","135","204434","0.0-9.0-0.47","5fbbdd11ff4568d9cc3536fb","64e77d7b61f440b60e28659d","64ec9534bc04d6f238a506ed","null","null","<p style=""font-size: 60px; font-family: BACS"">kGamNUdvY</p>","","","","","","","","","",""
"html-keyboard-response","136","205439","0.0-9.0-0.48","5fbbdd11ff4568d9cc3536fb","64e77d7b61f440b60e28659d","64ec9534bc04d6f238a506ed","null","null","<p style=""font-size: 60px; font-family: BACS"">NAacQJZr</p>","","","","","","","","","",""
"html-keyboard-response","137","206443","0.0-9.0-0.49","5fbbdd11ff4568d9cc3536fb","64e77d7b61f440b60e28659d","64ec9534bc04d6f238a506ed","null","null","<p style=""font-size: 60px; font-family: BACS"">PlEKPTl</p>","","","","","","","","","",""
"html-keyboard-response","138","207448","0.0-9.0-0.50","5fbbdd11ff4568d9cc3536fb","64e77d7b61f440b60e28659d","64ec9534bc04d6f238a506ed","null","null","<p style=""font-size: 60px; font-family: BACS"">JAdLmJcL</p>","","","","","","","","","",""
"html-keyboard-response","139","208452","0.0-9.0-0.51","5fbbdd11ff4568d9cc3536fb","64e77d7b61f440b60e28659d","64ec9534bc04d6f238a506ed","null","null","<p style=""font-size: 60px; font-family: BACS"">AmaclJZr</p>","","","","","","","","","",""
"html-keyboard-response","140","209456","0.0-9.0-0.52","5fbbdd11ff4568d9cc3536fb","64e77d7b61f440b60e28659d","64ec9534bc04d6f238a506ed","null","null","<p style=""font-size: 60px; font-family: BACS"">LdQvYUYa</p>","","","","","","","","","",""
"html-keyboard-response","141","210461","0.0-9.0-0.53","5fbbdd11ff4568d9cc3536fb","64e77d7b61f440b60e28659d","64ec9534bc04d6f238a506ed","null","null","<p style=""font-size: 60px; font-family: BACS"">hCktTRK</p>","","","","","","","","","",""
"html-keyboard-response","142","211464","0.0-9.0-0.54","5fbbdd11ff4568d9cc3536fb","64e77d7b61f440b60e28659d","64ec9534bc04d6f238a506ed","null","null","<p style=""font-size: 60px; font-family: BACS"">NaJbYaOk</p>","","","","","","","","","",""
"html-keyboard-response","143","212469","0.0-9.0-0.55","5fbbdd11ff4568d9cc3536fb","64e77d7b61f440b60e28659d","64ec9534bc04d6f238a506ed","null","null","<p style=""font-size: 60px; font-family: BACS"">AbkaJZr</p>","","","","","","","","","",""
"html-keyboard-response","144","213473","0.0-9.0-0.56","5fbbdd11ff4568d9cc3536fb","64e77d7b61f440b60e28659d","64ec9534bc04d6f238a506ed","null","null","<p style=""font-size: 60px; font-family: BACS"">TdTDPTl</p>","","","","","","","","","",""
"html-keyboard-response","145","214477","0.0-9.0-0.57","5fbbdd11ff4568d9cc3536fb","64e77d7b61f440b60e28659d","64ec9534bc04d6f238a506ed","null","null","<p style=""font-size: 60px; font-family: BACS"">KMOcEcR</p>","","","","","","","","","",""
"html-keyboard-response","146","215482","0.0-9.0-0.58","5fbbdd11ff4568d9cc3536fb","64e77d7b61f440b60e28659d","64ec9534bc04d6f238a506ed","null","null","<p style=""font-size: 60px; font-family: BACS"">AlQaQYaOk</p>","","","","","","","","","",""
"html-keyboard-response","147","216486","0.0-9.0-0.59","5fbbdd11ff4568d9cc3536fb","64e77d7b61f440b60e28659d","64ec9534bc04d6f238a506ed","null","null","<p style=""font-size: 60px; font-family: BACS"">tDPRkYbBT</p>","","","","","","","","","",""
"html-keyboard-response","148","217490","0.0-9.0-0.60","5fbbdd11ff4568d9cc3536fb","64e77d7b61f440b60e28659d","64ec9534bc04d6f238a506ed","null","null","<p style=""font-size: 60px; font-family: BACS"">CchtdPTl</p>","","","","","","","","","",""
"html-keyboard-response","149","218495","0.0-9.0-0.61","5fbbdd11ff4568d9cc3536fb","64e77d7b61f440b60e28659d","64ec9534bc04d6f238a506ed","null","null","<p style=""font-size: 60px; font-family: BACS"">AbkaJcL</p>","","","","","","","","","",""
"html-keyboard-response","150","219499","0.0-9.0-0.62","5fbbdd11ff4568d9cc3536fb","64e77d7b61f440b60e28659d","64ec9534bc04d6f238a506ed","null","null","<p style=""font-size: 60px; font-family: BACS"">CchtdYbBT</p>","","","","","","","","","",""
"html-keyboard-response","151","220503","0.0-9.0-0.63","5fbbdd11ff4568d9cc3536fb","64e77d7b61f440b60e28659d","64ec9534bc04d6f238a506ed","null","null","<p style=""font-size: 60px; font-family: BACS"">JAdLmYaOk</p>","","","","","","","","","",""
"html-keyboard-response","152","221508","0.0-9.0-0.64","5fbbdd11ff4568d9cc3536fb","64e77d7b61f440b60e28659d","64ec9534bc04d6f238a506ed","null","null","<p style=""font-size: 60px; font-family: BACS"">TdTDYbBT</p>","","","","","","","","","",""
"html-keyboard-response","153","222512","0.0-9.0-0.65","5fbbdd11ff4568d9cc3536fb","64e77d7b61f440b60e28659d","64ec9534bc04d6f238a506ed","null","null","<p style=""font-size: 60px; font-family: BACS"">AmaclYUYa</p>","","","","","","","","","",""
"html-keyboard-response","154","223517","0.0-9.0-0.66","5fbbdd11ff4568d9cc3536fb","64e77d7b61f440b60e28659d","64ec9534bc04d6f238a506ed","null","null","<p style=""font-size: 60px; font-family: BACS"">tDPRkBbM</p>","","","","","","","","","",""
"html-keyboard-response","155","224522","0.0-9.0-0.67","5fbbdd11ff4568d9cc3536fb","64e77d7b61f440b60e28659d","64ec9534bc04d6f238a506ed","null","null","<p style=""font-size: 60px; font-family: BACS"">KMOcTRK</p>","","","","","","","","","",""
"html-keyboard-response","156","225523","0.0-9.0-0.68","5fbbdd11ff4568d9cc3536fb","64e77d7b61f440b60e28659d","64ec9534bc04d6f238a506ed","null","null","<p style=""font-size: 60px; font-family: BACS"">YObAPTl</p>","","","","","","","","","",""
"html-keyboard-response","157","226527","0.0-9.0-0.69","5fbbdd11ff4568d9cc3536fb","64e77d7b61f440b60e28659d","64ec9534bc04d6f238a506ed","null","null","<p style=""font-size: 60px; font-family: BACS"">kGamNJZr</p>","","","","","","","","","",""
"html-keyboard-response","158","227532","0.0-9.0-0.70","5fbbdd11ff4568d9cc3536fb","64e77d7b61f440b60e28659d","64ec9534bc04d6f238a506ed","null","null","<p style=""font-size: 60px; font-family: BACS"">vkYGlUdvY</p>","","","","","","","","","",""
"html-keyboard-response","159","228537","0.0-9.0-0.71","5fbbdd11ff4568d9cc3536fb","64e77d7b61f440b60e28659d","64ec9534bc04d6f238a506ed","null","null","<p style=""font-size: 60px; font-family: BACS"">CchtdTRK</p>","","","","","","","","","",""
"html-keyboard-response","160","229541","0.0-9.0-0.72","5fbbdd11ff4568d9cc3536fb","64e77d7b61f440b60e28659d","64ec9534bc04d6f238a506ed","null","null","<p style=""font-size: 60px; font-family: BACS"">CYPcPTl</p>","","","","","","","","","",""
"html-keyboard-response","161","230545","0.0-9.0-0.73","5fbbdd11ff4568d9cc3536fb","64e77d7b61f440b60e28659d","64ec9534bc04d6f238a506ed","null","null","<p style=""font-size: 60px; font-family: BACS"">AbkaYaOk</p>","","","","","","","","","",""
"html-keyboard-response","162","231549","0.0-9.0-0.74","5fbbdd11ff4568d9cc3536fb","64e77d7b61f440b60e28659d","64ec9534bc04d6f238a506ed","null","null","<p style=""font-size: 60px; font-family: BACS"">TdTDTRK</p>","","","","","","","","","",""
"html-keyboard-response","163","232554","0.0-9.0-0.75","5fbbdd11ff4568d9cc3536fb","64e77d7b61f440b60e28659d","64ec9534bc04d6f238a506ed","null","null","<p style=""font-size: 60px; font-family: BACS"">OtlRPTl</p>","","","","","","","","","",""
"html-keyboard-response","164","233557","0.0-9.0-0.76","5fbbdd11ff4568d9cc3536fb","64e77d7b61f440b60e28659d","64ec9534bc04d6f238a506ed","null","null","<p style=""font-size: 60px; font-family: BACS"">NAacQYaOk</p>","","","","","","","","","",""
"html-keyboard-response","165","234558","0.0-9.0-0.77","5fbbdd11ff4568d9cc3536fb","64e77d7b61f440b60e28659d","64ec9534bc04d6f238a506ed","null","null","<p style=""font-size: 60px; font-family: BACS"">JAdLmYUYa</p>","","","","","","","","","",""
"html-keyboard-response","166","235562","0.0-9.0-0.78","5fbbdd11ff4568d9cc3536fb","64e77d7b61f440b60e28659d","64ec9534bc04d6f238a506ed","null","null","<p style=""font-size: 60px; font-family: BACS"">AlQaQUdvY</p>","","","","","","","","","",""
"html-keyboard-response","167","236563","0.0-9.0-0.79","5fbbdd11ff4568d9cc3536fb","64e77d7b61f440b60e28659d","64ec9534bc04d6f238a506ed","null","null","<p style=""font-size: 60px; font-family: BACS"">LdQvYaOk</p>","","","","","","","","","",""
"html-keyboard-response","168","240266","0.0-10.0","5fbbdd11ff4568d9cc3536fb","64e77d7b61f440b60e28659d","64ec9534bc04d6f238a506ed","3702"," ","<p>Great, you've seen the second block of words. You may now take a short break.</p>
      <p>Press the spacebar when you're ready to continue.</p>","","","","","","","","","",""
"html-keyboard-response","169","241268","0.0-11.0-0.0","5fbbdd11ff4568d9cc3536fb","64e77d7b61f440b60e28659d","64ec9534bc04d6f238a506ed","null","null","<p style=""font-size: 60px; font-family: BACS"">AlQaQUdvY</p>","","","","","","","","","",""
"html-keyboard-response","170","242272","0.0-11.0-0.1","5fbbdd11ff4568d9cc3536fb","64e77d7b61f440b60e28659d","64ec9534bc04d6f238a506ed","null","null","<p style=""font-size: 60px; font-family: BACS"">mdkKYbBT</p>","","","","","","","","","",""
"html-keyboard-response","171","243276","0.0-11.0-0.2","5fbbdd11ff4568d9cc3536fb","64e77d7b61f440b60e28659d","64ec9534bc04d6f238a506ed","null","null","<p style=""font-size: 60px; font-family: BACS"">JAdLmYaOk</p>","","","","","","","","","",""
"html-keyboard-response","172","244279","0.0-11.0-0.3","5fbbdd11ff4568d9cc3536fb","64e77d7b61f440b60e28659d","64ec9534bc04d6f238a506ed","null","null","<p style=""font-size: 60px; font-family: BACS"">NaJbUdvY</p>","","","","","","","","","",""
"html-keyboard-response","173","245283","0.0-11.0-0.4","5fbbdd11ff4568d9cc3536fb","64e77d7b61f440b60e28659d","64ec9534bc04d6f238a506ed","null","null","<p style=""font-size: 60px; font-family: BACS"">OtlREcR</p>","","","","","","","","","",""
"html-keyboard-response","174","246287","0.0-11.0-0.5","5fbbdd11ff4568d9cc3536fb","64e77d7b61f440b60e28659d","64ec9534bc04d6f238a506ed","null","null","<p style=""font-size: 60px; font-family: BACS"">CchtdTRK</p>","","","","","","","","","",""
"html-keyboard-response","175","247291","0.0-11.0-0.6","5fbbdd11ff4568d9cc3536fb","64e77d7b61f440b60e28659d","64ec9534bc04d6f238a506ed","null","null","<p style=""font-size: 60px; font-family: BACS"">PlEKEcR</p>","","","","","","","","","",""
"html-keyboard-response","176","248292","0.0-11.0-0.7","5fbbdd11ff4568d9cc3536fb","64e77d7b61f440b60e28659d","64ec9534bc04d6f238a506ed","null","null","<p style=""font-size: 60px; font-family: BACS"">vkYGlYUYa</p>","","","","","","","","","",""
"html-keyboard-response","177","249296","0.0-11.0-0.8","5fbbdd11ff4568d9cc3536fb","64e77d7b61f440b60e28659d","64ec9534bc04d6f238a506ed","null","null","<p style=""font-size: 60px; font-family: BACS"">JAdLmJZr</p>","","","","","","","","","",""
"html-keyboard-response","178","250300","0.0-11.0-0.9","5fbbdd11ff4568d9cc3536fb","64e77d7b61f440b60e28659d","64ec9534bc04d6f238a506ed","null","null","<p style=""font-size: 60px; font-family: BACS"">OtlRYbBT</p>","","","","","","","","","",""
"html-keyboard-response","179","251304","0.0-11.0-0.10","5fbbdd11ff4568d9cc3536fb","64e77d7b61f440b60e28659d","64ec9534bc04d6f238a506ed","null","null","<p style=""font-size: 60px; font-family: BACS"">UJkGJZr</p>","","","","","","","","","",""
"html-keyboard-response","180","252307","0.0-11.0-0.11","5fbbdd11ff4568d9cc3536fb","64e77d7b61f440b60e28659d","64ec9534bc04d6f238a506ed","null","null","<p style=""font-size: 60px; font-family: BACS"">JAdLmYUYa</p>","","","","","","","","","",""
"html-keyboard-response","181","253312","0.0-11.0-0.12","5fbbdd11ff4568d9cc3536fb","64e77d7b61f440b60e28659d","64ec9534bc04d6f238a506ed","null","null","<p style=""font-size: 60px; font-family: BACS"">TdTDYbBT</p>","","","","","","","","","",""
"html-keyboard-response","182","254316","0.0-11.0-0.13","5fbbdd11ff4568d9cc3536fb","64e77d7b61f440b60e28659d","64ec9534bc04d6f238a506ed","null","null","<p style=""font-size: 60px; font-family: BACS"">OtlRPTl</p>","","","","","","","","","",""
"html-keyboard-response","183","255320","0.0-11.0-0.14","5fbbdd11ff4568d9cc3536fb","64e77d7b61f440b60e28659d","64ec9534bc04d6f238a506ed","null","null","<p style=""font-size: 60px; font-family: BACS"">CchtdEcR</p>","","","","","","","","","",""
"html-keyboard-response","184","256324","0.0-11.0-0.15","5fbbdd11ff4568d9cc3536fb","64e77d7b61f440b60e28659d","64ec9534bc04d6f238a506ed","null","null","<p style=""font-size: 60px; font-family: BACS"">vkYGlUdvY</p>","","","","","","","","","",""
"html-keyboard-response","185","257325","0.0-11.0-0.16","5fbbdd11ff4568d9cc3536fb","64e77d7b61f440b60e28659d","64ec9534bc04d6f238a506ed","null","null","<p style=""font-size: 60px; font-family: BACS"">AmaclJZr</p>","","","","","","","","","",""
"html-keyboard-response","186","258329","0.0-11.0-0.17","5fbbdd11ff4568d9cc3536fb","64e77d7b61f440b60e28659d","64ec9534bc04d6f238a506ed","null","null","<p style=""font-size: 60px; font-family: BACS"">CchtdYbBT</p>","","","","","","","","","",""
"html-keyboard-response","187","259333","0.0-11.0-0.18","5fbbdd11ff4568d9cc3536fb","64e77d7b61f440b60e28659d","64ec9534bc04d6f238a506ed","null","null","<p style=""font-size: 60px; font-family: BACS"">LdQvJZr</p>","","","","","","","","","",""
"html-keyboard-response","188","260338","0.0-11.0-0.19","5fbbdd11ff4568d9cc3536fb","64e77d7b61f440b60e28659d","64ec9534bc04d6f238a506ed","null","null","<p style=""font-size: 60px; font-family: BACS"">AlQaQYaOk</p>","","","","","","","","","",""
"html-keyboard-response","189","261342","0.0-11.0-0.20","5fbbdd11ff4568d9cc3536fb","64e77d7b61f440b60e28659d","64ec9534bc04d6f238a506ed","null","null","<p style=""font-size: 60px; font-family: BACS"">kGamNJcL</p>","","","","","","","","","",""
"html-keyboard-response","190","262346","0.0-11.0-0.21","5fbbdd11ff4568d9cc3536fb","64e77d7b61f440b60e28659d","64ec9534bc04d6f238a506ed","null","null","<p style=""font-size: 60px; font-family: BACS"">NaJbJZr</p>","","","","","","","","","",""
"html-keyboard-response","191","263351","0.0-11.0-0.22","5fbbdd11ff4568d9cc3536fb","64e77d7b61f440b60e28659d","64ec9534bc04d6f238a506ed","null","null","<p style=""font-size: 60px; font-family: BACS"">tDPRkPTl</p>","","","","","","","","","",""
"html-keyboard-response","192","264355","0.0-11.0-0.23","5fbbdd11ff4568d9cc3536fb","64e77d7b61f440b60e28659d","64ec9534bc04d6f238a506ed","null","null","<p style=""font-size: 60px; font-family: BACS"">CYPcTRK</p>","","","","","","","","","",""
"html-keyboard-response","193","265359","0.0-11.0-0.24","5fbbdd11ff4568d9cc3536fb","64e77d7b61f440b60e28659d","64ec9534bc04d6f238a506ed","null","null","<p style=""font-size: 60px; font-family: BACS"">PlEKPTl</p>","","","","","","","","","",""
"html-keyboard-response","194","266364","0.0-11.0-0.25","5fbbdd11ff4568d9cc3536fb","64e77d7b61f440b60e28659d","64ec9534bc04d6f238a506ed","null","null","<p style=""font-size: 60px; font-family: BACS"">CYPcEcR</p>","","","","","","","","","",""
"html-keyboard-response","195","267369","0.0-11.0-0.26","5fbbdd11ff4568d9cc3536fb","64e77d7b61f440b60e28659d","64ec9534bc04d6f238a506ed","null","null","<p style=""font-size: 60px; font-family: BACS"">LdQvUdvY</p>","","","","","","","","","",""
"html-keyboard-response","196","268371","0.0-11.0-0.27","5fbbdd11ff4568d9cc3536fb","64e77d7b61f440b60e28659d","64ec9534bc04d6f238a506ed","null","null","<p style=""font-size: 60px; font-family: BACS"">AlQaQJcL</p>","","","","","","","","","",""
"html-keyboard-response","197","269374","0.0-11.0-0.28","5fbbdd11ff4568d9cc3536fb","64e77d7b61f440b60e28659d","64ec9534bc04d6f238a506ed","null","null","<p style=""font-size: 60px; font-family: BACS"">NaJbYaOk</p>","","","","","","","","","",""
"html-keyboard-response","198","270379","0.0-11.0-0.29","5fbbdd11ff4568d9cc3536fb","64e77d7b61f440b60e28659d","64ec9534bc04d6f238a506ed","null","null","<p style=""font-size: 60px; font-family: BACS"">UJkGUdvY</p>","","","","","","","","","",""
"html-keyboard-response","199","271383","0.0-11.0-0.30","5fbbdd11ff4568d9cc3536fb","64e77d7b61f440b60e28659d","64ec9534bc04d6f238a506ed","null","null","<p style=""font-size: 60px; font-family: BACS"">LdQvYaOk</p>","","","","","","","","","",""
"html-keyboard-response","200","272388","0.0-11.0-0.31","5fbbdd11ff4568d9cc3536fb","64e77d7b61f440b60e28659d","64ec9534bc04d6f238a506ed","null","null","<p style=""font-size: 60px; font-family: BACS"">YObATRK</p>","","","","","","","","","",""
"html-keyboard-response","201","273393","0.0-11.0-0.32","5fbbdd11ff4568d9cc3536fb","64e77d7b61f440b60e28659d","64ec9534bc04d6f238a506ed","null","null","<p style=""font-size: 60px; font-family: BACS"">kGamNYUYa</p>","","","","","","","","","",""
"html-keyboard-response","202","274396","0.0-11.0-0.33","5fbbdd11ff4568d9cc3536fb","64e77d7b61f440b60e28659d","64ec9534bc04d6f238a506ed","null","null","<p style=""font-size: 60px; font-family: BACS"">AmaclUdvY</p>","","","","","","","","","",""
"html-keyboard-response","203","275401","0.0-11.0-0.34","5fbbdd11ff4568d9cc3536fb","64e77d7b61f440b60e28659d","64ec9534bc04d6f238a506ed","null","null","<p style=""font-size: 60px; font-family: BACS"">mdkKBbM</p>","","","","","","","","","",""
"html-keyboard-response","204","276405","0.0-11.0-0.35","5fbbdd11ff4568d9cc3536fb","64e77d7b61f440b60e28659d","64ec9534bc04d6f238a506ed","null","null","<p style=""font-size: 60px; font-family: BACS"">NAacQJcL</p>","","","","","","","","","",""
"html-keyboard-response","205","277410","0.0-11.0-0.36","5fbbdd11ff4568d9cc3536fb","64e77d7b61f440b60e28659d","64ec9534bc04d6f238a506ed","null","null","<p style=""font-size: 60px; font-family: BACS"">OtlRBbM</p>","","","","","","","","","",""
"html-keyboard-response","206","278414","0.0-11.0-0.37","5fbbdd11ff4568d9cc3536fb","64e77d7b61f440b60e28659d","64ec9534bc04d6f238a506ed","null","null","<p style=""font-size: 60px; font-family: BACS"">AbkaUdvY</p>","","","","","","","","","",""
"html-keyboard-response","207","279418","0.0-11.0-0.38","5fbbdd11ff4568d9cc3536fb","64e77d7b61f440b60e28659d","64ec9534bc04d6f238a506ed","null","null","<p style=""font-size: 60px; font-family: BACS"">TdTDPTl</p>","","","","","","","","","",""
"html-keyboard-response","208","280422","0.0-11.0-0.39","5fbbdd11ff4568d9cc3536fb","64e77d7b61f440b60e28659d","64ec9534bc04d6f238a506ed","null","null","<p style=""font-size: 60px; font-family: BACS"">tDPRkBbM</p>","","","","","","","","","",""
"html-keyboard-response","209","281428","0.0-11.0-0.40","5fbbdd11ff4568d9cc3536fb","64e77d7b61f440b60e28659d","64ec9534bc04d6f238a506ed","null","null","<p style=""font-size: 60px; font-family: BACS"">AmaclYUYa</p>","","","","","","","","","",""
"html-keyboard-response","210","282434","0.0-11.0-0.41","5fbbdd11ff4568d9cc3536fb","64e77d7b61f440b60e28659d","64ec9534bc04d6f238a506ed","null","null","<p style=""font-size: 60px; font-family: BACS"">KMOcTRK</p>","","","","","","","","","",""
"html-keyboard-response","211","283438","0.0-11.0-0.42","5fbbdd11ff4568d9cc3536fb","64e77d7b61f440b60e28659d","64ec9534bc04d6f238a506ed","null","null","<p style=""font-size: 60px; font-family: BACS"">NAacQYaOk</p>","","","","","","","","","",""
"html-keyboard-response","212","284442","0.0-11.0-0.43","5fbbdd11ff4568d9cc3536fb","64e77d7b61f440b60e28659d","64ec9534bc04d6f238a506ed","null","null","<p style=""font-size: 60px; font-family: BACS"">KMOcEcR</p>","","","","","","","","","",""
"html-keyboard-response","213","285446","0.0-11.0-0.44","5fbbdd11ff4568d9cc3536fb","64e77d7b61f440b60e28659d","64ec9534bc04d6f238a506ed","null","null","<p style=""font-size: 60px; font-family: BACS"">mdkKPTl</p>","","","","","","","","","",""
"html-keyboard-response","214","286451","0.0-11.0-0.45","5fbbdd11ff4568d9cc3536fb","64e77d7b61f440b60e28659d","64ec9534bc04d6f238a506ed","null","null","<p style=""font-size: 60px; font-family: BACS"">CYPcBbM</p>","","","","","","","","","",""
"html-keyboard-response","215","287457","0.0-11.0-0.46","5fbbdd11ff4568d9cc3536fb","64e77d7b61f440b60e28659d","64ec9534bc04d6f238a506ed","null","null","<p style=""font-size: 60px; font-family: BACS"">kGamNJZr</p>","","","","","","","","","",""
"html-keyboard-response","216","288461","0.0-11.0-0.47","5fbbdd11ff4568d9cc3536fb","64e77d7b61f440b60e28659d","64ec9534bc04d6f238a506ed","null","null","<p style=""font-size: 60px; font-family: BACS"">PlEKBbM</p>","","","","","","","","","",""
"html-keyboard-response","217","289465","0.0-11.0-0.48","5fbbdd11ff4568d9cc3536fb","64e77d7b61f440b60e28659d","64ec9534bc04d6f238a506ed","null","null","<p style=""font-size: 60px; font-family: BACS"">tDPRkYbBT</p>","","","","","","","","","",""
"html-keyboard-response","218","290469","0.0-11.0-0.49","5fbbdd11ff4568d9cc3536fb","64e77d7b61f440b60e28659d","64ec9534bc04d6f238a506ed","null","null","<p style=""font-size: 60px; font-family: BACS"">TdTDEcR</p>","","","","","","","","","",""
"html-keyboard-response","219","291471","0.0-11.0-0.50","5fbbdd11ff4568d9cc3536fb","64e77d7b61f440b60e28659d","64ec9534bc04d6f238a506ed","null","null","<p style=""font-size: 60px; font-family: BACS"">UJkGJcL</p>","","","","","","","","","",""
"html-keyboard-response","220","292476","0.0-11.0-0.51","5fbbdd11ff4568d9cc3536fb","64e77d7b61f440b60e28659d","64ec9534bc04d6f238a506ed","null","null","<p style=""font-size: 60px; font-family: BACS"">NAacQJZr</p>","","","","","","","","","",""
"html-keyboard-response","221","293481","0.0-11.0-0.52","5fbbdd11ff4568d9cc3536fb","64e77d7b61f440b60e28659d","64ec9534bc04d6f238a506ed","null","null","<p style=""font-size: 60px; font-family: BACS"">LdQvYUYa</p>","","","","","","","","","",""
"html-keyboard-response","222","294486","0.0-11.0-0.53","5fbbdd11ff4568d9cc3536fb","64e77d7b61f440b60e28659d","64ec9534bc04d6f238a506ed","null","null","<p style=""font-size: 60px; font-family: BACS"">YObAYbBT</p>","","","","","","","","","",""
"html-keyboard-response","223","295487","0.0-11.0-0.54","5fbbdd11ff4568d9cc3536fb","64e77d7b61f440b60e28659d","64ec9534bc04d6f238a506ed","null","null","<p style=""font-size: 60px; font-family: BACS"">AmaclJcL</p>","","","","","","","","","",""
"html-keyboard-response","224","296491","0.0-11.0-0.55","5fbbdd11ff4568d9cc3536fb","64e77d7b61f440b60e28659d","64ec9534bc04d6f238a506ed","null","null","<p style=""font-size: 60px; font-family: BACS"">AbkaYaOk</p>","","","","","","","","","",""
"html-keyboard-response","225","297497","0.0-11.0-0.56","5fbbdd11ff4568d9cc3536fb","64e77d7b61f440b60e28659d","64ec9534bc04d6f238a506ed","null","null","<p style=""font-size: 60px; font-family: BACS"">JAdLmJcL</p>","","","","","","","","","",""
"html-keyboard-response","226","298501","0.0-11.0-0.57","5fbbdd11ff4568d9cc3536fb","64e77d7b61f440b60e28659d","64ec9534bc04d6f238a506ed","null","null","<p style=""font-size: 60px; font-family: BACS"">AbkaJZr</p>","","","","","","","","","",""
"html-keyboard-response","227","299506","0.0-11.0-0.58","5fbbdd11ff4568d9cc3536fb","64e77d7b61f440b60e28659d","64ec9534bc04d6f238a506ed","null","null","<p style=""font-size: 60px; font-family: BACS"">mdkKEcR</p>","","","","","","","","","",""
"html-keyboard-response","228","300510","0.0-11.0-0.59","5fbbdd11ff4568d9cc3536fb","64e77d7b61f440b60e28659d","64ec9534bc04d6f238a506ed","null","null","<p style=""font-size: 60px; font-family: BACS"">UJkGYaOk</p>","","","","","","","","","",""
"html-keyboard-response","229","301513","0.0-11.0-0.60","5fbbdd11ff4568d9cc3536fb","64e77d7b61f440b60e28659d","64ec9534bc04d6f238a506ed","null","null","<p style=""font-size: 60px; font-family: BACS"">YObAPTl</p>","","","","","","","","","",""
"html-keyboard-response","230","302516","0.0-11.0-0.61","5fbbdd11ff4568d9cc3536fb","64e77d7b61f440b60e28659d","64ec9534bc04d6f238a506ed","null","null","<p style=""font-size: 60px; font-family: BACS"">KMOcBbM</p>","","","","","","","","","",""
"html-keyboard-response","231","303518","0.0-11.0-0.62","5fbbdd11ff4568d9cc3536fb","64e77d7b61f440b60e28659d","64ec9534bc04d6f238a506ed","null","null","<p style=""font-size: 60px; font-family: BACS"">NaJbYUYa</p>","","","","","","","","","",""
"html-keyboard-response","232","304521","0.0-11.0-0.63","5fbbdd11ff4568d9cc3536fb","64e77d7b61f440b60e28659d","64ec9534bc04d6f238a506ed","null","null","<p style=""font-size: 60px; font-family: BACS"">AbkaJcL</p>","","","","","","","","","",""
"html-keyboard-response","233","305526","0.0-11.0-0.64","5fbbdd11ff4568d9cc3536fb","64e77d7b61f440b60e28659d","64ec9534bc04d6f238a506ed","null","null","<p style=""font-size: 60px; font-family: BACS"">hCktYbBT</p>","","","","","","","","","",""
"html-keyboard-response","234","306530","0.0-11.0-0.65","5fbbdd11ff4568d9cc3536fb","64e77d7b61f440b60e28659d","64ec9534bc04d6f238a506ed","null","null","<p style=""font-size: 60px; font-family: BACS"">tDPRkTRK</p>","","","","","","","","","",""
"html-keyboard-response","235","307534","0.0-11.0-0.66","5fbbdd11ff4568d9cc3536fb","64e77d7b61f440b60e28659d","64ec9534bc04d6f238a506ed","null","null","<p style=""font-size: 60px; font-family: BACS"">vkYGlYaOk</p>","","","","","","","","","",""
"html-keyboard-response","236","308539","0.0-11.0-0.67","5fbbdd11ff4568d9cc3536fb","64e77d7b61f440b60e28659d","64ec9534bc04d6f238a506ed","null","null","<p style=""font-size: 60px; font-family: BACS"">PlEKTRK</p>","","","","","","","","","",""
"html-keyboard-response","237","309543","0.0-11.0-0.68","5fbbdd11ff4568d9cc3536fb","64e77d7b61f440b60e28659d","64ec9534bc04d6f238a506ed","null","null","<p style=""font-size: 60px; font-family: BACS"">hCktEcR</p>","","","","","","","","","",""
"html-keyboard-response","238","310548","0.0-11.0-0.69","5fbbdd11ff4568d9cc3536fb","64e77d7b61f440b60e28659d","64ec9534bc04d6f238a506ed","null","null","<p style=""font-size: 60px; font-family: BACS"">vkYGlJcL</p>","","","","","","","","","",""
"html-keyboard-response","239","311551","0.0-11.0-0.70","5fbbdd11ff4568d9cc3536fb","64e77d7b61f440b60e28659d","64ec9534bc04d6f238a506ed","null","null","<p style=""font-size: 60px; font-family: BACS"">hCktTRK</p>","","","","","","","","","",""
"html-keyboard-response","240","312555","0.0-11.0-0.71","5fbbdd11ff4568d9cc3536fb","64e77d7b61f440b60e28659d","64ec9534bc04d6f238a506ed","null","null","<p style=""font-size: 60px; font-family: BACS"">KMOcYbBT</p>","","","","","","","","","",""
"html-keyboard-response","241","313556","0.0-11.0-0.72","5fbbdd11ff4568d9cc3536fb","64e77d7b61f440b60e28659d","64ec9534bc04d6f238a506ed","null","null","<p style=""font-size: 60px; font-family: BACS"">kGamNUdvY</p>","","","","","","","","","",""
"html-keyboard-response","242","314560","0.0-11.0-0.73","5fbbdd11ff4568d9cc3536fb","64e77d7b61f440b60e28659d","64ec9534bc04d6f238a506ed","null","null","<p style=""font-size: 60px; font-family: BACS"">NAacQYUYa</p>","","","","","","","","","",""
"html-keyboard-response","243","315565","0.0-11.0-0.74","5fbbdd11ff4568d9cc3536fb","64e77d7b61f440b60e28659d","64ec9534bc04d6f238a506ed","null","null","<p style=""font-size: 60px; font-family: BACS"">TdTDTRK</p>","","","","","","","","","",""
"html-keyboard-response","244","316569","0.0-11.0-0.75","5fbbdd11ff4568d9cc3536fb","64e77d7b61f440b60e28659d","64ec9534bc04d6f238a506ed","null","null","<p style=""font-size: 60px; font-family: BACS"">hCktBbM</p>","","","","","","","","","",""
"html-keyboard-response","245","317573","0.0-11.0-0.76","5fbbdd11ff4568d9cc3536fb","64e77d7b61f440b60e28659d","64ec9534bc04d6f238a506ed","null","null","<p style=""font-size: 60px; font-family: BACS"">CchtdPTl</p>","","","","","","","","","",""
"html-keyboard-response","246","318578","0.0-11.0-0.77","5fbbdd11ff4568d9cc3536fb","64e77d7b61f440b60e28659d","64ec9534bc04d6f238a506ed","null","null","<p style=""font-size: 60px; font-family: BACS"">AlQaQYUYa</p>","","","","","","","","","",""
"html-keyboard-response","247","319583","0.0-11.0-0.78","5fbbdd11ff4568d9cc3536fb","64e77d7b61f440b60e28659d","64ec9534bc04d6f238a506ed","null","null","<p style=""font-size: 60px; font-family: BACS"">CYPcPTl</p>","","","","","","","","","",""
"html-keyboard-response","248","320585","0.0-11.0-0.79","5fbbdd11ff4568d9cc3536fb","64e77d7b61f440b60e28659d","64ec9534bc04d6f238a506ed","null","null","<p style=""font-size: 60px; font-family: BACS"">YObABbM</p>","","","","","","","","","",""
"html-keyboard-response","249","328849","0.0-12.0","5fbbdd11ff4568d9cc3536fb","64e77d7b61f440b60e28659d","64ec9534bc04d6f238a506ed","8263"," ","<p>Great, you've seen the third block of words. You may now take a short break.</p>
      <p>Press the spacebar when you're ready to continue.</p>","","","","","","","","","",""
"html-keyboard-response","250","329855","0.0-13.0-0.0","5fbbdd11ff4568d9cc3536fb","64e77d7b61f440b60e28659d","64ec9534bc04d6f238a506ed","null","null","<p style=""font-size: 60px; font-family: BACS"">PlEKPTl</p>","","","","","","","","","",""
"html-keyboard-response","251","330857","0.0-13.0-0.1","5fbbdd11ff4568d9cc3536fb","64e77d7b61f440b60e28659d","64ec9534bc04d6f238a506ed","null","null","<p style=""font-size: 60px; font-family: BACS"">tDPRkBbM</p>","","","","","","","","","",""
"html-keyboard-response","252","331862","0.0-13.0-0.2","5fbbdd11ff4568d9cc3536fb","64e77d7b61f440b60e28659d","64ec9534bc04d6f238a506ed","null","null","<p style=""font-size: 60px; font-family: BACS"">UJkGYaOk</p>","","","","","","","","","",""
"html-keyboard-response","253","332864","0.0-13.0-0.3","5fbbdd11ff4568d9cc3536fb","64e77d7b61f440b60e28659d","64ec9534bc04d6f238a506ed","null","null","<p style=""font-size: 60px; font-family: BACS"">LdQvYUYa</p>","","","","","","","","","",""
"html-keyboard-response","254","333868","0.0-13.0-0.4","5fbbdd11ff4568d9cc3536fb","64e77d7b61f440b60e28659d","64ec9534bc04d6f238a506ed","null","null","<p style=""font-size: 60px; font-family: BACS"">vkYGlYaOk</p>","","","","","","","","","",""
"html-keyboard-response","255","334872","0.0-13.0-0.5","5fbbdd11ff4568d9cc3536fb","64e77d7b61f440b60e28659d","64ec9534bc04d6f238a506ed","null","null","<p style=""font-size: 60px; font-family: BACS"">KMOcTRK</p>","","","","","","","","","",""
"html-keyboard-response","256","335876","0.0-13.0-0.6","5fbbdd11ff4568d9cc3536fb","64e77d7b61f440b60e28659d","64ec9534bc04d6f238a506ed","null","null","<p style=""font-size: 60px; font-family: BACS"">AbkaYaOk</p>","","","","","","","","","",""
"html-keyboard-response","257","336881","0.0-13.0-0.7","5fbbdd11ff4568d9cc3536fb","64e77d7b61f440b60e28659d","64ec9534bc04d6f238a506ed","null","null","<p style=""font-size: 60px; font-family: BACS"">tDPRkTRK</p>","","","","","","","","","",""
"html-keyboard-response","258","337885","0.0-13.0-0.8","5fbbdd11ff4568d9cc3536fb","64e77d7b61f440b60e28659d","64ec9534bc04d6f238a506ed","null","null","<p style=""font-size: 60px; font-family: BACS"">AlQaQUdvY</p>","","","","","","","","","",""
"html-keyboard-response","259","338890","0.0-13.0-0.9","5fbbdd11ff4568d9cc3536fb","64e77d7b61f440b60e28659d","64ec9534bc04d6f238a506ed","null","null","<p style=""font-size: 60px; font-family: BACS"">NAacQJZr</p>","","","","","","","","","",""
"html-keyboard-response","260","339894","0.0-13.0-0.10","5fbbdd11ff4568d9cc3536fb","64e77d7b61f440b60e28659d","64ec9534bc04d6f238a506ed","null","null","<p style=""font-size: 60px; font-family: BACS"">OtlRYbBT</p>","","","","","","","","","",""
"html-keyboard-response","261","340897","0.0-13.0-0.11","5fbbdd11ff4568d9cc3536fb","64e77d7b61f440b60e28659d","64ec9534bc04d6f238a506ed","null","null","<p style=""font-size: 60px; font-family: BACS"">UJkGJZr</p>","","","","","","","","","",""
"html-keyboard-response","262","341901","0.0-13.0-0.12","5fbbdd11ff4568d9cc3536fb","64e77d7b61f440b60e28659d","64ec9534bc04d6f238a506ed","null","null","<p style=""font-size: 60px; font-family: BACS"">PlEKEcR</p>","","","","","","","","","",""
"html-keyboard-response","263","342905","0.0-13.0-0.13","5fbbdd11ff4568d9cc3536fb","64e77d7b61f440b60e28659d","64ec9534bc04d6f238a506ed","null","null","<p style=""font-size: 60px; font-family: BACS"">NAacQYUYa</p>","","","","","","","","","",""
"html-keyboard-response","264","343910","0.0-13.0-0.14","5fbbdd11ff4568d9cc3536fb","64e77d7b61f440b60e28659d","64ec9534bc04d6f238a506ed","null","null","<p style=""font-size: 60px; font-family: BACS"">LdQvUdvY</p>","","","","","","","","","",""
"html-keyboard-response","265","344915","0.0-13.0-0.15","5fbbdd11ff4568d9cc3536fb","64e77d7b61f440b60e28659d","64ec9534bc04d6f238a506ed","null","null","<p style=""font-size: 60px; font-family: BACS"">JAdLmYaOk</p>","","","","","","","","","",""
"html-keyboard-response","266","345918","0.0-13.0-0.16","5fbbdd11ff4568d9cc3536fb","64e77d7b61f440b60e28659d","64ec9534bc04d6f238a506ed","null","null","<p style=""font-size: 60px; font-family: BACS"">kGamNJZr</p>","","","","","","","","","",""
"html-keyboard-response","267","346923","0.0-13.0-0.17","5fbbdd11ff4568d9cc3536fb","64e77d7b61f440b60e28659d","64ec9534bc04d6f238a506ed","null","null","<p style=""font-size: 60px; font-family: BACS"">CchtdEcR</p>","","","","","","","","","",""
"html-keyboard-response","268","347924","0.0-13.0-0.18","5fbbdd11ff4568d9cc3536fb","64e77d7b61f440b60e28659d","64ec9534bc04d6f238a506ed","null","null","<p style=""font-size: 60px; font-family: BACS"">AbkaJZr</p>","","","","","","","","","",""
"html-keyboard-response","269","348927","0.0-13.0-0.19","5fbbdd11ff4568d9cc3536fb","64e77d7b61f440b60e28659d","64ec9534bc04d6f238a506ed","null","null","<p style=""font-size: 60px; font-family: BACS"">OtlREcR</p>","","","","","","","","","",""
"html-keyboard-response","270","349930","0.0-13.0-0.20","5fbbdd11ff4568d9cc3536fb","64e77d7b61f440b60e28659d","64ec9534bc04d6f238a506ed","null","null","<p style=""font-size: 60px; font-family: BACS"">mdkKPTl</p>","","","","","","","","","",""
"html-keyboard-response","271","350932","0.0-13.0-0.21","5fbbdd11ff4568d9cc3536fb","64e77d7b61f440b60e28659d","64ec9534bc04d6f238a506ed","null","null","<p style=""font-size: 60px; font-family: BACS"">hCktTRK</p>","","","","","","","","","",""
"html-keyboard-response","272","351938","0.0-13.0-0.22","5fbbdd11ff4568d9cc3536fb","64e77d7b61f440b60e28659d","64ec9534bc04d6f238a506ed","null","null","<p style=""font-size: 60px; font-family: BACS"">vkYGlUdvY</p>","","","","","","","","","",""
"html-keyboard-response","273","352944","0.0-13.0-0.23","5fbbdd11ff4568d9cc3536fb","64e77d7b61f440b60e28659d","64ec9534bc04d6f238a506ed","null","null","<p style=""font-size: 60px; font-family: BACS"">KMOcBbM</p>","","","","","","","","","",""
"html-keyboard-response","274","353950","0.0-13.0-0.24","5fbbdd11ff4568d9cc3536fb","64e77d7b61f440b60e28659d","64ec9534bc04d6f238a506ed","null","null","<p style=""font-size: 60px; font-family: BACS"">TdTDEcR</p>","","","","","","","","","",""
"html-keyboard-response","275","354954","0.0-13.0-0.25","5fbbdd11ff4568d9cc3536fb","64e77d7b61f440b60e28659d","64ec9534bc04d6f238a506ed","null","null","<p style=""font-size: 60px; font-family: BACS"">kGamNUdvY</p>","","","","","","","","","",""
"html-keyboard-response","276","355956","0.0-13.0-0.26","5fbbdd11ff4568d9cc3536fb","64e77d7b61f440b60e28659d","64ec9534bc04d6f238a506ed","null","null","<p style=""font-size: 60px; font-family: BACS"">PlEKTRK</p>","","","","","","","","","",""
"html-keyboard-response","277","356959","0.0-13.0-0.27","5fbbdd11ff4568d9cc3536fb","64e77d7b61f440b60e28659d","64ec9534bc04d6f238a506ed","null","null","<p style=""font-size: 60px; font-family: BACS"">AbkaUdvY</p>","","","","","","","","","",""
"html-keyboard-response","278","357962","0.0-13.0-0.28","5fbbdd11ff4568d9cc3536fb","64e77d7b61f440b60e28659d","64ec9534bc04d6f238a506ed","null","null","<p style=""font-size: 60px; font-family: BACS"">CchtdTRK</p>","","","","","","","","","",""
"html-keyboard-response","279","358964","0.0-13.0-0.29","5fbbdd11ff4568d9cc3536fb","64e77d7b61f440b60e28659d","64ec9534bc04d6f238a506ed","null","null","<p style=""font-size: 60px; font-family: BACS"">CYPcPTl</p>","","","","","","","","","",""
"html-keyboard-response","280","359967","0.0-13.0-0.30","5fbbdd11ff4568d9cc3536fb","64e77d7b61f440b60e28659d","64ec9534bc04d6f238a506ed","null","null","<p style=""font-size: 60px; font-family: BACS"">JAdLmJZr</p>","","","","","","","","","",""
"html-keyboard-response","281","360973","0.0-13.0-0.31","5fbbdd11ff4568d9cc3536fb","64e77d7b61f440b60e28659d","64ec9534bc04d6f238a506ed","null","null","<p style=""font-size: 60px; font-family: BACS"">TdTDTRK</p>","","","","","","","","","",""
"html-keyboard-response","282","361979","0.0-13.0-0.32","5fbbdd11ff4568d9cc3536fb","64e77d7b61f440b60e28659d","64ec9534bc04d6f238a506ed","null","null","<p style=""font-size: 60px; font-family: BACS"">LdQvJZr</p>","","","","","","","","","",""
"html-keyboard-response","283","362985","0.0-13.0-0.33","5fbbdd11ff4568d9cc3536fb","64e77d7b61f440b60e28659d","64ec9534bc04d6f238a506ed","null","null","<p style=""font-size: 60px; font-family: BACS"">NAacQYaOk</p>","","","","","","","","","",""
"html-keyboard-response","284","363988","0.0-13.0-0.34","5fbbdd11ff4568d9cc3536fb","64e77d7b61f440b60e28659d","64ec9534bc04d6f238a506ed","null","null","<p style=""font-size: 60px; font-family: BACS"">NaJbJZr</p>","","","","","","","","","",""
"html-keyboard-response","285","364991","0.0-13.0-0.35","5fbbdd11ff4568d9cc3536fb","64e77d7b61f440b60e28659d","64ec9534bc04d6f238a506ed","null","null","<p style=""font-size: 60px; font-family: BACS"">CYPcBbM</p>","","","","","","","","","",""
"html-keyboard-response","286","365994","0.0-13.0-0.36","5fbbdd11ff4568d9cc3536fb","64e77d7b61f440b60e28659d","64ec9534bc04d6f238a506ed","null","null","<p style=""font-size: 60px; font-family: BACS"">KMOcYbBT</p>","","","","","","","","","",""
"html-keyboard-response","287","366996","0.0-13.0-0.37","5fbbdd11ff4568d9cc3536fb","64e77d7b61f440b60e28659d","64ec9534bc04d6f238a506ed","null","null","<p style=""font-size: 60px; font-family: BACS"">AmaclYUYa</p>","","","","","","","","","",""
"html-keyboard-response","288","367998","0.0-13.0-0.38","5fbbdd11ff4568d9cc3536fb","64e77d7b61f440b60e28659d","64ec9534bc04d6f238a506ed","null","null","<p style=""font-size: 60px; font-family: BACS"">OtlRBbM</p>","","","","","","","","","",""
"html-keyboard-response","289","369002","0.0-13.0-0.39","5fbbdd11ff4568d9cc3536fb","64e77d7b61f440b60e28659d","64ec9534bc04d6f238a506ed","null","null","<p style=""font-size: 60px; font-family: BACS"">UJkGJcL</p>","","","","","","","","","",""
"html-keyboard-response","290","370005","0.0-13.0-0.40","5fbbdd11ff4568d9cc3536fb","64e77d7b61f440b60e28659d","64ec9534bc04d6f238a506ed","null","null","<p style=""font-size: 60px; font-family: BACS"">AmaclUdvY</p>","","","","","","","","","",""
"html-keyboard-response","291","371011","0.0-13.0-0.41","5fbbdd11ff4568d9cc3536fb","64e77d7b61f440b60e28659d","64ec9534bc04d6f238a506ed","null","null","<p style=""font-size: 60px; font-family: BACS"">tDPRkPTl</p>","","","","","","","","","",""
"html-keyboard-response","292","372017","0.0-13.0-0.42","5fbbdd11ff4568d9cc3536fb","64e77d7b61f440b60e28659d","64ec9534bc04d6f238a506ed","null","null","<p style=""font-size: 60px; font-family: BACS"">mdkKYbBT</p>","","","","","","","","","",""
"html-keyboard-response","293","373020","0.0-13.0-0.43","5fbbdd11ff4568d9cc3536fb","64e77d7b61f440b60e28659d","64ec9534bc04d6f238a506ed","null","null","<p style=""font-size: 60px; font-family: BACS"">LdQvYaOk</p>","","","","","","","","","",""
"html-keyboard-response","294","374024","0.0-13.0-0.44","5fbbdd11ff4568d9cc3536fb","64e77d7b61f440b60e28659d","64ec9534bc04d6f238a506ed","null","null","<p style=""font-size: 60px; font-family: BACS"">YObATRK</p>","","","","","","","","","",""
"html-keyboard-response","295","375029","0.0-13.0-0.45","5fbbdd11ff4568d9cc3536fb","64e77d7b61f440b60e28659d","64ec9534bc04d6f238a506ed","null","null","<p style=""font-size: 60px; font-family: BACS"">mdkKEcR</p>","","","","","","","","","",""
"html-keyboard-response","296","376033","0.0-13.0-0.46","5fbbdd11ff4568d9cc3536fb","64e77d7b61f440b60e28659d","64ec9534bc04d6f238a506ed","null","null","<p style=""font-size: 60px; font-family: BACS"">CchtdPTl</p>","","","","","","","","","",""
"html-keyboard-response","297","377038","0.0-13.0-0.47","5fbbdd11ff4568d9cc3536fb","64e77d7b61f440b60e28659d","64ec9534bc04d6f238a506ed","null","null","<p style=""font-size: 60px; font-family: BACS"">NAacQJcL</p>","","","","","","","","","",""
"html-keyboard-response","298","378040","0.0-13.0-0.48","5fbbdd11ff4568d9cc3536fb","64e77d7b61f440b60e28659d","64ec9534bc04d6f238a506ed","null","null","<p style=""font-size: 60px; font-family: BACS"">CYPcEcR</p>","","","","","","","","","",""
"html-keyboard-response","299","379044","0.0-13.0-0.49","5fbbdd11ff4568d9cc3536fb","64e77d7b61f440b60e28659d","64ec9534bc04d6f238a506ed","null","null","<p style=""font-size: 60px; font-family: BACS"">AlQaQYaOk</p>","","","","","","","","","",""
"html-keyboard-response","300","380048","0.0-13.0-0.50","5fbbdd11ff4568d9cc3536fb","64e77d7b61f440b60e28659d","64ec9534bc04d6f238a506ed","null","null","<p style=""font-size: 60px; font-family: BACS"">NaJbYUYa</p>","","","","","","","","","",""
"html-keyboard-response","301","381053","0.0-13.0-0.51","5fbbdd11ff4568d9cc3536fb","64e77d7b61f440b60e28659d","64ec9534bc04d6f238a506ed","null","null","<p style=""font-size: 60px; font-family: BACS"">vkYGlJcL</p>","","","","","","","","","",""
"html-keyboard-response","302","382058","0.0-13.0-0.52","5fbbdd11ff4568d9cc3536fb","64e77d7b61f440b60e28659d","64ec9534bc04d6f238a506ed","null","null","<p style=""font-size: 60px; font-family: BACS"">CchtdYbBT</p>","","","","","","","","","",""
"html-keyboard-response","303","383063","0.0-13.0-0.53","5fbbdd11ff4568d9cc3536fb","64e77d7b61f440b60e28659d","64ec9534bc04d6f238a506ed","null","null","<p style=""font-size: 60px; font-family: BACS"">KMOcEcR</p>","","","","","","","","","",""
"html-keyboard-response","304","384065","0.0-13.0-0.54","5fbbdd11ff4568d9cc3536fb","64e77d7b61f440b60e28659d","64ec9534bc04d6f238a506ed","null","null","<p style=""font-size: 60px; font-family: BACS"">AlQaQYUYa</p>","","","","","","","","","",""
"html-keyboard-response","305","385070","0.0-13.0-0.55","5fbbdd11ff4568d9cc3536fb","64e77d7b61f440b60e28659d","64ec9534bc04d6f238a506ed","null","null","<p style=""font-size: 60px; font-family: BACS"">kGamNJcL</p>","","","","","","","","","",""
"html-keyboard-response","306","386074","0.0-13.0-0.56","5fbbdd11ff4568d9cc3536fb","64e77d7b61f440b60e28659d","64ec9534bc04d6f238a506ed","null","null","<p style=""font-size: 60px; font-family: BACS"">PlEKBbM</p>","","","","","","","","","",""
"html-keyboard-response","307","387078","0.0-13.0-0.57","5fbbdd11ff4568d9cc3536fb","64e77d7b61f440b60e28659d","64ec9534bc04d6f238a506ed","null","null","<p style=""font-size: 60px; font-family: BACS"">AlQaQJcL</p>","","","","","","","","","",""
"html-keyboard-response","308","388084","0.0-13.0-0.58","5fbbdd11ff4568d9cc3536fb","64e77d7b61f440b60e28659d","64ec9534bc04d6f238a506ed","null","null","<p style=""font-size: 60px; font-family: BACS"">hCktYbBT</p>","","","","","","","","","",""
"html-keyboard-response","309","389089","0.0-13.0-0.59","5fbbdd11ff4568d9cc3536fb","64e77d7b61f440b60e28659d","64ec9534bc04d6f238a506ed","null","null","<p style=""font-size: 60px; font-family: BACS"">OtlRPTl</p>","","","","","","","","","",""
"html-keyboard-response","310","390094","0.0-13.0-0.60","5fbbdd11ff4568d9cc3536fb","64e77d7b61f440b60e28659d","64ec9534bc04d6f238a506ed","null","null","<p style=""font-size: 60px; font-family: BACS"">UJkGUdvY</p>","","","","","","","","","",""
"html-keyboard-response","311","391099","0.0-13.0-0.61","5fbbdd11ff4568d9cc3536fb","64e77d7b61f440b60e28659d","64ec9534bc04d6f238a506ed","null","null","<p style=""font-size: 60px; font-family: BACS"">TdTDYbBT</p>","","","","","","","","","",""
"html-keyboard-response","312","392103","0.0-13.0-0.62","5fbbdd11ff4568d9cc3536fb","64e77d7b61f440b60e28659d","64ec9534bc04d6f238a506ed","null","null","<p style=""font-size: 60px; font-family: BACS"">hCktEcR</p>","","","","","","","","","",""
"html-keyboard-response","313","393109","0.0-13.0-0.63","5fbbdd11ff4568d9cc3536fb","64e77d7b61f440b60e28659d","64ec9534bc04d6f238a506ed","null","null","<p style=""font-size: 60px; font-family: BACS"">tDPRkYbBT</p>","","","","","","","","","",""
"html-keyboard-response","314","394114","0.0-13.0-0.64","5fbbdd11ff4568d9cc3536fb","64e77d7b61f440b60e28659d","64ec9534bc04d6f238a506ed","null","null","<p style=""font-size: 60px; font-family: BACS"">YObAPTl</p>","","","","","","","","","",""
"html-keyboard-response","315","395119","0.0-13.0-0.65","5fbbdd11ff4568d9cc3536fb","64e77d7b61f440b60e28659d","64ec9534bc04d6f238a506ed","null","null","<p style=""font-size: 60px; font-family: BACS"">AmaclJZr</p>","","","","","","","","","",""
"html-keyboard-response","316","396123","0.0-13.0-0.66","5fbbdd11ff4568d9cc3536fb","64e77d7b61f440b60e28659d","64ec9534bc04d6f238a506ed","null","null","<p style=""font-size: 60px; font-family: BACS"">vkYGlYUYa</p>","","","","","","","","","",""
"html-keyboard-response","317","397128","0.0-13.0-0.67","5fbbdd11ff4568d9cc3536fb","64e77d7b61f440b60e28659d","64ec9534bc04d6f238a506ed","null","null","<p style=""font-size: 60px; font-family: BACS"">NaJbUdvY</p>","","","","","","","","","",""
"html-keyboard-response","318","398133","0.0-13.0-0.68","5fbbdd11ff4568d9cc3536fb","64e77d7b61f440b60e28659d","64ec9534bc04d6f238a506ed","null","null","<p style=""font-size: 60px; font-family: BACS"">hCktBbM</p>","","","","","","","","","",""
"html-keyboard-response","319","399136","0.0-13.0-0.69","5fbbdd11ff4568d9cc3536fb","64e77d7b61f440b60e28659d","64ec9534bc04d6f238a506ed","null","null","<p style=""font-size: 60px; font-family: BACS"">JAdLmJcL</p>","","","","","","","","","",""
"html-keyboard-response","320","400140","0.0-13.0-0.70","5fbbdd11ff4568d9cc3536fb","64e77d7b61f440b60e28659d","64ec9534bc04d6f238a506ed","null","null","<p style=""font-size: 60px; font-family: BACS"">YObABbM</p>","","","","","","","","","",""
"html-keyboard-response","321","401145","0.0-13.0-0.71","5fbbdd11ff4568d9cc3536fb","64e77d7b61f440b60e28659d","64ec9534bc04d6f238a506ed","null","null","<p style=""font-size: 60px; font-family: BACS"">kGamNYUYa</p>","","","","","","","","","",""
"html-keyboard-response","322","402148","0.0-13.0-0.72","5fbbdd11ff4568d9cc3536fb","64e77d7b61f440b60e28659d","64ec9534bc04d6f238a506ed","null","null","<p style=""font-size: 60px; font-family: BACS"">mdkKBbM</p>","","","","","","","","","",""
"html-keyboard-response","323","403153","0.0-13.0-0.73","5fbbdd11ff4568d9cc3536fb","64e77d7b61f440b60e28659d","64ec9534bc04d6f238a506ed","null","null","<p style=""font-size: 60px; font-family: BACS"">NaJbYaOk</p>","","","","","","","","","",""
"html-keyboard-response","324","404158","0.0-13.0-0.74","5fbbdd11ff4568d9cc3536fb","64e77d7b61f440b60e28659d","64ec9534bc04d6f238a506ed","null","null","<p style=""font-size: 60px; font-family: BACS"">YObAYbBT</p>","","","","","","","","","",""
"html-keyboard-response","325","405162","0.0-13.0-0.75","5fbbdd11ff4568d9cc3536fb","64e77d7b61f440b60e28659d","64ec9534bc04d6f238a506ed","null","null","<p style=""font-size: 60px; font-family: BACS"">AbkaJcL</p>","","","","","","","","","",""
"html-keyboard-response","326","406167","0.0-13.0-0.76","5fbbdd11ff4568d9cc3536fb","64e77d7b61f440b60e28659d","64ec9534bc04d6f238a506ed","null","null","<p style=""font-size: 60px; font-family: BACS"">TdTDPTl</p>","","","","","","","","","",""
"html-keyboard-response","327","407172","0.0-13.0-0.77","5fbbdd11ff4568d9cc3536fb","64e77d7b61f440b60e28659d","64ec9534bc04d6f238a506ed","null","null","<p style=""font-size: 60px; font-family: BACS"">AmaclJcL</p>","","","","","","","","","",""
"html-keyboard-response","328","408176","0.0-13.0-0.78","5fbbdd11ff4568d9cc3536fb","64e77d7b61f440b60e28659d","64ec9534bc04d6f238a506ed","null","null","<p style=""font-size: 60px; font-family: BACS"">JAdLmYUYa</p>","","","","","","","","","",""
"html-keyboard-response","329","409181","0.0-13.0-0.79","5fbbdd11ff4568d9cc3536fb","64e77d7b61f440b60e28659d","64ec9534bc04d6f238a506ed","null","null","<p style=""font-size: 60px; font-family: BACS"">CYPcTRK</p>","","","","","","","","","",""
"html-keyboard-response","330","420253","0.0-14.0","5fbbdd11ff4568d9cc3536fb","64e77d7b61f440b60e28659d","64ec9534bc04d6f238a506ed","11072"," ","<p>Great, you've seen the fourth block of words. You may now take a short break.</p>
      <p>Press the spacebar when you're ready to continue.</p>","","","","","","","","","",""
"html-keyboard-response","331","421256","0.0-15.0-0.0","5fbbdd11ff4568d9cc3536fb","64e77d7b61f440b60e28659d","64ec9534bc04d6f238a506ed","null","null","<p style=""font-size: 60px; font-family: BACS"">YObABbM</p>","","","","","","","","","",""
"html-keyboard-response","332","422261","0.0-15.0-0.1","5fbbdd11ff4568d9cc3536fb","64e77d7b61f440b60e28659d","64ec9534bc04d6f238a506ed","null","null","<p style=""font-size: 60px; font-family: BACS"">YObABbM</p>","","","","","","","","","",""
"html-keyboard-response","333","423264","0.0-15.0-0.2","5fbbdd11ff4568d9cc3536fb","64e77d7b61f440b60e28659d","64ec9534bc04d6f238a506ed","null","null","<p style=""font-size: 60px; font-family: BACS"">YObABbM</p>","","","","","","","","","",""
"html-keyboard-response","334","424267","0.0-15.0-0.3","5fbbdd11ff4568d9cc3536fb","64e77d7b61f440b60e28659d","64ec9534bc04d6f238a506ed","null","null","<p style=""font-size: 60px; font-family: BACS"">YObABbM</p>","","","","","","","","","",""
"html-keyboard-response","335","425269","0.0-15.0-0.4","5fbbdd11ff4568d9cc3536fb","64e77d7b61f440b60e28659d","64ec9534bc04d6f238a506ed","null","null","<p style=""font-size: 60px; font-family: BACS"">YObABbM</p>","","","","","","","","","",""
"html-keyboard-response","336","426272","0.0-15.0-0.5","5fbbdd11ff4568d9cc3536fb","64e77d7b61f440b60e28659d","64ec9534bc04d6f238a506ed","null","null","<p style=""font-size: 60px; font-family: BACS"">YObABbM</p>","","","","","","","","","",""
"html-keyboard-response","337","427275","0.0-15.0-0.6","5fbbdd11ff4568d9cc3536fb","64e77d7b61f440b60e28659d","64ec9534bc04d6f238a506ed","null","null","<p style=""font-size: 60px; font-family: BACS"">YObABbM</p>","","","","","","","","","",""
"html-keyboard-response","338","428277","0.0-15.0-0.7","5fbbdd11ff4568d9cc3536fb","64e77d7b61f440b60e28659d","64ec9534bc04d6f238a506ed","null","null","<p style=""font-size: 60px; font-family: BACS"">YObABbM</p>","","","","","","","","","",""
"html-keyboard-response","339","429280","0.0-15.0-0.8","5fbbdd11ff4568d9cc3536fb","64e77d7b61f440b60e28659d","64ec9534bc04d6f238a506ed","null","null","<p style=""font-size: 60px; font-family: BACS"">YObABbM</p>","","","","","","","","","",""
"html-keyboard-response","340","430283","0.0-15.0-0.9","5fbbdd11ff4568d9cc3536fb","64e77d7b61f440b60e28659d","64ec9534bc04d6f238a506ed","null","null","<p style=""font-size: 60px; font-family: BACS"">YObABbM</p>","","","","","","","","","",""
"html-keyboard-response","341","431285","0.0-15.0-0.10","5fbbdd11ff4568d9cc3536fb","64e77d7b61f440b60e28659d","64ec9534bc04d6f238a506ed","null","null","<p style=""font-size: 60px; font-family: BACS"">YObABbM</p>","","","","","","","","","",""
"html-keyboard-response","342","432287","0.0-15.0-0.11","5fbbdd11ff4568d9cc3536fb","64e77d7b61f440b60e28659d","64ec9534bc04d6f238a506ed","null","null","<p style=""font-size: 60px; font-family: BACS"">YObABbM</p>","","","","","","","","","",""
"html-keyboard-response","343","433291","0.0-15.0-0.12","5fbbdd11ff4568d9cc3536fb","64e77d7b61f440b60e28659d","64ec9534bc04d6f238a506ed","null","null","<p style=""font-size: 60px; font-family: BACS"">YObABbM</p>","","","","","","","","","",""
"html-keyboard-response","344","434293","0.0-15.0-0.13","5fbbdd11ff4568d9cc3536fb","64e77d7b61f440b60e28659d","64ec9534bc04d6f238a506ed","null","null","<p style=""font-size: 60px; font-family: BACS"">YObABbM</p>","","","","","","","","","",""
"html-keyboard-response","345","435296","0.0-15.0-0.14","5fbbdd11ff4568d9cc3536fb","64e77d7b61f440b60e28659d","64ec9534bc04d6f238a506ed","null","null","<p style=""font-size: 60px; font-family: BACS"">YObABbM</p>","","","","","","","","","",""
"html-keyboard-response","346","436299","0.0-15.0-0.15","5fbbdd11ff4568d9cc3536fb","64e77d7b61f440b60e28659d","64ec9534bc04d6f238a506ed","null","null","<p style=""font-size: 60px; font-family: BACS"">YObABbM</p>","","","","","","","","","",""
"html-keyboard-response","347","437301","0.0-15.0-0.16","5fbbdd11ff4568d9cc3536fb","64e77d7b61f440b60e28659d","64ec9534bc04d6f238a506ed","null","null","<p style=""font-size: 60px; font-family: BACS"">YObABbM</p>","","","","","","","","","",""
"html-keyboard-response","348","438304","0.0-15.0-0.17","5fbbdd11ff4568d9cc3536fb","64e77d7b61f440b60e28659d","64ec9534bc04d6f238a506ed","null","null","<p style=""font-size: 60px; font-family: BACS"">YObABbM</p>","","","","","","","","","",""
"html-keyboard-response","349","439307","0.0-15.0-0.18","5fbbdd11ff4568d9cc3536fb","64e77d7b61f440b60e28659d","64ec9534bc04d6f238a506ed","null","null","<p style=""font-size: 60px; font-family: BACS"">YObABbM</p>","","","","","","","","","",""
"html-keyboard-response","350","440310","0.0-15.0-0.19","5fbbdd11ff4568d9cc3536fb","64e77d7b61f440b60e28659d","64ec9534bc04d6f238a506ed","null","null","<p style=""font-size: 60px; font-family: BACS"">YObABbM</p>","","","","","","","","","",""
"html-keyboard-response","351","441312","0.0-15.0-0.20","5fbbdd11ff4568d9cc3536fb","64e77d7b61f440b60e28659d","64ec9534bc04d6f238a506ed","null","null","<p style=""font-size: 60px; font-family: BACS"">YObABbM</p>","","","","","","","","","",""
"html-keyboard-response","352","442315","0.0-15.0-0.21","5fbbdd11ff4568d9cc3536fb","64e77d7b61f440b60e28659d","64ec9534bc04d6f238a506ed","null","null","<p style=""font-size: 60px; font-family: BACS"">YObABbM</p>","","","","","","","","","",""
"html-keyboard-response","353","443317","0.0-15.0-0.22","5fbbdd11ff4568d9cc3536fb","64e77d7b61f440b60e28659d","64ec9534bc04d6f238a506ed","null","null","<p style=""font-size: 60px; font-family: BACS"">YObABbM</p>","","","","","","","","","",""
"html-keyboard-response","354","444320","0.0-15.0-0.23","5fbbdd11ff4568d9cc3536fb","64e77d7b61f440b60e28659d","64ec9534bc04d6f238a506ed","null","null","<p style=""font-size: 60px; font-family: BACS"">YObABbM</p>","","","","","","","","","",""
"html-keyboard-response","355","445323","0.0-15.0-0.24","5fbbdd11ff4568d9cc3536fb","64e77d7b61f440b60e28659d","64ec9534bc04d6f238a506ed","null","null","<p style=""font-size: 60px; font-family: BACS"">YObABbM</p>","","","","","","","","","",""
"html-keyboard-response","356","446325","0.0-15.0-0.25","5fbbdd11ff4568d9cc3536fb","64e77d7b61f440b60e28659d","64ec9534bc04d6f238a506ed","null","null","<p style=""font-size: 60px; font-family: BACS"">YObABbM</p>","","","","","","","","","",""
"html-keyboard-response","357","447330","0.0-15.0-0.26","5fbbdd11ff4568d9cc3536fb","64e77d7b61f440b60e28659d","64ec9534bc04d6f238a506ed","null","null","<p style=""font-size: 60px; font-family: BACS"">YObABbM</p>","","","","","","","","","",""
"html-keyboard-response","358","448331","0.0-15.0-0.27","5fbbdd11ff4568d9cc3536fb","64e77d7b61f440b60e28659d","64ec9534bc04d6f238a506ed","null","null","<p style=""font-size: 60px; font-family: BACS"">YObABbM</p>","","","","","","","","","",""
"html-keyboard-response","359","449334","0.0-15.0-0.28","5fbbdd11ff4568d9cc3536fb","64e77d7b61f440b60e28659d","64ec9534bc04d6f238a506ed","null","null","<p style=""font-size: 60px; font-family: BACS"">YObABbM</p>","","","","","","","","","",""
"html-keyboard-response","360","450336","0.0-15.0-0.29","5fbbdd11ff4568d9cc3536fb","64e77d7b61f440b60e28659d","64ec9534bc04d6f238a506ed","null","null","<p style=""font-size: 60px; font-family: BACS"">YObABbM</p>","","","","","","","","","",""
"html-keyboard-response","361","451339","0.0-15.0-0.30","5fbbdd11ff4568d9cc3536fb","64e77d7b61f440b60e28659d","64ec9534bc04d6f238a506ed","null","null","<p style=""font-size: 60px; font-family: BACS"">YObABbM</p>","","","","","","","","","",""
"html-keyboard-response","362","452342","0.0-15.0-0.31","5fbbdd11ff4568d9cc3536fb","64e77d7b61f440b60e28659d","64ec9534bc04d6f238a506ed","null","null","<p style=""font-size: 60px; font-family: BACS"">YObABbM</p>","","","","","","","","","",""
"html-keyboard-response","363","453344","0.0-15.0-0.32","5fbbdd11ff4568d9cc3536fb","64e77d7b61f440b60e28659d","64ec9534bc04d6f238a506ed","null","null","<p style=""font-size: 60px; font-family: BACS"">YObABbM</p>","","","","","","","","","",""
"html-keyboard-response","364","454347","0.0-15.0-0.33","5fbbdd11ff4568d9cc3536fb","64e77d7b61f440b60e28659d","64ec9534bc04d6f238a506ed","null","null","<p style=""font-size: 60px; font-family: BACS"">YObABbM</p>","","","","","","","","","",""
"html-keyboard-response","365","455350","0.0-15.0-0.34","5fbbdd11ff4568d9cc3536fb","64e77d7b61f440b60e28659d","64ec9534bc04d6f238a506ed","null","null","<p style=""font-size: 60px; font-family: BACS"">YObABbM</p>","","","","","","","","","",""
"html-keyboard-response","366","456352","0.0-15.0-0.35","5fbbdd11ff4568d9cc3536fb","64e77d7b61f440b60e28659d","64ec9534bc04d6f238a506ed","null","null","<p style=""font-size: 60px; font-family: BACS"">YObABbM</p>","","","","","","","","","",""
"html-keyboard-response","367","457355","0.0-15.0-0.36","5fbbdd11ff4568d9cc3536fb","64e77d7b61f440b60e28659d","64ec9534bc04d6f238a506ed","null","null","<p style=""font-size: 60px; font-family: BACS"">YObABbM</p>","","","","","","","","","",""
"html-keyboard-response","368","458358","0.0-15.0-0.37","5fbbdd11ff4568d9cc3536fb","64e77d7b61f440b60e28659d","64ec9534bc04d6f238a506ed","null","null","<p style=""font-size: 60px; font-family: BACS"">YObABbM</p>","","","","","","","","","",""
"html-keyboard-response","369","459359","0.0-15.0-0.38","5fbbdd11ff4568d9cc3536fb","64e77d7b61f440b60e28659d","64ec9534bc04d6f238a506ed","null","null","<p style=""font-size: 60px; font-family: BACS"">YObABbM</p>","","","","","","","","","",""
"html-keyboard-response","370","460363","0.0-15.0-0.39","5fbbdd11ff4568d9cc3536fb","64e77d7b61f440b60e28659d","64ec9534bc04d6f238a506ed","null","null","<p style=""font-size: 60px; font-family: BACS"">YObABbM</p>","","","","","","","","","",""
"html-keyboard-response","371","461366","0.0-15.0-0.40","5fbbdd11ff4568d9cc3536fb","64e77d7b61f440b60e28659d","64ec9534bc04d6f238a506ed","null","null","<p style=""font-size: 60px; font-family: BACS"">YObABbM</p>","","","","","","","","","",""
"html-keyboard-response","372","462369","0.0-15.0-0.41","5fbbdd11ff4568d9cc3536fb","64e77d7b61f440b60e28659d","64ec9534bc04d6f238a506ed","null","null","<p style=""font-size: 60px; font-family: BACS"">YObABbM</p>","","","","","","","","","",""
"html-keyboard-response","373","463371","0.0-15.0-0.42","5fbbdd11ff4568d9cc3536fb","64e77d7b61f440b60e28659d","64ec9534bc04d6f238a506ed","null","null","<p style=""font-size: 60px; font-family: BACS"">YObABbM</p>","","","","","","","","","",""
"html-keyboard-response","374","464374","0.0-15.0-0.43","5fbbdd11ff4568d9cc3536fb","64e77d7b61f440b60e28659d","64ec9534bc04d6f238a506ed","null","null","<p style=""font-size: 60px; font-family: BACS"">YObABbM</p>","","","","","","","","","",""
"html-keyboard-response","375","465376","0.0-15.0-0.44","5fbbdd11ff4568d9cc3536fb","64e77d7b61f440b60e28659d","64ec9534bc04d6f238a506ed","null","null","<p style=""font-size: 60px; font-family: BACS"">YObABbM</p>","","","","","","","","","",""
"html-keyboard-response","376","466381","0.0-15.0-0.45","5fbbdd11ff4568d9cc3536fb","64e77d7b61f440b60e28659d","64ec9534bc04d6f238a506ed","null","null","<p style=""font-size: 60px; font-family: BACS"">YObABbM</p>","","","","","","","","","",""
"html-keyboard-response","377","467384","0.0-15.0-0.46","5fbbdd11ff4568d9cc3536fb","64e77d7b61f440b60e28659d","64ec9534bc04d6f238a506ed","null","null","<p style=""font-size: 60px; font-family: BACS"">YObABbM</p>","","","","","","","","","",""
"html-keyboard-response","378","468388","0.0-15.0-0.47","5fbbdd11ff4568d9cc3536fb","64e77d7b61f440b60e28659d","64ec9534bc04d6f238a506ed","null","null","<p style=""font-size: 60px; font-family: BACS"">YObABbM</p>","","","","","","","","","",""
"html-keyboard-response","379","469393","0.0-15.0-0.48","5fbbdd11ff4568d9cc3536fb","64e77d7b61f440b60e28659d","64ec9534bc04d6f238a506ed","null","null","<p style=""font-size: 60px; font-family: BACS"">YObABbM</p>","","","","","","","","","",""
"html-keyboard-response","380","470398","0.0-15.0-0.49","5fbbdd11ff4568d9cc3536fb","64e77d7b61f440b60e28659d","64ec9534bc04d6f238a506ed","null","null","<p style=""font-size: 60px; font-family: BACS"">YObABbM</p>","","","","","","","","","",""
"html-keyboard-response","381","471403","0.0-15.0-0.50","5fbbdd11ff4568d9cc3536fb","64e77d7b61f440b60e28659d","64ec9534bc04d6f238a506ed","null","null","<p style=""font-size: 60px; font-family: BACS"">YObABbM</p>","","","","","","","","","",""
"html-keyboard-response","382","472407","0.0-15.0-0.51","5fbbdd11ff4568d9cc3536fb","64e77d7b61f440b60e28659d","64ec9534bc04d6f238a506ed","null","null","<p style=""font-size: 60px; font-family: BACS"">YObABbM</p>","","","","","","","","","",""
"html-keyboard-response","383","473411","0.0-15.0-0.52","5fbbdd11ff4568d9cc3536fb","64e77d7b61f440b60e28659d","64ec9534bc04d6f238a506ed","null","null","<p style=""font-size: 60px; font-family: BACS"">YObABbM</p>","","","","","","","","","",""
"html-keyboard-response","384","474416","0.0-15.0-0.53","5fbbdd11ff4568d9cc3536fb","64e77d7b61f440b60e28659d","64ec9534bc04d6f238a506ed","null","null","<p style=""font-size: 60px; font-family: BACS"">YObABbM</p>","","","","","","","","","",""
"html-keyboard-response","385","475421","0.0-15.0-0.54","5fbbdd11ff4568d9cc3536fb","64e77d7b61f440b60e28659d","64ec9534bc04d6f238a506ed","null","null","<p style=""font-size: 60px; font-family: BACS"">YObABbM</p>","","","","","","","","","",""
"html-keyboard-response","386","476425","0.0-15.0-0.55","5fbbdd11ff4568d9cc3536fb","64e77d7b61f440b60e28659d","64ec9534bc04d6f238a506ed","null","null","<p style=""font-size: 60px; font-family: BACS"">YObABbM</p>","","","","","","","","","",""
"html-keyboard-response","387","477430","0.0-15.0-0.56","5fbbdd11ff4568d9cc3536fb","64e77d7b61f440b60e28659d","64ec9534bc04d6f238a506ed","null","null","<p style=""font-size: 60px; font-family: BACS"">YObABbM</p>","","","","","","","","","",""
"html-keyboard-response","388","478435","0.0-15.0-0.57","5fbbdd11ff4568d9cc3536fb","64e77d7b61f440b60e28659d","64ec9534bc04d6f238a506ed","null","null","<p style=""font-size: 60px; font-family: BACS"">YObABbM</p>","","","","","","","","","",""
"html-keyboard-response","389","479439","0.0-15.0-0.58","5fbbdd11ff4568d9cc3536fb","64e77d7b61f440b60e28659d","64ec9534bc04d6f238a506ed","null","null","<p style=""font-size: 60px; font-family: BACS"">YObABbM</p>","","","","","","","","","",""
"html-keyboard-response","390","480444","0.0-15.0-0.59","5fbbdd11ff4568d9cc3536fb","64e77d7b61f440b60e28659d","64ec9534bc04d6f238a506ed","null","null","<p style=""font-size: 60px; font-family: BACS"">YObABbM</p>","","","","","","","","","",""
"html-keyboard-response","391","481448","0.0-15.0-0.60","5fbbdd11ff4568d9cc3536fb","64e77d7b61f440b60e28659d","64ec9534bc04d6f238a506ed","null","null","<p style=""font-size: 60px; font-family: BACS"">YObABbM</p>","","","","","","","","","",""
"html-keyboard-response","392","482452","0.0-15.0-0.61","5fbbdd11ff4568d9cc3536fb","64e77d7b61f440b60e28659d","64ec9534bc04d6f238a506ed","null","null","<p style=""font-size: 60px; font-family: BACS"">YObABbM</p>","","","","","","","","","",""
"html-keyboard-response","393","483457","0.0-15.0-0.62","5fbbdd11ff4568d9cc3536fb","64e77d7b61f440b60e28659d","64ec9534bc04d6f238a506ed","null","null","<p style=""font-size: 60px; font-family: BACS"">YObABbM</p>","","","","","","","","","",""
"html-keyboard-response","394","484462","0.0-15.0-0.63","5fbbdd11ff4568d9cc3536fb","64e77d7b61f440b60e28659d","64ec9534bc04d6f238a506ed","null","null","<p style=""font-size: 60px; font-family: BACS"">YObABbM</p>","","","","","","","","","",""
"html-keyboard-response","395","485466","0.0-15.0-0.64","5fbbdd11ff4568d9cc3536fb","64e77d7b61f440b60e28659d","64ec9534bc04d6f238a506ed","null","null","<p style=""font-size: 60px; font-family: BACS"">YObABbM</p>","","","","","","","","","",""
