"trial_type","trial_index","time_elapsed","internal_node_id","subject_id","study_id","session_id","rt","response","stimulus","success","item","task","correct_response","testing_condition","correct","target","confound","name"
"pavlovia","0","834","0.0-0.0","5b213220809d160001a2c36d","650c16f0f2faf8d7a0d14c09","651c1c70f89f19184fe3b578","","","","","","","","","","","",""
"survey-html-form","1","4772","0.0-1.0","5b213220809d160001a2c36d","650c16f0f2faf8d7a0d14c09","651c1c70f89f19184fe3b578","3936","{""ID"":""5b213220809d160001a2c36d""}","","","","","","","","","",""
"html-keyboard-response","2","11196","0.0-2.0","5b213220809d160001a2c36d","650c16f0f2faf8d7a0d14c09","651c1c70f89f19184fe3b578","6421"," ","<p style=""font-size: 15px;"">Before beginning, we ask that you read the consent information and confirm your agreement to participate in the experiment.</p>
      <p style=""font-size: 15px;""> We ask that you remember that this is a research project and that your participation is entirely voluntary. You can stop your participation at any time, without needing to provide any explanation. The study we're asking you to participate in aims at examining how readers process written words. You will be engaged in a session of apprximately 20 minutes, followed by a brief questionnaire. You will have the opportunity to take a few breaks during the experiment. You will be paid £4 for your participation, corresponding to a rate of £8/hour. While this experiment looks at cognitive faculties, this experiment doesn't constitute clinical proof of eventual pathologies.</p>
      <p style=""font-size: 15px;"">All of the information collected thanks to yours and others' participation will be held in a secure password-protected server, and will not be shared with anyone not authorised to view it. Your personal information will be kept with an arbitrary participant ID. Thanks to this data anonymity process, any researcher analysing the data won't be able to track the information back to a specific participant. Therefore, this process will make identifying you impossibile, even when results from the study will be published in scientific reviews, presented at congresses, or at any other public forum. More generally, the collected data will be treated in accordance with the laws on privacy and conformity to the Legislative Degree n. 196 ""Code regarding the protection of personal data"" of the 30th of June 2003 and to the European Regulation 2016/670 (General Data Protection Regulation - GDPR). The Data Protection Officer is Avv. Valentina Carollo, who can be contacted at the following email addresses: <a href=""mailto:dpo@sissa.it"">dpo@sissa.it</a> or <a href=""mailto:rpd@sissa.it"">rpd@sissa.it</a> - PEC: <a href=""mailto:protocollo@pec.sissa.it"">protocollo@pec.sissa.it</a>.</p>
      <p style=""font-size: 15px;""> Before expressing your consent to participate, we would like to remind you again that in case you need explanations on any aspect of the experimental procedure, the researcher is at your disposition (<a href=""mailto:aliebelt@sissa.it"">aliebelt@sissa.it</a>, <a href=""mailto:davide.crepaldi@sissa.it"">davide.crepaldi@sissa.it</a>).</p>
      <p style=""font-size: 15px;"">If you would like to download the informed consent form, you can do so here: <a href=""BASL-Informed_Consent.pdf"" download>informed consent form</a>.</p>
      <p style=""font-size: 15px;"">We ask that you press the spacebar to proceed to the consent section.</p>","","","","","","","","",""
"survey-html-form","3","19778","0.0-3.0","5b213220809d160001a2c36d","650c16f0f2faf8d7a0d14c09","651c1c70f89f19184fe3b578","8578","{""consent1"":""YES"",""consent2"":""YES"",""consent3"":""YES"",""consent4"":""YES"",""consent5"":""YES"",""consent6"":""YES""}","","","","","","","","","",""
"fullscreen","4","23518","0.0-4.0","5b213220809d160001a2c36d","650c16f0f2faf8d7a0d14c09","651c1c70f89f19184fe3b578","","","","true","","","","","","","",""
"html-keyboard-response","5","44757","0.0-5.0","5b213220809d160001a2c36d","650c16f0f2faf8d7a0d14c09","651c1c70f89f19184fe3b578","21235"," ","<p>Welcome, and thank you very much for your time!</p>
      <p>In this experiment, you'll be a language expert who's been asked to take a look at words that Earth has received in its first communication with aliens. Your task, in this first part of the experiment, is to pay close attention to the words you'll be shown; later, world leaders will ask you questions on what you saw. The words will be shown to you quite quickly; it seems that the aliens were in a hurry :-)</p>
      <p>Press the spacebar to continue.<p>","","","","","","","","",""
"html-keyboard-response","6","44810","0.0-6.0","5b213220809d160001a2c36d","650c16f0f2faf8d7a0d14c09","651c1c70f89f19184fe3b578","null","null","<p style=""font-size: 120px; font-family: BACS""> </p>","","","","","","","","",""
"html-keyboard-response","7","50679","0.0-7.0","5b213220809d160001a2c36d","650c16f0f2faf8d7a0d14c09","651c1c70f89f19184fe3b578","5866"," ","<p>Here is an example of the words you'll see:</p>
      <img src='esempio.png' height='400px'>
      <p>When you're ready to begin, press the spacebar.</p></div>","","","","","","","","",""
"html-keyboard-response","8","51681","0.0-8.0-0.0","5b213220809d160001a2c36d","650c16f0f2faf8d7a0d14c09","651c1c70f89f19184fe3b578","null","null","<p style=""font-size: 60px; font-family: BACS"">udkmkam</p>","","","","","","","","",""
"html-keyboard-response","9","52683","0.0-8.0-0.1","5b213220809d160001a2c36d","650c16f0f2faf8d7a0d14c09","651c1c70f89f19184fe3b578","null","null","<p style=""font-size: 60px; font-family: BACS"">CmcOPTl</p>","","","","","","","","",""
"html-keyboard-response","10","53685","0.0-8.0-0.2","5b213220809d160001a2c36d","650c16f0f2faf8d7a0d14c09","651c1c70f89f19184fe3b578","null","null","<p style=""font-size: 60px; font-family: BACS"">AYkEhRCdc</p>","","","","","","","","",""
"html-keyboard-response","11","54687","0.0-8.0-0.3","5b213220809d160001a2c36d","650c16f0f2faf8d7a0d14c09","651c1c70f89f19184fe3b578","null","null","<p style=""font-size: 60px; font-family: BACS"">YObAYDE</p>","","","","","","","","",""
"html-keyboard-response","12","55689","0.0-8.0-0.4","5b213220809d160001a2c36d","650c16f0f2faf8d7a0d14c09","651c1c70f89f19184fe3b578","null","null","<p style=""font-size: 60px; font-family: BACS"">EhRmRCdc</p>","","","","","","","","",""
"html-keyboard-response","13","56690","0.0-8.0-0.5","5b213220809d160001a2c36d","650c16f0f2faf8d7a0d14c09","651c1c70f89f19184fe3b578","null","null","<p style=""font-size: 60px; font-family: BACS"">bROCYBO</p>","","","","","","","","",""
"html-keyboard-response","14","57692","0.0-8.0-0.6","5b213220809d160001a2c36d","650c16f0f2faf8d7a0d14c09","651c1c70f89f19184fe3b578","null","null","<p style=""font-size: 60px; font-family: BACS"">vJabGUOA</p>","","","","","","","","",""
"html-keyboard-response","15","58694","0.0-8.0-0.7","5b213220809d160001a2c36d","650c16f0f2faf8d7a0d14c09","651c1c70f89f19184fe3b578","null","null","<p style=""font-size: 60px; font-family: BACS"">bROCPTl</p>","","","","","","","","",""
"html-keyboard-response","16","59695","0.0-8.0-0.8","5b213220809d160001a2c36d","650c16f0f2faf8d7a0d14c09","651c1c70f89f19184fe3b578","null","null","<p style=""font-size: 60px; font-family: BACS"">OAmGrZckv</p>","","","","","","","","",""
"html-keyboard-response","17","60697","0.0-8.0-0.9","5b213220809d160001a2c36d","650c16f0f2faf8d7a0d14c09","651c1c70f89f19184fe3b578","null","null","<p style=""font-size: 60px; font-family: BACS"">AJLrkam</p>","","","","","","","","",""
"html-keyboard-response","18","61698","0.0-8.0-0.10","5b213220809d160001a2c36d","650c16f0f2faf8d7a0d14c09","651c1c70f89f19184fe3b578","null","null","<p style=""font-size: 60px; font-family: BACS"">AYkEhPTl</p>","","","","","","","","",""
"html-keyboard-response","19","62699","0.0-8.0-0.11","5b213220809d160001a2c36d","650c16f0f2faf8d7a0d14c09","651c1c70f89f19184fe3b578","null","null","<p style=""font-size: 60px; font-family: BACS"">rkJuLUOk</p>","","","","","","","","",""
"html-keyboard-response","20","63700","0.0-8.0-0.12","5b213220809d160001a2c36d","650c16f0f2faf8d7a0d14c09","651c1c70f89f19184fe3b578","null","null","<p style=""font-size: 60px; font-family: BACS"">CmcORCdc</p>","","","","","","","","",""
"html-keyboard-response","21","64702","0.0-8.0-0.13","5b213220809d160001a2c36d","650c16f0f2faf8d7a0d14c09","651c1c70f89f19184fe3b578","null","null","<p style=""font-size: 60px; font-family: BACS"">KAERMkPM</p>","","","","","","","","",""
"html-keyboard-response","22","65704","0.0-8.0-0.14","5b213220809d160001a2c36d","650c16f0f2faf8d7a0d14c09","651c1c70f89f19184fe3b578","null","null","<p style=""font-size: 60px; font-family: BACS"">ZvalvGUOA</p>","","","","","","","","",""
"html-keyboard-response","23","66705","0.0-8.0-0.15","5b213220809d160001a2c36d","650c16f0f2faf8d7a0d14c09","651c1c70f89f19184fe3b578","null","null","<p style=""font-size: 60px; font-family: BACS"">OmtlDkPM</p>","","","","","","","","",""
"html-keyboard-response","24","67706","0.0-8.0-0.16","5b213220809d160001a2c36d","650c16f0f2faf8d7a0d14c09","651c1c70f89f19184fe3b578","null","null","<p style=""font-size: 60px; font-family: BACS"">alJYLUOk</p>","","","","","","","","",""
"html-keyboard-response","25","68707","0.0-8.0-0.17","5b213220809d160001a2c36d","650c16f0f2faf8d7a0d14c09","651c1c70f89f19184fe3b578","null","null","<p style=""font-size: 60px; font-family: BACS"">YObAkPM</p>","","","","","","","","",""
"html-keyboard-response","26","69709","0.0-8.0-0.18","5b213220809d160001a2c36d","650c16f0f2faf8d7a0d14c09","651c1c70f89f19184fe3b578","null","null","<p style=""font-size: 60px; font-family: BACS"">LGkAkam</p>","","","","","","","","",""
"html-keyboard-response","27","70712","0.0-8.0-0.19","5b213220809d160001a2c36d","650c16f0f2faf8d7a0d14c09","651c1c70f89f19184fe3b578","null","null","<p style=""font-size: 60px; font-family: BACS"">udkmLUOk</p>","","","","","","","","",""
"html-keyboard-response","28","71713","0.0-8.0-0.20","5b213220809d160001a2c36d","650c16f0f2faf8d7a0d14c09","651c1c70f89f19184fe3b578","null","null","<p style=""font-size: 60px; font-family: BACS"">LGkAJUNa</p>","","","","","","","","",""
"html-keyboard-response","29","72715","0.0-8.0-0.21","5b213220809d160001a2c36d","650c16f0f2faf8d7a0d14c09","651c1c70f89f19184fe3b578","null","null","<p style=""font-size: 60px; font-family: BACS"">OmtlDYBO</p>","","","","","","","","",""
"html-keyboard-response","30","73720","0.0-8.0-0.22","5b213220809d160001a2c36d","650c16f0f2faf8d7a0d14c09","651c1c70f89f19184fe3b578","null","null","<p style=""font-size: 60px; font-family: BACS"">udkmZckv</p>","","","","","","","","",""
"html-keyboard-response","31","74724","0.0-8.0-0.23","5b213220809d160001a2c36d","650c16f0f2faf8d7a0d14c09","651c1c70f89f19184fe3b578","null","null","<p style=""font-size: 60px; font-family: BACS"">hbmARCdc</p>","","","","","","","","",""
"html-keyboard-response","32","75726","0.0-8.0-0.24","5b213220809d160001a2c36d","650c16f0f2faf8d7a0d14c09","651c1c70f89f19184fe3b578","null","null","<p style=""font-size: 60px; font-family: BACS"">EhRmPTl</p>","","","","","","","","",""
"html-keyboard-response","33","76729","0.0-8.0-0.25","5b213220809d160001a2c36d","650c16f0f2faf8d7a0d14c09","651c1c70f89f19184fe3b578","null","null","<p style=""font-size: 60px; font-family: BACS"">AYkEhYDE</p>","","","","","","","","",""
"html-keyboard-response","34","77731","0.0-8.0-0.26","5b213220809d160001a2c36d","650c16f0f2faf8d7a0d14c09","651c1c70f89f19184fe3b578","null","null","<p style=""font-size: 60px; font-family: BACS"">hbmAkPM</p>","","","","","","","","",""
"html-keyboard-response","35","78733","0.0-8.0-0.27","5b213220809d160001a2c36d","650c16f0f2faf8d7a0d14c09","651c1c70f89f19184fe3b578","null","null","<p style=""font-size: 60px; font-family: BACS"">rkJukam</p>","","","","","","","","",""
"html-keyboard-response","36","79734","0.0-8.0-0.28","5b213220809d160001a2c36d","650c16f0f2faf8d7a0d14c09","651c1c70f89f19184fe3b578","null","null","<p style=""font-size: 60px; font-family: BACS"">QcladJUNa</p>","","","","","","","","",""
"html-keyboard-response","37","80736","0.0-8.0-0.29","5b213220809d160001a2c36d","650c16f0f2faf8d7a0d14c09","651c1c70f89f19184fe3b578","null","null","<p style=""font-size: 60px; font-family: BACS"">OmtlDYDE</p>","","","","","","","","",""
"html-keyboard-response","38","81737","0.0-8.0-0.30","5b213220809d160001a2c36d","650c16f0f2faf8d7a0d14c09","651c1c70f89f19184fe3b578","null","null","<p style=""font-size: 60px; font-family: BACS"">AJLrLUOk</p>","","","","","","","","",""
"html-keyboard-response","39","82739","0.0-8.0-0.31","5b213220809d160001a2c36d","650c16f0f2faf8d7a0d14c09","651c1c70f89f19184fe3b578","null","null","<p style=""font-size: 60px; font-family: BACS"">YObARCdc</p>","","","","","","","","",""
"html-keyboard-response","40","83743","0.0-8.0-0.32","5b213220809d160001a2c36d","650c16f0f2faf8d7a0d14c09","651c1c70f89f19184fe3b578","null","null","<p style=""font-size: 60px; font-family: BACS"">vJabJUNa</p>","","","","","","","","",""
"html-keyboard-response","41","84744","0.0-8.0-0.33","5b213220809d160001a2c36d","650c16f0f2faf8d7a0d14c09","651c1c70f89f19184fe3b578","null","null","<p style=""font-size: 60px; font-family: BACS"">EhRmYDE</p>","","","","","","","","",""
"html-keyboard-response","42","85745","0.0-8.0-0.34","5b213220809d160001a2c36d","650c16f0f2faf8d7a0d14c09","651c1c70f89f19184fe3b578","null","null","<p style=""font-size: 60px; font-family: BACS"">CmcOYBO</p>","","","","","","","","",""
"html-keyboard-response","43","86747","0.0-8.0-0.35","5b213220809d160001a2c36d","650c16f0f2faf8d7a0d14c09","651c1c70f89f19184fe3b578","null","null","<p style=""font-size: 60px; font-family: BACS"">tRdMkPM</p>","","","","","","","","",""
"html-keyboard-response","44","87748","0.0-8.0-0.36","5b213220809d160001a2c36d","650c16f0f2faf8d7a0d14c09","651c1c70f89f19184fe3b578","null","null","<p style=""font-size: 60px; font-family: BACS"">LGkAZckv</p>","","","","","","","","",""
"html-keyboard-response","45","88750","0.0-8.0-0.37","5b213220809d160001a2c36d","650c16f0f2faf8d7a0d14c09","651c1c70f89f19184fe3b578","null","null","<p style=""font-size: 60px; font-family: BACS"">bROCYDE</p>","","","","","","","","",""
"html-keyboard-response","46","89751","0.0-8.0-0.38","5b213220809d160001a2c36d","650c16f0f2faf8d7a0d14c09","651c1c70f89f19184fe3b578","null","null","<p style=""font-size: 60px; font-family: BACS"">AJLrGUOA</p>","","","","","","","","",""
"html-keyboard-response","47","90752","0.0-8.0-0.39","5b213220809d160001a2c36d","650c16f0f2faf8d7a0d14c09","651c1c70f89f19184fe3b578","null","null","<p style=""font-size: 60px; font-family: BACS"">PcBTYBO</p>","","","","","","","","",""
"html-keyboard-response","48","91753","0.0-8.0-0.40","5b213220809d160001a2c36d","650c16f0f2faf8d7a0d14c09","651c1c70f89f19184fe3b578","null","null","<p style=""font-size: 60px; font-family: BACS"">QcladLUOk</p>","","","","","","","","",""
"html-keyboard-response","49","92755","0.0-8.0-0.41","5b213220809d160001a2c36d","650c16f0f2faf8d7a0d14c09","651c1c70f89f19184fe3b578","null","null","<p style=""font-size: 60px; font-family: BACS"">OAmGrJUNa</p>","","","","","","","","",""
"html-keyboard-response","50","93756","0.0-8.0-0.42","5b213220809d160001a2c36d","650c16f0f2faf8d7a0d14c09","651c1c70f89f19184fe3b578","null","null","<p style=""font-size: 60px; font-family: BACS"">rkJuZckv</p>","","","","","","","","",""
"html-keyboard-response","51","94757","0.0-8.0-0.43","5b213220809d160001a2c36d","650c16f0f2faf8d7a0d14c09","651c1c70f89f19184fe3b578","null","null","<p style=""font-size: 60px; font-family: BACS"">alJYJUNa</p>","","","","","","","","",""
"html-keyboard-response","52","95758","0.0-8.0-0.44","5b213220809d160001a2c36d","650c16f0f2faf8d7a0d14c09","651c1c70f89f19184fe3b578","null","null","<p style=""font-size: 60px; font-family: BACS"">vJabZckv</p>","","","","","","","","",""
"html-keyboard-response","53","96760","0.0-8.0-0.45","5b213220809d160001a2c36d","650c16f0f2faf8d7a0d14c09","651c1c70f89f19184fe3b578","null","null","<p style=""font-size: 60px; font-family: BACS"">tRdMRCdc</p>","","","","","","","","",""
"html-keyboard-response","54","97761","0.0-8.0-0.46","5b213220809d160001a2c36d","650c16f0f2faf8d7a0d14c09","651c1c70f89f19184fe3b578","null","null","<p style=""font-size: 60px; font-family: BACS"">ZvalvJUNa</p>","","","","","","","","",""
"html-keyboard-response","55","98762","0.0-8.0-0.47","5b213220809d160001a2c36d","650c16f0f2faf8d7a0d14c09","651c1c70f89f19184fe3b578","null","null","<p style=""font-size: 60px; font-family: BACS"">udkmGUOA</p>","","","","","","","","",""
"html-keyboard-response","56","99765","0.0-8.0-0.48","5b213220809d160001a2c36d","650c16f0f2faf8d7a0d14c09","651c1c70f89f19184fe3b578","null","null","<p style=""font-size: 60px; font-family: BACS"">KAERMPTl</p>","","","","","","","","",""
"html-keyboard-response","57","100766","0.0-8.0-0.49","5b213220809d160001a2c36d","650c16f0f2faf8d7a0d14c09","651c1c70f89f19184fe3b578","null","null","<p style=""font-size: 60px; font-family: BACS"">YObAYBO</p>","","","","","","","","",""
"html-keyboard-response","58","101767","0.0-8.0-0.50","5b213220809d160001a2c36d","650c16f0f2faf8d7a0d14c09","651c1c70f89f19184fe3b578","null","null","<p style=""font-size: 60px; font-family: BACS"">PcBTkPM</p>","","","","","","","","",""
"html-keyboard-response","59","102768","0.0-8.0-0.51","5b213220809d160001a2c36d","650c16f0f2faf8d7a0d14c09","651c1c70f89f19184fe3b578","null","null","<p style=""font-size: 60px; font-family: BACS"">ZvalvLUOk</p>","","","","","","","","",""
"html-keyboard-response","60","103769","0.0-8.0-0.52","5b213220809d160001a2c36d","650c16f0f2faf8d7a0d14c09","651c1c70f89f19184fe3b578","null","null","<p style=""font-size: 60px; font-family: BACS"">GZJYJUNa</p>","","","","","","","","",""
"html-keyboard-response","61","104770","0.0-8.0-0.53","5b213220809d160001a2c36d","650c16f0f2faf8d7a0d14c09","651c1c70f89f19184fe3b578","null","null","<p style=""font-size: 60px; font-family: BACS"">alJYZckv</p>","","","","","","","","",""
"html-keyboard-response","62","105771","0.0-8.0-0.54","5b213220809d160001a2c36d","650c16f0f2faf8d7a0d14c09","651c1c70f89f19184fe3b578","null","null","<p style=""font-size: 60px; font-family: BACS"">hbmAYBO</p>","","","","","","","","",""
"html-keyboard-response","63","106772","0.0-8.0-0.55","5b213220809d160001a2c36d","650c16f0f2faf8d7a0d14c09","651c1c70f89f19184fe3b578","null","null","<p style=""font-size: 60px; font-family: BACS"">alJYGUOA</p>","","","","","","","","",""
"html-keyboard-response","64","107774","0.0-8.0-0.56","5b213220809d160001a2c36d","650c16f0f2faf8d7a0d14c09","651c1c70f89f19184fe3b578","null","null","<p style=""font-size: 60px; font-family: BACS"">EhRmkPM</p>","","","","","","","","",""
"html-keyboard-response","65","108774","0.0-8.0-0.57","5b213220809d160001a2c36d","650c16f0f2faf8d7a0d14c09","651c1c70f89f19184fe3b578","null","null","<p style=""font-size: 60px; font-family: BACS"">Zvalvkam</p>","","","","","","","","",""
"html-keyboard-response","66","109776","0.0-8.0-0.58","5b213220809d160001a2c36d","650c16f0f2faf8d7a0d14c09","651c1c70f89f19184fe3b578","null","null","<p style=""font-size: 60px; font-family: BACS"">QcladGUOA</p>","","","","","","","","",""
"html-keyboard-response","67","110778","0.0-8.0-0.59","5b213220809d160001a2c36d","650c16f0f2faf8d7a0d14c09","651c1c70f89f19184fe3b578","null","null","<p style=""font-size: 60px; font-family: BACS"">LGkALUOk</p>","","","","","","","","",""
"html-keyboard-response","68","111778","0.0-8.0-0.60","5b213220809d160001a2c36d","650c16f0f2faf8d7a0d14c09","651c1c70f89f19184fe3b578","null","null","<p style=""font-size: 60px; font-family: BACS"">rkJuJUNa</p>","","","","","","","","",""
"html-keyboard-response","69","112779","0.0-8.0-0.61","5b213220809d160001a2c36d","650c16f0f2faf8d7a0d14c09","651c1c70f89f19184fe3b578","null","null","<p style=""font-size: 60px; font-family: BACS"">PcBTYDE</p>","","","","","","","","",""
"html-keyboard-response","70","113780","0.0-8.0-0.62","5b213220809d160001a2c36d","650c16f0f2faf8d7a0d14c09","651c1c70f89f19184fe3b578","null","null","<p style=""font-size: 60px; font-family: BACS"">tRdMPTl</p>","","","","","","","","",""
"html-keyboard-response","71","114781","0.0-8.0-0.63","5b213220809d160001a2c36d","650c16f0f2faf8d7a0d14c09","651c1c70f89f19184fe3b578","null","null","<p style=""font-size: 60px; font-family: BACS"">KAERMYBO</p>","","","","","","","","",""
"html-keyboard-response","72","115783","0.0-8.0-0.64","5b213220809d160001a2c36d","650c16f0f2faf8d7a0d14c09","651c1c70f89f19184fe3b578","null","null","<p style=""font-size: 60px; font-family: BACS"">GZJYZckv</p>","","","","","","","","",""
"html-keyboard-response","73","116784","0.0-8.0-0.65","5b213220809d160001a2c36d","650c16f0f2faf8d7a0d14c09","651c1c70f89f19184fe3b578","null","null","<p style=""font-size: 60px; font-family: BACS"">hbmAPTl</p>","","","","","","","","",""
"html-keyboard-response","74","117785","0.0-8.0-0.66","5b213220809d160001a2c36d","650c16f0f2faf8d7a0d14c09","651c1c70f89f19184fe3b578","null","null","<p style=""font-size: 60px; font-family: BACS"">Qcladkam</p>","","","","","","","","",""
"html-keyboard-response","75","118786","0.0-8.0-0.67","5b213220809d160001a2c36d","650c16f0f2faf8d7a0d14c09","651c1c70f89f19184fe3b578","null","null","<p style=""font-size: 60px; font-family: BACS"">PcBTPTl</p>","","","","","","","","",""
"html-keyboard-response","76","119787","0.0-8.0-0.68","5b213220809d160001a2c36d","650c16f0f2faf8d7a0d14c09","651c1c70f89f19184fe3b578","null","null","<p style=""font-size: 60px; font-family: BACS"">bROCRCdc</p>","","","","","","","","",""
"html-keyboard-response","77","120788","0.0-8.0-0.69","5b213220809d160001a2c36d","650c16f0f2faf8d7a0d14c09","651c1c70f89f19184fe3b578","null","null","<p style=""font-size: 60px; font-family: BACS"">AYkEhYBO</p>","","","","","","","","",""
"html-keyboard-response","78","121789","0.0-8.0-0.70","5b213220809d160001a2c36d","650c16f0f2faf8d7a0d14c09","651c1c70f89f19184fe3b578","null","null","<p style=""font-size: 60px; font-family: BACS"">GZJYGUOA</p>","","","","","","","","",""
"html-keyboard-response","79","122790","0.0-8.0-0.71","5b213220809d160001a2c36d","650c16f0f2faf8d7a0d14c09","651c1c70f89f19184fe3b578","null","null","<p style=""font-size: 60px; font-family: BACS"">tRdMYDE</p>","","","","","","","","",""
"html-keyboard-response","80","123792","0.0-8.0-0.72","5b213220809d160001a2c36d","650c16f0f2faf8d7a0d14c09","651c1c70f89f19184fe3b578","null","null","<p style=""font-size: 60px; font-family: BACS"">OAmGrkam</p>","","","","","","","","",""
"html-keyboard-response","81","124793","0.0-8.0-0.73","5b213220809d160001a2c36d","650c16f0f2faf8d7a0d14c09","651c1c70f89f19184fe3b578","null","null","<p style=""font-size: 60px; font-family: BACS"">CmcOkPM</p>","","","","","","","","",""
"html-keyboard-response","82","125794","0.0-8.0-0.74","5b213220809d160001a2c36d","650c16f0f2faf8d7a0d14c09","651c1c70f89f19184fe3b578","null","null","<p style=""font-size: 60px; font-family: BACS"">OmtlDRCdc</p>","","","","","","","","",""
"html-keyboard-response","83","126795","0.0-8.0-0.75","5b213220809d160001a2c36d","650c16f0f2faf8d7a0d14c09","651c1c70f89f19184fe3b578","null","null","<p style=""font-size: 60px; font-family: BACS"">GZJYkam</p>","","","","","","","","",""
"html-keyboard-response","84","127796","0.0-8.0-0.76","5b213220809d160001a2c36d","650c16f0f2faf8d7a0d14c09","651c1c70f89f19184fe3b578","null","null","<p style=""font-size: 60px; font-family: BACS"">vJabLUOk</p>","","","","","","","","",""
"html-keyboard-response","85","128797","0.0-8.0-0.77","5b213220809d160001a2c36d","650c16f0f2faf8d7a0d14c09","651c1c70f89f19184fe3b578","null","null","<p style=""font-size: 60px; font-family: BACS"">OAmGrGUOA</p>","","","","","","","","",""
"html-keyboard-response","86","129798","0.0-8.0-0.78","5b213220809d160001a2c36d","650c16f0f2faf8d7a0d14c09","651c1c70f89f19184fe3b578","null","null","<p style=""font-size: 60px; font-family: BACS"">AJLrZckv</p>","","","","","","","","",""
"html-keyboard-response","87","130799","0.0-8.0-0.79","5b213220809d160001a2c36d","650c16f0f2faf8d7a0d14c09","651c1c70f89f19184fe3b578","null","null","<p style=""font-size: 60px; font-family: BACS"">KAERMYDE</p>","","","","","","","","",""
"html-keyboard-response","88","137612","0.0-9.0","5b213220809d160001a2c36d","650c16f0f2faf8d7a0d14c09","651c1c70f89f19184fe3b578","6811"," ","<p>Great, you've seen the first block of words. You may now take a short break.</p>
      <p>Press the spacebar when you're ready to continue.</p>","","","","","","","","",""
"html-keyboard-response","89","138612","0.0-10.0-0.0","5b213220809d160001a2c36d","650c16f0f2faf8d7a0d14c09","651c1c70f89f19184fe3b578","null","null","<p style=""font-size: 60px; font-family: BACS"">alJYJUNa</p>","","","","","","","","",""
"html-keyboard-response","90","139613","0.0-10.0-0.1","5b213220809d160001a2c36d","650c16f0f2faf8d7a0d14c09","651c1c70f89f19184fe3b578","null","null","<p style=""font-size: 60px; font-family: BACS"">YObAkPM</p>","","","","","","","","",""
"html-keyboard-response","91","140614","0.0-10.0-0.2","5b213220809d160001a2c36d","650c16f0f2faf8d7a0d14c09","651c1c70f89f19184fe3b578","null","null","<p style=""font-size: 60px; font-family: BACS"">udkmZckv</p>","","","","","","","","",""
"html-keyboard-response","92","141616","0.0-10.0-0.3","5b213220809d160001a2c36d","650c16f0f2faf8d7a0d14c09","651c1c70f89f19184fe3b578","null","null","<p style=""font-size: 60px; font-family: BACS"">tRdMkPM</p>","","","","","","","","",""
"html-keyboard-response","93","142617","0.0-10.0-0.4","5b213220809d160001a2c36d","650c16f0f2faf8d7a0d14c09","651c1c70f89f19184fe3b578","null","null","<p style=""font-size: 60px; font-family: BACS"">AJLrZckv</p>","","","","","","","","",""
"html-keyboard-response","94","143618","0.0-10.0-0.5","5b213220809d160001a2c36d","650c16f0f2faf8d7a0d14c09","651c1c70f89f19184fe3b578","null","null","<p style=""font-size: 60px; font-family: BACS"">QcladLUOk</p>","","","","","","","","",""
"html-keyboard-response","95","144619","0.0-10.0-0.6","5b213220809d160001a2c36d","650c16f0f2faf8d7a0d14c09","651c1c70f89f19184fe3b578","null","null","<p style=""font-size: 60px; font-family: BACS"">YObAYBO</p>","","","","","","","","",""
"html-keyboard-response","96","145621","0.0-10.0-0.7","5b213220809d160001a2c36d","650c16f0f2faf8d7a0d14c09","651c1c70f89f19184fe3b578","null","null","<p style=""font-size: 60px; font-family: BACS"">LGkAJUNa</p>","","","","","","","","",""
"html-keyboard-response","97","146621","0.0-10.0-0.8","5b213220809d160001a2c36d","650c16f0f2faf8d7a0d14c09","651c1c70f89f19184fe3b578","null","null","<p style=""font-size: 60px; font-family: BACS"">CmcOkPM</p>","","","","","","","","",""
"html-keyboard-response","98","147623","0.0-10.0-0.9","5b213220809d160001a2c36d","650c16f0f2faf8d7a0d14c09","651c1c70f89f19184fe3b578","null","null","<p style=""font-size: 60px; font-family: BACS"">vJabLUOk</p>","","","","","","","","",""
"html-keyboard-response","99","148624","0.0-10.0-0.10","5b213220809d160001a2c36d","650c16f0f2faf8d7a0d14c09","651c1c70f89f19184fe3b578","null","null","<p style=""font-size: 60px; font-family: BACS"">GZJYZckv</p>","","","","","","","","",""
"html-keyboard-response","100","149630","0.0-10.0-0.11","5b213220809d160001a2c36d","650c16f0f2faf8d7a0d14c09","651c1c70f89f19184fe3b578","null","null","<p style=""font-size: 60px; font-family: BACS"">udkmGUOA</p>","","","","","","","","",""
"html-keyboard-response","101","150634","0.0-10.0-0.12","5b213220809d160001a2c36d","650c16f0f2faf8d7a0d14c09","651c1c70f89f19184fe3b578","null","null","<p style=""font-size: 60px; font-family: BACS"">LGkAkam</p>","","","","","","","","",""
"html-keyboard-response","102","151637","0.0-10.0-0.13","5b213220809d160001a2c36d","650c16f0f2faf8d7a0d14c09","651c1c70f89f19184fe3b578","null","null","<p style=""font-size: 60px; font-family: BACS"">GZJYJUNa</p>","","","","","","","","",""
"html-keyboard-response","103","152640","0.0-10.0-0.14","5b213220809d160001a2c36d","650c16f0f2faf8d7a0d14c09","651c1c70f89f19184fe3b578","null","null","<p style=""font-size: 60px; font-family: BACS"">alJYZckv</p>","","","","","","","","",""
"html-keyboard-response","104","153644","0.0-10.0-0.15","5b213220809d160001a2c36d","650c16f0f2faf8d7a0d14c09","651c1c70f89f19184fe3b578","null","null","<p style=""font-size: 60px; font-family: BACS"">rkJuJUNa</p>","","","","","","","","",""
"html-keyboard-response","105","154647","0.0-10.0-0.16","5b213220809d160001a2c36d","650c16f0f2faf8d7a0d14c09","651c1c70f89f19184fe3b578","null","null","<p style=""font-size: 60px; font-family: BACS"">alJYGUOA</p>","","","","","","","","",""
"html-keyboard-response","106","155649","0.0-10.0-0.17","5b213220809d160001a2c36d","650c16f0f2faf8d7a0d14c09","651c1c70f89f19184fe3b578","null","null","<p style=""font-size: 60px; font-family: BACS"">OmtlDkPM</p>","","","","","","","","",""
"html-keyboard-response","107","156650","0.0-10.0-0.18","5b213220809d160001a2c36d","650c16f0f2faf8d7a0d14c09","651c1c70f89f19184fe3b578","null","null","<p style=""font-size: 60px; font-family: BACS"">udkmLUOk</p>","","","","","","","","",""
"html-keyboard-response","108","157652","0.0-10.0-0.19","5b213220809d160001a2c36d","650c16f0f2faf8d7a0d14c09","651c1c70f89f19184fe3b578","null","null","<p style=""font-size: 60px; font-family: BACS"">Zvalvkam</p>","","","","","","","","",""
"html-keyboard-response","109","158654","0.0-10.0-0.20","5b213220809d160001a2c36d","650c16f0f2faf8d7a0d14c09","651c1c70f89f19184fe3b578","null","null","<p style=""font-size: 60px; font-family: BACS"">vJabGUOA</p>","","","","","","","","",""
"html-keyboard-response","110","159655","0.0-10.0-0.21","5b213220809d160001a2c36d","650c16f0f2faf8d7a0d14c09","651c1c70f89f19184fe3b578","null","null","<p style=""font-size: 60px; font-family: BACS"">KAERMPTl</p>","","","","","","","","",""
"html-keyboard-response","111","160657","0.0-10.0-0.22","5b213220809d160001a2c36d","650c16f0f2faf8d7a0d14c09","651c1c70f89f19184fe3b578","null","null","<p style=""font-size: 60px; font-family: BACS"">OAmGrZckv</p>","","","","","","","","",""
"html-keyboard-response","112","161659","0.0-10.0-0.23","5b213220809d160001a2c36d","650c16f0f2faf8d7a0d14c09","651c1c70f89f19184fe3b578","null","null","<p style=""font-size: 60px; font-family: BACS"">OmtlDYBO</p>","","","","","","","","",""
"html-keyboard-response","113","162660","0.0-10.0-0.24","5b213220809d160001a2c36d","650c16f0f2faf8d7a0d14c09","651c1c70f89f19184fe3b578","null","null","<p style=""font-size: 60px; font-family: BACS"">hbmAPTl</p>","","","","","","","","",""
"html-keyboard-response","114","163661","0.0-10.0-0.25","5b213220809d160001a2c36d","650c16f0f2faf8d7a0d14c09","651c1c70f89f19184fe3b578","null","null","<p style=""font-size: 60px; font-family: BACS"">tRdMRCdc</p>","","","","","","","","",""
"html-keyboard-response","115","164662","0.0-10.0-0.26","5b213220809d160001a2c36d","650c16f0f2faf8d7a0d14c09","651c1c70f89f19184fe3b578","null","null","<p style=""font-size: 60px; font-family: BACS"">AJLrGUOA</p>","","","","","","","","",""
"html-keyboard-response","116","165663","0.0-10.0-0.27","5b213220809d160001a2c36d","650c16f0f2faf8d7a0d14c09","651c1c70f89f19184fe3b578","null","null","<p style=""font-size: 60px; font-family: BACS"">KAERMYBO</p>","","","","","","","","",""
"html-keyboard-response","117","166664","0.0-10.0-0.28","5b213220809d160001a2c36d","650c16f0f2faf8d7a0d14c09","651c1c70f89f19184fe3b578","null","null","<p style=""font-size: 60px; font-family: BACS"">hbmARCdc</p>","","","","","","","","",""
"html-keyboard-response","118","167666","0.0-10.0-0.29","5b213220809d160001a2c36d","650c16f0f2faf8d7a0d14c09","651c1c70f89f19184fe3b578","null","null","<p style=""font-size: 60px; font-family: BACS"">GZJYkam</p>","","","","","","","","",""
"html-keyboard-response","119","168667","0.0-10.0-0.30","5b213220809d160001a2c36d","650c16f0f2faf8d7a0d14c09","651c1c70f89f19184fe3b578","null","null","<p style=""font-size: 60px; font-family: BACS"">bROCRCdc</p>","","","","","","","","",""
"html-keyboard-response","120","169668","0.0-10.0-0.31","5b213220809d160001a2c36d","650c16f0f2faf8d7a0d14c09","651c1c70f89f19184fe3b578","null","null","<p style=""font-size: 60px; font-family: BACS"">LGkAZckv</p>","","","","","","","","",""
"html-keyboard-response","121","170669","0.0-10.0-0.32","5b213220809d160001a2c36d","650c16f0f2faf8d7a0d14c09","651c1c70f89f19184fe3b578","null","null","<p style=""font-size: 60px; font-family: BACS"">GZJYGUOA</p>","","","","","","","","",""
"html-keyboard-response","122","171670","0.0-10.0-0.33","5b213220809d160001a2c36d","650c16f0f2faf8d7a0d14c09","651c1c70f89f19184fe3b578","null","null","<p style=""font-size: 60px; font-family: BACS"">LGkALUOk</p>","","","","","","","","",""
"html-keyboard-response","123","172672","0.0-10.0-0.34","5b213220809d160001a2c36d","650c16f0f2faf8d7a0d14c09","651c1c70f89f19184fe3b578","null","null","<p style=""font-size: 60px; font-family: BACS"">EhRmkPM</p>","","","","","","","","",""
"html-keyboard-response","124","173673","0.0-10.0-0.35","5b213220809d160001a2c36d","650c16f0f2faf8d7a0d14c09","651c1c70f89f19184fe3b578","null","null","<p style=""font-size: 60px; font-family: BACS"">vJabJUNa</p>","","","","","","","","",""
"html-keyboard-response","125","174674","0.0-10.0-0.36","5b213220809d160001a2c36d","650c16f0f2faf8d7a0d14c09","651c1c70f89f19184fe3b578","null","null","<p style=""font-size: 60px; font-family: BACS"">bROCPTl</p>","","","","","","","","",""
"html-keyboard-response","126","175675","0.0-10.0-0.37","5b213220809d160001a2c36d","650c16f0f2faf8d7a0d14c09","651c1c70f89f19184fe3b578","null","null","<p style=""font-size: 60px; font-family: BACS"">ZvalvJUNa</p>","","","","","","","","",""
"html-keyboard-response","127","176676","0.0-10.0-0.38","5b213220809d160001a2c36d","650c16f0f2faf8d7a0d14c09","651c1c70f89f19184fe3b578","null","null","<p style=""font-size: 60px; font-family: BACS"">CmcOYBO</p>","","","","","","","","",""
"html-keyboard-response","128","177677","0.0-10.0-0.39","5b213220809d160001a2c36d","650c16f0f2faf8d7a0d14c09","651c1c70f89f19184fe3b578","null","null","<p style=""font-size: 60px; font-family: BACS"">PcBTkPM</p>","","","","","","","","",""
"html-keyboard-response","129","178679","0.0-10.0-0.40","5b213220809d160001a2c36d","650c16f0f2faf8d7a0d14c09","651c1c70f89f19184fe3b578","null","null","<p style=""font-size: 60px; font-family: BACS"">OAmGrJUNa</p>","","","","","","","","",""
"html-keyboard-response","130","179679","0.0-10.0-0.41","5b213220809d160001a2c36d","650c16f0f2faf8d7a0d14c09","651c1c70f89f19184fe3b578","null","null","<p style=""font-size: 60px; font-family: BACS"">CmcOPTl</p>","","","","","","","","",""
"html-keyboard-response","131","180681","0.0-10.0-0.42","5b213220809d160001a2c36d","650c16f0f2faf8d7a0d14c09","651c1c70f89f19184fe3b578","null","null","<p style=""font-size: 60px; font-family: BACS"">vJabZckv</p>","","","","","","","","",""
"html-keyboard-response","132","181682","0.0-10.0-0.43","5b213220809d160001a2c36d","650c16f0f2faf8d7a0d14c09","651c1c70f89f19184fe3b578","null","null","<p style=""font-size: 60px; font-family: BACS"">OmtlDRCdc</p>","","","","","","","","",""
"html-keyboard-response","133","182683","0.0-10.0-0.44","5b213220809d160001a2c36d","650c16f0f2faf8d7a0d14c09","651c1c70f89f19184fe3b578","null","null","<p style=""font-size: 60px; font-family: BACS"">AJLrLUOk</p>","","","","","","","","",""
"html-keyboard-response","134","183685","0.0-10.0-0.45","5b213220809d160001a2c36d","650c16f0f2faf8d7a0d14c09","651c1c70f89f19184fe3b578","null","null","<p style=""font-size: 60px; font-family: BACS"">hbmAkPM</p>","","","","","","","","",""
"html-keyboard-response","135","184686","0.0-10.0-0.46","5b213220809d160001a2c36d","650c16f0f2faf8d7a0d14c09","651c1c70f89f19184fe3b578","null","null","<p style=""font-size: 60px; font-family: BACS"">YObARCdc</p>","","","","","","","","",""
"html-keyboard-response","136","185687","0.0-10.0-0.47","5b213220809d160001a2c36d","650c16f0f2faf8d7a0d14c09","651c1c70f89f19184fe3b578","null","null","<p style=""font-size: 60px; font-family: BACS"">OAmGrGUOA</p>","","","","","","","","",""
"html-keyboard-response","137","186689","0.0-10.0-0.48","5b213220809d160001a2c36d","650c16f0f2faf8d7a0d14c09","651c1c70f89f19184fe3b578","null","null","<p style=""font-size: 60px; font-family: BACS"">AYkEhRCdc</p>","","","","","","","","",""
"html-keyboard-response","138","187690","0.0-10.0-0.49","5b213220809d160001a2c36d","650c16f0f2faf8d7a0d14c09","651c1c70f89f19184fe3b578","null","null","<p style=""font-size: 60px; font-family: BACS"">PcBTPTl</p>","","","","","","","","",""
"html-keyboard-response","139","188691","0.0-10.0-0.50","5b213220809d160001a2c36d","650c16f0f2faf8d7a0d14c09","651c1c70f89f19184fe3b578","null","null","<p style=""font-size: 60px; font-family: BACS"">Qcladkam</p>","","","","","","","","",""
"html-keyboard-response","140","189692","0.0-10.0-0.51","5b213220809d160001a2c36d","650c16f0f2faf8d7a0d14c09","651c1c70f89f19184fe3b578","null","null","<p style=""font-size: 60px; font-family: BACS"">KAERMYDE</p>","","","","","","","","",""
"html-keyboard-response","141","190693","0.0-10.0-0.52","5b213220809d160001a2c36d","650c16f0f2faf8d7a0d14c09","651c1c70f89f19184fe3b578","null","null","<p style=""font-size: 60px; font-family: BACS"">QcladJUNa</p>","","","","","","","","",""
"html-keyboard-response","142","191694","0.0-10.0-0.53","5b213220809d160001a2c36d","650c16f0f2faf8d7a0d14c09","651c1c70f89f19184fe3b578","null","null","<p style=""font-size: 60px; font-family: BACS"">bROCYDE</p>","","","","","","","","",""
"html-keyboard-response","143","192695","0.0-10.0-0.54","5b213220809d160001a2c36d","650c16f0f2faf8d7a0d14c09","651c1c70f89f19184fe3b578","null","null","<p style=""font-size: 60px; font-family: BACS"">udkmkam</p>","","","","","","","","",""
"html-keyboard-response","144","193697","0.0-10.0-0.55","5b213220809d160001a2c36d","650c16f0f2faf8d7a0d14c09","651c1c70f89f19184fe3b578","null","null","<p style=""font-size: 60px; font-family: BACS"">PcBTYBO</p>","","","","","","","","",""
"html-keyboard-response","145","194697","0.0-10.0-0.56","5b213220809d160001a2c36d","650c16f0f2faf8d7a0d14c09","651c1c70f89f19184fe3b578","null","null","<p style=""font-size: 60px; font-family: BACS"">tRdMPTl</p>","","","","","","","","",""
"html-keyboard-response","146","195698","0.0-10.0-0.57","5b213220809d160001a2c36d","650c16f0f2faf8d7a0d14c09","651c1c70f89f19184fe3b578","null","null","<p style=""font-size: 60px; font-family: BACS"">rkJuZckv</p>","","","","","","","","",""
"html-keyboard-response","147","196699","0.0-10.0-0.58","5b213220809d160001a2c36d","650c16f0f2faf8d7a0d14c09","651c1c70f89f19184fe3b578","null","null","<p style=""font-size: 60px; font-family: BACS"">AYkEhYDE</p>","","","","","","","","",""
"html-keyboard-response","148","197700","0.0-10.0-0.59","5b213220809d160001a2c36d","650c16f0f2faf8d7a0d14c09","651c1c70f89f19184fe3b578","null","null","<p style=""font-size: 60px; font-family: BACS"">OAmGrkam</p>","","","","","","","","",""
"html-keyboard-response","149","198702","0.0-10.0-0.60","5b213220809d160001a2c36d","650c16f0f2faf8d7a0d14c09","651c1c70f89f19184fe3b578","null","null","<p style=""font-size: 60px; font-family: BACS"">EhRmPTl</p>","","","","","","","","",""
"html-keyboard-response","150","199703","0.0-10.0-0.61","5b213220809d160001a2c36d","650c16f0f2faf8d7a0d14c09","651c1c70f89f19184fe3b578","null","null","<p style=""font-size: 60px; font-family: BACS"">alJYLUOk</p>","","","","","","","","",""
"html-keyboard-response","151","200704","0.0-10.0-0.62","5b213220809d160001a2c36d","650c16f0f2faf8d7a0d14c09","651c1c70f89f19184fe3b578","null","null","<p style=""font-size: 60px; font-family: BACS"">AYkEhYBO</p>","","","","","","","","",""
"html-keyboard-response","152","201706","0.0-10.0-0.63","5b213220809d160001a2c36d","650c16f0f2faf8d7a0d14c09","651c1c70f89f19184fe3b578","null","null","<p style=""font-size: 60px; font-family: BACS"">CmcORCdc</p>","","","","","","","","",""
"html-keyboard-response","153","202706","0.0-10.0-0.64","5b213220809d160001a2c36d","650c16f0f2faf8d7a0d14c09","651c1c70f89f19184fe3b578","null","null","<p style=""font-size: 60px; font-family: BACS"">QcladGUOA</p>","","","","","","","","",""
"html-keyboard-response","154","203708","0.0-10.0-0.65","5b213220809d160001a2c36d","650c16f0f2faf8d7a0d14c09","651c1c70f89f19184fe3b578","null","null","<p style=""font-size: 60px; font-family: BACS"">PcBTYDE</p>","","","","","","","","",""
"html-keyboard-response","155","204709","0.0-10.0-0.66","5b213220809d160001a2c36d","650c16f0f2faf8d7a0d14c09","651c1c70f89f19184fe3b578","null","null","<p style=""font-size: 60px; font-family: BACS"">bROCYBO</p>","","","","","","","","",""
"html-keyboard-response","156","205710","0.0-10.0-0.67","5b213220809d160001a2c36d","650c16f0f2faf8d7a0d14c09","651c1c70f89f19184fe3b578","null","null","<p style=""font-size: 60px; font-family: BACS"">ZvalvGUOA</p>","","","","","","","","",""
"html-keyboard-response","157","206711","0.0-10.0-0.68","5b213220809d160001a2c36d","650c16f0f2faf8d7a0d14c09","651c1c70f89f19184fe3b578","null","null","<p style=""font-size: 60px; font-family: BACS"">EhRmRCdc</p>","","","","","","","","",""
"html-keyboard-response","158","207713","0.0-10.0-0.69","5b213220809d160001a2c36d","650c16f0f2faf8d7a0d14c09","651c1c70f89f19184fe3b578","null","null","<p style=""font-size: 60px; font-family: BACS"">YObAYDE</p>","","","","","","","","",""
"html-keyboard-response","159","208715","0.0-10.0-0.70","5b213220809d160001a2c36d","650c16f0f2faf8d7a0d14c09","651c1c70f89f19184fe3b578","null","null","<p style=""font-size: 60px; font-family: BACS"">AJLrkam</p>","","","","","","","","",""
"html-keyboard-response","160","209720","0.0-10.0-0.71","5b213220809d160001a2c36d","650c16f0f2faf8d7a0d14c09","651c1c70f89f19184fe3b578","null","null","<p style=""font-size: 60px; font-family: BACS"">rkJuLUOk</p>","","","","","","","","",""
"html-keyboard-response","161","210725","0.0-10.0-0.72","5b213220809d160001a2c36d","650c16f0f2faf8d7a0d14c09","651c1c70f89f19184fe3b578","null","null","<p style=""font-size: 60px; font-family: BACS"">KAERMkPM</p>","","","","","","","","",""
"html-keyboard-response","162","211728","0.0-10.0-0.73","5b213220809d160001a2c36d","650c16f0f2faf8d7a0d14c09","651c1c70f89f19184fe3b578","null","null","<p style=""font-size: 60px; font-family: BACS"">rkJukam</p>","","","","","","","","",""
"html-keyboard-response","163","212733","0.0-10.0-0.74","5b213220809d160001a2c36d","650c16f0f2faf8d7a0d14c09","651c1c70f89f19184fe3b578","null","null","<p style=""font-size: 60px; font-family: BACS"">EhRmYDE</p>","","","","","","","","",""
"html-keyboard-response","164","213735","0.0-10.0-0.75","5b213220809d160001a2c36d","650c16f0f2faf8d7a0d14c09","651c1c70f89f19184fe3b578","null","null","<p style=""font-size: 60px; font-family: BACS"">AYkEhPTl</p>","","","","","","","","",""
"html-keyboard-response","165","214737","0.0-10.0-0.76","5b213220809d160001a2c36d","650c16f0f2faf8d7a0d14c09","651c1c70f89f19184fe3b578","null","null","<p style=""font-size: 60px; font-family: BACS"">ZvalvLUOk</p>","","","","","","","","",""
"html-keyboard-response","166","215740","0.0-10.0-0.77","5b213220809d160001a2c36d","650c16f0f2faf8d7a0d14c09","651c1c70f89f19184fe3b578","null","null","<p style=""font-size: 60px; font-family: BACS"">tRdMYDE</p>","","","","","","","","",""
"html-keyboard-response","167","216741","0.0-10.0-0.78","5b213220809d160001a2c36d","650c16f0f2faf8d7a0d14c09","651c1c70f89f19184fe3b578","null","null","<p style=""font-size: 60px; font-family: BACS"">hbmAYBO</p>","","","","","","","","",""
"html-keyboard-response","168","217742","0.0-10.0-0.79","5b213220809d160001a2c36d","650c16f0f2faf8d7a0d14c09","651c1c70f89f19184fe3b578","null","null","<p style=""font-size: 60px; font-family: BACS"">OmtlDYDE</p>","","","","","","","","",""
"html-keyboard-response","169","223968","0.0-11.0","5b213220809d160001a2c36d","650c16f0f2faf8d7a0d14c09","651c1c70f89f19184fe3b578","6223"," ","<p>Great, you've seen the second block of words. You may now take a short break.</p>
      <p>Press the spacebar when you're ready to continue.</p>","","","","","","","","",""
"html-keyboard-response","170","224970","0.0-12.0-0.0","5b213220809d160001a2c36d","650c16f0f2faf8d7a0d14c09","651c1c70f89f19184fe3b578","null","null","<p style=""font-size: 60px; font-family: BACS"">PcBTkPM</p>","","","","","","","","",""
"html-keyboard-response","171","225971","0.0-12.0-0.1","5b213220809d160001a2c36d","650c16f0f2faf8d7a0d14c09","651c1c70f89f19184fe3b578","null","null","<p style=""font-size: 60px; font-family: BACS"">OAmGrkam</p>","","","","","","","","",""
"html-keyboard-response","172","226974","0.0-12.0-0.2","5b213220809d160001a2c36d","650c16f0f2faf8d7a0d14c09","651c1c70f89f19184fe3b578","null","null","<p style=""font-size: 60px; font-family: BACS"">alJYZckv</p>","","","","","","","","",""
"html-keyboard-response","173","227975","0.0-12.0-0.3","5b213220809d160001a2c36d","650c16f0f2faf8d7a0d14c09","651c1c70f89f19184fe3b578","null","null","<p style=""font-size: 60px; font-family: BACS"">KAERMYBO</p>","","","","","","","","",""
"html-keyboard-response","174","228976","0.0-12.0-0.4","5b213220809d160001a2c36d","650c16f0f2faf8d7a0d14c09","651c1c70f89f19184fe3b578","null","null","<p style=""font-size: 60px; font-family: BACS"">bROCRCdc</p>","","","","","","","","",""
"html-keyboard-response","175","229977","0.0-12.0-0.5","5b213220809d160001a2c36d","650c16f0f2faf8d7a0d14c09","651c1c70f89f19184fe3b578","null","null","<p style=""font-size: 60px; font-family: BACS"">udkmkam</p>","","","","","","","","",""
"html-keyboard-response","176","230978","0.0-12.0-0.6","5b213220809d160001a2c36d","650c16f0f2faf8d7a0d14c09","651c1c70f89f19184fe3b578","null","null","<p style=""font-size: 60px; font-family: BACS"">tRdMRCdc</p>","","","","","","","","",""
"html-keyboard-response","177","231979","0.0-12.0-0.7","5b213220809d160001a2c36d","650c16f0f2faf8d7a0d14c09","651c1c70f89f19184fe3b578","null","null","<p style=""font-size: 60px; font-family: BACS"">PcBTYBO</p>","","","","","","","","",""
"html-keyboard-response","178","232981","0.0-12.0-0.8","5b213220809d160001a2c36d","650c16f0f2faf8d7a0d14c09","651c1c70f89f19184fe3b578","null","null","<p style=""font-size: 60px; font-family: BACS"">LGkAJUNa</p>","","","","","","","","",""
"html-keyboard-response","179","233983","0.0-12.0-0.9","5b213220809d160001a2c36d","650c16f0f2faf8d7a0d14c09","651c1c70f89f19184fe3b578","null","null","<p style=""font-size: 60px; font-family: BACS"">QcladGUOA</p>","","","","","","","","",""
"html-keyboard-response","180","234985","0.0-12.0-0.10","5b213220809d160001a2c36d","650c16f0f2faf8d7a0d14c09","651c1c70f89f19184fe3b578","null","null","<p style=""font-size: 60px; font-family: BACS"">rkJuLUOk</p>","","","","","","","","",""
"html-keyboard-response","181","235986","0.0-12.0-0.11","5b213220809d160001a2c36d","650c16f0f2faf8d7a0d14c09","651c1c70f89f19184fe3b578","null","null","<p style=""font-size: 60px; font-family: BACS"">OmtlDYDE</p>","","","","","","","","",""
"html-keyboard-response","182","236987","0.0-12.0-0.12","5b213220809d160001a2c36d","650c16f0f2faf8d7a0d14c09","651c1c70f89f19184fe3b578","null","null","<p style=""font-size: 60px; font-family: BACS"">GZJYGUOA</p>","","","","","","","","",""
"html-keyboard-response","183","237989","0.0-12.0-0.13","5b213220809d160001a2c36d","650c16f0f2faf8d7a0d14c09","651c1c70f89f19184fe3b578","null","null","<p style=""font-size: 60px; font-family: BACS"">tRdMkPM</p>","","","","","","","","",""
"html-keyboard-response","184","238990","0.0-12.0-0.14","5b213220809d160001a2c36d","650c16f0f2faf8d7a0d14c09","651c1c70f89f19184fe3b578","null","null","<p style=""font-size: 60px; font-family: BACS"">alJYJUNa</p>","","","","","","","","",""
"html-keyboard-response","185","239991","0.0-12.0-0.15","5b213220809d160001a2c36d","650c16f0f2faf8d7a0d14c09","651c1c70f89f19184fe3b578","null","null","<p style=""font-size: 60px; font-family: BACS"">bROCYDE</p>","","","","","","","","",""
"html-keyboard-response","186","240992","0.0-12.0-0.16","5b213220809d160001a2c36d","650c16f0f2faf8d7a0d14c09","651c1c70f89f19184fe3b578","null","null","<p style=""font-size: 60px; font-family: BACS"">AYkEhYBO</p>","","","","","","","","",""
"html-keyboard-response","187","241993","0.0-12.0-0.17","5b213220809d160001a2c36d","650c16f0f2faf8d7a0d14c09","651c1c70f89f19184fe3b578","null","null","<p style=""font-size: 60px; font-family: BACS"">AJLrGUOA</p>","","","","","","","","",""
"html-keyboard-response","188","242994","0.0-12.0-0.18","5b213220809d160001a2c36d","650c16f0f2faf8d7a0d14c09","651c1c70f89f19184fe3b578","null","null","<p style=""font-size: 60px; font-family: BACS"">OAmGrJUNa</p>","","","","","","","","",""
"html-keyboard-response","189","243995","0.0-12.0-0.19","5b213220809d160001a2c36d","650c16f0f2faf8d7a0d14c09","651c1c70f89f19184fe3b578","null","null","<p style=""font-size: 60px; font-family: BACS"">vJabLUOk</p>","","","","","","","","",""
"html-keyboard-response","190","244997","0.0-12.0-0.20","5b213220809d160001a2c36d","650c16f0f2faf8d7a0d14c09","651c1c70f89f19184fe3b578","null","null","<p style=""font-size: 60px; font-family: BACS"">PcBTPTl</p>","","","","","","","","",""
"html-keyboard-response","191","245998","0.0-12.0-0.21","5b213220809d160001a2c36d","650c16f0f2faf8d7a0d14c09","651c1c70f89f19184fe3b578","null","null","<p style=""font-size: 60px; font-family: BACS"">LGkAkam</p>","","","","","","","","",""
"html-keyboard-response","192","246999","0.0-12.0-0.22","5b213220809d160001a2c36d","650c16f0f2faf8d7a0d14c09","651c1c70f89f19184fe3b578","null","null","<p style=""font-size: 60px; font-family: BACS"">YObAYDE</p>","","","","","","","","",""
"html-keyboard-response","193","248001","0.0-12.0-0.23","5b213220809d160001a2c36d","650c16f0f2faf8d7a0d14c09","651c1c70f89f19184fe3b578","null","null","<p style=""font-size: 60px; font-family: BACS"">Zvalvkam</p>","","","","","","","","",""
"html-keyboard-response","194","249002","0.0-12.0-0.24","5b213220809d160001a2c36d","650c16f0f2faf8d7a0d14c09","651c1c70f89f19184fe3b578","null","null","<p style=""font-size: 60px; font-family: BACS"">YObAkPM</p>","","","","","","","","",""
"html-keyboard-response","195","250003","0.0-12.0-0.25","5b213220809d160001a2c36d","650c16f0f2faf8d7a0d14c09","651c1c70f89f19184fe3b578","null","null","<p style=""font-size: 60px; font-family: BACS"">KAERMPTl</p>","","","","","","","","",""
"html-keyboard-response","196","251005","0.0-12.0-0.26","5b213220809d160001a2c36d","650c16f0f2faf8d7a0d14c09","651c1c70f89f19184fe3b578","null","null","<p style=""font-size: 60px; font-family: BACS"">LGkAZckv</p>","","","","","","","","",""
"html-keyboard-response","197","252006","0.0-12.0-0.27","5b213220809d160001a2c36d","650c16f0f2faf8d7a0d14c09","651c1c70f89f19184fe3b578","null","null","<p style=""font-size: 60px; font-family: BACS"">GZJYJUNa</p>","","","","","","","","",""
"html-keyboard-response","198","253008","0.0-12.0-0.28","5b213220809d160001a2c36d","650c16f0f2faf8d7a0d14c09","651c1c70f89f19184fe3b578","null","null","<p style=""font-size: 60px; font-family: BACS"">LGkALUOk</p>","","","","","","","","",""
"html-keyboard-response","199","254008","0.0-12.0-0.29","5b213220809d160001a2c36d","650c16f0f2faf8d7a0d14c09","651c1c70f89f19184fe3b578","null","null","<p style=""font-size: 60px; font-family: BACS"">ZvalvGUOA</p>","","","","","","","","",""
"html-keyboard-response","200","255010","0.0-12.0-0.30","5b213220809d160001a2c36d","650c16f0f2faf8d7a0d14c09","651c1c70f89f19184fe3b578","null","null","<p style=""font-size: 60px; font-family: BACS"">CmcORCdc</p>","","","","","","","","",""
"html-keyboard-response","201","256011","0.0-12.0-0.31","5b213220809d160001a2c36d","650c16f0f2faf8d7a0d14c09","651c1c70f89f19184fe3b578","null","null","<p style=""font-size: 60px; font-family: BACS"">rkJuJUNa</p>","","","","","","","","",""
"html-keyboard-response","202","257013","0.0-12.0-0.32","5b213220809d160001a2c36d","650c16f0f2faf8d7a0d14c09","651c1c70f89f19184fe3b578","null","null","<p style=""font-size: 60px; font-family: BACS"">EhRmkPM</p>","","","","","","","","",""
"html-keyboard-response","203","258014","0.0-12.0-0.33","5b213220809d160001a2c36d","650c16f0f2faf8d7a0d14c09","651c1c70f89f19184fe3b578","null","null","<p style=""font-size: 60px; font-family: BACS"">OmtlDRCdc</p>","","","","","","","","",""
"html-keyboard-response","204","259015","0.0-12.0-0.34","5b213220809d160001a2c36d","650c16f0f2faf8d7a0d14c09","651c1c70f89f19184fe3b578","null","null","<p style=""font-size: 60px; font-family: BACS"">CmcOkPM</p>","","","","","","","","",""
"html-keyboard-response","205","260016","0.0-12.0-0.35","5b213220809d160001a2c36d","650c16f0f2faf8d7a0d14c09","651c1c70f89f19184fe3b578","null","null","<p style=""font-size: 60px; font-family: BACS"">ZvalvJUNa</p>","","","","","","","","",""
"html-keyboard-response","206","261017","0.0-12.0-0.36","5b213220809d160001a2c36d","650c16f0f2faf8d7a0d14c09","651c1c70f89f19184fe3b578","null","null","<p style=""font-size: 60px; font-family: BACS"">EhRmYDE</p>","","","","","","","","",""
"html-keyboard-response","207","262019","0.0-12.0-0.37","5b213220809d160001a2c36d","650c16f0f2faf8d7a0d14c09","651c1c70f89f19184fe3b578","null","null","<p style=""font-size: 60px; font-family: BACS"">AYkEhRCdc</p>","","","","","","","","",""
"html-keyboard-response","208","263020","0.0-12.0-0.38","5b213220809d160001a2c36d","650c16f0f2faf8d7a0d14c09","651c1c70f89f19184fe3b578","null","null","<p style=""font-size: 60px; font-family: BACS"">OmtlDYBO</p>","","","","","","","","",""
"html-keyboard-response","209","264021","0.0-12.0-0.39","5b213220809d160001a2c36d","650c16f0f2faf8d7a0d14c09","651c1c70f89f19184fe3b578","null","null","<p style=""font-size: 60px; font-family: BACS"">CmcOPTl</p>","","","","","","","","",""
"html-keyboard-response","210","265022","0.0-12.0-0.40","5b213220809d160001a2c36d","650c16f0f2faf8d7a0d14c09","651c1c70f89f19184fe3b578","null","null","<p style=""font-size: 60px; font-family: BACS"">KAERMYDE</p>","","","","","","","","",""
"html-keyboard-response","211","266024","0.0-12.0-0.41","5b213220809d160001a2c36d","650c16f0f2faf8d7a0d14c09","651c1c70f89f19184fe3b578","null","null","<p style=""font-size: 60px; font-family: BACS"">GZJYZckv</p>","","","","","","","","",""
"html-keyboard-response","212","267025","0.0-12.0-0.42","5b213220809d160001a2c36d","650c16f0f2faf8d7a0d14c09","651c1c70f89f19184fe3b578","null","null","<p style=""font-size: 60px; font-family: BACS"">udkmGUOA</p>","","","","","","","","",""
"html-keyboard-response","213","268026","0.0-12.0-0.43","5b213220809d160001a2c36d","650c16f0f2faf8d7a0d14c09","651c1c70f89f19184fe3b578","null","null","<p style=""font-size: 60px; font-family: BACS"">rkJuZckv</p>","","","","","","","","",""
"html-keyboard-response","214","269027","0.0-12.0-0.44","5b213220809d160001a2c36d","650c16f0f2faf8d7a0d14c09","651c1c70f89f19184fe3b578","null","null","<p style=""font-size: 60px; font-family: BACS"">alJYGUOA</p>","","","","","","","","",""
"html-keyboard-response","215","270028","0.0-12.0-0.45","5b213220809d160001a2c36d","650c16f0f2faf8d7a0d14c09","651c1c70f89f19184fe3b578","null","null","<p style=""font-size: 60px; font-family: BACS"">YObAYBO</p>","","","","","","","","",""
"html-keyboard-response","216","271030","0.0-12.0-0.46","5b213220809d160001a2c36d","650c16f0f2faf8d7a0d14c09","651c1c70f89f19184fe3b578","null","null","<p style=""font-size: 60px; font-family: BACS"">tRdMYDE</p>","","","","","","","","",""
"html-keyboard-response","217","272031","0.0-12.0-0.47","5b213220809d160001a2c36d","650c16f0f2faf8d7a0d14c09","651c1c70f89f19184fe3b578","null","null","<p style=""font-size: 60px; font-family: BACS"">QcladJUNa</p>","","","","","","","","",""
"html-keyboard-response","218","273033","0.0-12.0-0.48","5b213220809d160001a2c36d","650c16f0f2faf8d7a0d14c09","651c1c70f89f19184fe3b578","null","null","<p style=""font-size: 60px; font-family: BACS"">bROCYBO</p>","","","","","","","","",""
"html-keyboard-response","219","274035","0.0-12.0-0.49","5b213220809d160001a2c36d","650c16f0f2faf8d7a0d14c09","651c1c70f89f19184fe3b578","null","null","<p style=""font-size: 60px; font-family: BACS"">OmtlDkPM</p>","","","","","","","","",""
"html-keyboard-response","220","275036","0.0-12.0-0.50","5b213220809d160001a2c36d","650c16f0f2faf8d7a0d14c09","651c1c70f89f19184fe3b578","null","null","<p style=""font-size: 60px; font-family: BACS"">hbmAPTl</p>","","","","","","","","",""
"html-keyboard-response","221","276037","0.0-12.0-0.51","5b213220809d160001a2c36d","650c16f0f2faf8d7a0d14c09","651c1c70f89f19184fe3b578","null","null","<p style=""font-size: 60px; font-family: BACS"">ZvalvLUOk</p>","","","","","","","","",""
"html-keyboard-response","222","277039","0.0-12.0-0.52","5b213220809d160001a2c36d","650c16f0f2faf8d7a0d14c09","651c1c70f89f19184fe3b578","null","null","<p style=""font-size: 60px; font-family: BACS"">bROCPTl</p>","","","","","","","","",""
"html-keyboard-response","223","278040","0.0-12.0-0.53","5b213220809d160001a2c36d","650c16f0f2faf8d7a0d14c09","651c1c70f89f19184fe3b578","null","null","<p style=""font-size: 60px; font-family: BACS"">vJabJUNa</p>","","","","","","","","",""
"html-keyboard-response","224","279041","0.0-12.0-0.54","5b213220809d160001a2c36d","650c16f0f2faf8d7a0d14c09","651c1c70f89f19184fe3b578","null","null","<p style=""font-size: 60px; font-family: BACS"">hbmAkPM</p>","","","","","","","","",""
"html-keyboard-response","225","280043","0.0-12.0-0.55","5b213220809d160001a2c36d","650c16f0f2faf8d7a0d14c09","651c1c70f89f19184fe3b578","null","null","<p style=""font-size: 60px; font-family: BACS"">AYkEhYDE</p>","","","","","","","","",""
"html-keyboard-response","226","281044","0.0-12.0-0.56","5b213220809d160001a2c36d","650c16f0f2faf8d7a0d14c09","651c1c70f89f19184fe3b578","null","null","<p style=""font-size: 60px; font-family: BACS"">udkmZckv</p>","","","","","","","","",""
"html-keyboard-response","227","282045","0.0-12.0-0.57","5b213220809d160001a2c36d","650c16f0f2faf8d7a0d14c09","651c1c70f89f19184fe3b578","null","null","<p style=""font-size: 60px; font-family: BACS"">PcBTYDE</p>","","","","","","","","",""
"html-keyboard-response","228","283046","0.0-12.0-0.58","5b213220809d160001a2c36d","650c16f0f2faf8d7a0d14c09","651c1c70f89f19184fe3b578","null","null","<p style=""font-size: 60px; font-family: BACS"">AYkEhPTl</p>","","","","","","","","",""
"html-keyboard-response","229","284047","0.0-12.0-0.59","5b213220809d160001a2c36d","650c16f0f2faf8d7a0d14c09","651c1c70f89f19184fe3b578","null","null","<p style=""font-size: 60px; font-family: BACS"">YObARCdc</p>","","","","","","","","",""
"html-keyboard-response","230","285049","0.0-12.0-0.60","5b213220809d160001a2c36d","650c16f0f2faf8d7a0d14c09","651c1c70f89f19184fe3b578","null","null","<p style=""font-size: 60px; font-family: BACS"">alJYLUOk</p>","","","","","","","","",""
"html-keyboard-response","231","286050","0.0-12.0-0.61","5b213220809d160001a2c36d","650c16f0f2faf8d7a0d14c09","651c1c70f89f19184fe3b578","null","null","<p style=""font-size: 60px; font-family: BACS"">EhRmRCdc</p>","","","","","","","","",""
"html-keyboard-response","232","287052","0.0-12.0-0.62","5b213220809d160001a2c36d","650c16f0f2faf8d7a0d14c09","651c1c70f89f19184fe3b578","null","null","<p style=""font-size: 60px; font-family: BACS"">QcladLUOk</p>","","","","","","","","",""
"html-keyboard-response","233","288053","0.0-12.0-0.63","5b213220809d160001a2c36d","650c16f0f2faf8d7a0d14c09","651c1c70f89f19184fe3b578","null","null","<p style=""font-size: 60px; font-family: BACS"">OAmGrZckv</p>","","","","","","","","",""
"html-keyboard-response","234","289055","0.0-12.0-0.64","5b213220809d160001a2c36d","650c16f0f2faf8d7a0d14c09","651c1c70f89f19184fe3b578","null","null","<p style=""font-size: 60px; font-family: BACS"">udkmLUOk</p>","","","","","","","","",""
"html-keyboard-response","235","290056","0.0-12.0-0.65","5b213220809d160001a2c36d","650c16f0f2faf8d7a0d14c09","651c1c70f89f19184fe3b578","null","null","<p style=""font-size: 60px; font-family: BACS"">KAERMkPM</p>","","","","","","","","",""
"html-keyboard-response","236","291058","0.0-12.0-0.66","5b213220809d160001a2c36d","650c16f0f2faf8d7a0d14c09","651c1c70f89f19184fe3b578","null","null","<p style=""font-size: 60px; font-family: BACS"">EhRmPTl</p>","","","","","","","","",""
"html-keyboard-response","237","292058","0.0-12.0-0.67","5b213220809d160001a2c36d","650c16f0f2faf8d7a0d14c09","651c1c70f89f19184fe3b578","null","null","<p style=""font-size: 60px; font-family: BACS"">Qcladkam</p>","","","","","","","","",""
"html-keyboard-response","238","293060","0.0-12.0-0.68","5b213220809d160001a2c36d","650c16f0f2faf8d7a0d14c09","651c1c70f89f19184fe3b578","null","null","<p style=""font-size: 60px; font-family: BACS"">tRdMPTl</p>","","","","","","","","",""
"html-keyboard-response","239","294061","0.0-12.0-0.69","5b213220809d160001a2c36d","650c16f0f2faf8d7a0d14c09","651c1c70f89f19184fe3b578","null","null","<p style=""font-size: 60px; font-family: BACS"">vJabZckv</p>","","","","","","","","",""
"html-keyboard-response","240","295062","0.0-12.0-0.70","5b213220809d160001a2c36d","650c16f0f2faf8d7a0d14c09","651c1c70f89f19184fe3b578","null","null","<p style=""font-size: 60px; font-family: BACS"">CmcOYBO</p>","","","","","","","","",""
"html-keyboard-response","241","296064","0.0-12.0-0.71","5b213220809d160001a2c36d","650c16f0f2faf8d7a0d14c09","651c1c70f89f19184fe3b578","null","null","<p style=""font-size: 60px; font-family: BACS"">rkJukam</p>","","","","","","","","",""
"html-keyboard-response","242","297065","0.0-12.0-0.72","5b213220809d160001a2c36d","650c16f0f2faf8d7a0d14c09","651c1c70f89f19184fe3b578","null","null","<p style=""font-size: 60px; font-family: BACS"">hbmAYBO</p>","","","","","","","","",""
"html-keyboard-response","243","298066","0.0-12.0-0.73","5b213220809d160001a2c36d","650c16f0f2faf8d7a0d14c09","651c1c70f89f19184fe3b578","null","null","<p style=""font-size: 60px; font-family: BACS"">AJLrLUOk</p>","","","","","","","","",""
"html-keyboard-response","244","299067","0.0-12.0-0.74","5b213220809d160001a2c36d","650c16f0f2faf8d7a0d14c09","651c1c70f89f19184fe3b578","null","null","<p style=""font-size: 60px; font-family: BACS"">vJabGUOA</p>","","","","","","","","",""
"html-keyboard-response","245","300069","0.0-12.0-0.75","5b213220809d160001a2c36d","650c16f0f2faf8d7a0d14c09","651c1c70f89f19184fe3b578","null","null","<p style=""font-size: 60px; font-family: BACS"">AJLrkam</p>","","","","","","","","",""
"html-keyboard-response","246","301070","0.0-12.0-0.76","5b213220809d160001a2c36d","650c16f0f2faf8d7a0d14c09","651c1c70f89f19184fe3b578","null","null","<p style=""font-size: 60px; font-family: BACS"">OAmGrGUOA</p>","","","","","","","","",""
"html-keyboard-response","247","302071","0.0-12.0-0.77","5b213220809d160001a2c36d","650c16f0f2faf8d7a0d14c09","651c1c70f89f19184fe3b578","null","null","<p style=""font-size: 60px; font-family: BACS"">GZJYkam</p>","","","","","","","","",""
"html-keyboard-response","248","303072","0.0-12.0-0.78","5b213220809d160001a2c36d","650c16f0f2faf8d7a0d14c09","651c1c70f89f19184fe3b578","null","null","<p style=""font-size: 60px; font-family: BACS"">hbmARCdc</p>","","","","","","","","",""
"html-keyboard-response","249","304074","0.0-12.0-0.79","5b213220809d160001a2c36d","650c16f0f2faf8d7a0d14c09","651c1c70f89f19184fe3b578","null","null","<p style=""font-size: 60px; font-family: BACS"">AJLrZckv</p>","","","","","","","","",""
"html-keyboard-response","250","310695","0.0-13.0","5b213220809d160001a2c36d","650c16f0f2faf8d7a0d14c09","651c1c70f89f19184fe3b578","6620"," ","<p>Great, you've seen the third block of words. You may now take a short break.</p>
      <p>Press the spacebar when you're ready to continue.</p>","","","","","","","","",""
"html-keyboard-response","251","311696","0.0-14.0-0.0","5b213220809d160001a2c36d","650c16f0f2faf8d7a0d14c09","651c1c70f89f19184fe3b578","null","null","<p style=""font-size: 60px; font-family: BACS"">rkJuZckv</p>","","","","","","","","",""
"html-keyboard-response","252","312698","0.0-14.0-0.1","5b213220809d160001a2c36d","650c16f0f2faf8d7a0d14c09","651c1c70f89f19184fe3b578","null","null","<p style=""font-size: 60px; font-family: BACS"">YObARCdc</p>","","","","","","","","",""
"html-keyboard-response","253","313698","0.0-14.0-0.2","5b213220809d160001a2c36d","650c16f0f2faf8d7a0d14c09","651c1c70f89f19184fe3b578","null","null","<p style=""font-size: 60px; font-family: BACS"">AJLrLUOk</p>","","","","","","","","",""
"html-keyboard-response","254","314699","0.0-14.0-0.3","5b213220809d160001a2c36d","650c16f0f2faf8d7a0d14c09","651c1c70f89f19184fe3b578","null","null","<p style=""font-size: 60px; font-family: BACS"">EhRmYDE</p>","","","","","","","","",""
"html-keyboard-response","255","315701","0.0-14.0-0.4","5b213220809d160001a2c36d","650c16f0f2faf8d7a0d14c09","651c1c70f89f19184fe3b578","null","null","<p style=""font-size: 60px; font-family: BACS"">OAmGrZckv</p>","","","","","","","","",""
"html-keyboard-response","256","316702","0.0-14.0-0.5","5b213220809d160001a2c36d","650c16f0f2faf8d7a0d14c09","651c1c70f89f19184fe3b578","null","null","<p style=""font-size: 60px; font-family: BACS"">YObAYBO</p>","","","","","","","","",""
"html-keyboard-response","257","317703","0.0-14.0-0.6","5b213220809d160001a2c36d","650c16f0f2faf8d7a0d14c09","651c1c70f89f19184fe3b578","null","null","<p style=""font-size: 60px; font-family: BACS"">GZJYJUNa</p>","","","","","","","","",""
"html-keyboard-response","258","318706","0.0-14.0-0.7","5b213220809d160001a2c36d","650c16f0f2faf8d7a0d14c09","651c1c70f89f19184fe3b578","null","null","<p style=""font-size: 60px; font-family: BACS"">PcBTPTl</p>","","","","","","","","",""
"html-keyboard-response","259","319707","0.0-14.0-0.8","5b213220809d160001a2c36d","650c16f0f2faf8d7a0d14c09","651c1c70f89f19184fe3b578","null","null","<p style=""font-size: 60px; font-family: BACS"">GZJYkam</p>","","","","","","","","",""
"html-keyboard-response","260","320709","0.0-14.0-0.9","5b213220809d160001a2c36d","650c16f0f2faf8d7a0d14c09","651c1c70f89f19184fe3b578","null","null","<p style=""font-size: 60px; font-family: BACS"">YObAkPM</p>","","","","","","","","",""
"html-keyboard-response","261","321710","0.0-14.0-0.10","5b213220809d160001a2c36d","650c16f0f2faf8d7a0d14c09","651c1c70f89f19184fe3b578","null","null","<p style=""font-size: 60px; font-family: BACS"">ZvalvLUOk</p>","","","","","","","","",""
"html-keyboard-response","262","322711","0.0-14.0-0.11","5b213220809d160001a2c36d","650c16f0f2faf8d7a0d14c09","651c1c70f89f19184fe3b578","null","null","<p style=""font-size: 60px; font-family: BACS"">KAERMYDE</p>","","","","","","","","",""
"html-keyboard-response","263","323713","0.0-14.0-0.12","5b213220809d160001a2c36d","650c16f0f2faf8d7a0d14c09","651c1c70f89f19184fe3b578","null","null","<p style=""font-size: 60px; font-family: BACS"">EhRmPTl</p>","","","","","","","","",""
"html-keyboard-response","264","324714","0.0-14.0-0.13","5b213220809d160001a2c36d","650c16f0f2faf8d7a0d14c09","651c1c70f89f19184fe3b578","null","null","<p style=""font-size: 60px; font-family: BACS"">hbmAkPM</p>","","","","","","","","",""
"html-keyboard-response","265","325715","0.0-14.0-0.14","5b213220809d160001a2c36d","650c16f0f2faf8d7a0d14c09","651c1c70f89f19184fe3b578","null","null","<p style=""font-size: 60px; font-family: BACS"">CmcORCdc</p>","","","","","","","","",""
"html-keyboard-response","266","326716","0.0-14.0-0.15","5b213220809d160001a2c36d","650c16f0f2faf8d7a0d14c09","651c1c70f89f19184fe3b578","null","null","<p style=""font-size: 60px; font-family: BACS"">bROCPTl</p>","","","","","","","","",""
"html-keyboard-response","267","327718","0.0-14.0-0.16","5b213220809d160001a2c36d","650c16f0f2faf8d7a0d14c09","651c1c70f89f19184fe3b578","null","null","<p style=""font-size: 60px; font-family: BACS"">hbmARCdc</p>","","","","","","","","",""
"html-keyboard-response","268","328719","0.0-14.0-0.17","5b213220809d160001a2c36d","650c16f0f2faf8d7a0d14c09","651c1c70f89f19184fe3b578","null","null","<p style=""font-size: 60px; font-family: BACS"">Zvalvkam</p>","","","","","","","","",""
"html-keyboard-response","269","329720","0.0-14.0-0.18","5b213220809d160001a2c36d","650c16f0f2faf8d7a0d14c09","651c1c70f89f19184fe3b578","null","null","<p style=""font-size: 60px; font-family: BACS"">LGkALUOk</p>","","","","","","","","",""
"html-keyboard-response","270","330721","0.0-14.0-0.19","5b213220809d160001a2c36d","650c16f0f2faf8d7a0d14c09","651c1c70f89f19184fe3b578","null","null","<p style=""font-size: 60px; font-family: BACS"">QcladGUOA</p>","","","","","","","","",""
"html-keyboard-response","271","331722","0.0-14.0-0.20","5b213220809d160001a2c36d","650c16f0f2faf8d7a0d14c09","651c1c70f89f19184fe3b578","null","null","<p style=""font-size: 60px; font-family: BACS"">rkJuLUOk</p>","","","","","","","","",""
"html-keyboard-response","272","332724","0.0-14.0-0.21","5b213220809d160001a2c36d","650c16f0f2faf8d7a0d14c09","651c1c70f89f19184fe3b578","null","null","<p style=""font-size: 60px; font-family: BACS"">LGkAJUNa</p>","","","","","","","","",""
"html-keyboard-response","273","333725","0.0-14.0-0.22","5b213220809d160001a2c36d","650c16f0f2faf8d7a0d14c09","651c1c70f89f19184fe3b578","null","null","<p style=""font-size: 60px; font-family: BACS"">AJLrZckv</p>","","","","","","","","",""
"html-keyboard-response","274","334726","0.0-14.0-0.23","5b213220809d160001a2c36d","650c16f0f2faf8d7a0d14c09","651c1c70f89f19184fe3b578","null","null","<p style=""font-size: 60px; font-family: BACS"">CmcOkPM</p>","","","","","","","","",""
"html-keyboard-response","275","335727","0.0-14.0-0.24","5b213220809d160001a2c36d","650c16f0f2faf8d7a0d14c09","651c1c70f89f19184fe3b578","null","null","<p style=""font-size: 60px; font-family: BACS"">AJLrGUOA</p>","","","","","","","","",""
"html-keyboard-response","276","336728","0.0-14.0-0.25","5b213220809d160001a2c36d","650c16f0f2faf8d7a0d14c09","651c1c70f89f19184fe3b578","null","null","<p style=""font-size: 60px; font-family: BACS"">tRdMRCdc</p>","","","","","","","","",""
"html-keyboard-response","277","337729","0.0-14.0-0.26","5b213220809d160001a2c36d","650c16f0f2faf8d7a0d14c09","651c1c70f89f19184fe3b578","null","null","<p style=""font-size: 60px; font-family: BACS"">QcladJUNa</p>","","","","","","","","",""
"html-keyboard-response","278","338731","0.0-14.0-0.27","5b213220809d160001a2c36d","650c16f0f2faf8d7a0d14c09","651c1c70f89f19184fe3b578","null","null","<p style=""font-size: 60px; font-family: BACS"">AYkEhPTl</p>","","","","","","","","",""
"html-keyboard-response","279","339732","0.0-14.0-0.28","5b213220809d160001a2c36d","650c16f0f2faf8d7a0d14c09","651c1c70f89f19184fe3b578","null","null","<p style=""font-size: 60px; font-family: BACS"">vJabLUOk</p>","","","","","","","","",""
"html-keyboard-response","280","340733","0.0-14.0-0.29","5b213220809d160001a2c36d","650c16f0f2faf8d7a0d14c09","651c1c70f89f19184fe3b578","null","null","<p style=""font-size: 60px; font-family: BACS"">rkJukam</p>","","","","","","","","",""
"html-keyboard-response","281","341734","0.0-14.0-0.30","5b213220809d160001a2c36d","650c16f0f2faf8d7a0d14c09","651c1c70f89f19184fe3b578","null","null","<p style=""font-size: 60px; font-family: BACS"">bROCYBO</p>","","","","","","","","",""
"html-keyboard-response","282","342736","0.0-14.0-0.31","5b213220809d160001a2c36d","650c16f0f2faf8d7a0d14c09","651c1c70f89f19184fe3b578","null","null","<p style=""font-size: 60px; font-family: BACS"">GZJYGUOA</p>","","","","","","","","",""
"html-keyboard-response","283","343738","0.0-14.0-0.32","5b213220809d160001a2c36d","650c16f0f2faf8d7a0d14c09","651c1c70f89f19184fe3b578","null","null","<p style=""font-size: 60px; font-family: BACS"">OmtlDkPM</p>","","","","","","","","",""
"html-keyboard-response","284","344738","0.0-14.0-0.33","5b213220809d160001a2c36d","650c16f0f2faf8d7a0d14c09","651c1c70f89f19184fe3b578","null","null","<p style=""font-size: 60px; font-family: BACS"">OAmGrkam</p>","","","","","","","","",""
"html-keyboard-response","285","345740","0.0-14.0-0.34","5b213220809d160001a2c36d","650c16f0f2faf8d7a0d14c09","651c1c70f89f19184fe3b578","null","null","<p style=""font-size: 60px; font-family: BACS"">EhRmRCdc</p>","","","","","","","","",""
"html-keyboard-response","286","346741","0.0-14.0-0.35","5b213220809d160001a2c36d","650c16f0f2faf8d7a0d14c09","651c1c70f89f19184fe3b578","null","null","<p style=""font-size: 60px; font-family: BACS"">AYkEhYBO</p>","","","","","","","","",""
"html-keyboard-response","287","347742","0.0-14.0-0.36","5b213220809d160001a2c36d","650c16f0f2faf8d7a0d14c09","651c1c70f89f19184fe3b578","null","null","<p style=""font-size: 60px; font-family: BACS"">OAmGrGUOA</p>","","","","","","","","",""
"html-keyboard-response","288","348743","0.0-14.0-0.37","5b213220809d160001a2c36d","650c16f0f2faf8d7a0d14c09","651c1c70f89f19184fe3b578","null","null","<p style=""font-size: 60px; font-family: BACS"">bROCRCdc</p>","","","","","","","","",""
"html-keyboard-response","289","349745","0.0-14.0-0.38","5b213220809d160001a2c36d","650c16f0f2faf8d7a0d14c09","651c1c70f89f19184fe3b578","null","null","<p style=""font-size: 60px; font-family: BACS"">KAERMYBO</p>","","","","","","","","",""
"html-keyboard-response","290","350746","0.0-14.0-0.39","5b213220809d160001a2c36d","650c16f0f2faf8d7a0d14c09","651c1c70f89f19184fe3b578","null","null","<p style=""font-size: 60px; font-family: BACS"">tRdMkPM</p>","","","","","","","","",""
"html-keyboard-response","291","351747","0.0-14.0-0.40","5b213220809d160001a2c36d","650c16f0f2faf8d7a0d14c09","651c1c70f89f19184fe3b578","null","null","<p style=""font-size: 60px; font-family: BACS"">hbmAPTl</p>","","","","","","","","",""
"html-keyboard-response","292","352749","0.0-14.0-0.41","5b213220809d160001a2c36d","650c16f0f2faf8d7a0d14c09","651c1c70f89f19184fe3b578","null","null","<p style=""font-size: 60px; font-family: BACS"">alJYJUNa</p>","","","","","","","","",""
"html-keyboard-response","293","353750","0.0-14.0-0.42","5b213220809d160001a2c36d","650c16f0f2faf8d7a0d14c09","651c1c70f89f19184fe3b578","null","null","<p style=""font-size: 60px; font-family: BACS"">PcBTYBO</p>","","","","","","","","",""
"html-keyboard-response","294","354751","0.0-14.0-0.43","5b213220809d160001a2c36d","650c16f0f2faf8d7a0d14c09","651c1c70f89f19184fe3b578","null","null","<p style=""font-size: 60px; font-family: BACS"">LGkAkam</p>","","","","","","","","",""
"html-keyboard-response","295","355752","0.0-14.0-0.44","5b213220809d160001a2c36d","650c16f0f2faf8d7a0d14c09","651c1c70f89f19184fe3b578","null","null","<p style=""font-size: 60px; font-family: BACS"">tRdMPTl</p>","","","","","","","","",""
"html-keyboard-response","296","356754","0.0-14.0-0.45","5b213220809d160001a2c36d","650c16f0f2faf8d7a0d14c09","651c1c70f89f19184fe3b578","null","null","<p style=""font-size: 60px; font-family: BACS"">Qcladkam</p>","","","","","","","","",""
"html-keyboard-response","297","357756","0.0-14.0-0.46","5b213220809d160001a2c36d","650c16f0f2faf8d7a0d14c09","651c1c70f89f19184fe3b578","null","null","<p style=""font-size: 60px; font-family: BACS"">vJabJUNa</p>","","","","","","","","",""
"html-keyboard-response","298","358757","0.0-14.0-0.47","5b213220809d160001a2c36d","650c16f0f2faf8d7a0d14c09","651c1c70f89f19184fe3b578","null","null","<p style=""font-size: 60px; font-family: BACS"">KAERMPTl</p>","","","","","","","","",""
"html-keyboard-response","299","359758","0.0-14.0-0.48","5b213220809d160001a2c36d","650c16f0f2faf8d7a0d14c09","651c1c70f89f19184fe3b578","null","null","<p style=""font-size: 60px; font-family: BACS"">PcBTYDE</p>","","","","","","","","",""
"html-keyboard-response","300","360759","0.0-14.0-0.49","5b213220809d160001a2c36d","650c16f0f2faf8d7a0d14c09","651c1c70f89f19184fe3b578","null","null","<p style=""font-size: 60px; font-family: BACS"">CmcOYBO</p>","","","","","","","","",""
"html-keyboard-response","301","361760","0.0-14.0-0.50","5b213220809d160001a2c36d","650c16f0f2faf8d7a0d14c09","651c1c70f89f19184fe3b578","null","null","<p style=""font-size: 60px; font-family: BACS"">LGkAZckv</p>","","","","","","","","",""
"html-keyboard-response","302","362761","0.0-14.0-0.51","5b213220809d160001a2c36d","650c16f0f2faf8d7a0d14c09","651c1c70f89f19184fe3b578","null","null","<p style=""font-size: 60px; font-family: BACS"">bROCYDE</p>","","","","","","","","",""
"html-keyboard-response","303","363762","0.0-14.0-0.52","5b213220809d160001a2c36d","650c16f0f2faf8d7a0d14c09","651c1c70f89f19184fe3b578","null","null","<p style=""font-size: 60px; font-family: BACS"">AYkEhRCdc</p>","","","","","","","","",""
"html-keyboard-response","304","364763","0.0-14.0-0.53","5b213220809d160001a2c36d","650c16f0f2faf8d7a0d14c09","651c1c70f89f19184fe3b578","null","null","<p style=""font-size: 60px; font-family: BACS"">OmtlDYBO</p>","","","","","","","","",""
"html-keyboard-response","305","365765","0.0-14.0-0.54","5b213220809d160001a2c36d","650c16f0f2faf8d7a0d14c09","651c1c70f89f19184fe3b578","null","null","<p style=""font-size: 60px; font-family: BACS"">PcBTkPM</p>","","","","","","","","",""
"html-keyboard-response","306","366766","0.0-14.0-0.55","5b213220809d160001a2c36d","650c16f0f2faf8d7a0d14c09","651c1c70f89f19184fe3b578","null","null","<p style=""font-size: 60px; font-family: BACS"">OmtlDRCdc</p>","","","","","","","","",""
"html-keyboard-response","307","367768","0.0-14.0-0.56","5b213220809d160001a2c36d","650c16f0f2faf8d7a0d14c09","651c1c70f89f19184fe3b578","null","null","<p style=""font-size: 60px; font-family: BACS"">GZJYZckv</p>","","","","","","","","",""
"html-keyboard-response","308","368768","0.0-14.0-0.57","5b213220809d160001a2c36d","650c16f0f2faf8d7a0d14c09","651c1c70f89f19184fe3b578","null","null","<p style=""font-size: 60px; font-family: BACS"">ZvalvGUOA</p>","","","","","","","","",""
"html-keyboard-response","309","369770","0.0-14.0-0.58","5b213220809d160001a2c36d","650c16f0f2faf8d7a0d14c09","651c1c70f89f19184fe3b578","null","null","<p style=""font-size: 60px; font-family: BACS"">vJabZckv</p>","","","","","","","","",""
"html-keyboard-response","310","370771","0.0-14.0-0.59","5b213220809d160001a2c36d","650c16f0f2faf8d7a0d14c09","651c1c70f89f19184fe3b578","null","null","<p style=""font-size: 60px; font-family: BACS"">ZvalvJUNa</p>","","","","","","","","",""
"html-keyboard-response","311","371772","0.0-14.0-0.60","5b213220809d160001a2c36d","650c16f0f2faf8d7a0d14c09","651c1c70f89f19184fe3b578","null","null","<p style=""font-size: 60px; font-family: BACS"">alJYLUOk</p>","","","","","","","","",""
"html-keyboard-response","312","372774","0.0-14.0-0.61","5b213220809d160001a2c36d","650c16f0f2faf8d7a0d14c09","651c1c70f89f19184fe3b578","null","null","<p style=""font-size: 60px; font-family: BACS"">udkmZckv</p>","","","","","","","","",""
"html-keyboard-response","313","373775","0.0-14.0-0.62","5b213220809d160001a2c36d","650c16f0f2faf8d7a0d14c09","651c1c70f89f19184fe3b578","null","null","<p style=""font-size: 60px; font-family: BACS"">OAmGrJUNa</p>","","","","","","","","",""
"html-keyboard-response","314","374776","0.0-14.0-0.63","5b213220809d160001a2c36d","650c16f0f2faf8d7a0d14c09","651c1c70f89f19184fe3b578","null","null","<p style=""font-size: 60px; font-family: BACS"">vJabGUOA</p>","","","","","","","","",""
"html-keyboard-response","315","375777","0.0-14.0-0.64","5b213220809d160001a2c36d","650c16f0f2faf8d7a0d14c09","651c1c70f89f19184fe3b578","null","null","<p style=""font-size: 60px; font-family: BACS"">alJYZckv</p>","","","","","","","","",""
"html-keyboard-response","316","376778","0.0-14.0-0.65","5b213220809d160001a2c36d","650c16f0f2faf8d7a0d14c09","651c1c70f89f19184fe3b578","null","null","<p style=""font-size: 60px; font-family: BACS"">AYkEhYDE</p>","","","","","","","","",""
"html-keyboard-response","317","377779","0.0-14.0-0.66","5b213220809d160001a2c36d","650c16f0f2faf8d7a0d14c09","651c1c70f89f19184fe3b578","null","null","<p style=""font-size: 60px; font-family: BACS"">AJLrkam</p>","","","","","","","","",""
"html-keyboard-response","318","378780","0.0-14.0-0.67","5b213220809d160001a2c36d","650c16f0f2faf8d7a0d14c09","651c1c70f89f19184fe3b578","null","null","<p style=""font-size: 60px; font-family: BACS"">OmtlDYDE</p>","","","","","","","","",""
"html-keyboard-response","319","379782","0.0-14.0-0.68","5b213220809d160001a2c36d","650c16f0f2faf8d7a0d14c09","651c1c70f89f19184fe3b578","null","null","<p style=""font-size: 60px; font-family: BACS"">udkmLUOk</p>","","","","","","","","",""
"html-keyboard-response","320","380783","0.0-14.0-0.69","5b213220809d160001a2c36d","650c16f0f2faf8d7a0d14c09","651c1c70f89f19184fe3b578","null","null","<p style=""font-size: 60px; font-family: BACS"">KAERMkPM</p>","","","","","","","","",""
"html-keyboard-response","321","381785","0.0-14.0-0.70","5b213220809d160001a2c36d","650c16f0f2faf8d7a0d14c09","651c1c70f89f19184fe3b578","null","null","<p style=""font-size: 60px; font-family: BACS"">alJYGUOA</p>","","","","","","","","",""
"html-keyboard-response","322","382786","0.0-14.0-0.71","5b213220809d160001a2c36d","650c16f0f2faf8d7a0d14c09","651c1c70f89f19184fe3b578","null","null","<p style=""font-size: 60px; font-family: BACS"">CmcOPTl</p>","","","","","","","","",""
"html-keyboard-response","323","383787","0.0-14.0-0.72","5b213220809d160001a2c36d","650c16f0f2faf8d7a0d14c09","651c1c70f89f19184fe3b578","null","null","<p style=""font-size: 60px; font-family: BACS"">YObAYDE</p>","","","","","","","","",""
"html-keyboard-response","324","384788","0.0-14.0-0.73","5b213220809d160001a2c36d","650c16f0f2faf8d7a0d14c09","651c1c70f89f19184fe3b578","null","null","<p style=""font-size: 60px; font-family: BACS"">udkmGUOA</p>","","","","","","","","",""
"html-keyboard-response","325","385789","0.0-14.0-0.74","5b213220809d160001a2c36d","650c16f0f2faf8d7a0d14c09","651c1c70f89f19184fe3b578","null","null","<p style=""font-size: 60px; font-family: BACS"">QcladLUOk</p>","","","","","","","","",""
"html-keyboard-response","326","386790","0.0-14.0-0.75","5b213220809d160001a2c36d","650c16f0f2faf8d7a0d14c09","651c1c70f89f19184fe3b578","null","null","<p style=""font-size: 60px; font-family: BACS"">EhRmkPM</p>","","","","","","","","",""
"html-keyboard-response","327","387792","0.0-14.0-0.76","5b213220809d160001a2c36d","650c16f0f2faf8d7a0d14c09","651c1c70f89f19184fe3b578","null","null","<p style=""font-size: 60px; font-family: BACS"">tRdMYDE</p>","","","","","","","","",""
"html-keyboard-response","328","388794","0.0-14.0-0.77","5b213220809d160001a2c36d","650c16f0f2faf8d7a0d14c09","651c1c70f89f19184fe3b578","null","null","<p style=""font-size: 60px; font-family: BACS"">udkmkam</p>","","","","","","","","",""
"html-keyboard-response","329","389795","0.0-14.0-0.78","5b213220809d160001a2c36d","650c16f0f2faf8d7a0d14c09","651c1c70f89f19184fe3b578","null","null","<p style=""font-size: 60px; font-family: BACS"">rkJuJUNa</p>","","","","","","","","",""
"html-keyboard-response","330","390796","0.0-14.0-0.79","5b213220809d160001a2c36d","650c16f0f2faf8d7a0d14c09","651c1c70f89f19184fe3b578","null","null","<p style=""font-size: 60px; font-family: BACS"">hbmAYBO</p>","","","","","","","","",""
"html-keyboard-response","331","394900","0.0-15.0","5b213220809d160001a2c36d","650c16f0f2faf8d7a0d14c09","651c1c70f89f19184fe3b578","4103"," ","<p>Great, you've seen the fourth block of words. You may now take a short break.</p>
      <p>Press the spacebar when you're ready to continue.</p>","","","","","","","","",""
"html-keyboard-response","332","395901","0.0-16.0-0.0","5b213220809d160001a2c36d","650c16f0f2faf8d7a0d14c09","651c1c70f89f19184fe3b578","null","null","<p style=""font-size: 60px; font-family: BACS"">KAERMYDE</p>","","","","","","","","",""
"html-keyboard-response","333","396901","0.0-16.0-0.1","5b213220809d160001a2c36d","650c16f0f2faf8d7a0d14c09","651c1c70f89f19184fe3b578","null","null","<p style=""font-size: 60px; font-family: BACS"">KAERMYDE</p>","","","","","","","","",""
"html-keyboard-response","334","397904","0.0-16.0-0.2","5b213220809d160001a2c36d","650c16f0f2faf8d7a0d14c09","651c1c70f89f19184fe3b578","null","null","<p style=""font-size: 60px; font-family: BACS"">KAERMYDE</p>","","","","","","","","",""
"html-keyboard-response","335","398905","0.0-16.0-0.3","5b213220809d160001a2c36d","650c16f0f2faf8d7a0d14c09","651c1c70f89f19184fe3b578","null","null","<p style=""font-size: 60px; font-family: BACS"">KAERMYDE</p>","","","","","","","","",""
"html-keyboard-response","336","399906","0.0-16.0-0.4","5b213220809d160001a2c36d","650c16f0f2faf8d7a0d14c09","651c1c70f89f19184fe3b578","null","null","<p style=""font-size: 60px; font-family: BACS"">KAERMYDE</p>","","","","","","","","",""
"html-keyboard-response","337","400907","0.0-16.0-0.5","5b213220809d160001a2c36d","650c16f0f2faf8d7a0d14c09","651c1c70f89f19184fe3b578","null","null","<p style=""font-size: 60px; font-family: BACS"">KAERMYDE</p>","","","","","","","","",""
"html-keyboard-response","338","401909","0.0-16.0-0.6","5b213220809d160001a2c36d","650c16f0f2faf8d7a0d14c09","651c1c70f89f19184fe3b578","null","null","<p style=""font-size: 60px; font-family: BACS"">KAERMYDE</p>","","","","","","","","",""
"html-keyboard-response","339","402910","0.0-16.0-0.7","5b213220809d160001a2c36d","650c16f0f2faf8d7a0d14c09","651c1c70f89f19184fe3b578","null","null","<p style=""font-size: 60px; font-family: BACS"">KAERMYDE</p>","","","","","","","","",""
"html-keyboard-response","340","403911","0.0-16.0-0.8","5b213220809d160001a2c36d","650c16f0f2faf8d7a0d14c09","651c1c70f89f19184fe3b578","null","null","<p style=""font-size: 60px; font-family: BACS"">KAERMYDE</p>","","","","","","","","",""
"html-keyboard-response","341","404912","0.0-16.0-0.9","5b213220809d160001a2c36d","650c16f0f2faf8d7a0d14c09","651c1c70f89f19184fe3b578","null","null","<p style=""font-size: 60px; font-family: BACS"">KAERMYDE</p>","","","","","","","","",""
"html-keyboard-response","342","405913","0.0-16.0-0.10","5b213220809d160001a2c36d","650c16f0f2faf8d7a0d14c09","651c1c70f89f19184fe3b578","null","null","<p style=""font-size: 60px; font-family: BACS"">KAERMYDE</p>","","","","","","","","",""
"html-keyboard-response","343","406915","0.0-16.0-0.11","5b213220809d160001a2c36d","650c16f0f2faf8d7a0d14c09","651c1c70f89f19184fe3b578","null","null","<p style=""font-size: 60px; font-family: BACS"">KAERMYDE</p>","","","","","","","","",""
"html-keyboard-response","344","407916","0.0-16.0-0.12","5b213220809d160001a2c36d","650c16f0f2faf8d7a0d14c09","651c1c70f89f19184fe3b578","null","null","<p style=""font-size: 60px; font-family: BACS"">KAERMYDE</p>","","","","","","","","",""
"html-keyboard-response","345","408918","0.0-16.0-0.13","5b213220809d160001a2c36d","650c16f0f2faf8d7a0d14c09","651c1c70f89f19184fe3b578","null","null","<p style=""font-size: 60px; font-family: BACS"">KAERMYDE</p>","","","","","","","","",""
"html-keyboard-response","346","409919","0.0-16.0-0.14","5b213220809d160001a2c36d","650c16f0f2faf8d7a0d14c09","651c1c70f89f19184fe3b578","null","null","<p style=""font-size: 60px; font-family: BACS"">KAERMYDE</p>","","","","","","","","",""
"html-keyboard-response","347","410920","0.0-16.0-0.15","5b213220809d160001a2c36d","650c16f0f2faf8d7a0d14c09","651c1c70f89f19184fe3b578","null","null","<p style=""font-size: 60px; font-family: BACS"">KAERMYDE</p>","","","","","","","","",""
"html-keyboard-response","348","411922","0.0-16.0-0.16","5b213220809d160001a2c36d","650c16f0f2faf8d7a0d14c09","651c1c70f89f19184fe3b578","null","null","<p style=""font-size: 60px; font-family: BACS"">KAERMYDE</p>","","","","","","","","",""
"html-keyboard-response","349","412926","0.0-16.0-0.17","5b213220809d160001a2c36d","650c16f0f2faf8d7a0d14c09","651c1c70f89f19184fe3b578","null","null","<p style=""font-size: 60px; font-family: BACS"">KAERMYDE</p>","","","","","","","","",""
"html-keyboard-response","350","413929","0.0-16.0-0.18","5b213220809d160001a2c36d","650c16f0f2faf8d7a0d14c09","651c1c70f89f19184fe3b578","null","null","<p style=""font-size: 60px; font-family: BACS"">KAERMYDE</p>","","","","","","","","",""
"html-keyboard-response","351","414931","0.0-16.0-0.19","5b213220809d160001a2c36d","650c16f0f2faf8d7a0d14c09","651c1c70f89f19184fe3b578","null","null","<p style=""font-size: 60px; font-family: BACS"">KAERMYDE</p>","","","","","","","","",""
"html-keyboard-response","352","415932","0.0-16.0-0.20","5b213220809d160001a2c36d","650c16f0f2faf8d7a0d14c09","651c1c70f89f19184fe3b578","null","null","<p style=""font-size: 60px; font-family: BACS"">KAERMYDE</p>","","","","","","","","",""
"html-keyboard-response","353","416933","0.0-16.0-0.21","5b213220809d160001a2c36d","650c16f0f2faf8d7a0d14c09","651c1c70f89f19184fe3b578","null","null","<p style=""font-size: 60px; font-family: BACS"">KAERMYDE</p>","","","","","","","","",""
"html-keyboard-response","354","417935","0.0-16.0-0.22","5b213220809d160001a2c36d","650c16f0f2faf8d7a0d14c09","651c1c70f89f19184fe3b578","null","null","<p style=""font-size: 60px; font-family: BACS"">KAERMYDE</p>","","","","","","","","",""
"html-keyboard-response","355","418936","0.0-16.0-0.23","5b213220809d160001a2c36d","650c16f0f2faf8d7a0d14c09","651c1c70f89f19184fe3b578","null","null","<p style=""font-size: 60px; font-family: BACS"">KAERMYDE</p>","","","","","","","","",""
"html-keyboard-response","356","419937","0.0-16.0-0.24","5b213220809d160001a2c36d","650c16f0f2faf8d7a0d14c09","651c1c70f89f19184fe3b578","null","null","<p style=""font-size: 60px; font-family: BACS"">KAERMYDE</p>","","","","","","","","",""
"html-keyboard-response","357","420938","0.0-16.0-0.25","5b213220809d160001a2c36d","650c16f0f2faf8d7a0d14c09","651c1c70f89f19184fe3b578","null","null","<p style=""font-size: 60px; font-family: BACS"">KAERMYDE</p>","","","","","","","","",""
"html-keyboard-response","358","421939","0.0-16.0-0.26","5b213220809d160001a2c36d","650c16f0f2faf8d7a0d14c09","651c1c70f89f19184fe3b578","null","null","<p style=""font-size: 60px; font-family: BACS"">KAERMYDE</p>","","","","","","","","",""
"html-keyboard-response","359","422941","0.0-16.0-0.27","5b213220809d160001a2c36d","650c16f0f2faf8d7a0d14c09","651c1c70f89f19184fe3b578","null","null","<p style=""font-size: 60px; font-family: BACS"">KAERMYDE</p>","","","","","","","","",""
"html-keyboard-response","360","423942","0.0-16.0-0.28","5b213220809d160001a2c36d","650c16f0f2faf8d7a0d14c09","651c1c70f89f19184fe3b578","null","null","<p style=""font-size: 60px; font-family: BACS"">KAERMYDE</p>","","","","","","","","",""
"html-keyboard-response","361","424943","0.0-16.0-0.29","5b213220809d160001a2c36d","650c16f0f2faf8d7a0d14c09","651c1c70f89f19184fe3b578","null","null","<p style=""font-size: 60px; font-family: BACS"">KAERMYDE</p>","","","","","","","","",""
"html-keyboard-response","362","425944","0.0-16.0-0.30","5b213220809d160001a2c36d","650c16f0f2faf8d7a0d14c09","651c1c70f89f19184fe3b578","null","null","<p style=""font-size: 60px; font-family: BACS"">KAERMYDE</p>","","","","","","","","",""
"html-keyboard-response","363","426945","0.0-16.0-0.31","5b213220809d160001a2c36d","650c16f0f2faf8d7a0d14c09","651c1c70f89f19184fe3b578","null","null","<p style=""font-size: 60px; font-family: BACS"">KAERMYDE</p>","","","","","","","","",""
"html-keyboard-response","364","427947","0.0-16.0-0.32","5b213220809d160001a2c36d","650c16f0f2faf8d7a0d14c09","651c1c70f89f19184fe3b578","null","null","<p style=""font-size: 60px; font-family: BACS"">KAERMYDE</p>","","","","","","","","",""
"html-keyboard-response","365","428948","0.0-16.0-0.33","5b213220809d160001a2c36d","650c16f0f2faf8d7a0d14c09","651c1c70f89f19184fe3b578","null","null","<p style=""font-size: 60px; font-family: BACS"">KAERMYDE</p>","","","","","","","","",""
"html-keyboard-response","366","429948","0.0-16.0-0.34","5b213220809d160001a2c36d","650c16f0f2faf8d7a0d14c09","651c1c70f89f19184fe3b578","null","null","<p style=""font-size: 60px; font-family: BACS"">KAERMYDE</p>","","","","","","","","",""
"html-keyboard-response","367","430950","0.0-16.0-0.35","5b213220809d160001a2c36d","650c16f0f2faf8d7a0d14c09","651c1c70f89f19184fe3b578","null","null","<p style=""font-size: 60px; font-family: BACS"">KAERMYDE</p>","","","","","","","","",""
"html-keyboard-response","368","431951","0.0-16.0-0.36","5b213220809d160001a2c36d","650c16f0f2faf8d7a0d14c09","651c1c70f89f19184fe3b578","null","null","<p style=""font-size: 60px; font-family: BACS"">KAERMYDE</p>","","","","","","","","",""
"html-keyboard-response","369","432953","0.0-16.0-0.37","5b213220809d160001a2c36d","650c16f0f2faf8d7a0d14c09","651c1c70f89f19184fe3b578","null","null","<p style=""font-size: 60px; font-family: BACS"">KAERMYDE</p>","","","","","","","","",""
"html-keyboard-response","370","433954","0.0-16.0-0.38","5b213220809d160001a2c36d","650c16f0f2faf8d7a0d14c09","651c1c70f89f19184fe3b578","null","null","<p style=""font-size: 60px; font-family: BACS"">KAERMYDE</p>","","","","","","","","",""
"html-keyboard-response","371","434955","0.0-16.0-0.39","5b213220809d160001a2c36d","650c16f0f2faf8d7a0d14c09","651c1c70f89f19184fe3b578","null","null","<p style=""font-size: 60px; font-family: BACS"">KAERMYDE</p>","","","","","","","","",""
"html-keyboard-response","372","435957","0.0-16.0-0.40","5b213220809d160001a2c36d","650c16f0f2faf8d7a0d14c09","651c1c70f89f19184fe3b578","null","null","<p style=""font-size: 60px; font-family: BACS"">KAERMYDE</p>","","","","","","","","",""
"html-keyboard-response","373","436958","0.0-16.0-0.41","5b213220809d160001a2c36d","650c16f0f2faf8d7a0d14c09","651c1c70f89f19184fe3b578","null","null","<p style=""font-size: 60px; font-family: BACS"">KAERMYDE</p>","","","","","","","","",""
"html-keyboard-response","374","437960","0.0-16.0-0.42","5b213220809d160001a2c36d","650c16f0f2faf8d7a0d14c09","651c1c70f89f19184fe3b578","null","null","<p style=""font-size: 60px; font-family: BACS"">KAERMYDE</p>","","","","","","","","",""
"html-keyboard-response","375","438961","0.0-16.0-0.43","5b213220809d160001a2c36d","650c16f0f2faf8d7a0d14c09","651c1c70f89f19184fe3b578","null","null","<p style=""font-size: 60px; font-family: BACS"">KAERMYDE</p>","","","","","","","","",""
"html-keyboard-response","376","439962","0.0-16.0-0.44","5b213220809d160001a2c36d","650c16f0f2faf8d7a0d14c09","651c1c70f89f19184fe3b578","null","null","<p style=""font-size: 60px; font-family: BACS"">KAERMYDE</p>","","","","","","","","",""
"html-keyboard-response","377","440964","0.0-16.0-0.45","5b213220809d160001a2c36d","650c16f0f2faf8d7a0d14c09","651c1c70f89f19184fe3b578","null","null","<p style=""font-size: 60px; font-family: BACS"">KAERMYDE</p>","","","","","","","","",""
"html-keyboard-response","378","441965","0.0-16.0-0.46","5b213220809d160001a2c36d","650c16f0f2faf8d7a0d14c09","651c1c70f89f19184fe3b578","null","null","<p style=""font-size: 60px; font-family: BACS"">KAERMYDE</p>","","","","","","","","",""
"html-keyboard-response","379","442967","0.0-16.0-0.47","5b213220809d160001a2c36d","650c16f0f2faf8d7a0d14c09","651c1c70f89f19184fe3b578","null","null","<p style=""font-size: 60px; font-family: BACS"">KAERMYDE</p>","","","","","","","","",""
"html-keyboard-response","380","443968","0.0-16.0-0.48","5b213220809d160001a2c36d","650c16f0f2faf8d7a0d14c09","651c1c70f89f19184fe3b578","null","null","<p style=""font-size: 60px; font-family: BACS"">KAERMYDE</p>","","","","","","","","",""
"html-keyboard-response","381","444970","0.0-16.0-0.49","5b213220809d160001a2c36d","650c16f0f2faf8d7a0d14c09","651c1c70f89f19184fe3b578","null","null","<p style=""font-size: 60px; font-family: BACS"">KAERMYDE</p>","","","","","","","","",""
"html-keyboard-response","382","445971","0.0-16.0-0.50","5b213220809d160001a2c36d","650c16f0f2faf8d7a0d14c09","651c1c70f89f19184fe3b578","null","null","<p style=""font-size: 60px; font-family: BACS"">KAERMYDE</p>","","","","","","","","",""
"html-keyboard-response","383","446972","0.0-16.0-0.51","5b213220809d160001a2c36d","650c16f0f2faf8d7a0d14c09","651c1c70f89f19184fe3b578","null","null","<p style=""font-size: 60px; font-family: BACS"">KAERMYDE</p>","","","","","","","","",""
"html-keyboard-response","384","447973","0.0-16.0-0.52","5b213220809d160001a2c36d","650c16f0f2faf8d7a0d14c09","651c1c70f89f19184fe3b578","null","null","<p style=""font-size: 60px; font-family: BACS"">KAERMYDE</p>","","","","","","","","",""
"html-keyboard-response","385","448975","0.0-16.0-0.53","5b213220809d160001a2c36d","650c16f0f2faf8d7a0d14c09","651c1c70f89f19184fe3b578","null","null","<p style=""font-size: 60px; font-family: BACS"">KAERMYDE</p>","","","","","","","","",""
"html-keyboard-response","386","449976","0.0-16.0-0.54","5b213220809d160001a2c36d","650c16f0f2faf8d7a0d14c09","651c1c70f89f19184fe3b578","null","null","<p style=""font-size: 60px; font-family: BACS"">KAERMYDE</p>","","","","","","","","",""
"html-keyboard-response","387","450977","0.0-16.0-0.55","5b213220809d160001a2c36d","650c16f0f2faf8d7a0d14c09","651c1c70f89f19184fe3b578","null","null","<p style=""font-size: 60px; font-family: BACS"">KAERMYDE</p>","","","","","","","","",""
"html-keyboard-response","388","451979","0.0-16.0-0.56","5b213220809d160001a2c36d","650c16f0f2faf8d7a0d14c09","651c1c70f89f19184fe3b578","null","null","<p style=""font-size: 60px; font-family: BACS"">KAERMYDE</p>","","","","","","","","",""
"html-keyboard-response","389","452980","0.0-16.0-0.57","5b213220809d160001a2c36d","650c16f0f2faf8d7a0d14c09","651c1c70f89f19184fe3b578","null","null","<p style=""font-size: 60px; font-family: BACS"">KAERMYDE</p>","","","","","","","","",""
"html-keyboard-response","390","453981","0.0-16.0-0.58","5b213220809d160001a2c36d","650c16f0f2faf8d7a0d14c09","651c1c70f89f19184fe3b578","null","null","<p style=""font-size: 60px; font-family: BACS"">KAERMYDE</p>","","","","","","","","",""
"html-keyboard-response","391","454982","0.0-16.0-0.59","5b213220809d160001a2c36d","650c16f0f2faf8d7a0d14c09","651c1c70f89f19184fe3b578","null","null","<p style=""font-size: 60px; font-family: BACS"">KAERMYDE</p>","","","","","","","","",""
"html-keyboard-response","392","455984","0.0-16.0-0.60","5b213220809d160001a2c36d","650c16f0f2faf8d7a0d14c09","651c1c70f89f19184fe3b578","null","null","<p style=""font-size: 60px; font-family: BACS"">KAERMYDE</p>","","","","","","","","",""
"html-keyboard-response","393","456985","0.0-16.0-0.61","5b213220809d160001a2c36d","650c16f0f2faf8d7a0d14c09","651c1c70f89f19184fe3b578","null","null","<p style=""font-size: 60px; font-family: BACS"">KAERMYDE</p>","","","","","","","","",""
"html-keyboard-response","394","457987","0.0-16.0-0.62","5b213220809d160001a2c36d","650c16f0f2faf8d7a0d14c09","651c1c70f89f19184fe3b578","null","null","<p style=""font-size: 60px; font-family: BACS"">KAERMYDE</p>","","","","","","","","",""
"html-keyboard-response","395","458988","0.0-16.0-0.63","5b213220809d160001a2c36d","650c16f0f2faf8d7a0d14c09","651c1c70f89f19184fe3b578","null","null","<p style=""font-size: 60px; font-family: BACS"">KAERMYDE</p>","","","","","","","","",""
"html-keyboard-response","396","459989","0.0-16.0-0.64","5b213220809d160001a2c36d","650c16f0f2faf8d7a0d14c09","651c1c70f89f19184fe3b578","null","null","<p style=""font-size: 60px; font-family: BACS"">KAERMYDE</p>","","","","","","","","",""
"html-keyboard-response","397","460991","0.0-16.0-0.65","5b213220809d160001a2c36d","650c16f0f2faf8d7a0d14c09","651c1c70f89f19184fe3b578","null","null","<p style=""font-size: 60px; font-family: BACS"">KAERMYDE</p>","","","","","","","","",""
"html-keyboard-response","398","461992","0.0-16.0-0.66","5b213220809d160001a2c36d","650c16f0f2faf8d7a0d14c09","651c1c70f89f19184fe3b578","null","null","<p style=""font-size: 60px; font-family: BACS"">KAERMYDE</p>","","","","","","","","",""
"html-keyboard-response","399","462993","0.0-16.0-0.67","5b213220809d160001a2c36d","650c16f0f2faf8d7a0d14c09","651c1c70f89f19184fe3b578","null","null","<p style=""font-size: 60px; font-family: BACS"">KAERMYDE</p>","","","","","","","","",""
"html-keyboard-response","400","463994","0.0-16.0-0.68","5b213220809d160001a2c36d","650c16f0f2faf8d7a0d14c09","651c1c70f89f19184fe3b578","null","null","<p style=""font-size: 60px; font-family: BACS"">KAERMYDE</p>","","","","","","","","",""
