"trial_type","trial_index","time_elapsed","internal_node_id","subject_id","study_id","session_id","rt","response","stimulus","success","item","task","correct_response","testing_condition","correct","target","confound","name"
"pavlovia","0","1406","0.0-0.0","60db4aed5dd7b87124f51341","650c16f0f2faf8d7a0d14c09","651c1d358c21c8304b9a84cd","","","","","","","","","","","",""
"survey-html-form","1","16325","0.0-1.0","60db4aed5dd7b87124f51341","650c16f0f2faf8d7a0d14c09","651c1d358c21c8304b9a84cd","14917","{""ID"":""60db4aed5dd7b87124f51341""}","","","","","","","","","",""
"html-keyboard-response","2","23788","0.0-2.0","60db4aed5dd7b87124f51341","650c16f0f2faf8d7a0d14c09","651c1d358c21c8304b9a84cd","7462"," ","<p style=""font-size: 15px;"">Before beginning, we ask that you read the consent information and confirm your agreement to participate in the experiment.</p>
      <p style=""font-size: 15px;""> We ask that you remember that this is a research project and that your participation is entirely voluntary. You can stop your participation at any time, without needing to provide any explanation. The study we're asking you to participate in aims at examining how readers process written words. You will be engaged in a session of apprximately 20 minutes, followed by a brief questionnaire. You will have the opportunity to take a few breaks during the experiment. You will be paid £4 for your participation, corresponding to a rate of £8/hour. While this experiment looks at cognitive faculties, this experiment doesn't constitute clinical proof of eventual pathologies.</p>
      <p style=""font-size: 15px;"">All of the information collected thanks to yours and others' participation will be held in a secure password-protected server, and will not be shared with anyone not authorised to view it. Your personal information will be kept with an arbitrary participant ID. Thanks to this data anonymity process, any researcher analysing the data won't be able to track the information back to a specific participant. Therefore, this process will make identifying you impossibile, even when results from the study will be published in scientific reviews, presented at congresses, or at any other public forum. More generally, the collected data will be treated in accordance with the laws on privacy and conformity to the Legislative Degree n. 196 ""Code regarding the protection of personal data"" of the 30th of June 2003 and to the European Regulation 2016/670 (General Data Protection Regulation - GDPR). The Data Protection Officer is Avv. Valentina Carollo, who can be contacted at the following email addresses: <a href=""mailto:dpo@sissa.it"">dpo@sissa.it</a> or <a href=""mailto:rpd@sissa.it"">rpd@sissa.it</a> - PEC: <a href=""mailto:protocollo@pec.sissa.it"">protocollo@pec.sissa.it</a>.</p>
      <p style=""font-size: 15px;""> Before expressing your consent to participate, we would like to remind you again that in case you need explanations on any aspect of the experimental procedure, the researcher is at your disposition (<a href=""mailto:aliebelt@sissa.it"">aliebelt@sissa.it</a>, <a href=""mailto:davide.crepaldi@sissa.it"">davide.crepaldi@sissa.it</a>).</p>
      <p style=""font-size: 15px;"">If you would like to download the informed consent form, you can do so here: <a href=""BASL-Informed_Consent.pdf"" download>informed consent form</a>.</p>
      <p style=""font-size: 15px;"">We ask that you press the spacebar to proceed to the consent section.</p>","","","","","","","","",""
"survey-html-form","3","42435","0.0-3.0","60db4aed5dd7b87124f51341","650c16f0f2faf8d7a0d14c09","651c1d358c21c8304b9a84cd","18645","{""consent1"":""YES"",""consent2"":""YES"",""consent3"":""YES"",""consent4"":""YES"",""consent5"":""YES"",""consent6"":""YES""}","","","","","","","","","",""
"fullscreen","4","48549","0.0-4.0","60db4aed5dd7b87124f51341","650c16f0f2faf8d7a0d14c09","651c1d358c21c8304b9a84cd","","","","true","","","","","","","",""
"html-keyboard-response","5","68181","0.0-5.0","60db4aed5dd7b87124f51341","650c16f0f2faf8d7a0d14c09","651c1d358c21c8304b9a84cd","19642"," ","<p>Welcome, and thank you very much for your time!</p>
      <p>In this experiment, you'll be a language expert who's been asked to take a look at words that Earth has received in its first communication with aliens. Your task, in this first part of the experiment, is to pay close attention to the words you'll be shown; later, world leaders will ask you questions on what you saw. The words will be shown to you quite quickly; it seems that the aliens were in a hurry :-)</p>
      <p>Press the spacebar to continue.<p>","","","","","","","","",""
"html-keyboard-response","6","68243","0.0-6.0","60db4aed5dd7b87124f51341","650c16f0f2faf8d7a0d14c09","651c1d358c21c8304b9a84cd","null","null","<p style=""font-size: 120px; font-family: BACS""> </p>","","","","","","","","",""
"html-keyboard-response","7","76255","0.0-7.0","60db4aed5dd7b87124f51341","650c16f0f2faf8d7a0d14c09","651c1d358c21c8304b9a84cd","8011"," ","<p>Here is an example of the words you'll see:</p>
      <img src='esempio.png' height='400px'>
      <p>When you're ready to begin, press the spacebar.</p></div>","","","","","","","","",""
"html-keyboard-response","8","77270","0.0-8.0-0.0","60db4aed5dd7b87124f51341","650c16f0f2faf8d7a0d14c09","651c1d358c21c8304b9a84cd","null","null","<p style=""font-size: 60px; font-family: BACS"">mBYlmKcD</p>","","","","","","","","",""
"html-keyboard-response","9","78286","0.0-8.0-0.1","60db4aed5dd7b87124f51341","650c16f0f2faf8d7a0d14c09","651c1d358c21c8304b9a84cd","null","null","<p style=""font-size: 60px; font-family: BACS"">TEBKCPMl</p>","","","","","","","","",""
"html-keyboard-response","10","79303","0.0-8.0-0.2","60db4aed5dd7b87124f51341","650c16f0f2faf8d7a0d14c09","651c1d358c21c8304b9a84cd","null","null","<p style=""font-size: 60px; font-family: BACS"">OMlTYKPB</p>","","","","","","","","",""
"html-keyboard-response","11","80320","0.0-8.0-0.3","60db4aed5dd7b87124f51341","650c16f0f2faf8d7a0d14c09","651c1d358c21c8304b9a84cd","null","null","<p style=""font-size: 60px; font-family: BACS"">aUZAuvJ</p>","","","","","","","","",""
"html-keyboard-response","12","81337","0.0-8.0-0.4","60db4aed5dd7b87124f51341","650c16f0f2faf8d7a0d14c09","651c1d358c21c8304b9a84cd","null","null","<p style=""font-size: 60px; font-family: BACS"">NvYJcbm</p>","","","","","","","","",""
"html-keyboard-response","13","82353","0.0-8.0-0.5","60db4aed5dd7b87124f51341","650c16f0f2faf8d7a0d14c09","651c1d358c21c8304b9a84cd","null","null","<p style=""font-size: 60px; font-family: BACS"">RlAKcCdt</p>","","","","","","","","",""
"html-keyboard-response","14","83369","0.0-8.0-0.6","60db4aed5dd7b87124f51341","650c16f0f2faf8d7a0d14c09","651c1d358c21c8304b9a84cd","null","null","<p style=""font-size: 60px; font-family: BACS"">LcNUJGlu</p>","","","","","","","","",""
"html-keyboard-response","15","84371","0.0-8.0-0.7","60db4aed5dd7b87124f51341","650c16f0f2faf8d7a0d14c09","651c1d358c21c8304b9a84cd","null","null","<p style=""font-size: 60px; font-family: BACS"">mARMCdt</p>","","","","","","","","",""
"html-keyboard-response","16","85386","0.0-8.0-0.8","60db4aed5dd7b87124f51341","650c16f0f2faf8d7a0d14c09","651c1d358c21c8304b9a84cd","null","null","<p style=""font-size: 60px; font-family: BACS"">tDPRkCkbd</p>","","","","","","","","",""
"html-keyboard-response","17","86403","0.0-8.0-0.9","60db4aed5dd7b87124f51341","650c16f0f2faf8d7a0d14c09","651c1d358c21c8304b9a84cd","null","null","<p style=""font-size: 60px; font-family: BACS"">BECkCPMl</p>","","","","","","","","",""
"html-keyboard-response","18","87418","0.0-8.0-0.10","60db4aed5dd7b87124f51341","650c16f0f2faf8d7a0d14c09","651c1d358c21c8304b9a84cd","null","null","<p style=""font-size: 60px; font-family: BACS"">RlAKcCkbd</p>","","","","","","","","",""
"html-keyboard-response","19","88420","0.0-8.0-0.11","60db4aed5dd7b87124f51341","650c16f0f2faf8d7a0d14c09","651c1d358c21c8304b9a84cd","null","null","<p style=""font-size: 60px; font-family: BACS"">mARMmKcD</p>","","","","","","","","",""
"html-keyboard-response","20","89436","0.0-8.0-0.12","60db4aed5dd7b87124f51341","650c16f0f2faf8d7a0d14c09","651c1d358c21c8304b9a84cd","null","null","<p style=""font-size: 60px; font-family: BACS"">ALGZYaum</p>","","","","","","","","",""
"html-keyboard-response","21","90451","0.0-8.0-0.13","60db4aed5dd7b87124f51341","650c16f0f2faf8d7a0d14c09","651c1d358c21c8304b9a84cd","null","null","<p style=""font-size: 60px; font-family: BACS"">RlAKcCPMl</p>","","","","","","","","",""
"html-keyboard-response","22","91468","0.0-8.0-0.14","60db4aed5dd7b87124f51341","650c16f0f2faf8d7a0d14c09","651c1d358c21c8304b9a84cd","null","null","<p style=""font-size: 60px; font-family: BACS"">YJkbkGua</p>","","","","","","","","",""
"html-keyboard-response","23","92485","0.0-8.0-0.15","60db4aed5dd7b87124f51341","650c16f0f2faf8d7a0d14c09","651c1d358c21c8304b9a84cd","null","null","<p style=""font-size: 60px; font-family: BACS"">YObACdt</p>","","","","","","","","",""
"html-keyboard-response","24","93503","0.0-8.0-0.16","60db4aed5dd7b87124f51341","650c16f0f2faf8d7a0d14c09","651c1d358c21c8304b9a84cd","null","null","<p style=""font-size: 60px; font-family: BACS"">YJkbuvJ</p>","","","","","","","","",""
"html-keyboard-response","25","94517","0.0-8.0-0.17","60db4aed5dd7b87124f51341","650c16f0f2faf8d7a0d14c09","651c1d358c21c8304b9a84cd","null","null","<p style=""font-size: 60px; font-family: BACS"">TEBKmKcD</p>","","","","","","","","",""
"html-keyboard-response","26","95520","0.0-8.0-0.18","60db4aed5dd7b87124f51341","650c16f0f2faf8d7a0d14c09","651c1d358c21c8304b9a84cd","null","null","<p style=""font-size: 60px; font-family: BACS"">NvYJkGua</p>","","","","","","","","",""
"html-keyboard-response","27","96536","0.0-8.0-0.19","60db4aed5dd7b87124f51341","650c16f0f2faf8d7a0d14c09","651c1d358c21c8304b9a84cd","null","null","<p style=""font-size: 60px; font-family: BACS"">UrOQcbm</p>","","","","","","","","",""
"html-keyboard-response","28","97552","0.0-8.0-0.20","60db4aed5dd7b87124f51341","650c16f0f2faf8d7a0d14c09","651c1d358c21c8304b9a84cd","null","null","<p style=""font-size: 60px; font-family: BACS"">TEBKCdt</p>","","","","","","","","",""
"html-keyboard-response","29","98567","0.0-8.0-0.21","60db4aed5dd7b87124f51341","650c16f0f2faf8d7a0d14c09","651c1d358c21c8304b9a84cd","null","null","<p style=""font-size: 60px; font-family: BACS"">LcNUJuvJ</p>","","","","","","","","",""
"html-keyboard-response","30","99568","0.0-8.0-0.22","60db4aed5dd7b87124f51341","650c16f0f2faf8d7a0d14c09","651c1d358c21c8304b9a84cd","null","null","<p style=""font-size: 60px; font-family: BACS"">OYuvbGlu</p>","","","","","","","","",""
"html-keyboard-response","31","100571","0.0-8.0-0.23","60db4aed5dd7b87124f51341","650c16f0f2faf8d7a0d14c09","651c1d358c21c8304b9a84cd","null","null","<p style=""font-size: 60px; font-family: BACS"">BbODmKcD</p>","","","","","","","","",""
"html-keyboard-response","32","101584","0.0-8.0-0.24","60db4aed5dd7b87124f51341","650c16f0f2faf8d7a0d14c09","651c1d358c21c8304b9a84cd","null","null","<p style=""font-size: 60px; font-family: BACS"">ALGZGlu</p>","","","","","","","","",""
"html-keyboard-response","33","102586","0.0-8.0-0.25","60db4aed5dd7b87124f51341","650c16f0f2faf8d7a0d14c09","651c1d358c21c8304b9a84cd","null","null","<p style=""font-size: 60px; font-family: BACS"">OMlTCdt</p>","","","","","","","","",""
"html-keyboard-response","34","103602","0.0-8.0-0.26","60db4aed5dd7b87124f51341","650c16f0f2faf8d7a0d14c09","651c1d358c21c8304b9a84cd","null","null","<p style=""font-size: 60px; font-family: BACS"">NvYJuvJ</p>","","","","","","","","",""
"html-keyboard-response","35","104618","0.0-8.0-0.27","60db4aed5dd7b87124f51341","650c16f0f2faf8d7a0d14c09","651c1d358c21c8304b9a84cd","null","null","<p style=""font-size: 60px; font-family: BACS"">YcdOYaum</p>","","","","","","","","",""
"html-keyboard-response","36","105635","0.0-8.0-0.28","60db4aed5dd7b87124f51341","650c16f0f2faf8d7a0d14c09","651c1d358c21c8304b9a84cd","null","null","<p style=""font-size: 60px; font-family: BACS"">mARMCPMl</p>","","","","","","","","",""
"html-keyboard-response","37","106650","0.0-8.0-0.29","60db4aed5dd7b87124f51341","650c16f0f2faf8d7a0d14c09","651c1d358c21c8304b9a84cd","null","null","<p style=""font-size: 60px; font-family: BACS"">OLJblYaum</p>","","","","","","","","",""
"html-keyboard-response","38","107652","0.0-8.0-0.30","60db4aed5dd7b87124f51341","650c16f0f2faf8d7a0d14c09","651c1d358c21c8304b9a84cd","null","null","<p style=""font-size: 60px; font-family: BACS"">tDPRkCdt</p>","","","","","","","","",""
"html-keyboard-response","39","108668","0.0-8.0-0.31","60db4aed5dd7b87124f51341","650c16f0f2faf8d7a0d14c09","651c1d358c21c8304b9a84cd","null","null","<p style=""font-size: 60px; font-family: BACS"">BbODYKPB</p>","","","","","","","","",""
"html-keyboard-response","40","109686","0.0-8.0-0.32","60db4aed5dd7b87124f51341","650c16f0f2faf8d7a0d14c09","651c1d358c21c8304b9a84cd","null","null","<p style=""font-size: 60px; font-family: BACS"">aUZAGlu</p>","","","","","","","","",""
"html-keyboard-response","41","110702","0.0-8.0-0.33","60db4aed5dd7b87124f51341","650c16f0f2faf8d7a0d14c09","651c1d358c21c8304b9a84cd","null","null","<p style=""font-size: 60px; font-family: BACS"">OYuvbYaum</p>","","","","","","","","",""
"html-keyboard-response","42","111719","0.0-8.0-0.34","60db4aed5dd7b87124f51341","650c16f0f2faf8d7a0d14c09","651c1d358c21c8304b9a84cd","null","null","<p style=""font-size: 60px; font-family: BACS"">tRdMCkbd</p>","","","","","","","","",""
"html-keyboard-response","43","112736","0.0-8.0-0.35","60db4aed5dd7b87124f51341","650c16f0f2faf8d7a0d14c09","651c1d358c21c8304b9a84cd","null","null","<p style=""font-size: 60px; font-family: BACS"">tDPRkYKPB</p>","","","","","","","","",""
"html-keyboard-response","44","113751","0.0-8.0-0.36","60db4aed5dd7b87124f51341","650c16f0f2faf8d7a0d14c09","651c1d358c21c8304b9a84cd","null","null","<p style=""font-size: 60px; font-family: BACS"">YObACkbd</p>","","","","","","","","",""
"html-keyboard-response","45","114767","0.0-8.0-0.37","60db4aed5dd7b87124f51341","650c16f0f2faf8d7a0d14c09","651c1d358c21c8304b9a84cd","null","null","<p style=""font-size: 60px; font-family: BACS"">tRdMYKPB</p>","","","","","","","","",""
"html-keyboard-response","46","115769","0.0-8.0-0.38","60db4aed5dd7b87124f51341","650c16f0f2faf8d7a0d14c09","651c1d358c21c8304b9a84cd","null","null","<p style=""font-size: 60px; font-family: BACS"">LcNUJkGua</p>","","","","","","","","",""
"html-keyboard-response","47","116782","0.0-8.0-0.39","60db4aed5dd7b87124f51341","650c16f0f2faf8d7a0d14c09","651c1d358c21c8304b9a84cd","null","null","<p style=""font-size: 60px; font-family: BACS"">YJkbYaum</p>","","","","","","","","",""
"html-keyboard-response","48","117788","0.0-8.0-0.40","60db4aed5dd7b87124f51341","650c16f0f2faf8d7a0d14c09","651c1d358c21c8304b9a84cd","null","null","<p style=""font-size: 60px; font-family: BACS"">YcdOGlu</p>","","","","","","","","",""
"html-keyboard-response","49","118805","0.0-8.0-0.41","60db4aed5dd7b87124f51341","650c16f0f2faf8d7a0d14c09","651c1d358c21c8304b9a84cd","null","null","<p style=""font-size: 60px; font-family: BACS"">tRdMmKcD</p>","","","","","","","","",""
"html-keyboard-response","50","119819","0.0-8.0-0.42","60db4aed5dd7b87124f51341","650c16f0f2faf8d7a0d14c09","651c1d358c21c8304b9a84cd","null","null","<p style=""font-size: 60px; font-family: BACS"">BECkCdt</p>","","","","","","","","",""
"html-keyboard-response","51","120834","0.0-8.0-0.43","60db4aed5dd7b87124f51341","650c16f0f2faf8d7a0d14c09","651c1d358c21c8304b9a84cd","null","null","<p style=""font-size: 60px; font-family: BACS"">LuNZcbm</p>","","","","","","","","",""
"html-keyboard-response","52","121836","0.0-8.0-0.44","60db4aed5dd7b87124f51341","650c16f0f2faf8d7a0d14c09","651c1d358c21c8304b9a84cd","null","null","<p style=""font-size: 60px; font-family: BACS"">BECkCkbd</p>","","","","","","","","",""
"html-keyboard-response","53","122852","0.0-8.0-0.45","60db4aed5dd7b87124f51341","650c16f0f2faf8d7a0d14c09","651c1d358c21c8304b9a84cd","null","null","<p style=""font-size: 60px; font-family: BACS"">mBYlCPMl</p>","","","","","","","","",""
"html-keyboard-response","54","123867","0.0-8.0-0.46","60db4aed5dd7b87124f51341","650c16f0f2faf8d7a0d14c09","651c1d358c21c8304b9a84cd","null","null","<p style=""font-size: 60px; font-family: BACS"">aUZAYaum</p>","","","","","","","","",""
"html-keyboard-response","55","124883","0.0-8.0-0.47","60db4aed5dd7b87124f51341","650c16f0f2faf8d7a0d14c09","651c1d358c21c8304b9a84cd","null","null","<p style=""font-size: 60px; font-family: BACS"">UrOQGlu</p>","","","","","","","","",""
"html-keyboard-response","56","125900","0.0-8.0-0.48","60db4aed5dd7b87124f51341","650c16f0f2faf8d7a0d14c09","651c1d358c21c8304b9a84cd","null","null","<p style=""font-size: 60px; font-family: BACS"">BECkYKPB</p>","","","","","","","","",""
"html-keyboard-response","57","126902","0.0-8.0-0.49","60db4aed5dd7b87124f51341","650c16f0f2faf8d7a0d14c09","651c1d358c21c8304b9a84cd","null","null","<p style=""font-size: 60px; font-family: BACS"">YObACPMl</p>","","","","","","","","",""
"html-keyboard-response","58","127903","0.0-8.0-0.50","60db4aed5dd7b87124f51341","650c16f0f2faf8d7a0d14c09","651c1d358c21c8304b9a84cd","null","null","<p style=""font-size: 60px; font-family: BACS"">OYuvbcbm</p>","","","","","","","","",""
"html-keyboard-response","59","128930","0.0-8.0-0.51","60db4aed5dd7b87124f51341","650c16f0f2faf8d7a0d14c09","651c1d358c21c8304b9a84cd","null","null","<p style=""font-size: 60px; font-family: BACS"">tDPRkmKcD</p>","","","","","","","","",""
"html-keyboard-response","60","129945","0.0-8.0-0.52","60db4aed5dd7b87124f51341","650c16f0f2faf8d7a0d14c09","651c1d358c21c8304b9a84cd","null","null","<p style=""font-size: 60px; font-family: BACS"">tRdMCPMl</p>","","","","","","","","",""
"html-keyboard-response","61","130961","0.0-8.0-0.53","60db4aed5dd7b87124f51341","650c16f0f2faf8d7a0d14c09","651c1d358c21c8304b9a84cd","null","null","<p style=""font-size: 60px; font-family: BACS"">RlAKcmKcD</p>","","","","","","","","",""
"html-keyboard-response","62","131963","0.0-8.0-0.54","60db4aed5dd7b87124f51341","650c16f0f2faf8d7a0d14c09","651c1d358c21c8304b9a84cd","null","null","<p style=""font-size: 60px; font-family: BACS"">NvYJGlu</p>","","","","","","","","",""
"html-keyboard-response","63","132977","0.0-8.0-0.55","60db4aed5dd7b87124f51341","650c16f0f2faf8d7a0d14c09","651c1d358c21c8304b9a84cd","null","null","<p style=""font-size: 60px; font-family: BACS"">YcdOkGua</p>","","","","","","","","",""
"html-keyboard-response","64","133993","0.0-8.0-0.56","60db4aed5dd7b87124f51341","650c16f0f2faf8d7a0d14c09","651c1d358c21c8304b9a84cd","null","null","<p style=""font-size: 60px; font-family: BACS"">OYuvbuvJ</p>","","","","","","","","",""
"html-keyboard-response","65","134995","0.0-8.0-0.57","60db4aed5dd7b87124f51341","650c16f0f2faf8d7a0d14c09","651c1d358c21c8304b9a84cd","null","null","<p style=""font-size: 60px; font-family: BACS"">aUZAkGua</p>","","","","","","","","",""
"html-keyboard-response","66","136012","0.0-8.0-0.58","60db4aed5dd7b87124f51341","650c16f0f2faf8d7a0d14c09","651c1d358c21c8304b9a84cd","null","null","<p style=""font-size: 60px; font-family: BACS"">OMlTCkbd</p>","","","","","","","","",""
"html-keyboard-response","67","137015","0.0-8.0-0.59","60db4aed5dd7b87124f51341","650c16f0f2faf8d7a0d14c09","651c1d358c21c8304b9a84cd","null","null","<p style=""font-size: 60px; font-family: BACS"">TEBKYKPB</p>","","","","","","","","",""
"html-keyboard-response","68","138029","0.0-8.0-0.60","60db4aed5dd7b87124f51341","650c16f0f2faf8d7a0d14c09","651c1d358c21c8304b9a84cd","null","null","<p style=""font-size: 60px; font-family: BACS"">OMlTCPMl</p>","","","","","","","","",""
"html-keyboard-response","69","139045","0.0-8.0-0.61","60db4aed5dd7b87124f51341","650c16f0f2faf8d7a0d14c09","651c1d358c21c8304b9a84cd","null","null","<p style=""font-size: 60px; font-family: BACS"">ALGZuvJ</p>","","","","","","","","",""
"html-keyboard-response","70","140061","0.0-8.0-0.62","60db4aed5dd7b87124f51341","650c16f0f2faf8d7a0d14c09","651c1d358c21c8304b9a84cd","null","null","<p style=""font-size: 60px; font-family: BACS"">YcdOcbm</p>","","","","","","","","",""
"html-keyboard-response","71","141077","0.0-8.0-0.63","60db4aed5dd7b87124f51341","650c16f0f2faf8d7a0d14c09","651c1d358c21c8304b9a84cd","null","null","<p style=""font-size: 60px; font-family: BACS"">ALGZkGua</p>","","","","","","","","",""
"html-keyboard-response","72","142080","0.0-8.0-0.64","60db4aed5dd7b87124f51341","650c16f0f2faf8d7a0d14c09","651c1d358c21c8304b9a84cd","null","null","<p style=""font-size: 60px; font-family: BACS"">LcNUJcbm</p>","","","","","","","","",""
"html-keyboard-response","73","143094","0.0-8.0-0.65","60db4aed5dd7b87124f51341","650c16f0f2faf8d7a0d14c09","651c1d358c21c8304b9a84cd","null","null","<p style=""font-size: 60px; font-family: BACS"">LuNZYaum</p>","","","","","","","","",""
"html-keyboard-response","74","144096","0.0-8.0-0.66","60db4aed5dd7b87124f51341","650c16f0f2faf8d7a0d14c09","651c1d358c21c8304b9a84cd","null","null","<p style=""font-size: 60px; font-family: BACS"">BbODCdt</p>","","","","","","","","",""
"html-keyboard-response","75","145112","0.0-8.0-0.67","60db4aed5dd7b87124f51341","650c16f0f2faf8d7a0d14c09","651c1d358c21c8304b9a84cd","null","null","<p style=""font-size: 60px; font-family: BACS"">YJkbcbm</p>","","","","","","","","",""
"html-keyboard-response","76","146127","0.0-8.0-0.68","60db4aed5dd7b87124f51341","650c16f0f2faf8d7a0d14c09","651c1d358c21c8304b9a84cd","null","null","<p style=""font-size: 60px; font-family: BACS"">OLJbluvJ</p>","","","","","","","","",""
"html-keyboard-response","77","147144","0.0-8.0-0.69","60db4aed5dd7b87124f51341","650c16f0f2faf8d7a0d14c09","651c1d358c21c8304b9a84cd","null","null","<p style=""font-size: 60px; font-family: BACS"">mBYlYKPB</p>","","","","","","","","",""
"html-keyboard-response","78","148145","0.0-8.0-0.70","60db4aed5dd7b87124f51341","650c16f0f2faf8d7a0d14c09","651c1d358c21c8304b9a84cd","null","null","<p style=""font-size: 60px; font-family: BACS"">LuNZGlu</p>","","","","","","","","",""
"html-keyboard-response","79","149162","0.0-8.0-0.71","60db4aed5dd7b87124f51341","650c16f0f2faf8d7a0d14c09","651c1d358c21c8304b9a84cd","null","null","<p style=""font-size: 60px; font-family: BACS"">mBYlCkbd</p>","","","","","","","","",""
"html-keyboard-response","80","150163","0.0-8.0-0.72","60db4aed5dd7b87124f51341","650c16f0f2faf8d7a0d14c09","651c1d358c21c8304b9a84cd","null","null","<p style=""font-size: 60px; font-family: BACS"">LuNZuvJ</p>","","","","","","","","",""
"html-keyboard-response","81","151177","0.0-8.0-0.73","60db4aed5dd7b87124f51341","650c16f0f2faf8d7a0d14c09","651c1d358c21c8304b9a84cd","null","null","<p style=""font-size: 60px; font-family: BACS"">mARMYKPB</p>","","","","","","","","",""
"html-keyboard-response","82","152179","0.0-8.0-0.74","60db4aed5dd7b87124f51341","650c16f0f2faf8d7a0d14c09","651c1d358c21c8304b9a84cd","null","null","<p style=""font-size: 60px; font-family: BACS"">YObAmKcD</p>","","","","","","","","",""
"html-keyboard-response","83","153195","0.0-8.0-0.75","60db4aed5dd7b87124f51341","650c16f0f2faf8d7a0d14c09","651c1d358c21c8304b9a84cd","null","null","<p style=""font-size: 60px; font-family: BACS"">OLJblcbm</p>","","","","","","","","",""
"html-keyboard-response","84","154210","0.0-8.0-0.76","60db4aed5dd7b87124f51341","650c16f0f2faf8d7a0d14c09","651c1d358c21c8304b9a84cd","null","null","<p style=""font-size: 60px; font-family: BACS"">UrOQYaum</p>","","","","","","","","",""
"html-keyboard-response","85","155226","0.0-8.0-0.77","60db4aed5dd7b87124f51341","650c16f0f2faf8d7a0d14c09","651c1d358c21c8304b9a84cd","null","null","<p style=""font-size: 60px; font-family: BACS"">OLJblkGua</p>","","","","","","","","",""
"html-keyboard-response","86","156228","0.0-8.0-0.78","60db4aed5dd7b87124f51341","650c16f0f2faf8d7a0d14c09","651c1d358c21c8304b9a84cd","null","null","<p style=""font-size: 60px; font-family: BACS"">BbODCkbd</p>","","","","","","","","",""
"html-keyboard-response","87","157243","0.0-8.0-0.79","60db4aed5dd7b87124f51341","650c16f0f2faf8d7a0d14c09","651c1d358c21c8304b9a84cd","null","null","<p style=""font-size: 60px; font-family: BACS"">UrOQkGua</p>","","","","","","","","",""
"html-keyboard-response","88","161447","0.0-9.0","60db4aed5dd7b87124f51341","650c16f0f2faf8d7a0d14c09","651c1d358c21c8304b9a84cd","4202"," ","<p>Great, you've seen the first block of words. You may now take a short break.</p>
      <p>Press the spacebar when you're ready to continue.</p>","","","","","","","","",""
"html-keyboard-response","89","162461","0.0-10.0-0.0","60db4aed5dd7b87124f51341","650c16f0f2faf8d7a0d14c09","651c1d358c21c8304b9a84cd","null","null","<p style=""font-size: 60px; font-family: BACS"">OLJblcbm</p>","","","","","","","","",""
"html-keyboard-response","90","163478","0.0-10.0-0.1","60db4aed5dd7b87124f51341","650c16f0f2faf8d7a0d14c09","651c1d358c21c8304b9a84cd","null","null","<p style=""font-size: 60px; font-family: BACS"">YObAmKcD</p>","","","","","","","","",""
"html-keyboard-response","91","164495","0.0-10.0-0.2","60db4aed5dd7b87124f51341","650c16f0f2faf8d7a0d14c09","651c1d358c21c8304b9a84cd","null","null","<p style=""font-size: 60px; font-family: BACS"">YcdOGlu</p>","","","","","","","","",""
"html-keyboard-response","92","165512","0.0-10.0-0.3","60db4aed5dd7b87124f51341","650c16f0f2faf8d7a0d14c09","651c1d358c21c8304b9a84cd","null","null","<p style=""font-size: 60px; font-family: BACS"">UrOQkGua</p>","","","","","","","","",""
"html-keyboard-response","93","166527","0.0-10.0-0.4","60db4aed5dd7b87124f51341","650c16f0f2faf8d7a0d14c09","651c1d358c21c8304b9a84cd","null","null","<p style=""font-size: 60px; font-family: BACS"">ALGZGlu</p>","","","","","","","","",""
"html-keyboard-response","94","167545","0.0-10.0-0.5","60db4aed5dd7b87124f51341","650c16f0f2faf8d7a0d14c09","651c1d358c21c8304b9a84cd","null","null","<p style=""font-size: 60px; font-family: BACS"">NvYJcbm</p>","","","","","","","","",""
"html-keyboard-response","95","168561","0.0-10.0-0.6","60db4aed5dd7b87124f51341","650c16f0f2faf8d7a0d14c09","651c1d358c21c8304b9a84cd","null","null","<p style=""font-size: 60px; font-family: BACS"">LcNUJkGua</p>","","","","","","","","",""
"html-keyboard-response","96","169577","0.0-10.0-0.7","60db4aed5dd7b87124f51341","650c16f0f2faf8d7a0d14c09","651c1d358c21c8304b9a84cd","null","null","<p style=""font-size: 60px; font-family: BACS"">aUZAGlu</p>","","","","","","","","",""
"html-keyboard-response","97","170594","0.0-10.0-0.8","60db4aed5dd7b87124f51341","650c16f0f2faf8d7a0d14c09","651c1d358c21c8304b9a84cd","null","null","<p style=""font-size: 60px; font-family: BACS"">BbODmKcD</p>","","","","","","","","",""
"html-keyboard-response","98","171610","0.0-10.0-0.9","60db4aed5dd7b87124f51341","650c16f0f2faf8d7a0d14c09","651c1d358c21c8304b9a84cd","null","null","<p style=""font-size: 60px; font-family: BACS"">OMlTCkbd</p>","","","","","","","","",""
"html-keyboard-response","99","172627","0.0-10.0-0.10","60db4aed5dd7b87124f51341","650c16f0f2faf8d7a0d14c09","651c1d358c21c8304b9a84cd","null","null","<p style=""font-size: 60px; font-family: BACS"">OLJblYaum</p>","","","","","","","","",""
"html-keyboard-response","100","173642","0.0-10.0-0.11","60db4aed5dd7b87124f51341","650c16f0f2faf8d7a0d14c09","651c1d358c21c8304b9a84cd","null","null","<p style=""font-size: 60px; font-family: BACS"">mARMCPMl</p>","","","","","","","","",""
"html-keyboard-response","101","174658","0.0-10.0-0.12","60db4aed5dd7b87124f51341","650c16f0f2faf8d7a0d14c09","651c1d358c21c8304b9a84cd","null","null","<p style=""font-size: 60px; font-family: BACS"">OYuvbcbm</p>","","","","","","","","",""
"html-keyboard-response","102","175661","0.0-10.0-0.13","60db4aed5dd7b87124f51341","650c16f0f2faf8d7a0d14c09","651c1d358c21c8304b9a84cd","null","null","<p style=""font-size: 60px; font-family: BACS"">YJkbkGua</p>","","","","","","","","",""
"html-keyboard-response","103","176676","0.0-10.0-0.14","60db4aed5dd7b87124f51341","650c16f0f2faf8d7a0d14c09","651c1d358c21c8304b9a84cd","null","null","<p style=""font-size: 60px; font-family: BACS"">BECkCdt</p>","","","","","","","","",""
"html-keyboard-response","104","177678","0.0-10.0-0.15","60db4aed5dd7b87124f51341","650c16f0f2faf8d7a0d14c09","651c1d358c21c8304b9a84cd","null","null","<p style=""font-size: 60px; font-family: BACS"">OYuvbGlu</p>","","","","","","","","",""
"html-keyboard-response","105","178693","0.0-10.0-0.16","60db4aed5dd7b87124f51341","650c16f0f2faf8d7a0d14c09","651c1d358c21c8304b9a84cd","null","null","<p style=""font-size: 60px; font-family: BACS"">tDPRkCdt</p>","","","","","","","","",""
"html-keyboard-response","106","179708","0.0-10.0-0.17","60db4aed5dd7b87124f51341","650c16f0f2faf8d7a0d14c09","651c1d358c21c8304b9a84cd","null","null","<p style=""font-size: 60px; font-family: BACS"">aUZAYaum</p>","","","","","","","","",""
"html-keyboard-response","107","180710","0.0-10.0-0.18","60db4aed5dd7b87124f51341","650c16f0f2faf8d7a0d14c09","651c1d358c21c8304b9a84cd","null","null","<p style=""font-size: 60px; font-family: BACS"">UrOQGlu</p>","","","","","","","","",""
"html-keyboard-response","108","181725","0.0-10.0-0.19","60db4aed5dd7b87124f51341","650c16f0f2faf8d7a0d14c09","651c1d358c21c8304b9a84cd","null","null","<p style=""font-size: 60px; font-family: BACS"">mARMCdt</p>","","","","","","","","",""
"html-keyboard-response","109","182740","0.0-10.0-0.20","60db4aed5dd7b87124f51341","650c16f0f2faf8d7a0d14c09","651c1d358c21c8304b9a84cd","null","null","<p style=""font-size: 60px; font-family: BACS"">tRdMCPMl</p>","","","","","","","","",""
"html-keyboard-response","110","183742","0.0-10.0-0.21","60db4aed5dd7b87124f51341","650c16f0f2faf8d7a0d14c09","651c1d358c21c8304b9a84cd","null","null","<p style=""font-size: 60px; font-family: BACS"">BbODYKPB</p>","","","","","","","","",""
"html-keyboard-response","111","184757","0.0-10.0-0.22","60db4aed5dd7b87124f51341","650c16f0f2faf8d7a0d14c09","651c1d358c21c8304b9a84cd","null","null","<p style=""font-size: 60px; font-family: BACS"">LuNZuvJ</p>","","","","","","","","",""
"html-keyboard-response","112","185758","0.0-10.0-0.23","60db4aed5dd7b87124f51341","650c16f0f2faf8d7a0d14c09","651c1d358c21c8304b9a84cd","null","null","<p style=""font-size: 60px; font-family: BACS"">mBYlmKcD</p>","","","","","","","","",""
"html-keyboard-response","113","186774","0.0-10.0-0.24","60db4aed5dd7b87124f51341","650c16f0f2faf8d7a0d14c09","651c1d358c21c8304b9a84cd","null","null","<p style=""font-size: 60px; font-family: BACS"">YObACdt</p>","","","","","","","","",""
"html-keyboard-response","114","187777","0.0-10.0-0.25","60db4aed5dd7b87124f51341","650c16f0f2faf8d7a0d14c09","651c1d358c21c8304b9a84cd","null","null","<p style=""font-size: 60px; font-family: BACS"">ALGZkGua</p>","","","","","","","","",""
"html-keyboard-response","115","188792","0.0-10.0-0.26","60db4aed5dd7b87124f51341","650c16f0f2faf8d7a0d14c09","651c1d358c21c8304b9a84cd","null","null","<p style=""font-size: 60px; font-family: BACS"">BECkCPMl</p>","","","","","","","","",""
"html-keyboard-response","116","189809","0.0-10.0-0.27","60db4aed5dd7b87124f51341","650c16f0f2faf8d7a0d14c09","651c1d358c21c8304b9a84cd","null","null","<p style=""font-size: 60px; font-family: BACS"">OMlTYKPB</p>","","","","","","","","",""
"html-keyboard-response","117","190826","0.0-10.0-0.28","60db4aed5dd7b87124f51341","650c16f0f2faf8d7a0d14c09","651c1d358c21c8304b9a84cd","null","null","<p style=""font-size: 60px; font-family: BACS"">OLJblkGua</p>","","","","","","","","",""
"html-keyboard-response","118","191842","0.0-10.0-0.29","60db4aed5dd7b87124f51341","650c16f0f2faf8d7a0d14c09","651c1d358c21c8304b9a84cd","null","null","<p style=""font-size: 60px; font-family: BACS"">RlAKcCPMl</p>","","","","","","","","",""
"html-keyboard-response","119","192844","0.0-10.0-0.30","60db4aed5dd7b87124f51341","650c16f0f2faf8d7a0d14c09","651c1d358c21c8304b9a84cd","null","null","<p style=""font-size: 60px; font-family: BACS"">TEBKYKPB</p>","","","","","","","","",""
"html-keyboard-response","120","193858","0.0-10.0-0.31","60db4aed5dd7b87124f51341","650c16f0f2faf8d7a0d14c09","651c1d358c21c8304b9a84cd","null","null","<p style=""font-size: 60px; font-family: BACS"">tDPRkCkbd</p>","","","","","","","","",""
"html-keyboard-response","121","194874","0.0-10.0-0.32","60db4aed5dd7b87124f51341","650c16f0f2faf8d7a0d14c09","651c1d358c21c8304b9a84cd","null","null","<p style=""font-size: 60px; font-family: BACS"">NvYJkGua</p>","","","","","","","","",""
"html-keyboard-response","122","195876","0.0-10.0-0.33","60db4aed5dd7b87124f51341","650c16f0f2faf8d7a0d14c09","651c1d358c21c8304b9a84cd","null","null","<p style=""font-size: 60px; font-family: BACS"">ALGZYaum</p>","","","","","","","","",""
"html-keyboard-response","123","196891","0.0-10.0-0.34","60db4aed5dd7b87124f51341","650c16f0f2faf8d7a0d14c09","651c1d358c21c8304b9a84cd","null","null","<p style=""font-size: 60px; font-family: BACS"">TEBKmKcD</p>","","","","","","","","",""
"html-keyboard-response","124","197893","0.0-10.0-0.35","60db4aed5dd7b87124f51341","650c16f0f2faf8d7a0d14c09","651c1d358c21c8304b9a84cd","null","null","<p style=""font-size: 60px; font-family: BACS"">aUZAuvJ</p>","","","","","","","","",""
"html-keyboard-response","125","198910","0.0-10.0-0.36","60db4aed5dd7b87124f51341","650c16f0f2faf8d7a0d14c09","651c1d358c21c8304b9a84cd","null","null","<p style=""font-size: 60px; font-family: BACS"">BECkCkbd</p>","","","","","","","","",""
"html-keyboard-response","126","199923","0.0-10.0-0.37","60db4aed5dd7b87124f51341","650c16f0f2faf8d7a0d14c09","651c1d358c21c8304b9a84cd","null","null","<p style=""font-size: 60px; font-family: BACS"">LuNZGlu</p>","","","","","","","","",""
"html-keyboard-response","127","200926","0.0-10.0-0.38","60db4aed5dd7b87124f51341","650c16f0f2faf8d7a0d14c09","651c1d358c21c8304b9a84cd","null","null","<p style=""font-size: 60px; font-family: BACS"">tRdMCkbd</p>","","","","","","","","",""
"html-keyboard-response","128","201942","0.0-10.0-0.39","60db4aed5dd7b87124f51341","650c16f0f2faf8d7a0d14c09","651c1d358c21c8304b9a84cd","null","null","<p style=""font-size: 60px; font-family: BACS"">BbODCdt</p>","","","","","","","","",""
"html-keyboard-response","129","202959","0.0-10.0-0.40","60db4aed5dd7b87124f51341","650c16f0f2faf8d7a0d14c09","651c1d358c21c8304b9a84cd","null","null","<p style=""font-size: 60px; font-family: BACS"">mARMmKcD</p>","","","","","","","","",""
"html-keyboard-response","130","203975","0.0-10.0-0.41","60db4aed5dd7b87124f51341","650c16f0f2faf8d7a0d14c09","651c1d358c21c8304b9a84cd","null","null","<p style=""font-size: 60px; font-family: BACS"">NvYJuvJ</p>","","","","","","","","",""
"html-keyboard-response","131","204989","0.0-10.0-0.42","60db4aed5dd7b87124f51341","650c16f0f2faf8d7a0d14c09","651c1d358c21c8304b9a84cd","null","null","<p style=""font-size: 60px; font-family: BACS"">tDPRkYKPB</p>","","","","","","","","",""
"html-keyboard-response","132","205994","0.0-10.0-0.43","60db4aed5dd7b87124f51341","650c16f0f2faf8d7a0d14c09","651c1d358c21c8304b9a84cd","null","null","<p style=""font-size: 60px; font-family: BACS"">YObACPMl</p>","","","","","","","","",""
"html-keyboard-response","133","207008","0.0-10.0-0.44","60db4aed5dd7b87124f51341","650c16f0f2faf8d7a0d14c09","651c1d358c21c8304b9a84cd","null","null","<p style=""font-size: 60px; font-family: BACS"">mBYlYKPB</p>","","","","","","","","",""
"html-keyboard-response","134","208026","0.0-10.0-0.45","60db4aed5dd7b87124f51341","650c16f0f2faf8d7a0d14c09","651c1d358c21c8304b9a84cd","null","null","<p style=""font-size: 60px; font-family: BACS"">OLJbluvJ</p>","","","","","","","","",""
"html-keyboard-response","135","209041","0.0-10.0-0.46","60db4aed5dd7b87124f51341","650c16f0f2faf8d7a0d14c09","651c1d358c21c8304b9a84cd","null","null","<p style=""font-size: 60px; font-family: BACS"">TEBKCPMl</p>","","","","","","","","",""
"html-keyboard-response","136","210057","0.0-10.0-0.47","60db4aed5dd7b87124f51341","650c16f0f2faf8d7a0d14c09","651c1d358c21c8304b9a84cd","null","null","<p style=""font-size: 60px; font-family: BACS"">tRdMYKPB</p>","","","","","","","","",""
"html-keyboard-response","137","211060","0.0-10.0-0.48","60db4aed5dd7b87124f51341","650c16f0f2faf8d7a0d14c09","651c1d358c21c8304b9a84cd","null","null","<p style=""font-size: 60px; font-family: BACS"">OYuvbuvJ</p>","","","","","","","","",""
"html-keyboard-response","138","212075","0.0-10.0-0.49","60db4aed5dd7b87124f51341","650c16f0f2faf8d7a0d14c09","651c1d358c21c8304b9a84cd","null","null","<p style=""font-size: 60px; font-family: BACS"">BECkYKPB</p>","","","","","","","","",""
"html-keyboard-response","139","213091","0.0-10.0-0.50","60db4aed5dd7b87124f51341","650c16f0f2faf8d7a0d14c09","651c1d358c21c8304b9a84cd","null","null","<p style=""font-size: 60px; font-family: BACS"">tRdMmKcD</p>","","","","","","","","",""
"html-keyboard-response","140","214108","0.0-10.0-0.51","60db4aed5dd7b87124f51341","650c16f0f2faf8d7a0d14c09","651c1d358c21c8304b9a84cd","null","null","<p style=""font-size: 60px; font-family: BACS"">OYuvbYaum</p>","","","","","","","","",""
"html-keyboard-response","141","215126","0.0-10.0-0.52","60db4aed5dd7b87124f51341","650c16f0f2faf8d7a0d14c09","651c1d358c21c8304b9a84cd","null","null","<p style=""font-size: 60px; font-family: BACS"">mARMYKPB</p>","","","","","","","","",""
"html-keyboard-response","142","216141","0.0-10.0-0.53","60db4aed5dd7b87124f51341","650c16f0f2faf8d7a0d14c09","651c1d358c21c8304b9a84cd","null","null","<p style=""font-size: 60px; font-family: BACS"">RlAKcCdt</p>","","","","","","","","",""
"html-keyboard-response","143","217143","0.0-10.0-0.54","60db4aed5dd7b87124f51341","650c16f0f2faf8d7a0d14c09","651c1d358c21c8304b9a84cd","null","null","<p style=""font-size: 60px; font-family: BACS"">NvYJGlu</p>","","","","","","","","",""
"html-keyboard-response","144","218159","0.0-10.0-0.55","60db4aed5dd7b87124f51341","650c16f0f2faf8d7a0d14c09","651c1d358c21c8304b9a84cd","null","null","<p style=""font-size: 60px; font-family: BACS"">BbODCkbd</p>","","","","","","","","",""
"html-keyboard-response","145","219175","0.0-10.0-0.56","60db4aed5dd7b87124f51341","650c16f0f2faf8d7a0d14c09","651c1d358c21c8304b9a84cd","null","null","<p style=""font-size: 60px; font-family: BACS"">LuNZYaum</p>","","","","","","","","",""
"html-keyboard-response","146","220192","0.0-10.0-0.57","60db4aed5dd7b87124f51341","650c16f0f2faf8d7a0d14c09","651c1d358c21c8304b9a84cd","null","null","<p style=""font-size: 60px; font-family: BACS"">mBYlCkbd</p>","","","","","","","","",""
"html-keyboard-response","147","221195","0.0-10.0-0.58","60db4aed5dd7b87124f51341","650c16f0f2faf8d7a0d14c09","651c1d358c21c8304b9a84cd","null","null","<p style=""font-size: 60px; font-family: BACS"">aUZAkGua</p>","","","","","","","","",""
"html-keyboard-response","148","222206","0.0-10.0-0.59","60db4aed5dd7b87124f51341","650c16f0f2faf8d7a0d14c09","651c1d358c21c8304b9a84cd","null","null","<p style=""font-size: 60px; font-family: BACS"">YObACkbd</p>","","","","","","","","",""
"html-keyboard-response","149","223208","0.0-10.0-0.60","60db4aed5dd7b87124f51341","650c16f0f2faf8d7a0d14c09","651c1d358c21c8304b9a84cd","null","null","<p style=""font-size: 60px; font-family: BACS"">TEBKCdt</p>","","","","","","","","",""
"html-keyboard-response","150","224210","0.0-10.0-0.61","60db4aed5dd7b87124f51341","650c16f0f2faf8d7a0d14c09","651c1d358c21c8304b9a84cd","null","null","<p style=""font-size: 60px; font-family: BACS"">LuNZcbm</p>","","","","","","","","",""
"html-keyboard-response","151","225221","0.0-10.0-0.62","60db4aed5dd7b87124f51341","650c16f0f2faf8d7a0d14c09","651c1d358c21c8304b9a84cd","null","null","<p style=""font-size: 60px; font-family: BACS"">mBYlCPMl</p>","","","","","","","","",""
"html-keyboard-response","152","226225","0.0-10.0-0.63","60db4aed5dd7b87124f51341","650c16f0f2faf8d7a0d14c09","651c1d358c21c8304b9a84cd","null","null","<p style=""font-size: 60px; font-family: BACS"">RlAKcCkbd</p>","","","","","","","","",""
"html-keyboard-response","153","227226","0.0-10.0-0.64","60db4aed5dd7b87124f51341","650c16f0f2faf8d7a0d14c09","651c1d358c21c8304b9a84cd","null","null","<p style=""font-size: 60px; font-family: BACS"">ALGZuvJ</p>","","","","","","","","",""
"html-keyboard-response","154","228240","0.0-10.0-0.65","60db4aed5dd7b87124f51341","650c16f0f2faf8d7a0d14c09","651c1d358c21c8304b9a84cd","null","null","<p style=""font-size: 60px; font-family: BACS"">OMlTCdt</p>","","","","","","","","",""
"html-keyboard-response","155","229257","0.0-10.0-0.66","60db4aed5dd7b87124f51341","650c16f0f2faf8d7a0d14c09","651c1d358c21c8304b9a84cd","null","null","<p style=""font-size: 60px; font-family: BACS"">UrOQcbm</p>","","","","","","","","",""
"html-keyboard-response","156","230258","0.0-10.0-0.67","60db4aed5dd7b87124f51341","650c16f0f2faf8d7a0d14c09","651c1d358c21c8304b9a84cd","null","null","<p style=""font-size: 60px; font-family: BACS"">YJkbYaum</p>","","","","","","","","",""
"html-keyboard-response","157","231271","0.0-10.0-0.68","60db4aed5dd7b87124f51341","650c16f0f2faf8d7a0d14c09","651c1d358c21c8304b9a84cd","null","null","<p style=""font-size: 60px; font-family: BACS"">LcNUJcbm</p>","","","","","","","","",""
"html-keyboard-response","158","232273","0.0-10.0-0.69","60db4aed5dd7b87124f51341","650c16f0f2faf8d7a0d14c09","651c1d358c21c8304b9a84cd","null","null","<p style=""font-size: 60px; font-family: BACS"">YcdOYaum</p>","","","","","","","","",""
"html-keyboard-response","159","233275","0.0-10.0-0.70","60db4aed5dd7b87124f51341","650c16f0f2faf8d7a0d14c09","651c1d358c21c8304b9a84cd","null","null","<p style=""font-size: 60px; font-family: BACS"">LcNUJGlu</p>","","","","","","","","",""
"html-keyboard-response","160","234291","0.0-10.0-0.71","60db4aed5dd7b87124f51341","650c16f0f2faf8d7a0d14c09","651c1d358c21c8304b9a84cd","null","null","<p style=""font-size: 60px; font-family: BACS"">YJkbcbm</p>","","","","","","","","",""
"html-keyboard-response","161","235305","0.0-10.0-0.72","60db4aed5dd7b87124f51341","650c16f0f2faf8d7a0d14c09","651c1d358c21c8304b9a84cd","null","null","<p style=""font-size: 60px; font-family: BACS"">LcNUJuvJ</p>","","","","","","","","",""
"html-keyboard-response","162","236320","0.0-10.0-0.73","60db4aed5dd7b87124f51341","650c16f0f2faf8d7a0d14c09","651c1d358c21c8304b9a84cd","null","null","<p style=""font-size: 60px; font-family: BACS"">UrOQYaum</p>","","","","","","","","",""
"html-keyboard-response","163","237322","0.0-10.0-0.74","60db4aed5dd7b87124f51341","650c16f0f2faf8d7a0d14c09","651c1d358c21c8304b9a84cd","null","null","<p style=""font-size: 60px; font-family: BACS"">tDPRkmKcD</p>","","","","","","","","",""
"html-keyboard-response","164","238324","0.0-10.0-0.75","60db4aed5dd7b87124f51341","650c16f0f2faf8d7a0d14c09","651c1d358c21c8304b9a84cd","null","null","<p style=""font-size: 60px; font-family: BACS"">YcdOkGua</p>","","","","","","","","",""
"html-keyboard-response","165","239340","0.0-10.0-0.76","60db4aed5dd7b87124f51341","650c16f0f2faf8d7a0d14c09","651c1d358c21c8304b9a84cd","null","null","<p style=""font-size: 60px; font-family: BACS"">OMlTCPMl</p>","","","","","","","","",""
"html-keyboard-response","166","240355","0.0-10.0-0.77","60db4aed5dd7b87124f51341","650c16f0f2faf8d7a0d14c09","651c1d358c21c8304b9a84cd","null","null","<p style=""font-size: 60px; font-family: BACS"">RlAKcmKcD</p>","","","","","","","","",""
"html-keyboard-response","167","241371","0.0-10.0-0.78","60db4aed5dd7b87124f51341","650c16f0f2faf8d7a0d14c09","651c1d358c21c8304b9a84cd","null","null","<p style=""font-size: 60px; font-family: BACS"">YcdOcbm</p>","","","","","","","","",""
"html-keyboard-response","168","242374","0.0-10.0-0.79","60db4aed5dd7b87124f51341","650c16f0f2faf8d7a0d14c09","651c1d358c21c8304b9a84cd","null","null","<p style=""font-size: 60px; font-family: BACS"">YJkbuvJ</p>","","","","","","","","",""
"html-keyboard-response","169","245773","0.0-11.0","60db4aed5dd7b87124f51341","650c16f0f2faf8d7a0d14c09","651c1d358c21c8304b9a84cd","3397"," ","<p>Great, you've seen the second block of words. You may now take a short break.</p>
      <p>Press the spacebar when you're ready to continue.</p>","","","","","","","","",""
"html-keyboard-response","170","246787","0.0-12.0-0.0","60db4aed5dd7b87124f51341","650c16f0f2faf8d7a0d14c09","651c1d358c21c8304b9a84cd","null","null","<p style=""font-size: 60px; font-family: BACS"">RlAKcCPMl</p>","","","","","","","","",""
"html-keyboard-response","171","247790","0.0-12.0-0.1","60db4aed5dd7b87124f51341","650c16f0f2faf8d7a0d14c09","651c1d358c21c8304b9a84cd","null","null","<p style=""font-size: 60px; font-family: BACS"">LuNZcbm</p>","","","","","","","","",""
"html-keyboard-response","172","248806","0.0-12.0-0.2","60db4aed5dd7b87124f51341","650c16f0f2faf8d7a0d14c09","651c1d358c21c8304b9a84cd","null","null","<p style=""font-size: 60px; font-family: BACS"">UrOQYaum</p>","","","","","","","","",""
"html-keyboard-response","173","249822","0.0-12.0-0.3","60db4aed5dd7b87124f51341","650c16f0f2faf8d7a0d14c09","651c1d358c21c8304b9a84cd","null","null","<p style=""font-size: 60px; font-family: BACS"">NvYJGlu</p>","","","","","","","","",""
"html-keyboard-response","174","250839","0.0-12.0-0.4","60db4aed5dd7b87124f51341","650c16f0f2faf8d7a0d14c09","651c1d358c21c8304b9a84cd","null","null","<p style=""font-size: 60px; font-family: BACS"">YJkbuvJ</p>","","","","","","","","",""
"html-keyboard-response","175","251856","0.0-12.0-0.5","60db4aed5dd7b87124f51341","650c16f0f2faf8d7a0d14c09","651c1d358c21c8304b9a84cd","null","null","<p style=""font-size: 60px; font-family: BACS"">YObAmKcD</p>","","","","","","","","",""
"html-keyboard-response","176","252871","0.0-12.0-0.6","60db4aed5dd7b87124f51341","650c16f0f2faf8d7a0d14c09","651c1d358c21c8304b9a84cd","null","null","<p style=""font-size: 60px; font-family: BACS"">LcNUJGlu</p>","","","","","","","","",""
"html-keyboard-response","177","253873","0.0-12.0-0.7","60db4aed5dd7b87124f51341","650c16f0f2faf8d7a0d14c09","651c1d358c21c8304b9a84cd","null","null","<p style=""font-size: 60px; font-family: BACS"">aUZAYaum</p>","","","","","","","","",""
"html-keyboard-response","178","254890","0.0-12.0-0.8","60db4aed5dd7b87124f51341","650c16f0f2faf8d7a0d14c09","651c1d358c21c8304b9a84cd","null","null","<p style=""font-size: 60px; font-family: BACS"">BECkCkbd</p>","","","","","","","","",""
"html-keyboard-response","179","255905","0.0-12.0-0.9","60db4aed5dd7b87124f51341","650c16f0f2faf8d7a0d14c09","651c1d358c21c8304b9a84cd","null","null","<p style=""font-size: 60px; font-family: BACS"">RlAKcmKcD</p>","","","","","","","","",""
"html-keyboard-response","180","256920","0.0-12.0-0.10","60db4aed5dd7b87124f51341","650c16f0f2faf8d7a0d14c09","651c1d358c21c8304b9a84cd","null","null","<p style=""font-size: 60px; font-family: BACS"">aUZAGlu</p>","","","","","","","","",""
"html-keyboard-response","181","257924","0.0-12.0-0.11","60db4aed5dd7b87124f51341","650c16f0f2faf8d7a0d14c09","651c1d358c21c8304b9a84cd","null","null","<p style=""font-size: 60px; font-family: BACS"">UrOQkGua</p>","","","","","","","","",""
"html-keyboard-response","182","258939","0.0-12.0-0.12","60db4aed5dd7b87124f51341","650c16f0f2faf8d7a0d14c09","651c1d358c21c8304b9a84cd","null","null","<p style=""font-size: 60px; font-family: BACS"">BECkCPMl</p>","","","","","","","","",""
"html-keyboard-response","183","259954","0.0-12.0-0.13","60db4aed5dd7b87124f51341","650c16f0f2faf8d7a0d14c09","651c1d358c21c8304b9a84cd","null","null","<p style=""font-size: 60px; font-family: BACS"">aUZAuvJ</p>","","","","","","","","",""
"html-keyboard-response","184","260970","0.0-12.0-0.14","60db4aed5dd7b87124f51341","650c16f0f2faf8d7a0d14c09","651c1d358c21c8304b9a84cd","null","null","<p style=""font-size: 60px; font-family: BACS"">tDPRkCdt</p>","","","","","","","","",""
"html-keyboard-response","185","261972","0.0-12.0-0.15","60db4aed5dd7b87124f51341","650c16f0f2faf8d7a0d14c09","651c1d358c21c8304b9a84cd","null","null","<p style=""font-size: 60px; font-family: BACS"">ALGZYaum</p>","","","","","","","","",""
"html-keyboard-response","186","262974","0.0-12.0-0.16","60db4aed5dd7b87124f51341","650c16f0f2faf8d7a0d14c09","651c1d358c21c8304b9a84cd","null","null","<p style=""font-size: 60px; font-family: BACS"">BbODmKcD</p>","","","","","","","","",""
"html-keyboard-response","187","263988","0.0-12.0-0.17","60db4aed5dd7b87124f51341","650c16f0f2faf8d7a0d14c09","651c1d358c21c8304b9a84cd","null","null","<p style=""font-size: 60px; font-family: BACS"">OMlTCdt</p>","","","","","","","","",""
"html-keyboard-response","188","265006","0.0-12.0-0.18","60db4aed5dd7b87124f51341","650c16f0f2faf8d7a0d14c09","651c1d358c21c8304b9a84cd","null","null","<p style=""font-size: 60px; font-family: BACS"">BECkYKPB</p>","","","","","","","","",""
"html-keyboard-response","189","266022","0.0-12.0-0.19","60db4aed5dd7b87124f51341","650c16f0f2faf8d7a0d14c09","651c1d358c21c8304b9a84cd","null","null","<p style=""font-size: 60px; font-family: BACS"">YObACkbd</p>","","","","","","","","",""
"html-keyboard-response","190","267037","0.0-12.0-0.20","60db4aed5dd7b87124f51341","650c16f0f2faf8d7a0d14c09","651c1d358c21c8304b9a84cd","null","null","<p style=""font-size: 60px; font-family: BACS"">YcdOcbm</p>","","","","","","","","",""
"html-keyboard-response","191","268039","0.0-12.0-0.21","60db4aed5dd7b87124f51341","650c16f0f2faf8d7a0d14c09","651c1d358c21c8304b9a84cd","null","null","<p style=""font-size: 60px; font-family: BACS"">OMlTCkbd</p>","","","","","","","","",""
"html-keyboard-response","192","269056","0.0-12.0-0.22","60db4aed5dd7b87124f51341","650c16f0f2faf8d7a0d14c09","651c1d358c21c8304b9a84cd","null","null","<p style=""font-size: 60px; font-family: BACS"">YcdOkGua</p>","","","","","","","","",""
"html-keyboard-response","193","270071","0.0-12.0-0.23","60db4aed5dd7b87124f51341","650c16f0f2faf8d7a0d14c09","651c1d358c21c8304b9a84cd","null","null","<p style=""font-size: 60px; font-family: BACS"">TEBKmKcD</p>","","","","","","","","",""
"html-keyboard-response","194","271073","0.0-12.0-0.24","60db4aed5dd7b87124f51341","650c16f0f2faf8d7a0d14c09","651c1d358c21c8304b9a84cd","null","null","<p style=""font-size: 60px; font-family: BACS"">tRdMCPMl</p>","","","","","","","","",""
"html-keyboard-response","195","272074","0.0-12.0-0.25","60db4aed5dd7b87124f51341","650c16f0f2faf8d7a0d14c09","651c1d358c21c8304b9a84cd","null","null","<p style=""font-size: 60px; font-family: BACS"">OLJblkGua</p>","","","","","","","","",""
"html-keyboard-response","196","273086","0.0-12.0-0.26","60db4aed5dd7b87124f51341","650c16f0f2faf8d7a0d14c09","651c1d358c21c8304b9a84cd","null","null","<p style=""font-size: 60px; font-family: BACS"">mARMmKcD</p>","","","","","","","","",""
"html-keyboard-response","197","274088","0.0-12.0-0.27","60db4aed5dd7b87124f51341","650c16f0f2faf8d7a0d14c09","651c1d358c21c8304b9a84cd","null","null","<p style=""font-size: 60px; font-family: BACS"">OYuvbYaum</p>","","","","","","","","",""
"html-keyboard-response","198","275090","0.0-12.0-0.28","60db4aed5dd7b87124f51341","650c16f0f2faf8d7a0d14c09","651c1d358c21c8304b9a84cd","null","null","<p style=""font-size: 60px; font-family: BACS"">ALGZuvJ</p>","","","","","","","","",""
"html-keyboard-response","199","276105","0.0-12.0-0.29","60db4aed5dd7b87124f51341","650c16f0f2faf8d7a0d14c09","651c1d358c21c8304b9a84cd","null","null","<p style=""font-size: 60px; font-family: BACS"">YJkbkGua</p>","","","","","","","","",""
"html-keyboard-response","200","277106","0.0-12.0-0.30","60db4aed5dd7b87124f51341","650c16f0f2faf8d7a0d14c09","651c1d358c21c8304b9a84cd","null","null","<p style=""font-size: 60px; font-family: BACS"">UrOQGlu</p>","","","","","","","","",""
"html-keyboard-response","201","278120","0.0-12.0-0.31","60db4aed5dd7b87124f51341","650c16f0f2faf8d7a0d14c09","651c1d358c21c8304b9a84cd","null","null","<p style=""font-size: 60px; font-family: BACS"">YObACPMl</p>","","","","","","","","",""
"html-keyboard-response","202","279121","0.0-12.0-0.32","60db4aed5dd7b87124f51341","650c16f0f2faf8d7a0d14c09","651c1d358c21c8304b9a84cd","null","null","<p style=""font-size: 60px; font-family: BACS"">BbODCdt</p>","","","","","","","","",""
"html-keyboard-response","203","280122","0.0-12.0-0.33","60db4aed5dd7b87124f51341","650c16f0f2faf8d7a0d14c09","651c1d358c21c8304b9a84cd","null","null","<p style=""font-size: 60px; font-family: BACS"">LcNUJkGua</p>","","","","","","","","",""
"html-keyboard-response","204","281129","0.0-12.0-0.34","60db4aed5dd7b87124f51341","650c16f0f2faf8d7a0d14c09","651c1d358c21c8304b9a84cd","null","null","<p style=""font-size: 60px; font-family: BACS"">RlAKcCkbd</p>","","","","","","","","",""
"html-keyboard-response","205","282137","0.0-12.0-0.35","60db4aed5dd7b87124f51341","650c16f0f2faf8d7a0d14c09","651c1d358c21c8304b9a84cd","null","null","<p style=""font-size: 60px; font-family: BACS"">YJkbcbm</p>","","","","","","","","",""
"html-keyboard-response","206","283139","0.0-12.0-0.36","60db4aed5dd7b87124f51341","650c16f0f2faf8d7a0d14c09","651c1d358c21c8304b9a84cd","null","null","<p style=""font-size: 60px; font-family: BACS"">LuNZGlu</p>","","","","","","","","",""
"html-keyboard-response","207","284154","0.0-12.0-0.37","60db4aed5dd7b87124f51341","650c16f0f2faf8d7a0d14c09","651c1d358c21c8304b9a84cd","null","null","<p style=""font-size: 60px; font-family: BACS"">TEBKCPMl</p>","","","","","","","","",""
"html-keyboard-response","208","285155","0.0-12.0-0.38","60db4aed5dd7b87124f51341","650c16f0f2faf8d7a0d14c09","651c1d358c21c8304b9a84cd","null","null","<p style=""font-size: 60px; font-family: BACS"">mBYlYKPB</p>","","","","","","","","",""
"html-keyboard-response","209","286170","0.0-12.0-0.39","60db4aed5dd7b87124f51341","650c16f0f2faf8d7a0d14c09","651c1d358c21c8304b9a84cd","null","null","<p style=""font-size: 60px; font-family: BACS"">OYuvbuvJ</p>","","","","","","","","",""
"html-keyboard-response","210","287186","0.0-12.0-0.40","60db4aed5dd7b87124f51341","650c16f0f2faf8d7a0d14c09","651c1d358c21c8304b9a84cd","null","null","<p style=""font-size: 60px; font-family: BACS"">mARMCPMl</p>","","","","","","","","",""
"html-keyboard-response","211","288188","0.0-12.0-0.41","60db4aed5dd7b87124f51341","650c16f0f2faf8d7a0d14c09","651c1d358c21c8304b9a84cd","null","null","<p style=""font-size: 60px; font-family: BACS"">NvYJcbm</p>","","","","","","","","",""
"html-keyboard-response","212","289202","0.0-12.0-0.42","60db4aed5dd7b87124f51341","650c16f0f2faf8d7a0d14c09","651c1d358c21c8304b9a84cd","null","null","<p style=""font-size: 60px; font-family: BACS"">mARMYKPB</p>","","","","","","","","",""
"html-keyboard-response","213","290218","0.0-12.0-0.43","60db4aed5dd7b87124f51341","650c16f0f2faf8d7a0d14c09","651c1d358c21c8304b9a84cd","null","null","<p style=""font-size: 60px; font-family: BACS"">YcdOYaum</p>","","","","","","","","",""
"html-keyboard-response","214","291235","0.0-12.0-0.44","60db4aed5dd7b87124f51341","650c16f0f2faf8d7a0d14c09","651c1d358c21c8304b9a84cd","null","null","<p style=""font-size: 60px; font-family: BACS"">OMlTCPMl</p>","","","","","","","","",""
"html-keyboard-response","215","292242","0.0-12.0-0.45","60db4aed5dd7b87124f51341","650c16f0f2faf8d7a0d14c09","651c1d358c21c8304b9a84cd","null","null","<p style=""font-size: 60px; font-family: BACS"">UrOQcbm</p>","","","","","","","","",""
"html-keyboard-response","216","293242","0.0-12.0-0.46","60db4aed5dd7b87124f51341","650c16f0f2faf8d7a0d14c09","651c1d358c21c8304b9a84cd","null","null","<p style=""font-size: 60px; font-family: BACS"">NvYJkGua</p>","","","","","","","","",""
"html-keyboard-response","217","294253","0.0-12.0-0.47","60db4aed5dd7b87124f51341","650c16f0f2faf8d7a0d14c09","651c1d358c21c8304b9a84cd","null","null","<p style=""font-size: 60px; font-family: BACS"">YJkbYaum</p>","","","","","","","","",""
"html-keyboard-response","218","295269","0.0-12.0-0.48","60db4aed5dd7b87124f51341","650c16f0f2faf8d7a0d14c09","651c1d358c21c8304b9a84cd","null","null","<p style=""font-size: 60px; font-family: BACS"">YObACdt</p>","","","","","","","","",""
"html-keyboard-response","219","296271","0.0-12.0-0.49","60db4aed5dd7b87124f51341","650c16f0f2faf8d7a0d14c09","651c1d358c21c8304b9a84cd","null","null","<p style=""font-size: 60px; font-family: BACS"">aUZAkGua</p>","","","","","","","","",""
"html-keyboard-response","220","297287","0.0-12.0-0.50","60db4aed5dd7b87124f51341","650c16f0f2faf8d7a0d14c09","651c1d358c21c8304b9a84cd","null","null","<p style=""font-size: 60px; font-family: BACS"">tRdMmKcD</p>","","","","","","","","",""
"html-keyboard-response","221","298302","0.0-12.0-0.51","60db4aed5dd7b87124f51341","650c16f0f2faf8d7a0d14c09","651c1d358c21c8304b9a84cd","null","null","<p style=""font-size: 60px; font-family: BACS"">BbODYKPB</p>","","","","","","","","",""
"html-keyboard-response","222","299304","0.0-12.0-0.52","60db4aed5dd7b87124f51341","650c16f0f2faf8d7a0d14c09","651c1d358c21c8304b9a84cd","null","null","<p style=""font-size: 60px; font-family: BACS"">OLJbluvJ</p>","","","","","","","","",""
"html-keyboard-response","223","300304","0.0-12.0-0.53","60db4aed5dd7b87124f51341","650c16f0f2faf8d7a0d14c09","651c1d358c21c8304b9a84cd","null","null","<p style=""font-size: 60px; font-family: BACS"">OYuvbcbm</p>","","","","","","","","",""
"html-keyboard-response","224","301319","0.0-12.0-0.54","60db4aed5dd7b87124f51341","650c16f0f2faf8d7a0d14c09","651c1d358c21c8304b9a84cd","null","null","<p style=""font-size: 60px; font-family: BACS"">tRdMYKPB</p>","","","","","","","","",""
"html-keyboard-response","225","302335","0.0-12.0-0.55","60db4aed5dd7b87124f51341","650c16f0f2faf8d7a0d14c09","651c1d358c21c8304b9a84cd","null","null","<p style=""font-size: 60px; font-family: BACS"">mBYlmKcD</p>","","","","","","","","",""
"html-keyboard-response","226","303336","0.0-12.0-0.56","60db4aed5dd7b87124f51341","650c16f0f2faf8d7a0d14c09","651c1d358c21c8304b9a84cd","null","null","<p style=""font-size: 60px; font-family: BACS"">LcNUJuvJ</p>","","","","","","","","",""
"html-keyboard-response","227","304352","0.0-12.0-0.57","60db4aed5dd7b87124f51341","650c16f0f2faf8d7a0d14c09","651c1d358c21c8304b9a84cd","null","null","<p style=""font-size: 60px; font-family: BACS"">mARMCdt</p>","","","","","","","","",""
"html-keyboard-response","228","305369","0.0-12.0-0.58","60db4aed5dd7b87124f51341","650c16f0f2faf8d7a0d14c09","651c1d358c21c8304b9a84cd","null","null","<p style=""font-size: 60px; font-family: BACS"">TEBKYKPB</p>","","","","","","","","",""
"html-keyboard-response","229","306371","0.0-12.0-0.59","60db4aed5dd7b87124f51341","650c16f0f2faf8d7a0d14c09","651c1d358c21c8304b9a84cd","null","null","<p style=""font-size: 60px; font-family: BACS"">LuNZYaum</p>","","","","","","","","",""
"html-keyboard-response","230","307386","0.0-12.0-0.60","60db4aed5dd7b87124f51341","650c16f0f2faf8d7a0d14c09","651c1d358c21c8304b9a84cd","null","null","<p style=""font-size: 60px; font-family: BACS"">OYuvbGlu</p>","","","","","","","","",""
"html-keyboard-response","231","308387","0.0-12.0-0.61","60db4aed5dd7b87124f51341","650c16f0f2faf8d7a0d14c09","651c1d358c21c8304b9a84cd","null","null","<p style=""font-size: 60px; font-family: BACS"">OMlTYKPB</p>","","","","","","","","",""
"html-keyboard-response","232","309389","0.0-12.0-0.62","60db4aed5dd7b87124f51341","650c16f0f2faf8d7a0d14c09","651c1d358c21c8304b9a84cd","null","null","<p style=""font-size: 60px; font-family: BACS"">OLJblYaum</p>","","","","","","","","",""
"html-keyboard-response","233","310403","0.0-12.0-0.63","60db4aed5dd7b87124f51341","650c16f0f2faf8d7a0d14c09","651c1d358c21c8304b9a84cd","null","null","<p style=""font-size: 60px; font-family: BACS"">BECkCdt</p>","","","","","","","","",""
"html-keyboard-response","234","311405","0.0-12.0-0.64","60db4aed5dd7b87124f51341","650c16f0f2faf8d7a0d14c09","651c1d358c21c8304b9a84cd","null","null","<p style=""font-size: 60px; font-family: BACS"">LuNZuvJ</p>","","","","","","","","",""
"html-keyboard-response","235","312420","0.0-12.0-0.65","60db4aed5dd7b87124f51341","650c16f0f2faf8d7a0d14c09","651c1d358c21c8304b9a84cd","null","null","<p style=""font-size: 60px; font-family: BACS"">tDPRkmKcD</p>","","","","","","","","",""
"html-keyboard-response","236","313436","0.0-12.0-0.66","60db4aed5dd7b87124f51341","650c16f0f2faf8d7a0d14c09","651c1d358c21c8304b9a84cd","null","null","<p style=""font-size: 60px; font-family: BACS"">TEBKCdt</p>","","","","","","","","",""
"html-keyboard-response","237","314452","0.0-12.0-0.67","60db4aed5dd7b87124f51341","650c16f0f2faf8d7a0d14c09","651c1d358c21c8304b9a84cd","null","null","<p style=""font-size: 60px; font-family: BACS"">NvYJuvJ</p>","","","","","","","","",""
"html-keyboard-response","238","315454","0.0-12.0-0.68","60db4aed5dd7b87124f51341","650c16f0f2faf8d7a0d14c09","651c1d358c21c8304b9a84cd","null","null","<p style=""font-size: 60px; font-family: BACS"">tDPRkYKPB</p>","","","","","","","","",""
"html-keyboard-response","239","316468","0.0-12.0-0.69","60db4aed5dd7b87124f51341","650c16f0f2faf8d7a0d14c09","651c1d358c21c8304b9a84cd","null","null","<p style=""font-size: 60px; font-family: BACS"">YcdOGlu</p>","","","","","","","","",""
"html-keyboard-response","240","317485","0.0-12.0-0.70","60db4aed5dd7b87124f51341","650c16f0f2faf8d7a0d14c09","651c1d358c21c8304b9a84cd","null","null","<p style=""font-size: 60px; font-family: BACS"">OLJblcbm</p>","","","","","","","","",""
"html-keyboard-response","241","318503","0.0-12.0-0.71","60db4aed5dd7b87124f51341","650c16f0f2faf8d7a0d14c09","651c1d358c21c8304b9a84cd","null","null","<p style=""font-size: 60px; font-family: BACS"">BbODCkbd</p>","","","","","","","","",""
"html-keyboard-response","242","319519","0.0-12.0-0.72","60db4aed5dd7b87124f51341","650c16f0f2faf8d7a0d14c09","651c1d358c21c8304b9a84cd","null","null","<p style=""font-size: 60px; font-family: BACS"">LcNUJcbm</p>","","","","","","","","",""
"html-keyboard-response","243","320537","0.0-12.0-0.73","60db4aed5dd7b87124f51341","650c16f0f2faf8d7a0d14c09","651c1d358c21c8304b9a84cd","null","null","<p style=""font-size: 60px; font-family: BACS"">ALGZkGua</p>","","","","","","","","",""
"html-keyboard-response","244","321551","0.0-12.0-0.74","60db4aed5dd7b87124f51341","650c16f0f2faf8d7a0d14c09","651c1d358c21c8304b9a84cd","null","null","<p style=""font-size: 60px; font-family: BACS"">mBYlCPMl</p>","","","","","","","","",""
"html-keyboard-response","245","322554","0.0-12.0-0.75","60db4aed5dd7b87124f51341","650c16f0f2faf8d7a0d14c09","651c1d358c21c8304b9a84cd","null","null","<p style=""font-size: 60px; font-family: BACS"">tRdMCkbd</p>","","","","","","","","",""
"html-keyboard-response","246","323570","0.0-12.0-0.76","60db4aed5dd7b87124f51341","650c16f0f2faf8d7a0d14c09","651c1d358c21c8304b9a84cd","null","null","<p style=""font-size: 60px; font-family: BACS"">ALGZGlu</p>","","","","","","","","",""
"html-keyboard-response","247","324586","0.0-12.0-0.77","60db4aed5dd7b87124f51341","650c16f0f2faf8d7a0d14c09","651c1d358c21c8304b9a84cd","null","null","<p style=""font-size: 60px; font-family: BACS"">tDPRkCkbd</p>","","","","","","","","",""
"html-keyboard-response","248","325602","0.0-12.0-0.78","60db4aed5dd7b87124f51341","650c16f0f2faf8d7a0d14c09","651c1d358c21c8304b9a84cd","null","null","<p style=""font-size: 60px; font-family: BACS"">RlAKcCdt</p>","","","","","","","","",""
"html-keyboard-response","249","326604","0.0-12.0-0.79","60db4aed5dd7b87124f51341","650c16f0f2faf8d7a0d14c09","651c1d358c21c8304b9a84cd","null","null","<p style=""font-size: 60px; font-family: BACS"">mBYlCkbd</p>","","","","","","","","",""
"html-keyboard-response","250","329372","0.0-13.0","60db4aed5dd7b87124f51341","650c16f0f2faf8d7a0d14c09","651c1d358c21c8304b9a84cd","2767"," ","<p>Great, you've seen the third block of words. You may now take a short break.</p>
      <p>Press the spacebar when you're ready to continue.</p>","","","","","","","","",""
"html-keyboard-response","251","330385","0.0-14.0-0.0","60db4aed5dd7b87124f51341","650c16f0f2faf8d7a0d14c09","651c1d358c21c8304b9a84cd","null","null","<p style=""font-size: 60px; font-family: BACS"">YJkbYaum</p>","","","","","","","","",""
"html-keyboard-response","252","331402","0.0-14.0-0.1","60db4aed5dd7b87124f51341","650c16f0f2faf8d7a0d14c09","651c1d358c21c8304b9a84cd","null","null","<p style=""font-size: 60px; font-family: BACS"">OLJblcbm</p>","","","","","","","","",""
"html-keyboard-response","253","332418","0.0-14.0-0.2","60db4aed5dd7b87124f51341","650c16f0f2faf8d7a0d14c09","651c1d358c21c8304b9a84cd","null","null","<p style=""font-size: 60px; font-family: BACS"">UrOQGlu</p>","","","","","","","","",""
"html-keyboard-response","254","333435","0.0-14.0-0.3","60db4aed5dd7b87124f51341","650c16f0f2faf8d7a0d14c09","651c1d358c21c8304b9a84cd","null","null","<p style=""font-size: 60px; font-family: BACS"">LcNUJuvJ</p>","","","","","","","","",""
"html-keyboard-response","255","334453","0.0-14.0-0.4","60db4aed5dd7b87124f51341","650c16f0f2faf8d7a0d14c09","651c1d358c21c8304b9a84cd","null","null","<p style=""font-size: 60px; font-family: BACS"">TEBKCPMl</p>","","","","","","","","",""
"html-keyboard-response","256","335467","0.0-14.0-0.5","60db4aed5dd7b87124f51341","650c16f0f2faf8d7a0d14c09","651c1d358c21c8304b9a84cd","null","null","<p style=""font-size: 60px; font-family: BACS"">tDPRkYKPB</p>","","","","","","","","",""
"html-keyboard-response","257","336469","0.0-14.0-0.6","60db4aed5dd7b87124f51341","650c16f0f2faf8d7a0d14c09","651c1d358c21c8304b9a84cd","null","null","<p style=""font-size: 60px; font-family: BACS"">YJkbkGua</p>","","","","","","","","",""
"html-keyboard-response","258","337486","0.0-14.0-0.7","60db4aed5dd7b87124f51341","650c16f0f2faf8d7a0d14c09","651c1d358c21c8304b9a84cd","null","null","<p style=""font-size: 60px; font-family: BACS"">BECkCdt</p>","","","","","","","","",""
"html-keyboard-response","259","338502","0.0-14.0-0.8","60db4aed5dd7b87124f51341","650c16f0f2faf8d7a0d14c09","651c1d358c21c8304b9a84cd","null","null","<p style=""font-size: 60px; font-family: BACS"">tRdMCkbd</p>","","","","","","","","",""
"html-keyboard-response","260","339504","0.0-14.0-0.9","60db4aed5dd7b87124f51341","650c16f0f2faf8d7a0d14c09","651c1d358c21c8304b9a84cd","null","null","<p style=""font-size: 60px; font-family: BACS"">RlAKcmKcD</p>","","","","","","","","",""
"html-keyboard-response","261","340519","0.0-14.0-0.10","60db4aed5dd7b87124f51341","650c16f0f2faf8d7a0d14c09","651c1d358c21c8304b9a84cd","null","null","<p style=""font-size: 60px; font-family: BACS"">BECkCPMl</p>","","","","","","","","",""
"html-keyboard-response","262","341536","0.0-14.0-0.11","60db4aed5dd7b87124f51341","650c16f0f2faf8d7a0d14c09","651c1d358c21c8304b9a84cd","null","null","<p style=""font-size: 60px; font-family: BACS"">ALGZGlu</p>","","","","","","","","",""
"html-keyboard-response","263","342552","0.0-14.0-0.12","60db4aed5dd7b87124f51341","650c16f0f2faf8d7a0d14c09","651c1d358c21c8304b9a84cd","null","null","<p style=""font-size: 60px; font-family: BACS"">YObAmKcD</p>","","","","","","","","",""
"html-keyboard-response","264","343568","0.0-14.0-0.13","60db4aed5dd7b87124f51341","650c16f0f2faf8d7a0d14c09","651c1d358c21c8304b9a84cd","null","null","<p style=""font-size: 60px; font-family: BACS"">OMlTYKPB</p>","","","","","","","","",""
"html-keyboard-response","265","344584","0.0-14.0-0.14","60db4aed5dd7b87124f51341","650c16f0f2faf8d7a0d14c09","651c1d358c21c8304b9a84cd","null","null","<p style=""font-size: 60px; font-family: BACS"">LuNZYaum</p>","","","","","","","","",""
"html-keyboard-response","266","345601","0.0-14.0-0.15","60db4aed5dd7b87124f51341","650c16f0f2faf8d7a0d14c09","651c1d358c21c8304b9a84cd","null","null","<p style=""font-size: 60px; font-family: BACS"">UrOQkGua</p>","","","","","","","","",""
"html-keyboard-response","267","346603","0.0-14.0-0.16","60db4aed5dd7b87124f51341","650c16f0f2faf8d7a0d14c09","651c1d358c21c8304b9a84cd","null","null","<p style=""font-size: 60px; font-family: BACS"">RlAKcCdt</p>","","","","","","","","",""
"html-keyboard-response","268","347619","0.0-14.0-0.17","60db4aed5dd7b87124f51341","650c16f0f2faf8d7a0d14c09","651c1d358c21c8304b9a84cd","null","null","<p style=""font-size: 60px; font-family: BACS"">LuNZGlu</p>","","","","","","","","",""
"html-keyboard-response","269","348633","0.0-14.0-0.18","60db4aed5dd7b87124f51341","650c16f0f2faf8d7a0d14c09","651c1d358c21c8304b9a84cd","null","null","<p style=""font-size: 60px; font-family: BACS"">OLJbluvJ</p>","","","","","","","","",""
"html-keyboard-response","270","349637","0.0-14.0-0.19","60db4aed5dd7b87124f51341","650c16f0f2faf8d7a0d14c09","651c1d358c21c8304b9a84cd","null","null","<p style=""font-size: 60px; font-family: BACS"">LuNZcbm</p>","","","","","","","","",""
"html-keyboard-response","271","350653","0.0-14.0-0.20","60db4aed5dd7b87124f51341","650c16f0f2faf8d7a0d14c09","651c1d358c21c8304b9a84cd","null","null","<p style=""font-size: 60px; font-family: BACS"">tRdMmKcD</p>","","","","","","","","",""
"html-keyboard-response","272","351669","0.0-14.0-0.21","60db4aed5dd7b87124f51341","650c16f0f2faf8d7a0d14c09","651c1d358c21c8304b9a84cd","null","null","<p style=""font-size: 60px; font-family: BACS"">LuNZuvJ</p>","","","","","","","","",""
"html-keyboard-response","273","352682","0.0-14.0-0.22","60db4aed5dd7b87124f51341","650c16f0f2faf8d7a0d14c09","651c1d358c21c8304b9a84cd","null","null","<p style=""font-size: 60px; font-family: BACS"">OMlTCdt</p>","","","","","","","","",""
"html-keyboard-response","274","353686","0.0-14.0-0.23","60db4aed5dd7b87124f51341","650c16f0f2faf8d7a0d14c09","651c1d358c21c8304b9a84cd","null","null","<p style=""font-size: 60px; font-family: BACS"">mBYlYKPB</p>","","","","","","","","",""
"html-keyboard-response","275","354701","0.0-14.0-0.24","60db4aed5dd7b87124f51341","650c16f0f2faf8d7a0d14c09","651c1d358c21c8304b9a84cd","null","null","<p style=""font-size: 60px; font-family: BACS"">TEBKmKcD</p>","","","","","","","","",""
"html-keyboard-response","276","355717","0.0-14.0-0.25","60db4aed5dd7b87124f51341","650c16f0f2faf8d7a0d14c09","651c1d358c21c8304b9a84cd","null","null","<p style=""font-size: 60px; font-family: BACS"">YJkbcbm</p>","","","","","","","","",""
"html-keyboard-response","277","356719","0.0-14.0-0.26","60db4aed5dd7b87124f51341","650c16f0f2faf8d7a0d14c09","651c1d358c21c8304b9a84cd","null","null","<p style=""font-size: 60px; font-family: BACS"">YcdOYaum</p>","","","","","","","","",""
"html-keyboard-response","278","357735","0.0-14.0-0.27","60db4aed5dd7b87124f51341","650c16f0f2faf8d7a0d14c09","651c1d358c21c8304b9a84cd","null","null","<p style=""font-size: 60px; font-family: BACS"">BECkYKPB</p>","","","","","","","","",""
"html-keyboard-response","279","358750","0.0-14.0-0.28","60db4aed5dd7b87124f51341","650c16f0f2faf8d7a0d14c09","651c1d358c21c8304b9a84cd","null","null","<p style=""font-size: 60px; font-family: BACS"">YObACkbd</p>","","","","","","","","",""
"html-keyboard-response","280","359765","0.0-14.0-0.29","60db4aed5dd7b87124f51341","650c16f0f2faf8d7a0d14c09","651c1d358c21c8304b9a84cd","null","null","<p style=""font-size: 60px; font-family: BACS"">tRdMYKPB</p>","","","","","","","","",""
"html-keyboard-response","281","360769","0.0-14.0-0.30","60db4aed5dd7b87124f51341","650c16f0f2faf8d7a0d14c09","651c1d358c21c8304b9a84cd","null","null","<p style=""font-size: 60px; font-family: BACS"">ALGZkGua</p>","","","","","","","","",""
"html-keyboard-response","282","361786","0.0-14.0-0.31","60db4aed5dd7b87124f51341","650c16f0f2faf8d7a0d14c09","651c1d358c21c8304b9a84cd","null","null","<p style=""font-size: 60px; font-family: BACS"">mARMmKcD</p>","","","","","","","","",""
"html-keyboard-response","283","362801","0.0-14.0-0.32","60db4aed5dd7b87124f51341","650c16f0f2faf8d7a0d14c09","651c1d358c21c8304b9a84cd","null","null","<p style=""font-size: 60px; font-family: BACS"">NvYJkGua</p>","","","","","","","","",""
"html-keyboard-response","284","363818","0.0-14.0-0.33","60db4aed5dd7b87124f51341","650c16f0f2faf8d7a0d14c09","651c1d358c21c8304b9a84cd","null","null","<p style=""font-size: 60px; font-family: BACS"">LcNUJcbm</p>","","","","","","","","",""
"html-keyboard-response","285","364834","0.0-14.0-0.34","60db4aed5dd7b87124f51341","650c16f0f2faf8d7a0d14c09","651c1d358c21c8304b9a84cd","null","null","<p style=""font-size: 60px; font-family: BACS"">OMlTCkbd</p>","","","","","","","","",""
"html-keyboard-response","286","365835","0.0-14.0-0.35","60db4aed5dd7b87124f51341","650c16f0f2faf8d7a0d14c09","651c1d358c21c8304b9a84cd","null","null","<p style=""font-size: 60px; font-family: BACS"">NvYJuvJ</p>","","","","","","","","",""
"html-keyboard-response","287","366852","0.0-14.0-0.36","60db4aed5dd7b87124f51341","650c16f0f2faf8d7a0d14c09","651c1d358c21c8304b9a84cd","null","null","<p style=""font-size: 60px; font-family: BACS"">OLJblYaum</p>","","","","","","","","",""
"html-keyboard-response","288","367868","0.0-14.0-0.37","60db4aed5dd7b87124f51341","650c16f0f2faf8d7a0d14c09","651c1d358c21c8304b9a84cd","null","null","<p style=""font-size: 60px; font-family: BACS"">LcNUJGlu</p>","","","","","","","","",""
"html-keyboard-response","289","368885","0.0-14.0-0.38","60db4aed5dd7b87124f51341","650c16f0f2faf8d7a0d14c09","651c1d358c21c8304b9a84cd","null","null","<p style=""font-size: 60px; font-family: BACS"">BECkCkbd</p>","","","","","","","","",""
"html-keyboard-response","290","369900","0.0-14.0-0.39","60db4aed5dd7b87124f51341","650c16f0f2faf8d7a0d14c09","651c1d358c21c8304b9a84cd","null","null","<p style=""font-size: 60px; font-family: BACS"">OYuvbGlu</p>","","","","","","","","",""
"html-keyboard-response","291","370903","0.0-14.0-0.40","60db4aed5dd7b87124f51341","650c16f0f2faf8d7a0d14c09","651c1d358c21c8304b9a84cd","null","null","<p style=""font-size: 60px; font-family: BACS"">mARMCdt</p>","","","","","","","","",""
"html-keyboard-response","292","371917","0.0-14.0-0.41","60db4aed5dd7b87124f51341","650c16f0f2faf8d7a0d14c09","651c1d358c21c8304b9a84cd","null","null","<p style=""font-size: 60px; font-family: BACS"">mBYlCPMl</p>","","","","","","","","",""
"html-keyboard-response","293","372935","0.0-14.0-0.42","60db4aed5dd7b87124f51341","650c16f0f2faf8d7a0d14c09","651c1d358c21c8304b9a84cd","null","null","<p style=""font-size: 60px; font-family: BACS"">tDPRkCkbd</p>","","","","","","","","",""
"html-keyboard-response","294","373950","0.0-14.0-0.43","60db4aed5dd7b87124f51341","650c16f0f2faf8d7a0d14c09","651c1d358c21c8304b9a84cd","null","null","<p style=""font-size: 60px; font-family: BACS"">OYuvbYaum</p>","","","","","","","","",""
"html-keyboard-response","295","374966","0.0-14.0-0.44","60db4aed5dd7b87124f51341","650c16f0f2faf8d7a0d14c09","651c1d358c21c8304b9a84cd","null","null","<p style=""font-size: 60px; font-family: BACS"">tRdMCPMl</p>","","","","","","","","",""
"html-keyboard-response","296","375969","0.0-14.0-0.45","60db4aed5dd7b87124f51341","650c16f0f2faf8d7a0d14c09","651c1d358c21c8304b9a84cd","null","null","<p style=""font-size: 60px; font-family: BACS"">YcdOkGua</p>","","","","","","","","",""
"html-keyboard-response","297","376984","0.0-14.0-0.46","60db4aed5dd7b87124f51341","650c16f0f2faf8d7a0d14c09","651c1d358c21c8304b9a84cd","null","null","<p style=""font-size: 60px; font-family: BACS"">NvYJGlu</p>","","","","","","","","",""
"html-keyboard-response","298","378001","0.0-14.0-0.47","60db4aed5dd7b87124f51341","650c16f0f2faf8d7a0d14c09","651c1d358c21c8304b9a84cd","null","null","<p style=""font-size: 60px; font-family: BACS"">aUZAkGua</p>","","","","","","","","",""
"html-keyboard-response","299","379017","0.0-14.0-0.48","60db4aed5dd7b87124f51341","650c16f0f2faf8d7a0d14c09","651c1d358c21c8304b9a84cd","null","null","<p style=""font-size: 60px; font-family: BACS"">UrOQcbm</p>","","","","","","","","",""
"html-keyboard-response","300","380033","0.0-14.0-0.49","60db4aed5dd7b87124f51341","650c16f0f2faf8d7a0d14c09","651c1d358c21c8304b9a84cd","null","null","<p style=""font-size: 60px; font-family: BACS"">YObACPMl</p>","","","","","","","","",""
"html-keyboard-response","301","381048","0.0-14.0-0.50","60db4aed5dd7b87124f51341","650c16f0f2faf8d7a0d14c09","651c1d358c21c8304b9a84cd","null","null","<p style=""font-size: 60px; font-family: BACS"">TEBKYKPB</p>","","","","","","","","",""
"html-keyboard-response","302","382064","0.0-14.0-0.51","60db4aed5dd7b87124f51341","650c16f0f2faf8d7a0d14c09","651c1d358c21c8304b9a84cd","null","null","<p style=""font-size: 60px; font-family: BACS"">BbODCdt</p>","","","","","","","","",""
"html-keyboard-response","303","383081","0.0-14.0-0.52","60db4aed5dd7b87124f51341","650c16f0f2faf8d7a0d14c09","651c1d358c21c8304b9a84cd","null","null","<p style=""font-size: 60px; font-family: BACS"">ALGZYaum</p>","","","","","","","","",""
"html-keyboard-response","304","384084","0.0-14.0-0.53","60db4aed5dd7b87124f51341","650c16f0f2faf8d7a0d14c09","651c1d358c21c8304b9a84cd","null","null","<p style=""font-size: 60px; font-family: BACS"">RlAKcCPMl</p>","","","","","","","","",""
"html-keyboard-response","305","385100","0.0-14.0-0.54","60db4aed5dd7b87124f51341","650c16f0f2faf8d7a0d14c09","651c1d358c21c8304b9a84cd","null","null","<p style=""font-size: 60px; font-family: BACS"">OYuvbuvJ</p>","","","","","","","","",""
"html-keyboard-response","306","386101","0.0-14.0-0.55","60db4aed5dd7b87124f51341","650c16f0f2faf8d7a0d14c09","651c1d358c21c8304b9a84cd","null","null","<p style=""font-size: 60px; font-family: BACS"">aUZAYaum</p>","","","","","","","","",""
"html-keyboard-response","307","387114","0.0-14.0-0.56","60db4aed5dd7b87124f51341","650c16f0f2faf8d7a0d14c09","651c1d358c21c8304b9a84cd","null","null","<p style=""font-size: 60px; font-family: BACS"">YcdOGlu</p>","","","","","","","","",""
"html-keyboard-response","308","388118","0.0-14.0-0.57","60db4aed5dd7b87124f51341","650c16f0f2faf8d7a0d14c09","651c1d358c21c8304b9a84cd","null","null","<p style=""font-size: 60px; font-family: BACS"">BbODYKPB</p>","","","","","","","","",""
"html-keyboard-response","309","389133","0.0-14.0-0.58","60db4aed5dd7b87124f51341","650c16f0f2faf8d7a0d14c09","651c1d358c21c8304b9a84cd","null","null","<p style=""font-size: 60px; font-family: BACS"">ALGZuvJ</p>","","","","","","","","",""
"html-keyboard-response","310","390148","0.0-14.0-0.59","60db4aed5dd7b87124f51341","650c16f0f2faf8d7a0d14c09","651c1d358c21c8304b9a84cd","null","null","<p style=""font-size: 60px; font-family: BACS"">BbODmKcD</p>","","","","","","","","",""
"html-keyboard-response","311","391164","0.0-14.0-0.60","60db4aed5dd7b87124f51341","650c16f0f2faf8d7a0d14c09","651c1d358c21c8304b9a84cd","null","null","<p style=""font-size: 60px; font-family: BACS"">aUZAuvJ</p>","","","","","","","","",""
"html-keyboard-response","312","392166","0.0-14.0-0.61","60db4aed5dd7b87124f51341","650c16f0f2faf8d7a0d14c09","651c1d358c21c8304b9a84cd","null","null","<p style=""font-size: 60px; font-family: BACS"">OMlTCPMl</p>","","","","","","","","",""
"html-keyboard-response","313","393167","0.0-14.0-0.62","60db4aed5dd7b87124f51341","650c16f0f2faf8d7a0d14c09","651c1d358c21c8304b9a84cd","null","null","<p style=""font-size: 60px; font-family: BACS"">BbODCkbd</p>","","","","","","","","",""
"html-keyboard-response","314","394183","0.0-14.0-0.63","60db4aed5dd7b87124f51341","650c16f0f2faf8d7a0d14c09","651c1d358c21c8304b9a84cd","null","null","<p style=""font-size: 60px; font-family: BACS"">YcdOcbm</p>","","","","","","","","",""
"html-keyboard-response","315","395198","0.0-14.0-0.64","60db4aed5dd7b87124f51341","650c16f0f2faf8d7a0d14c09","651c1d358c21c8304b9a84cd","null","null","<p style=""font-size: 60px; font-family: BACS"">LcNUJkGua</p>","","","","","","","","",""
"html-keyboard-response","316","396201","0.0-14.0-0.65","60db4aed5dd7b87124f51341","650c16f0f2faf8d7a0d14c09","651c1d358c21c8304b9a84cd","null","null","<p style=""font-size: 60px; font-family: BACS"">RlAKcCkbd</p>","","","","","","","","",""
"html-keyboard-response","317","397202","0.0-14.0-0.66","60db4aed5dd7b87124f51341","650c16f0f2faf8d7a0d14c09","651c1d358c21c8304b9a84cd","null","null","<p style=""font-size: 60px; font-family: BACS"">UrOQYaum</p>","","","","","","","","",""
"html-keyboard-response","318","398217","0.0-14.0-0.67","60db4aed5dd7b87124f51341","650c16f0f2faf8d7a0d14c09","651c1d358c21c8304b9a84cd","null","null","<p style=""font-size: 60px; font-family: BACS"">OLJblkGua</p>","","","","","","","","",""
"html-keyboard-response","319","399233","0.0-14.0-0.68","60db4aed5dd7b87124f51341","650c16f0f2faf8d7a0d14c09","651c1d358c21c8304b9a84cd","null","null","<p style=""font-size: 60px; font-family: BACS"">mARMCPMl</p>","","","","","","","","",""
"html-keyboard-response","320","400236","0.0-14.0-0.69","60db4aed5dd7b87124f51341","650c16f0f2faf8d7a0d14c09","651c1d358c21c8304b9a84cd","null","null","<p style=""font-size: 60px; font-family: BACS"">YObACdt</p>","","","","","","","","",""
"html-keyboard-response","321","401250","0.0-14.0-0.70","60db4aed5dd7b87124f51341","650c16f0f2faf8d7a0d14c09","651c1d358c21c8304b9a84cd","null","null","<p style=""font-size: 60px; font-family: BACS"">OYuvbcbm</p>","","","","","","","","",""
"html-keyboard-response","322","402267","0.0-14.0-0.71","60db4aed5dd7b87124f51341","650c16f0f2faf8d7a0d14c09","651c1d358c21c8304b9a84cd","null","null","<p style=""font-size: 60px; font-family: BACS"">tDPRkCdt</p>","","","","","","","","",""
"html-keyboard-response","323","403268","0.0-14.0-0.72","60db4aed5dd7b87124f51341","650c16f0f2faf8d7a0d14c09","651c1d358c21c8304b9a84cd","null","null","<p style=""font-size: 60px; font-family: BACS"">mBYlCkbd</p>","","","","","","","","",""
"html-keyboard-response","324","404282","0.0-14.0-0.73","60db4aed5dd7b87124f51341","650c16f0f2faf8d7a0d14c09","651c1d358c21c8304b9a84cd","null","null","<p style=""font-size: 60px; font-family: BACS"">TEBKCdt</p>","","","","","","","","",""
"html-keyboard-response","325","405298","0.0-14.0-0.74","60db4aed5dd7b87124f51341","650c16f0f2faf8d7a0d14c09","651c1d358c21c8304b9a84cd","null","null","<p style=""font-size: 60px; font-family: BACS"">mARMYKPB</p>","","","","","","","","",""
"html-keyboard-response","326","406313","0.0-14.0-0.75","60db4aed5dd7b87124f51341","650c16f0f2faf8d7a0d14c09","651c1d358c21c8304b9a84cd","null","null","<p style=""font-size: 60px; font-family: BACS"">NvYJcbm</p>","","","","","","","","",""
"html-keyboard-response","327","407317","0.0-14.0-0.76","60db4aed5dd7b87124f51341","650c16f0f2faf8d7a0d14c09","651c1d358c21c8304b9a84cd","null","null","<p style=""font-size: 60px; font-family: BACS"">aUZAGlu</p>","","","","","","","","",""
"html-keyboard-response","328","408322","0.0-14.0-0.77","60db4aed5dd7b87124f51341","650c16f0f2faf8d7a0d14c09","651c1d358c21c8304b9a84cd","null","null","<p style=""font-size: 60px; font-family: BACS"">tDPRkmKcD</p>","","","","","","","","",""
"html-keyboard-response","329","409325","0.0-14.0-0.78","60db4aed5dd7b87124f51341","650c16f0f2faf8d7a0d14c09","651c1d358c21c8304b9a84cd","null","null","<p style=""font-size: 60px; font-family: BACS"">YJkbuvJ</p>","","","","","","","","",""
"html-keyboard-response","330","410334","0.0-14.0-0.79","60db4aed5dd7b87124f51341","650c16f0f2faf8d7a0d14c09","651c1d358c21c8304b9a84cd","null","null","<p style=""font-size: 60px; font-family: BACS"">mBYlmKcD</p>","","","","","","","","",""
"html-keyboard-response","331","412235","0.0-15.0","60db4aed5dd7b87124f51341","650c16f0f2faf8d7a0d14c09","651c1d358c21c8304b9a84cd","1900"," ","<p>Great, you've seen the fourth block of words. You may now take a short break.</p>
      <p>Press the spacebar when you're ready to continue.</p>","","","","","","","","",""
"html-keyboard-response","332","413236","0.0-16.0-0.0","60db4aed5dd7b87124f51341","650c16f0f2faf8d7a0d14c09","651c1d358c21c8304b9a84cd","null","null","<p style=""font-size: 60px; font-family: BACS"">UrOQkGua</p>","","","","","","","","",""
"html-keyboard-response","333","414238","0.0-16.0-0.1","60db4aed5dd7b87124f51341","650c16f0f2faf8d7a0d14c09","651c1d358c21c8304b9a84cd","null","null","<p style=""font-size: 60px; font-family: BACS"">UrOQkGua</p>","","","","","","","","",""
"html-keyboard-response","334","415241","0.0-16.0-0.2","60db4aed5dd7b87124f51341","650c16f0f2faf8d7a0d14c09","651c1d358c21c8304b9a84cd","null","null","<p style=""font-size: 60px; font-family: BACS"">UrOQkGua</p>","","","","","","","","",""
"html-keyboard-response","335","416242","0.0-16.0-0.3","60db4aed5dd7b87124f51341","650c16f0f2faf8d7a0d14c09","651c1d358c21c8304b9a84cd","null","null","<p style=""font-size: 60px; font-family: BACS"">UrOQkGua</p>","","","","","","","","",""
"html-keyboard-response","336","417243","0.0-16.0-0.4","60db4aed5dd7b87124f51341","650c16f0f2faf8d7a0d14c09","651c1d358c21c8304b9a84cd","null","null","<p style=""font-size: 60px; font-family: BACS"">UrOQkGua</p>","","","","","","","","",""
"html-keyboard-response","337","418254","0.0-16.0-0.5","60db4aed5dd7b87124f51341","650c16f0f2faf8d7a0d14c09","651c1d358c21c8304b9a84cd","null","null","<p style=""font-size: 60px; font-family: BACS"">UrOQkGua</p>","","","","","","","","",""
"html-keyboard-response","338","419271","0.0-16.0-0.6","60db4aed5dd7b87124f51341","650c16f0f2faf8d7a0d14c09","651c1d358c21c8304b9a84cd","null","null","<p style=""font-size: 60px; font-family: BACS"">UrOQkGua</p>","","","","","","","","",""
"html-keyboard-response","339","420273","0.0-16.0-0.7","60db4aed5dd7b87124f51341","650c16f0f2faf8d7a0d14c09","651c1d358c21c8304b9a84cd","null","null","<p style=""font-size: 60px; font-family: BACS"">UrOQkGua</p>","","","","","","","","",""
"html-keyboard-response","340","421285","0.0-16.0-0.8","60db4aed5dd7b87124f51341","650c16f0f2faf8d7a0d14c09","651c1d358c21c8304b9a84cd","null","null","<p style=""font-size: 60px; font-family: BACS"">UrOQkGua</p>","","","","","","","","",""
"html-keyboard-response","341","422286","0.0-16.0-0.9","60db4aed5dd7b87124f51341","650c16f0f2faf8d7a0d14c09","651c1d358c21c8304b9a84cd","null","null","<p style=""font-size: 60px; font-family: BACS"">UrOQkGua</p>","","","","","","","","",""
"html-keyboard-response","342","423287","0.0-16.0-0.10","60db4aed5dd7b87124f51341","650c16f0f2faf8d7a0d14c09","651c1d358c21c8304b9a84cd","null","null","<p style=""font-size: 60px; font-family: BACS"">UrOQkGua</p>","","","","","","","","",""
"html-keyboard-response","343","424299","0.0-16.0-0.11","60db4aed5dd7b87124f51341","650c16f0f2faf8d7a0d14c09","651c1d358c21c8304b9a84cd","null","null","<p style=""font-size: 60px; font-family: BACS"">UrOQkGua</p>","","","","","","","","",""
"html-keyboard-response","344","425301","0.0-16.0-0.12","60db4aed5dd7b87124f51341","650c16f0f2faf8d7a0d14c09","651c1d358c21c8304b9a84cd","null","null","<p style=""font-size: 60px; font-family: BACS"">UrOQkGua</p>","","","","","","","","",""
"html-keyboard-response","345","426306","0.0-16.0-0.13","60db4aed5dd7b87124f51341","650c16f0f2faf8d7a0d14c09","651c1d358c21c8304b9a84cd","null","null","<p style=""font-size: 60px; font-family: BACS"">UrOQkGua</p>","","","","","","","","",""
"html-keyboard-response","346","427307","0.0-16.0-0.14","60db4aed5dd7b87124f51341","650c16f0f2faf8d7a0d14c09","651c1d358c21c8304b9a84cd","null","null","<p style=""font-size: 60px; font-family: BACS"">UrOQkGua</p>","","","","","","","","",""
"html-keyboard-response","347","428321","0.0-16.0-0.15","60db4aed5dd7b87124f51341","650c16f0f2faf8d7a0d14c09","651c1d358c21c8304b9a84cd","null","null","<p style=""font-size: 60px; font-family: BACS"">UrOQkGua</p>","","","","","","","","",""
"html-keyboard-response","348","429324","0.0-16.0-0.16","60db4aed5dd7b87124f51341","650c16f0f2faf8d7a0d14c09","651c1d358c21c8304b9a84cd","null","null","<p style=""font-size: 60px; font-family: BACS"">UrOQkGua</p>","","","","","","","","",""
"html-keyboard-response","349","430338","0.0-16.0-0.17","60db4aed5dd7b87124f51341","650c16f0f2faf8d7a0d14c09","651c1d358c21c8304b9a84cd","null","null","<p style=""font-size: 60px; font-family: BACS"">UrOQkGua</p>","","","","","","","","",""
"html-keyboard-response","350","431340","0.0-16.0-0.18","60db4aed5dd7b87124f51341","650c16f0f2faf8d7a0d14c09","651c1d358c21c8304b9a84cd","null","null","<p style=""font-size: 60px; font-family: BACS"">UrOQkGua</p>","","","","","","","","",""
"html-keyboard-response","351","432343","0.0-16.0-0.19","60db4aed5dd7b87124f51341","650c16f0f2faf8d7a0d14c09","651c1d358c21c8304b9a84cd","null","null","<p style=""font-size: 60px; font-family: BACS"">UrOQkGua</p>","","","","","","","","",""
"html-keyboard-response","352","433349","0.0-16.0-0.20","60db4aed5dd7b87124f51341","650c16f0f2faf8d7a0d14c09","651c1d358c21c8304b9a84cd","null","null","<p style=""font-size: 60px; font-family: BACS"">UrOQkGua</p>","","","","","","","","",""
"html-keyboard-response","353","434355","0.0-16.0-0.21","60db4aed5dd7b87124f51341","650c16f0f2faf8d7a0d14c09","651c1d358c21c8304b9a84cd","null","null","<p style=""font-size: 60px; font-family: BACS"">UrOQkGua</p>","","","","","","","","",""
"html-keyboard-response","354","435357","0.0-16.0-0.22","60db4aed5dd7b87124f51341","650c16f0f2faf8d7a0d14c09","651c1d358c21c8304b9a84cd","null","null","<p style=""font-size: 60px; font-family: BACS"">UrOQkGua</p>","","","","","","","","",""
"html-keyboard-response","355","436362","0.0-16.0-0.23","60db4aed5dd7b87124f51341","650c16f0f2faf8d7a0d14c09","651c1d358c21c8304b9a84cd","null","null","<p style=""font-size: 60px; font-family: BACS"">UrOQkGua</p>","","","","","","","","",""
"html-keyboard-response","356","437368","0.0-16.0-0.24","60db4aed5dd7b87124f51341","650c16f0f2faf8d7a0d14c09","651c1d358c21c8304b9a84cd","null","null","<p style=""font-size: 60px; font-family: BACS"">UrOQkGua</p>","","","","","","","","",""
"html-keyboard-response","357","438384","0.0-16.0-0.25","60db4aed5dd7b87124f51341","650c16f0f2faf8d7a0d14c09","651c1d358c21c8304b9a84cd","null","null","<p style=""font-size: 60px; font-family: BACS"">UrOQkGua</p>","","","","","","","","",""
"html-keyboard-response","358","439385","0.0-16.0-0.26","60db4aed5dd7b87124f51341","650c16f0f2faf8d7a0d14c09","651c1d358c21c8304b9a84cd","null","null","<p style=""font-size: 60px; font-family: BACS"">UrOQkGua</p>","","","","","","","","",""
"html-keyboard-response","359","440388","0.0-16.0-0.27","60db4aed5dd7b87124f51341","650c16f0f2faf8d7a0d14c09","651c1d358c21c8304b9a84cd","null","null","<p style=""font-size: 60px; font-family: BACS"">UrOQkGua</p>","","","","","","","","",""
"html-keyboard-response","360","441404","0.0-16.0-0.28","60db4aed5dd7b87124f51341","650c16f0f2faf8d7a0d14c09","651c1d358c21c8304b9a84cd","null","null","<p style=""font-size: 60px; font-family: BACS"">UrOQkGua</p>","","","","","","","","",""
"html-keyboard-response","361","442407","0.0-16.0-0.29","60db4aed5dd7b87124f51341","650c16f0f2faf8d7a0d14c09","651c1d358c21c8304b9a84cd","null","null","<p style=""font-size: 60px; font-family: BACS"">UrOQkGua</p>","","","","","","","","",""
"html-keyboard-response","362","443409","0.0-16.0-0.30","60db4aed5dd7b87124f51341","650c16f0f2faf8d7a0d14c09","651c1d358c21c8304b9a84cd","null","null","<p style=""font-size: 60px; font-family: BACS"">UrOQkGua</p>","","","","","","","","",""
"html-keyboard-response","363","444410","0.0-16.0-0.31","60db4aed5dd7b87124f51341","650c16f0f2faf8d7a0d14c09","651c1d358c21c8304b9a84cd","null","null","<p style=""font-size: 60px; font-family: BACS"">UrOQkGua</p>","","","","","","","","",""
"html-keyboard-response","364","445411","0.0-16.0-0.32","60db4aed5dd7b87124f51341","650c16f0f2faf8d7a0d14c09","651c1d358c21c8304b9a84cd","null","null","<p style=""font-size: 60px; font-family: BACS"">UrOQkGua</p>","","","","","","","","",""
"html-keyboard-response","365","446416","0.0-16.0-0.33","60db4aed5dd7b87124f51341","650c16f0f2faf8d7a0d14c09","651c1d358c21c8304b9a84cd","null","null","<p style=""font-size: 60px; font-family: BACS"">UrOQkGua</p>","","","","","","","","",""
"html-keyboard-response","366","447431","0.0-16.0-0.34","60db4aed5dd7b87124f51341","650c16f0f2faf8d7a0d14c09","651c1d358c21c8304b9a84cd","null","null","<p style=""font-size: 60px; font-family: BACS"">UrOQkGua</p>","","","","","","","","",""
"html-keyboard-response","367","448433","0.0-16.0-0.35","60db4aed5dd7b87124f51341","650c16f0f2faf8d7a0d14c09","651c1d358c21c8304b9a84cd","null","null","<p style=""font-size: 60px; font-family: BACS"">UrOQkGua</p>","","","","","","","","",""
"html-keyboard-response","368","449438","0.0-16.0-0.36","60db4aed5dd7b87124f51341","650c16f0f2faf8d7a0d14c09","651c1d358c21c8304b9a84cd","null","null","<p style=""font-size: 60px; font-family: BACS"">UrOQkGua</p>","","","","","","","","",""
"html-keyboard-response","369","450448","0.0-16.0-0.37","60db4aed5dd7b87124f51341","650c16f0f2faf8d7a0d14c09","651c1d358c21c8304b9a84cd","null","null","<p style=""font-size: 60px; font-family: BACS"">UrOQkGua</p>","","","","","","","","",""
"html-keyboard-response","370","451466","0.0-16.0-0.38","60db4aed5dd7b87124f51341","650c16f0f2faf8d7a0d14c09","651c1d358c21c8304b9a84cd","null","null","<p style=""font-size: 60px; font-family: BACS"">UrOQkGua</p>","","","","","","","","",""
"html-keyboard-response","371","452481","0.0-16.0-0.39","60db4aed5dd7b87124f51341","650c16f0f2faf8d7a0d14c09","651c1d358c21c8304b9a84cd","null","null","<p style=""font-size: 60px; font-family: BACS"">UrOQkGua</p>","","","","","","","","",""
"html-keyboard-response","372","453498","0.0-16.0-0.40","60db4aed5dd7b87124f51341","650c16f0f2faf8d7a0d14c09","651c1d358c21c8304b9a84cd","null","null","<p style=""font-size: 60px; font-family: BACS"">UrOQkGua</p>","","","","","","","","",""
"html-keyboard-response","373","454513","0.0-16.0-0.41","60db4aed5dd7b87124f51341","650c16f0f2faf8d7a0d14c09","651c1d358c21c8304b9a84cd","null","null","<p style=""font-size: 60px; font-family: BACS"">UrOQkGua</p>","","","","","","","","",""
"html-keyboard-response","374","455521","0.0-16.0-0.42","60db4aed5dd7b87124f51341","650c16f0f2faf8d7a0d14c09","651c1d358c21c8304b9a84cd","null","null","<p style=""font-size: 60px; font-family: BACS"">UrOQkGua</p>","","","","","","","","",""
"html-keyboard-response","375","456531","0.0-16.0-0.43","60db4aed5dd7b87124f51341","650c16f0f2faf8d7a0d14c09","651c1d358c21c8304b9a84cd","null","null","<p style=""font-size: 60px; font-family: BACS"">UrOQkGua</p>","","","","","","","","",""
"html-keyboard-response","376","457547","0.0-16.0-0.44","60db4aed5dd7b87124f51341","650c16f0f2faf8d7a0d14c09","651c1d358c21c8304b9a84cd","null","null","<p style=""font-size: 60px; font-family: BACS"">UrOQkGua</p>","","","","","","","","",""
"html-keyboard-response","377","458549","0.0-16.0-0.45","60db4aed5dd7b87124f51341","650c16f0f2faf8d7a0d14c09","651c1d358c21c8304b9a84cd","null","null","<p style=""font-size: 60px; font-family: BACS"">UrOQkGua</p>","","","","","","","","",""
"html-keyboard-response","378","459563","0.0-16.0-0.46","60db4aed5dd7b87124f51341","650c16f0f2faf8d7a0d14c09","651c1d358c21c8304b9a84cd","null","null","<p style=""font-size: 60px; font-family: BACS"">UrOQkGua</p>","","","","","","","","",""
"html-keyboard-response","379","460579","0.0-16.0-0.47","60db4aed5dd7b87124f51341","650c16f0f2faf8d7a0d14c09","651c1d358c21c8304b9a84cd","null","null","<p style=""font-size: 60px; font-family: BACS"">UrOQkGua</p>","","","","","","","","",""
"html-keyboard-response","380","461582","0.0-16.0-0.48","60db4aed5dd7b87124f51341","650c16f0f2faf8d7a0d14c09","651c1d358c21c8304b9a84cd","null","null","<p style=""font-size: 60px; font-family: BACS"">UrOQkGua</p>","","","","","","","","",""
"html-keyboard-response","381","462599","0.0-16.0-0.49","60db4aed5dd7b87124f51341","650c16f0f2faf8d7a0d14c09","651c1d358c21c8304b9a84cd","null","null","<p style=""font-size: 60px; font-family: BACS"">UrOQkGua</p>","","","","","","","","",""
"html-keyboard-response","382","463615","0.0-16.0-0.50","60db4aed5dd7b87124f51341","650c16f0f2faf8d7a0d14c09","651c1d358c21c8304b9a84cd","null","null","<p style=""font-size: 60px; font-family: BACS"">UrOQkGua</p>","","","","","","","","",""
"html-keyboard-response","383","464631","0.0-16.0-0.51","60db4aed5dd7b87124f51341","650c16f0f2faf8d7a0d14c09","651c1d358c21c8304b9a84cd","null","null","<p style=""font-size: 60px; font-family: BACS"">UrOQkGua</p>","","","","","","","","",""
"html-keyboard-response","384","465647","0.0-16.0-0.52","60db4aed5dd7b87124f51341","650c16f0f2faf8d7a0d14c09","651c1d358c21c8304b9a84cd","null","null","<p style=""font-size: 60px; font-family: BACS"">UrOQkGua</p>","","","","","","","","",""
"html-keyboard-response","385","466649","0.0-16.0-0.53","60db4aed5dd7b87124f51341","650c16f0f2faf8d7a0d14c09","651c1d358c21c8304b9a84cd","null","null","<p style=""font-size: 60px; font-family: BACS"">UrOQkGua</p>","","","","","","","","",""
"html-keyboard-response","386","467665","0.0-16.0-0.54","60db4aed5dd7b87124f51341","650c16f0f2faf8d7a0d14c09","651c1d358c21c8304b9a84cd","null","null","<p style=""font-size: 60px; font-family: BACS"">UrOQkGua</p>","","","","","","","","",""
"html-keyboard-response","387","468683","0.0-16.0-0.55","60db4aed5dd7b87124f51341","650c16f0f2faf8d7a0d14c09","651c1d358c21c8304b9a84cd","null","null","<p style=""font-size: 60px; font-family: BACS"">UrOQkGua</p>","","","","","","","","",""
"html-keyboard-response","388","469697","0.0-16.0-0.56","60db4aed5dd7b87124f51341","650c16f0f2faf8d7a0d14c09","651c1d358c21c8304b9a84cd","null","null","<p style=""font-size: 60px; font-family: BACS"">UrOQkGua</p>","","","","","","","","",""
"html-keyboard-response","389","470699","0.0-16.0-0.57","60db4aed5dd7b87124f51341","650c16f0f2faf8d7a0d14c09","651c1d358c21c8304b9a84cd","null","null","<p style=""font-size: 60px; font-family: BACS"">UrOQkGua</p>","","","","","","","","",""
"html-keyboard-response","390","471715","0.0-16.0-0.58","60db4aed5dd7b87124f51341","650c16f0f2faf8d7a0d14c09","651c1d358c21c8304b9a84cd","null","null","<p style=""font-size: 60px; font-family: BACS"">UrOQkGua</p>","","","","","","","","",""
"html-keyboard-response","391","472730","0.0-16.0-0.59","60db4aed5dd7b87124f51341","650c16f0f2faf8d7a0d14c09","651c1d358c21c8304b9a84cd","null","null","<p style=""font-size: 60px; font-family: BACS"">UrOQkGua</p>","","","","","","","","",""
"html-keyboard-response","392","473731","0.0-16.0-0.60","60db4aed5dd7b87124f51341","650c16f0f2faf8d7a0d14c09","651c1d358c21c8304b9a84cd","null","null","<p style=""font-size: 60px; font-family: BACS"">UrOQkGua</p>","","","","","","","","",""
"html-keyboard-response","393","474747","0.0-16.0-0.61","60db4aed5dd7b87124f51341","650c16f0f2faf8d7a0d14c09","651c1d358c21c8304b9a84cd","null","null","<p style=""font-size: 60px; font-family: BACS"">UrOQkGua</p>","","","","","","","","",""
"html-keyboard-response","394","475763","0.0-16.0-0.62","60db4aed5dd7b87124f51341","650c16f0f2faf8d7a0d14c09","651c1d358c21c8304b9a84cd","null","null","<p style=""font-size: 60px; font-family: BACS"">UrOQkGua</p>","","","","","","","","",""
"html-keyboard-response","395","476780","0.0-16.0-0.63","60db4aed5dd7b87124f51341","650c16f0f2faf8d7a0d14c09","651c1d358c21c8304b9a84cd","null","null","<p style=""font-size: 60px; font-family: BACS"">UrOQkGua</p>","","","","","","","","",""
"html-keyboard-response","396","477796","0.0-16.0-0.64","60db4aed5dd7b87124f51341","650c16f0f2faf8d7a0d14c09","651c1d358c21c8304b9a84cd","null","null","<p style=""font-size: 60px; font-family: BACS"">UrOQkGua</p>","","","","","","","","",""
"html-keyboard-response","397","478798","0.0-16.0-0.65","60db4aed5dd7b87124f51341","650c16f0f2faf8d7a0d14c09","651c1d358c21c8304b9a84cd","null","null","<p style=""font-size: 60px; font-family: BACS"">UrOQkGua</p>","","","","","","","","",""
"html-keyboard-response","398","479813","0.0-16.0-0.66","60db4aed5dd7b87124f51341","650c16f0f2faf8d7a0d14c09","651c1d358c21c8304b9a84cd","null","null","<p style=""font-size: 60px; font-family: BACS"">UrOQkGua</p>","","","","","","","","",""
"html-keyboard-response","399","480830","0.0-16.0-0.67","60db4aed5dd7b87124f51341","650c16f0f2faf8d7a0d14c09","651c1d358c21c8304b9a84cd","null","null","<p style=""font-size: 60px; font-family: BACS"">UrOQkGua</p>","","","","","","","","",""
"html-keyboard-response","400","481846","0.0-16.0-0.68","60db4aed5dd7b87124f51341","650c16f0f2faf8d7a0d14c09","651c1d358c21c8304b9a84cd","null","null","<p style=""font-size: 60px; font-family: BACS"">UrOQkGua</p>","","","","","","","","",""
