trial_type,trial_index,time_elapsed,internal_node_id,subject_id,study_id,session_id,rt,response,stimulus,success,item,task,correct_response,testing_condition,correct,target,confound,name
pavlovia,0,3881,0.0-0.0,6136aa846e80ebd7daf6e148,64e77d7b61f440b60e28659d,64ecad81f2f759acf903f496,,,,,,,,,,,,
survey-html-form,1,11264,0.0-1.0,6136aa846e80ebd7daf6e148,64e77d7b61f440b60e28659d,64ecad81f2f759acf903f496,7378,"{""ID"":""6136aa846e80ebd7daf6e148""}",,,,,,,,,,
html-keyboard-response,2,105222,0.0-2.0,6136aa846e80ebd7daf6e148,64e77d7b61f440b60e28659d,64ecad81f2f759acf903f496,93945, ,"<p style=""font-size: 15px;"">Before beginning, we ask that you read the consent information and confirm your agreement to participate in the experiment.</p>
      <p style=""font-size: 15px;""> We ask that you remember that this is a research project and that your participation is entirely voluntary. You can stop your participation at any time, without needing to provide any explanation. The study we're asking you to participate in aims at examining how readers process written words. You will be engaged in a session of apprximately 20 minutes, followed by a brief questionnaire. You will have the opportunity to take a few breaks during the experiment. You will be paid £4 for your participation, corresponding to a rate of £8/hour. While this experiment looks at cognitive faculties, this experiment doesn't constitute clinical proof of eventual pathologies.</p>
      <p style=""font-size: 15px;"">All of the information collected thanks to yours and others' participation will be held in a secure password-protected server, and will not be shared with anyone not authorised to view it. Your personal information will be kept with an arbitrary participant ID. Thanks to this data anonymity process, any researcher analysing the data won't be able to track the information back to a specific participant. Therefore, this process will make identifying you impossibile, even when results from the study will be published in scientific reviews, presented at congresses, or at any other public forum. More generally, the collected data will be treated in accordance with the laws on privacy and conformity to the Legislative Degree n. 196 ""Code regarding the protection of personal data"" of the 30th of June 2003 and to the European Regulation 2016/670 (General Data Protection Regulation - GDPR). The Data Protection Officer is Avv. Valentina Carollo, who can be contacted at the following email addresses: <a href=""mailto:dpo@sissa.it"">dpo@sissa.it</a> or <a href=""mailto:rpd@sissa.it"">rpd@sissa.it</a> - PEC: <a href=""mailto:protocollo@pec.sissa.it"">protocollo@pec.sissa.it</a>.</p>
      <p style=""font-size: 15px;""> Before expressing your consent to participate, we would like to remind you again that in case you need explanations on any aspect of the experimental procedure, the researcher is at your disposition (<a href=""mailto:aliebelt@sissa.it"">aliebelt@sissa.it</a>, <a href=""mailto:davide.crepaldi@sissa.it"">davide.crepaldi@sissa.it</a>).</p>
      <p style=""font-size: 15px;"">If you would like to download the informed consent form, you can do so here: <a href=""BASL-Informed_Consent.pdf"" download>informed consent form</a>.</p>
      <p style=""font-size: 15px;"">We ask that you press the spacebar to proceed to the consent section.</p>",,,,,,,,,
survey-html-form,3,190944,0.0-3.0,6136aa846e80ebd7daf6e148,64e77d7b61f440b60e28659d,64ecad81f2f759acf903f496,85712,"{""consent1"":""YES"",""consent2"":""YES"",""consent3"":""YES"",""consent4"":""YES"",""consent5"":""YES"",""consent6"":""YES""}",,,,,,,,,,
fullscreen,4,198852,0.0-4.0,6136aa846e80ebd7daf6e148,64e77d7b61f440b60e28659d,64ecad81f2f759acf903f496,,,,TRUE,,,,,,,,
html-keyboard-response,5,237344,0.0-5.0,6136aa846e80ebd7daf6e148,64e77d7b61f440b60e28659d,64ecad81f2f759acf903f496,38488, ,"<p>Welcome, and thank you very much for your time!</p>
      <p>In this experiment, you'll be a language expert who's been asked to take a look at words that Earth has received in its first communication with aliens. Your task, in this first part of the experiment, is to pay close attention to the words you'll be shown; later, world leaders will ask you questions on what you saw. The words will be shown to you quite quickly; it seems that the aliens were in a hurry :-)</p>
      <p>Press the spacebar to continue.<p>",,,,,,,,,
html-keyboard-response,6,252777,0.0-6.0,6136aa846e80ebd7daf6e148,64e77d7b61f440b60e28659d,64ecad81f2f759acf903f496,15428, ,"<p>Here is an example of the words you'll see:</p>
      <img src='esempio.png' height='400px'>
      <p>When you're ready to begin, press the spacebar.</p></div>",,,,,,,,,
html-keyboard-response,7,253803,0.0-7.0-0.0,6136aa846e80ebd7daf6e148,64e77d7b61f440b60e28659d,64ecad81f2f759acf903f496,null,null,"<p style=""font-size: 60px; font-family: BACS"">lBlEdCKc</p>",,,,,,,,,
html-keyboard-response,8,254822,0.0-7.0-0.1,6136aa846e80ebd7daf6e148,64e77d7b61f440b60e28659d,64ecad81f2f759acf903f496,null,null,"<p style=""font-size: 60px; font-family: BACS"">htmhCdRA</p>",,,,,,,,,
html-keyboard-response,9,255848,0.0-7.0-0.2,6136aa846e80ebd7daf6e148,64e77d7b61f440b60e28659d,64ecad81f2f759acf903f496,null,null,"<p style=""font-size: 60px; font-family: BACS"">kZUbAZbl</p>",,,,,,,,,
html-keyboard-response,10,256867,0.0-7.0-0.3,6136aa846e80ebd7daf6e148,64e77d7b61f440b60e28659d,64ecad81f2f759acf903f496,null,null,"<p style=""font-size: 60px; font-family: BACS"">LOLkUJcL</p>",,,,,,,,,
html-keyboard-response,11,257885,0.0-7.0-0.4,6136aa846e80ebd7daf6e148,64e77d7b61f440b60e28659d,64ecad81f2f759acf903f496,null,null,"<p style=""font-size: 60px; font-family: BACS"">LdQvQru</p>",,,,,,,,,
html-keyboard-response,12,258893,0.0-7.0-0.5,6136aa846e80ebd7daf6e148,64e77d7b61f440b60e28659d,64ecad81f2f759acf903f496,null,null,"<p style=""font-size: 60px; font-family: BACS"">htmhCdCKc</p>",,,,,,,,,
html-keyboard-response,13,259906,0.0-7.0-0.6,6136aa846e80ebd7daf6e148,64e77d7b61f440b60e28659d,64ecad81f2f759acf903f496,null,null,"<p style=""font-size: 60px; font-family: BACS"">LOLkUdmkv</p>",,,,,,,,,
html-keyboard-response,14,260915,0.0-7.0-0.7,6136aa846e80ebd7daf6e148,64e77d7b61f440b60e28659d,64ecad81f2f759acf903f496,null,null,"<p style=""font-size: 60px; font-family: BACS"">hmKPMcthB</p>",,,,,,,,,
html-keyboard-response,15,261927,0.0-7.0-0.8,6136aa846e80ebd7daf6e148,64e77d7b61f440b60e28659d,64ecad81f2f759acf903f496,null,null,"<p style=""font-size: 60px; font-family: BACS"">ALOrldmkv</p>",,,,,,,,,
html-keyboard-response,16,262936,0.0-7.0-0.9,6136aa846e80ebd7daf6e148,64e77d7b61f440b60e28659d,64ecad81f2f759acf903f496,null,null,"<p style=""font-size: 60px; font-family: BACS"">JAdLmJcL</p>",,,,,,,,,
html-keyboard-response,17,263949,0.0-7.0-0.10,6136aa846e80ebd7daf6e148,64e77d7b61f440b60e28659d,64ecad81f2f759acf903f496,null,null,"<p style=""font-size: 60px; font-family: BACS"">dMThkdTAh</p>",,,,,,,,,
html-keyboard-response,18,264958,0.0-7.0-0.11,6136aa846e80ebd7daf6e148,64e77d7b61f440b60e28659d,64ecad81f2f759acf903f496,null,null,"<p style=""font-size: 60px; font-family: BACS"">hTtBbcthB</p>",,,,,,,,,
html-keyboard-response,19,265977,0.0-7.0-0.12,6136aa846e80ebd7daf6e148,64e77d7b61f440b60e28659d,64ecad81f2f759acf903f496,null,null,"<p style=""font-size: 60px; font-family: BACS"">kabJbdmkv</p>",,,,,,,,,
html-keyboard-response,20,266995,0.0-7.0-0.13,6136aa846e80ebd7daf6e148,64e77d7b61f440b60e28659d,64ecad81f2f759acf903f496,null,null,"<p style=""font-size: 60px; font-family: BACS"">DhMtdRA</p>",,,,,,,,,
html-keyboard-response,21,268013,0.0-7.0-0.14,6136aa846e80ebd7daf6e148,64e77d7b61f440b60e28659d,64ecad81f2f759acf903f496,null,null,"<p style=""font-size: 60px; font-family: BACS"">TbKMEBCAd</p>",,,,,,,,,
html-keyboard-response,22,269031,0.0-7.0-0.15,6136aa846e80ebd7daf6e148,64e77d7b61f440b60e28659d,64ecad81f2f759acf903f496,null,null,"<p style=""font-size: 60px; font-family: BACS"">uvaUdmkv</p>",,,,,,,,,
html-keyboard-response,23,270048,0.0-7.0-0.16,6136aa846e80ebd7daf6e148,64e77d7b61f440b60e28659d,64ecad81f2f759acf903f496,null,null,"<p style=""font-size: 60px; font-family: BACS"">kabJbLkNc</p>",,,,,,,,,
html-keyboard-response,24,271069,0.0-7.0-0.17,6136aa846e80ebd7daf6e148,64e77d7b61f440b60e28659d,64ecad81f2f759acf903f496,null,null,"<p style=""font-size: 60px; font-family: BACS"">lRckAdTAh</p>",,,,,,,,,
html-keyboard-response,25,272094,0.0-7.0-0.18,6136aa846e80ebd7daf6e148,64e77d7b61f440b60e28659d,64ecad81f2f759acf903f496,null,null,"<p style=""font-size: 60px; font-family: BACS"">damYbLkNc</p>",,,,,,,,,
html-keyboard-response,26,273112,0.0-7.0-0.19,6136aa846e80ebd7daf6e148,64e77d7b61f440b60e28659d,64ecad81f2f759acf903f496,null,null,"<p style=""font-size: 60px; font-family: BACS"">KBKBEdTAh</p>",,,,,,,,,
html-keyboard-response,27,274132,0.0-7.0-0.20,6136aa846e80ebd7daf6e148,64e77d7b61f440b60e28659d,64ecad81f2f759acf903f496,null,null,"<p style=""font-size: 60px; font-family: BACS"">LOLkUAZbl</p>",,,,,,,,,
html-keyboard-response,28,275149,0.0-7.0-0.21,6136aa846e80ebd7daf6e148,64e77d7b61f440b60e28659d,64ecad81f2f759acf903f496,null,null,"<p style=""font-size: 60px; font-family: BACS"">ALOrlQru</p>",,,,,,,,,
html-keyboard-response,29,276168,0.0-7.0-0.22,6136aa846e80ebd7daf6e148,64e77d7b61f440b60e28659d,64ecad81f2f759acf903f496,null,null,"<p style=""font-size: 60px; font-family: BACS"">lBlEcthB</p>",,,,,,,,,
html-keyboard-response,30,277186,0.0-7.0-0.23,6136aa846e80ebd7daf6e148,64e77d7b61f440b60e28659d,64ecad81f2f759acf903f496,null,null,"<p style=""font-size: 60px; font-family: BACS"">htmhCBCAd</p>",,,,,,,,,
html-keyboard-response,31,278215,0.0-7.0-0.24,6136aa846e80ebd7daf6e148,64e77d7b61f440b60e28659d,64ecad81f2f759acf903f496,null,null,"<p style=""font-size: 60px; font-family: BACS"">lRckActhB</p>",,,,,,,,,
html-keyboard-response,32,279230,0.0-7.0-0.25,6136aa846e80ebd7daf6e148,64e77d7b61f440b60e28659d,64ecad81f2f759acf903f496,null,null,"<p style=""font-size: 60px; font-family: BACS"">DhMtBCAd</p>",,,,,,,,,
html-keyboard-response,33,280249,0.0-7.0-0.26,6136aa846e80ebd7daf6e148,64e77d7b61f440b60e28659d,64ecad81f2f759acf903f496,null,null,"<p style=""font-size: 60px; font-family: BACS"">hTtBbdRA</p>",,,,,,,,,
html-keyboard-response,34,281254,0.0-7.0-0.27,6136aa846e80ebd7daf6e148,64e77d7b61f440b60e28659d,64ecad81f2f759acf903f496,null,null,"<p style=""font-size: 60px; font-family: BACS"">hmKPMBCAd</p>",,,,,,,,,
html-keyboard-response,35,282270,0.0-7.0-0.28,6136aa846e80ebd7daf6e148,64e77d7b61f440b60e28659d,64ecad81f2f759acf903f496,null,null,"<p style=""font-size: 60px; font-family: BACS"">TbKMEdTAh</p>",,,,,,,,,
html-keyboard-response,36,283290,0.0-7.0-0.29,6136aa846e80ebd7daf6e148,64e77d7b61f440b60e28659d,64ecad81f2f759acf903f496,null,null,"<p style=""font-size: 60px; font-family: BACS"">kabJbAZbl</p>",,,,,,,,,
html-keyboard-response,37,284308,0.0-7.0-0.30,6136aa846e80ebd7daf6e148,64e77d7b61f440b60e28659d,64ecad81f2f759acf903f496,null,null,"<p style=""font-size: 60px; font-family: BACS"">kZUbJcL</p>",,,,,,,,,
html-keyboard-response,38,285333,0.0-7.0-0.31,6136aa846e80ebd7daf6e148,64e77d7b61f440b60e28659d,64ecad81f2f759acf903f496,null,null,"<p style=""font-size: 60px; font-family: BACS"">KBKBEcthB</p>",,,,,,,,,
html-keyboard-response,39,286337,0.0-7.0-0.32,6136aa846e80ebd7daf6e148,64e77d7b61f440b60e28659d,64ecad81f2f759acf903f496,null,null,"<p style=""font-size: 60px; font-family: BACS"">lBlEdRA</p>",,,,,,,,,
html-keyboard-response,40,287355,0.0-7.0-0.33,6136aa846e80ebd7daf6e148,64e77d7b61f440b60e28659d,64ecad81f2f759acf903f496,null,null,"<p style=""font-size: 60px; font-family: BACS"">JAdLmQru</p>",,,,,,,,,
html-keyboard-response,41,288375,0.0-7.0-0.34,6136aa846e80ebd7daf6e148,64e77d7b61f440b60e28659d,64ecad81f2f759acf903f496,null,null,"<p style=""font-size: 60px; font-family: BACS"">dKRDdTAh</p>",,,,,,,,,
html-keyboard-response,42,289394,0.0-7.0-0.35,6136aa846e80ebd7daf6e148,64e77d7b61f440b60e28659d,64ecad81f2f759acf903f496,null,null,"<p style=""font-size: 60px; font-family: BACS"">uvaULkNc</p>",,,,,,,,,
html-keyboard-response,43,290411,0.0-7.0-0.36,6136aa846e80ebd7daf6e148,64e77d7b61f440b60e28659d,64ecad81f2f759acf903f496,null,null,"<p style=""font-size: 60px; font-family: BACS"">kZUbQru</p>",,,,,,,,,
html-keyboard-response,44,291430,0.0-7.0-0.37,6136aa846e80ebd7daf6e148,64e77d7b61f440b60e28659d,64ecad81f2f759acf903f496,null,null,"<p style=""font-size: 60px; font-family: BACS"">LdQvdmkv</p>",,,,,,,,,
html-keyboard-response,45,292454,0.0-7.0-0.38,6136aa846e80ebd7daf6e148,64e77d7b61f440b60e28659d,64ecad81f2f759acf903f496,null,null,"<p style=""font-size: 60px; font-family: BACS"">dKRDdRA</p>",,,,,,,,,
html-keyboard-response,46,293471,0.0-7.0-0.39,6136aa846e80ebd7daf6e148,64e77d7b61f440b60e28659d,64ecad81f2f759acf903f496,null,null,"<p style=""font-size: 60px; font-family: BACS"">LdrbvAZbl</p>",,,,,,,,,
html-keyboard-response,47,294491,0.0-7.0-0.40,6136aa846e80ebd7daf6e148,64e77d7b61f440b60e28659d,64ecad81f2f759acf903f496,null,null,"<p style=""font-size: 60px; font-family: BACS"">lBlEBCAd</p>",,,,,,,,,
html-keyboard-response,48,295509,0.0-7.0-0.41,6136aa846e80ebd7daf6e148,64e77d7b61f440b60e28659d,64ecad81f2f759acf903f496,null,null,"<p style=""font-size: 60px; font-family: BACS"">damYbJcL</p>",,,,,,,,,
html-keyboard-response,49,296527,0.0-7.0-0.42,6136aa846e80ebd7daf6e148,64e77d7b61f440b60e28659d,64ecad81f2f759acf903f496,null,null,"<p style=""font-size: 60px; font-family: BACS"">lRckAdCKc</p>",,,,,,,,,
html-keyboard-response,50,297545,0.0-7.0-0.43,6136aa846e80ebd7daf6e148,64e77d7b61f440b60e28659d,64ecad81f2f759acf903f496,null,null,"<p style=""font-size: 60px; font-family: BACS"">kLvdNLkNc</p>",,,,,,,,,
html-keyboard-response,51,298570,0.0-7.0-0.44,6136aa846e80ebd7daf6e148,64e77d7b61f440b60e28659d,64ecad81f2f759acf903f496,null,null,"<p style=""font-size: 60px; font-family: BACS"">DhMtdCKc</p>",,,,,,,,,
html-keyboard-response,52,299588,0.0-7.0-0.45,6136aa846e80ebd7daf6e148,64e77d7b61f440b60e28659d,64ecad81f2f759acf903f496,null,null,"<p style=""font-size: 60px; font-family: BACS"">dKRDcthB</p>",,,,,,,,,
html-keyboard-response,53,300607,0.0-7.0-0.46,6136aa846e80ebd7daf6e148,64e77d7b61f440b60e28659d,64ecad81f2f759acf903f496,null,null,"<p style=""font-size: 60px; font-family: BACS"">dMThkdRA</p>",,,,,,,,,
html-keyboard-response,54,301626,0.0-7.0-0.47,6136aa846e80ebd7daf6e148,64e77d7b61f440b60e28659d,64ecad81f2f759acf903f496,null,null,"<p style=""font-size: 60px; font-family: BACS"">hmKPMdCKc</p>",,,,,,,,,
html-keyboard-response,55,302643,0.0-7.0-0.48,6136aa846e80ebd7daf6e148,64e77d7b61f440b60e28659d,64ecad81f2f759acf903f496,null,null,"<p style=""font-size: 60px; font-family: BACS"">hTtBbdTAh</p>",,,,,,,,,
html-keyboard-response,56,303662,0.0-7.0-0.49,6136aa846e80ebd7daf6e148,64e77d7b61f440b60e28659d,64ecad81f2f759acf903f496,null,null,"<p style=""font-size: 60px; font-family: BACS"">LdQvAZbl</p>",,,,,,,,,
html-keyboard-response,57,304686,0.0-7.0-0.50,6136aa846e80ebd7daf6e148,64e77d7b61f440b60e28659d,64ecad81f2f759acf903f496,null,null,"<p style=""font-size: 60px; font-family: BACS"">dMThkcthB</p>",,,,,,,,,
html-keyboard-response,58,305703,0.0-7.0-0.51,6136aa846e80ebd7daf6e148,64e77d7b61f440b60e28659d,64ecad81f2f759acf903f496,null,null,"<p style=""font-size: 60px; font-family: BACS"">JAdLmAZbl</p>",,,,,,,,,
html-keyboard-response,59,306722,0.0-7.0-0.52,6136aa846e80ebd7daf6e148,64e77d7b61f440b60e28659d,64ecad81f2f759acf903f496,null,null,"<p style=""font-size: 60px; font-family: BACS"">TbKMEdCKc</p>",,,,,,,,,
html-keyboard-response,60,307742,0.0-7.0-0.53,6136aa846e80ebd7daf6e148,64e77d7b61f440b60e28659d,64ecad81f2f759acf903f496,null,null,"<p style=""font-size: 60px; font-family: BACS"">dKRDBCAd</p>",,,,,,,,,
html-keyboard-response,61,308758,0.0-7.0-0.54,6136aa846e80ebd7daf6e148,64e77d7b61f440b60e28659d,64ecad81f2f759acf903f496,null,null,"<p style=""font-size: 60px; font-family: BACS"">DhMtdTAh</p>",,,,,,,,,
html-keyboard-response,62,309778,0.0-7.0-0.55,6136aa846e80ebd7daf6e148,64e77d7b61f440b60e28659d,64ecad81f2f759acf903f496,null,null,"<p style=""font-size: 60px; font-family: BACS"">kabJbJcL</p>",,,,,,,,,
html-keyboard-response,63,310803,0.0-7.0-0.56,6136aa846e80ebd7daf6e148,64e77d7b61f440b60e28659d,64ecad81f2f759acf903f496,null,null,"<p style=""font-size: 60px; font-family: BACS"">damYbQru</p>",,,,,,,,,
html-keyboard-response,64,311821,0.0-7.0-0.57,6136aa846e80ebd7daf6e148,64e77d7b61f440b60e28659d,64ecad81f2f759acf903f496,null,null,"<p style=""font-size: 60px; font-family: BACS"">uvaUJcL</p>",,,,,,,,,
html-keyboard-response,65,312840,0.0-7.0-0.58,6136aa846e80ebd7daf6e148,64e77d7b61f440b60e28659d,64ecad81f2f759acf903f496,null,null,"<p style=""font-size: 60px; font-family: BACS"">kLvdNAZbl</p>",,,,,,,,,
html-keyboard-response,66,313859,0.0-7.0-0.59,6136aa846e80ebd7daf6e148,64e77d7b61f440b60e28659d,64ecad81f2f759acf903f496,null,null,"<p style=""font-size: 60px; font-family: BACS"">KBKBEdCKc</p>",,,,,,,,,
html-keyboard-response,67,314862,0.0-7.0-0.60,6136aa846e80ebd7daf6e148,64e77d7b61f440b60e28659d,64ecad81f2f759acf903f496,null,null,"<p style=""font-size: 60px; font-family: BACS"">kLvdNdmkv</p>",,,,,,,,,
html-keyboard-response,68,315879,0.0-7.0-0.61,6136aa846e80ebd7daf6e148,64e77d7b61f440b60e28659d,64ecad81f2f759acf903f496,null,null,"<p style=""font-size: 60px; font-family: BACS"">uvaUQru</p>",,,,,,,,,
html-keyboard-response,69,316891,0.0-7.0-0.62,6136aa846e80ebd7daf6e148,64e77d7b61f440b60e28659d,64ecad81f2f759acf903f496,null,null,"<p style=""font-size: 60px; font-family: BACS"">dMThkdCKc</p>",,,,,,,,,
html-keyboard-response,70,317901,0.0-7.0-0.63,6136aa846e80ebd7daf6e148,64e77d7b61f440b60e28659d,64ecad81f2f759acf903f496,null,null,"<p style=""font-size: 60px; font-family: BACS"">lRckABCAd</p>",,,,,,,,,
html-keyboard-response,71,318910,0.0-7.0-0.64,6136aa846e80ebd7daf6e148,64e77d7b61f440b60e28659d,64ecad81f2f759acf903f496,null,null,"<p style=""font-size: 60px; font-family: BACS"">kLvdNQru</p>",,,,,,,,,
html-keyboard-response,72,319929,0.0-7.0-0.65,6136aa846e80ebd7daf6e148,64e77d7b61f440b60e28659d,64ecad81f2f759acf903f496,null,null,"<p style=""font-size: 60px; font-family: BACS"">JAdLmdmkv</p>",,,,,,,,,
html-keyboard-response,73,320947,0.0-7.0-0.66,6136aa846e80ebd7daf6e148,64e77d7b61f440b60e28659d,64ecad81f2f759acf903f496,null,null,"<p style=""font-size: 60px; font-family: BACS"">LdrbvJcL</p>",,,,,,,,,
html-keyboard-response,74,321951,0.0-7.0-0.67,6136aa846e80ebd7daf6e148,64e77d7b61f440b60e28659d,64ecad81f2f759acf903f496,null,null,"<p style=""font-size: 60px; font-family: BACS"">htmhCcthB</p>",,,,,,,,,
html-keyboard-response,75,322969,0.0-7.0-0.68,6136aa846e80ebd7daf6e148,64e77d7b61f440b60e28659d,64ecad81f2f759acf903f496,null,null,"<p style=""font-size: 60px; font-family: BACS"">TbKMEdRA</p>",,,,,,,,,
html-keyboard-response,76,323987,0.0-7.0-0.69,6136aa846e80ebd7daf6e148,64e77d7b61f440b60e28659d,64ecad81f2f759acf903f496,null,null,"<p style=""font-size: 60px; font-family: BACS"">hmKPMdTAh</p>",,,,,,,,,
html-keyboard-response,77,325005,0.0-7.0-0.70,6136aa846e80ebd7daf6e148,64e77d7b61f440b60e28659d,64ecad81f2f759acf903f496,null,null,"<p style=""font-size: 60px; font-family: BACS"">LdQvJcL</p>",,,,,,,,,
html-keyboard-response,78,326024,0.0-7.0-0.71,6136aa846e80ebd7daf6e148,64e77d7b61f440b60e28659d,64ecad81f2f759acf903f496,null,null,"<p style=""font-size: 60px; font-family: BACS"">ALOrlAZbl</p>",,,,,,,,,
html-keyboard-response,79,327049,0.0-7.0-0.72,6136aa846e80ebd7daf6e148,64e77d7b61f440b60e28659d,64ecad81f2f759acf903f496,null,null,"<p style=""font-size: 60px; font-family: BACS"">kZUbLkNc</p>",,,,,,,,,
html-keyboard-response,80,328067,0.0-7.0-0.73,6136aa846e80ebd7daf6e148,64e77d7b61f440b60e28659d,64ecad81f2f759acf903f496,null,null,"<p style=""font-size: 60px; font-family: BACS"">LdrbvQru</p>",,,,,,,,,
html-keyboard-response,81,329087,0.0-7.0-0.74,6136aa846e80ebd7daf6e148,64e77d7b61f440b60e28659d,64ecad81f2f759acf903f496,null,null,"<p style=""font-size: 60px; font-family: BACS"">damYbdmkv</p>",,,,,,,,,
html-keyboard-response,82,330106,0.0-7.0-0.75,6136aa846e80ebd7daf6e148,64e77d7b61f440b60e28659d,64ecad81f2f759acf903f496,null,null,"<p style=""font-size: 60px; font-family: BACS"">LOLkULkNc</p>",,,,,,,,,
html-keyboard-response,83,331124,0.0-7.0-0.76,6136aa846e80ebd7daf6e148,64e77d7b61f440b60e28659d,64ecad81f2f759acf903f496,null,null,"<p style=""font-size: 60px; font-family: BACS"">hTtBbBCAd</p>",,,,,,,,,
html-keyboard-response,84,332130,0.0-7.0-0.77,6136aa846e80ebd7daf6e148,64e77d7b61f440b60e28659d,64ecad81f2f759acf903f496,null,null,"<p style=""font-size: 60px; font-family: BACS"">LdrbvLkNc</p>",,,,,,,,,
html-keyboard-response,85,333148,0.0-7.0-0.78,6136aa846e80ebd7daf6e148,64e77d7b61f440b60e28659d,64ecad81f2f759acf903f496,null,null,"<p style=""font-size: 60px; font-family: BACS"">KBKBEdRA</p>",,,,,,,,,
html-keyboard-response,86,334173,0.0-7.0-0.79,6136aa846e80ebd7daf6e148,64e77d7b61f440b60e28659d,64ecad81f2f759acf903f496,null,null,"<p style=""font-size: 60px; font-family: BACS"">ALOrlLkNc</p>",,,,,,,,,
html-keyboard-response,87,362824,0.0-8.0,6136aa846e80ebd7daf6e148,64e77d7b61f440b60e28659d,64ecad81f2f759acf903f496,28649, ,"<p>Great, you've seen the first block of words. You may now take a short break.</p>
      <p>Press the spacebar when you're ready to continue.</p>",,,,,,,,,
html-keyboard-response,88,363840,0.0-9.0-0.0,6136aa846e80ebd7daf6e148,64e77d7b61f440b60e28659d,64ecad81f2f759acf903f496,null,null,"<p style=""font-size: 60px; font-family: BACS"">JAdLmAZbl</p>",,,,,,,,,
html-keyboard-response,89,364860,0.0-9.0-0.1,6136aa846e80ebd7daf6e148,64e77d7b61f440b60e28659d,64ecad81f2f759acf903f496,null,null,"<p style=""font-size: 60px; font-family: BACS"">dMThkcthB</p>",,,,,,,,,
html-keyboard-response,90,365884,0.0-9.0-0.2,6136aa846e80ebd7daf6e148,64e77d7b61f440b60e28659d,64ecad81f2f759acf903f496,null,null,"<p style=""font-size: 60px; font-family: BACS"">damYbdmkv</p>",,,,,,,,,
html-keyboard-response,91,366903,0.0-9.0-0.3,6136aa846e80ebd7daf6e148,64e77d7b61f440b60e28659d,64ecad81f2f759acf903f496,null,null,"<p style=""font-size: 60px; font-family: BACS"">kabJbJcL</p>",,,,,,,,,
html-keyboard-response,92,367922,0.0-9.0-0.4,6136aa846e80ebd7daf6e148,64e77d7b61f440b60e28659d,64ecad81f2f759acf903f496,null,null,"<p style=""font-size: 60px; font-family: BACS"">LOLkUAZbl</p>",,,,,,,,,
html-keyboard-response,93,368940,0.0-9.0-0.5,6136aa846e80ebd7daf6e148,64e77d7b61f440b60e28659d,64ecad81f2f759acf903f496,null,null,"<p style=""font-size: 60px; font-family: BACS"">kabJbdmkv</p>",,,,,,,,,
html-keyboard-response,94,369958,0.0-9.0-0.6,6136aa846e80ebd7daf6e148,64e77d7b61f440b60e28659d,64ecad81f2f759acf903f496,null,null,"<p style=""font-size: 60px; font-family: BACS"">kLvdNAZbl</p>",,,,,,,,,
html-keyboard-response,95,370974,0.0-9.0-0.7,6136aa846e80ebd7daf6e148,64e77d7b61f440b60e28659d,64ecad81f2f759acf903f496,null,null,"<p style=""font-size: 60px; font-family: BACS"">lBlEBCAd</p>",,,,,,,,,
html-keyboard-response,96,371979,0.0-9.0-0.8,6136aa846e80ebd7daf6e148,64e77d7b61f440b60e28659d,64ecad81f2f759acf903f496,null,null,"<p style=""font-size: 60px; font-family: BACS"">damYbLkNc</p>",,,,,,,,,
html-keyboard-response,97,373004,0.0-9.0-0.9,6136aa846e80ebd7daf6e148,64e77d7b61f440b60e28659d,64ecad81f2f759acf903f496,null,null,"<p style=""font-size: 60px; font-family: BACS"">hTtBbcthB</p>",,,,,,,,,
html-keyboard-response,98,374022,0.0-9.0-0.10,6136aa846e80ebd7daf6e148,64e77d7b61f440b60e28659d,64ecad81f2f759acf903f496,null,null,"<p style=""font-size: 60px; font-family: BACS"">LOLkULkNc</p>",,,,,,,,,
html-keyboard-response,99,375041,0.0-9.0-0.11,6136aa846e80ebd7daf6e148,64e77d7b61f440b60e28659d,64ecad81f2f759acf903f496,null,null,"<p style=""font-size: 60px; font-family: BACS"">LdQvdmkv</p>",,,,,,,,,
html-keyboard-response,100,376058,0.0-9.0-0.12,6136aa846e80ebd7daf6e148,64e77d7b61f440b60e28659d,64ecad81f2f759acf903f496,null,null,"<p style=""font-size: 60px; font-family: BACS"">htmhCcthB</p>",,,,,,,,,
html-keyboard-response,101,377077,0.0-9.0-0.13,6136aa846e80ebd7daf6e148,64e77d7b61f440b60e28659d,64ecad81f2f759acf903f496,null,null,"<p style=""font-size: 60px; font-family: BACS"">KBKBEdRA</p>",,,,,,,,,
html-keyboard-response,102,378097,0.0-9.0-0.14,6136aa846e80ebd7daf6e148,64e77d7b61f440b60e28659d,64ecad81f2f759acf903f496,null,null,"<p style=""font-size: 60px; font-family: BACS"">LdQvAZbl</p>",,,,,,,,,
html-keyboard-response,103,379116,0.0-9.0-0.15,6136aa846e80ebd7daf6e148,64e77d7b61f440b60e28659d,64ecad81f2f759acf903f496,null,null,"<p style=""font-size: 60px; font-family: BACS"">LOLkUJcL</p>",,,,,,,,,
html-keyboard-response,104,380145,0.0-9.0-0.16,6136aa846e80ebd7daf6e148,64e77d7b61f440b60e28659d,64ecad81f2f759acf903f496,null,null,"<p style=""font-size: 60px; font-family: BACS"">ALOrlAZbl</p>",,,,,,,,,
html-keyboard-response,105,381160,0.0-9.0-0.17,6136aa846e80ebd7daf6e148,64e77d7b61f440b60e28659d,64ecad81f2f759acf903f496,null,null,"<p style=""font-size: 60px; font-family: BACS"">DhMtdCKc</p>",,,,,,,,,
html-keyboard-response,106,382179,0.0-9.0-0.18,6136aa846e80ebd7daf6e148,64e77d7b61f440b60e28659d,64ecad81f2f759acf903f496,null,null,"<p style=""font-size: 60px; font-family: BACS"">TbKMEdRA</p>",,,,,,,,,
html-keyboard-response,107,383198,0.0-9.0-0.19,6136aa846e80ebd7daf6e148,64e77d7b61f440b60e28659d,64ecad81f2f759acf903f496,null,null,"<p style=""font-size: 60px; font-family: BACS"">lBlEcthB</p>",,,,,,,,,
html-keyboard-response,108,384217,0.0-9.0-0.20,6136aa846e80ebd7daf6e148,64e77d7b61f440b60e28659d,64ecad81f2f759acf903f496,null,null,"<p style=""font-size: 60px; font-family: BACS"">kLvdNdmkv</p>",,,,,,,,,
html-keyboard-response,109,385221,0.0-9.0-0.21,6136aa846e80ebd7daf6e148,64e77d7b61f440b60e28659d,64ecad81f2f759acf903f496,null,null,"<p style=""font-size: 60px; font-family: BACS"">KBKBEdCKc</p>",,,,,,,,,
html-keyboard-response,110,386225,0.0-9.0-0.22,6136aa846e80ebd7daf6e148,64e77d7b61f440b60e28659d,64ecad81f2f759acf903f496,null,null,"<p style=""font-size: 60px; font-family: BACS"">kZUbLkNc</p>",,,,,,,,,
html-keyboard-response,111,387241,0.0-9.0-0.23,6136aa846e80ebd7daf6e148,64e77d7b61f440b60e28659d,64ecad81f2f759acf903f496,null,null,"<p style=""font-size: 60px; font-family: BACS"">hmKPMdTAh</p>",,,,,,,,,
html-keyboard-response,112,388244,0.0-9.0-0.24,6136aa846e80ebd7daf6e148,64e77d7b61f440b60e28659d,64ecad81f2f759acf903f496,null,null,"<p style=""font-size: 60px; font-family: BACS"">hTtBbdRA</p>",,,,,,,,,
html-keyboard-response,113,389269,0.0-9.0-0.25,6136aa846e80ebd7daf6e148,64e77d7b61f440b60e28659d,64ecad81f2f759acf903f496,null,null,"<p style=""font-size: 60px; font-family: BACS"">dMThkdCKc</p>",,,,,,,,,
html-keyboard-response,114,390288,0.0-9.0-0.26,6136aa846e80ebd7daf6e148,64e77d7b61f440b60e28659d,64ecad81f2f759acf903f496,null,null,"<p style=""font-size: 60px; font-family: BACS"">kLvdNLkNc</p>",,,,,,,,,
html-keyboard-response,115,391306,0.0-9.0-0.27,6136aa846e80ebd7daf6e148,64e77d7b61f440b60e28659d,64ecad81f2f759acf903f496,null,null,"<p style=""font-size: 60px; font-family: BACS"">LdQvQru</p>",,,,,,,,,
html-keyboard-response,116,392323,0.0-9.0-0.28,6136aa846e80ebd7daf6e148,64e77d7b61f440b60e28659d,64ecad81f2f759acf903f496,null,null,"<p style=""font-size: 60px; font-family: BACS"">lBlEdCKc</p>",,,,,,,,,
html-keyboard-response,117,393345,0.0-9.0-0.29,6136aa846e80ebd7daf6e148,64e77d7b61f440b60e28659d,64ecad81f2f759acf903f496,null,null,"<p style=""font-size: 60px; font-family: BACS"">ALOrlLkNc</p>",,,,,,,,,
html-keyboard-response,118,394361,0.0-9.0-0.30,6136aa846e80ebd7daf6e148,64e77d7b61f440b60e28659d,64ecad81f2f759acf903f496,null,null,"<p style=""font-size: 60px; font-family: BACS"">JAdLmJcL</p>",,,,,,,,,
html-keyboard-response,119,395386,0.0-9.0-0.31,6136aa846e80ebd7daf6e148,64e77d7b61f440b60e28659d,64ecad81f2f759acf903f496,null,null,"<p style=""font-size: 60px; font-family: BACS"">lBlEdRA</p>",,,,,,,,,
html-keyboard-response,120,396403,0.0-9.0-0.32,6136aa846e80ebd7daf6e148,64e77d7b61f440b60e28659d,64ecad81f2f759acf903f496,null,null,"<p style=""font-size: 60px; font-family: BACS"">uvaUQru</p>",,,,,,,,,
html-keyboard-response,121,397423,0.0-9.0-0.33,6136aa846e80ebd7daf6e148,64e77d7b61f440b60e28659d,64ecad81f2f759acf903f496,null,null,"<p style=""font-size: 60px; font-family: BACS"">DhMtdRA</p>",,,,,,,,,
html-keyboard-response,122,398431,0.0-9.0-0.34,6136aa846e80ebd7daf6e148,64e77d7b61f440b60e28659d,64ecad81f2f759acf903f496,null,null,"<p style=""font-size: 60px; font-family: BACS"">dMThkdTAh</p>",,,,,,,,,
html-keyboard-response,123,399435,0.0-9.0-0.35,6136aa846e80ebd7daf6e148,64e77d7b61f440b60e28659d,64ecad81f2f759acf903f496,null,null,"<p style=""font-size: 60px; font-family: BACS"">TbKMEBCAd</p>",,,,,,,,,
html-keyboard-response,124,400453,0.0-9.0-0.36,6136aa846e80ebd7daf6e148,64e77d7b61f440b60e28659d,64ecad81f2f759acf903f496,null,null,"<p style=""font-size: 60px; font-family: BACS"">ALOrlQru</p>",,,,,,,,,
html-keyboard-response,125,401471,0.0-9.0-0.37,6136aa846e80ebd7daf6e148,64e77d7b61f440b60e28659d,64ecad81f2f759acf903f496,null,null,"<p style=""font-size: 60px; font-family: BACS"">KBKBEcthB</p>",,,,,,,,,
html-keyboard-response,126,402496,0.0-9.0-0.38,6136aa846e80ebd7daf6e148,64e77d7b61f440b60e28659d,64ecad81f2f759acf903f496,null,null,"<p style=""font-size: 60px; font-family: BACS"">lRckABCAd</p>",,,,,,,,,
html-keyboard-response,127,403515,0.0-9.0-0.39,6136aa846e80ebd7daf6e148,64e77d7b61f440b60e28659d,64ecad81f2f759acf903f496,null,null,"<p style=""font-size: 60px; font-family: BACS"">dKRDdTAh</p>",,,,,,,,,
html-keyboard-response,128,404533,0.0-9.0-0.40,6136aa846e80ebd7daf6e148,64e77d7b61f440b60e28659d,64ecad81f2f759acf903f496,null,null,"<p style=""font-size: 60px; font-family: BACS"">kabJbLkNc</p>",,,,,,,,,
html-keyboard-response,129,405551,0.0-9.0-0.41,6136aa846e80ebd7daf6e148,64e77d7b61f440b60e28659d,64ecad81f2f759acf903f496,null,null,"<p style=""font-size: 60px; font-family: BACS"">hTtBbBCAd</p>",,,,,,,,,
html-keyboard-response,130,406572,0.0-9.0-0.42,6136aa846e80ebd7daf6e148,64e77d7b61f440b60e28659d,64ecad81f2f759acf903f496,null,null,"<p style=""font-size: 60px; font-family: BACS"">damYbJcL</p>",,,,,,,,,
html-keyboard-response,131,407588,0.0-9.0-0.43,6136aa846e80ebd7daf6e148,64e77d7b61f440b60e28659d,64ecad81f2f759acf903f496,null,null,"<p style=""font-size: 60px; font-family: BACS"">JAdLmdmkv</p>",,,,,,,,,
html-keyboard-response,132,408613,0.0-9.0-0.44,6136aa846e80ebd7daf6e148,64e77d7b61f440b60e28659d,64ecad81f2f759acf903f496,null,null,"<p style=""font-size: 60px; font-family: BACS"">LdrbvAZbl</p>",,,,,,,,,
html-keyboard-response,133,409632,0.0-9.0-0.45,6136aa846e80ebd7daf6e148,64e77d7b61f440b60e28659d,64ecad81f2f759acf903f496,null,null,"<p style=""font-size: 60px; font-family: BACS"">DhMtBCAd</p>",,,,,,,,,
html-keyboard-response,134,410651,0.0-9.0-0.46,6136aa846e80ebd7daf6e148,64e77d7b61f440b60e28659d,64ecad81f2f759acf903f496,null,null,"<p style=""font-size: 60px; font-family: BACS"">kZUbAZbl</p>",,,,,,,,,
html-keyboard-response,135,411668,0.0-9.0-0.47,6136aa846e80ebd7daf6e148,64e77d7b61f440b60e28659d,64ecad81f2f759acf903f496,null,null,"<p style=""font-size: 60px; font-family: BACS"">JAdLmQru</p>",,,,,,,,,
html-keyboard-response,136,412687,0.0-9.0-0.48,6136aa846e80ebd7daf6e148,64e77d7b61f440b60e28659d,64ecad81f2f759acf903f496,null,null,"<p style=""font-size: 60px; font-family: BACS"">LdrbvLkNc</p>",,,,,,,,,
html-keyboard-response,137,413705,0.0-9.0-0.49,6136aa846e80ebd7daf6e148,64e77d7b61f440b60e28659d,64ecad81f2f759acf903f496,null,null,"<p style=""font-size: 60px; font-family: BACS"">dMThkdRA</p>",,,,,,,,,
html-keyboard-response,138,414730,0.0-9.0-0.50,6136aa846e80ebd7daf6e148,64e77d7b61f440b60e28659d,64ecad81f2f759acf903f496,null,null,"<p style=""font-size: 60px; font-family: BACS"">LdrbvJcL</p>",,,,,,,,,
html-keyboard-response,139,415749,0.0-9.0-0.51,6136aa846e80ebd7daf6e148,64e77d7b61f440b60e28659d,64ecad81f2f759acf903f496,null,null,"<p style=""font-size: 60px; font-family: BACS"">kLvdNQru</p>",,,,,,,,,
html-keyboard-response,140,416769,0.0-9.0-0.52,6136aa846e80ebd7daf6e148,64e77d7b61f440b60e28659d,64ecad81f2f759acf903f496,null,null,"<p style=""font-size: 60px; font-family: BACS"">lRckAdCKc</p>",,,,,,,,,
html-keyboard-response,141,417786,0.0-9.0-0.53,6136aa846e80ebd7daf6e148,64e77d7b61f440b60e28659d,64ecad81f2f759acf903f496,null,null,"<p style=""font-size: 60px; font-family: BACS"">DhMtdTAh</p>",,,,,,,,,
html-keyboard-response,142,418804,0.0-9.0-0.54,6136aa846e80ebd7daf6e148,64e77d7b61f440b60e28659d,64ecad81f2f759acf903f496,null,null,"<p style=""font-size: 60px; font-family: BACS"">hmKPMBCAd</p>",,,,,,,,,
html-keyboard-response,143,419823,0.0-9.0-0.55,6136aa846e80ebd7daf6e148,64e77d7b61f440b60e28659d,64ecad81f2f759acf903f496,null,null,"<p style=""font-size: 60px; font-family: BACS"">uvaUJcL</p>",,,,,,,,,
html-keyboard-response,144,420827,0.0-9.0-0.56,6136aa846e80ebd7daf6e148,64e77d7b61f440b60e28659d,64ecad81f2f759acf903f496,null,null,"<p style=""font-size: 60px; font-family: BACS"">dKRDcthB</p>",,,,,,,,,
html-keyboard-response,145,421853,0.0-9.0-0.57,6136aa846e80ebd7daf6e148,64e77d7b61f440b60e28659d,64ecad81f2f759acf903f496,null,null,"<p style=""font-size: 60px; font-family: BACS"">kZUbJcL</p>",,,,,,,,,
html-keyboard-response,146,422856,0.0-9.0-0.58,6136aa846e80ebd7daf6e148,64e77d7b61f440b60e28659d,64ecad81f2f759acf903f496,null,null,"<p style=""font-size: 60px; font-family: BACS"">TbKMEdCKc</p>",,,,,,,,,
html-keyboard-response,147,423873,0.0-9.0-0.59,6136aa846e80ebd7daf6e148,64e77d7b61f440b60e28659d,64ecad81f2f759acf903f496,null,null,"<p style=""font-size: 60px; font-family: BACS"">kabJbAZbl</p>",,,,,,,,,
html-keyboard-response,148,424881,0.0-9.0-0.60,6136aa846e80ebd7daf6e148,64e77d7b61f440b60e28659d,64ecad81f2f759acf903f496,null,null,"<p style=""font-size: 60px; font-family: BACS"">htmhCdCKc</p>",,,,,,,,,
html-keyboard-response,149,425896,0.0-9.0-0.61,6136aa846e80ebd7daf6e148,64e77d7b61f440b60e28659d,64ecad81f2f759acf903f496,null,null,"<p style=""font-size: 60px; font-family: BACS"">KBKBEdTAh</p>",,,,,,,,,
html-keyboard-response,150,426905,0.0-9.0-0.62,6136aa846e80ebd7daf6e148,64e77d7b61f440b60e28659d,64ecad81f2f759acf903f496,null,null,"<p style=""font-size: 60px; font-family: BACS"">uvaULkNc</p>",,,,,,,,,
html-keyboard-response,151,427918,0.0-9.0-0.63,6136aa846e80ebd7daf6e148,64e77d7b61f440b60e28659d,64ecad81f2f759acf903f496,null,null,"<p style=""font-size: 60px; font-family: BACS"">LdQvJcL</p>",,,,,,,,,
html-keyboard-response,152,428924,0.0-9.0-0.64,6136aa846e80ebd7daf6e148,64e77d7b61f440b60e28659d,64ecad81f2f759acf903f496,null,null,"<p style=""font-size: 60px; font-family: BACS"">hTtBbdTAh</p>",,,,,,,,,
html-keyboard-response,153,429939,0.0-9.0-0.65,6136aa846e80ebd7daf6e148,64e77d7b61f440b60e28659d,64ecad81f2f759acf903f496,null,null,"<p style=""font-size: 60px; font-family: BACS"">htmhCBCAd</p>",,,,,,,,,
html-keyboard-response,154,430944,0.0-9.0-0.66,6136aa846e80ebd7daf6e148,64e77d7b61f440b60e28659d,64ecad81f2f759acf903f496,null,null,"<p style=""font-size: 60px; font-family: BACS"">hmKPMdCKc</p>",,,,,,,,,
html-keyboard-response,155,431958,0.0-9.0-0.67,6136aa846e80ebd7daf6e148,64e77d7b61f440b60e28659d,64ecad81f2f759acf903f496,null,null,"<p style=""font-size: 60px; font-family: BACS"">LdrbvQru</p>",,,,,,,,,
html-keyboard-response,156,432982,0.0-9.0-0.68,6136aa846e80ebd7daf6e148,64e77d7b61f440b60e28659d,64ecad81f2f759acf903f496,null,null,"<p style=""font-size: 60px; font-family: BACS"">lRckAdTAh</p>",,,,,,,,,
html-keyboard-response,157,434001,0.0-9.0-0.69,6136aa846e80ebd7daf6e148,64e77d7b61f440b60e28659d,64ecad81f2f759acf903f496,null,null,"<p style=""font-size: 60px; font-family: BACS"">hmKPMcthB</p>",,,,,,,,,
html-keyboard-response,158,435019,0.0-9.0-0.70,6136aa846e80ebd7daf6e148,64e77d7b61f440b60e28659d,64ecad81f2f759acf903f496,null,null,"<p style=""font-size: 60px; font-family: BACS"">dKRDdRA</p>",,,,,,,,,
html-keyboard-response,159,436038,0.0-9.0-0.71,6136aa846e80ebd7daf6e148,64e77d7b61f440b60e28659d,64ecad81f2f759acf903f496,null,null,"<p style=""font-size: 60px; font-family: BACS"">uvaUdmkv</p>",,,,,,,,,
html-keyboard-response,160,437056,0.0-9.0-0.72,6136aa846e80ebd7daf6e148,64e77d7b61f440b60e28659d,64ecad81f2f759acf903f496,null,null,"<p style=""font-size: 60px; font-family: BACS"">dKRDBCAd</p>",,,,,,,,,
html-keyboard-response,161,438074,0.0-9.0-0.73,6136aa846e80ebd7daf6e148,64e77d7b61f440b60e28659d,64ecad81f2f759acf903f496,null,null,"<p style=""font-size: 60px; font-family: BACS"">htmhCdRA</p>",,,,,,,,,
html-keyboard-response,162,439077,0.0-9.0-0.74,6136aa846e80ebd7daf6e148,64e77d7b61f440b60e28659d,64ecad81f2f759acf903f496,null,null,"<p style=""font-size: 60px; font-family: BACS"">TbKMEdTAh</p>",,,,,,,,,
html-keyboard-response,163,440101,0.0-9.0-0.75,6136aa846e80ebd7daf6e148,64e77d7b61f440b60e28659d,64ecad81f2f759acf903f496,null,null,"<p style=""font-size: 60px; font-family: BACS"">damYbQru</p>",,,,,,,,,
html-keyboard-response,164,441119,0.0-9.0-0.76,6136aa846e80ebd7daf6e148,64e77d7b61f440b60e28659d,64ecad81f2f759acf903f496,null,null,"<p style=""font-size: 60px; font-family: BACS"">ALOrldmkv</p>",,,,,,,,,
html-keyboard-response,165,442139,0.0-9.0-0.77,6136aa846e80ebd7daf6e148,64e77d7b61f440b60e28659d,64ecad81f2f759acf903f496,null,null,"<p style=""font-size: 60px; font-family: BACS"">lRckActhB</p>",,,,,,,,,
html-keyboard-response,166,443157,0.0-9.0-0.78,6136aa846e80ebd7daf6e148,64e77d7b61f440b60e28659d,64ecad81f2f759acf903f496,null,null,"<p style=""font-size: 60px; font-family: BACS"">kZUbQru</p>",,,,,,,,,
html-keyboard-response,167,444175,0.0-9.0-0.79,6136aa846e80ebd7daf6e148,64e77d7b61f440b60e28659d,64ecad81f2f759acf903f496,null,null,"<p style=""font-size: 60px; font-family: BACS"">LOLkUdmkv</p>",,,,,,,,,
html-keyboard-response,168,449765,0.0-10.0,6136aa846e80ebd7daf6e148,64e77d7b61f440b60e28659d,64ecad81f2f759acf903f496,5586, ,"<p>Great, you've seen the second block of words. You may now take a short break.</p>
      <p>Press the spacebar when you're ready to continue.</p>",,,,,,,,,
html-keyboard-response,169,450781,0.0-11.0-0.0,6136aa846e80ebd7daf6e148,64e77d7b61f440b60e28659d,64ecad81f2f759acf903f496,null,null,"<p style=""font-size: 60px; font-family: BACS"">lRckAdCKc</p>",,,,,,,,,
html-keyboard-response,170,451799,0.0-11.0-0.1,6136aa846e80ebd7daf6e148,64e77d7b61f440b60e28659d,64ecad81f2f759acf903f496,null,null,"<p style=""font-size: 60px; font-family: BACS"">dMThkdRA</p>",,,,,,,,,
html-keyboard-response,171,452818,0.0-11.0-0.2,6136aa846e80ebd7daf6e148,64e77d7b61f440b60e28659d,64ecad81f2f759acf903f496,null,null,"<p style=""font-size: 60px; font-family: BACS"">damYbJcL</p>",,,,,,,,,
html-keyboard-response,172,453842,0.0-11.0-0.3,6136aa846e80ebd7daf6e148,64e77d7b61f440b60e28659d,64ecad81f2f759acf903f496,null,null,"<p style=""font-size: 60px; font-family: BACS"">uvaUdmkv</p>",,,,,,,,,
html-keyboard-response,173,454863,0.0-11.0-0.4,6136aa846e80ebd7daf6e148,64e77d7b61f440b60e28659d,64ecad81f2f759acf903f496,null,null,"<p style=""font-size: 60px; font-family: BACS"">lBlEdRA</p>",,,,,,,,,
html-keyboard-response,174,455879,0.0-11.0-0.5,6136aa846e80ebd7daf6e148,64e77d7b61f440b60e28659d,64ecad81f2f759acf903f496,null,null,"<p style=""font-size: 60px; font-family: BACS"">uvaUJcL</p>",,,,,,,,,
html-keyboard-response,175,456887,0.0-11.0-0.6,6136aa846e80ebd7daf6e148,64e77d7b61f440b60e28659d,64ecad81f2f759acf903f496,null,null,"<p style=""font-size: 60px; font-family: BACS"">KBKBEcthB</p>",,,,,,,,,
html-keyboard-response,176,457903,0.0-11.0-0.7,6136aa846e80ebd7daf6e148,64e77d7b61f440b60e28659d,64ecad81f2f759acf903f496,null,null,"<p style=""font-size: 60px; font-family: BACS"">lRckABCAd</p>",,,,,,,,,
html-keyboard-response,177,458911,0.0-11.0-0.8,6136aa846e80ebd7daf6e148,64e77d7b61f440b60e28659d,64ecad81f2f759acf903f496,null,null,"<p style=""font-size: 60px; font-family: BACS"">JAdLmJcL</p>",,,,,,,,,
html-keyboard-response,178,459921,0.0-11.0-0.9,6136aa846e80ebd7daf6e148,64e77d7b61f440b60e28659d,64ecad81f2f759acf903f496,null,null,"<p style=""font-size: 60px; font-family: BACS"">KBKBEdTAh</p>",,,,,,,,,
html-keyboard-response,179,460930,0.0-11.0-0.10,6136aa846e80ebd7daf6e148,64e77d7b61f440b60e28659d,64ecad81f2f759acf903f496,null,null,"<p style=""font-size: 60px; font-family: BACS"">JAdLmdmkv</p>",,,,,,,,,
html-keyboard-response,180,461943,0.0-11.0-0.11,6136aa846e80ebd7daf6e148,64e77d7b61f440b60e28659d,64ecad81f2f759acf903f496,null,null,"<p style=""font-size: 60px; font-family: BACS"">LdrbvAZbl</p>",,,,,,,,,
html-keyboard-response,181,462950,0.0-11.0-0.12,6136aa846e80ebd7daf6e148,64e77d7b61f440b60e28659d,64ecad81f2f759acf903f496,null,null,"<p style=""font-size: 60px; font-family: BACS"">TbKMEdCKc</p>",,,,,,,,,
html-keyboard-response,182,463970,0.0-11.0-0.13,6136aa846e80ebd7daf6e148,64e77d7b61f440b60e28659d,64ecad81f2f759acf903f496,null,null,"<p style=""font-size: 60px; font-family: BACS"">kLvdNdmkv</p>",,,,,,,,,
html-keyboard-response,183,464989,0.0-11.0-0.14,6136aa846e80ebd7daf6e148,64e77d7b61f440b60e28659d,64ecad81f2f759acf903f496,null,null,"<p style=""font-size: 60px; font-family: BACS"">LdrbvLkNc</p>",,,,,,,,,
html-keyboard-response,184,466006,0.0-11.0-0.15,6136aa846e80ebd7daf6e148,64e77d7b61f440b60e28659d,64ecad81f2f759acf903f496,null,null,"<p style=""font-size: 60px; font-family: BACS"">kLvdNAZbl</p>",,,,,,,,,
html-keyboard-response,185,467025,0.0-11.0-0.16,6136aa846e80ebd7daf6e148,64e77d7b61f440b60e28659d,64ecad81f2f759acf903f496,null,null,"<p style=""font-size: 60px; font-family: BACS"">dKRDcthB</p>",,,,,,,,,
html-keyboard-response,186,468043,0.0-11.0-0.17,6136aa846e80ebd7daf6e148,64e77d7b61f440b60e28659d,64ecad81f2f759acf903f496,null,null,"<p style=""font-size: 60px; font-family: BACS"">hTtBbBCAd</p>",,,,,,,,,
html-keyboard-response,187,469062,0.0-11.0-0.18,6136aa846e80ebd7daf6e148,64e77d7b61f440b60e28659d,64ecad81f2f759acf903f496,null,null,"<p style=""font-size: 60px; font-family: BACS"">LdQvAZbl</p>",,,,,,,,,
html-keyboard-response,188,470089,0.0-11.0-0.19,6136aa846e80ebd7daf6e148,64e77d7b61f440b60e28659d,64ecad81f2f759acf903f496,null,null,"<p style=""font-size: 60px; font-family: BACS"">TbKMEdTAh</p>",,,,,,,,,
html-keyboard-response,189,471106,0.0-11.0-0.20,6136aa846e80ebd7daf6e148,64e77d7b61f440b60e28659d,64ecad81f2f759acf903f496,null,null,"<p style=""font-size: 60px; font-family: BACS"">kabJbLkNc</p>",,,,,,,,,
html-keyboard-response,190,472124,0.0-11.0-0.21,6136aa846e80ebd7daf6e148,64e77d7b61f440b60e28659d,64ecad81f2f759acf903f496,null,null,"<p style=""font-size: 60px; font-family: BACS"">LdrbvJcL</p>",,,,,,,,,
html-keyboard-response,191,473143,0.0-11.0-0.22,6136aa846e80ebd7daf6e148,64e77d7b61f440b60e28659d,64ecad81f2f759acf903f496,null,null,"<p style=""font-size: 60px; font-family: BACS"">uvaUQru</p>",,,,,,,,,
html-keyboard-response,192,474159,0.0-11.0-0.23,6136aa846e80ebd7daf6e148,64e77d7b61f440b60e28659d,64ecad81f2f759acf903f496,null,null,"<p style=""font-size: 60px; font-family: BACS"">ALOrldmkv</p>",,,,,,,,,
html-keyboard-response,193,475177,0.0-11.0-0.24,6136aa846e80ebd7daf6e148,64e77d7b61f440b60e28659d,64ecad81f2f759acf903f496,null,null,"<p style=""font-size: 60px; font-family: BACS"">dMThkcthB</p>",,,,,,,,,
html-keyboard-response,194,476201,0.0-11.0-0.25,6136aa846e80ebd7daf6e148,64e77d7b61f440b60e28659d,64ecad81f2f759acf903f496,null,null,"<p style=""font-size: 60px; font-family: BACS"">DhMtdRA</p>",,,,,,,,,
html-keyboard-response,195,477220,0.0-11.0-0.26,6136aa846e80ebd7daf6e148,64e77d7b61f440b60e28659d,64ecad81f2f759acf903f496,null,null,"<p style=""font-size: 60px; font-family: BACS"">dMThkdTAh</p>",,,,,,,,,
html-keyboard-response,196,478240,0.0-11.0-0.27,6136aa846e80ebd7daf6e148,64e77d7b61f440b60e28659d,64ecad81f2f759acf903f496,null,null,"<p style=""font-size: 60px; font-family: BACS"">kabJbdmkv</p>",,,,,,,,,
html-keyboard-response,197,479256,0.0-11.0-0.28,6136aa846e80ebd7daf6e148,64e77d7b61f440b60e28659d,64ecad81f2f759acf903f496,null,null,"<p style=""font-size: 60px; font-family: BACS"">KBKBEdRA</p>",,,,,,,,,
html-keyboard-response,198,480274,0.0-11.0-0.29,6136aa846e80ebd7daf6e148,64e77d7b61f440b60e28659d,64ecad81f2f759acf903f496,null,null,"<p style=""font-size: 60px; font-family: BACS"">LdQvdmkv</p>",,,,,,,,,
html-keyboard-response,199,481293,0.0-11.0-0.30,6136aa846e80ebd7daf6e148,64e77d7b61f440b60e28659d,64ecad81f2f759acf903f496,null,null,"<p style=""font-size: 60px; font-family: BACS"">damYbLkNc</p>",,,,,,,,,
html-keyboard-response,200,482316,0.0-11.0-0.31,6136aa846e80ebd7daf6e148,64e77d7b61f440b60e28659d,64ecad81f2f759acf903f496,null,null,"<p style=""font-size: 60px; font-family: BACS"">lBlEBCAd</p>",,,,,,,,,
html-keyboard-response,201,483334,0.0-11.0-0.32,6136aa846e80ebd7daf6e148,64e77d7b61f440b60e28659d,64ecad81f2f759acf903f496,null,null,"<p style=""font-size: 60px; font-family: BACS"">hTtBbcthB</p>",,,,,,,,,
html-keyboard-response,202,484353,0.0-11.0-0.33,6136aa846e80ebd7daf6e148,64e77d7b61f440b60e28659d,64ecad81f2f759acf903f496,null,null,"<p style=""font-size: 60px; font-family: BACS"">kLvdNLkNc</p>",,,,,,,,,
html-keyboard-response,203,485371,0.0-11.0-0.34,6136aa846e80ebd7daf6e148,64e77d7b61f440b60e28659d,64ecad81f2f759acf903f496,null,null,"<p style=""font-size: 60px; font-family: BACS"">LdQvJcL</p>",,,,,,,,,
html-keyboard-response,204,486389,0.0-11.0-0.35,6136aa846e80ebd7daf6e148,64e77d7b61f440b60e28659d,64ecad81f2f759acf903f496,null,null,"<p style=""font-size: 60px; font-family: BACS"">lBlEdCKc</p>",,,,,,,,,
html-keyboard-response,205,487393,0.0-11.0-0.36,6136aa846e80ebd7daf6e148,64e77d7b61f440b60e28659d,64ecad81f2f759acf903f496,null,null,"<p style=""font-size: 60px; font-family: BACS"">kZUbAZbl</p>",,,,,,,,,
html-keyboard-response,206,488411,0.0-11.0-0.37,6136aa846e80ebd7daf6e148,64e77d7b61f440b60e28659d,64ecad81f2f759acf903f496,null,null,"<p style=""font-size: 60px; font-family: BACS"">dKRDdTAh</p>",,,,,,,,,
html-keyboard-response,207,489436,0.0-11.0-0.38,6136aa846e80ebd7daf6e148,64e77d7b61f440b60e28659d,64ecad81f2f759acf903f496,null,null,"<p style=""font-size: 60px; font-family: BACS"">LOLkULkNc</p>",,,,,,,,,
html-keyboard-response,208,490456,0.0-11.0-0.39,6136aa846e80ebd7daf6e148,64e77d7b61f440b60e28659d,64ecad81f2f759acf903f496,null,null,"<p style=""font-size: 60px; font-family: BACS"">dMThkdCKc</p>",,,,,,,,,
html-keyboard-response,209,491474,0.0-11.0-0.40,6136aa846e80ebd7daf6e148,64e77d7b61f440b60e28659d,64ecad81f2f759acf903f496,null,null,"<p style=""font-size: 60px; font-family: BACS"">LOLkUJcL</p>",,,,,,,,,
html-keyboard-response,210,492476,0.0-11.0-0.41,6136aa846e80ebd7daf6e148,64e77d7b61f440b60e28659d,64ecad81f2f759acf903f496,null,null,"<p style=""font-size: 60px; font-family: BACS"">hTtBbdRA</p>",,,,,,,,,
html-keyboard-response,211,493495,0.0-11.0-0.42,6136aa846e80ebd7daf6e148,64e77d7b61f440b60e28659d,64ecad81f2f759acf903f496,null,null,"<p style=""font-size: 60px; font-family: BACS"">htmhCBCAd</p>",,,,,,,,,
html-keyboard-response,212,494513,0.0-11.0-0.43,6136aa846e80ebd7daf6e148,64e77d7b61f440b60e28659d,64ecad81f2f759acf903f496,null,null,"<p style=""font-size: 60px; font-family: BACS"">hTtBbdTAh</p>",,,,,,,,,
html-keyboard-response,213,495531,0.0-11.0-0.44,6136aa846e80ebd7daf6e148,64e77d7b61f440b60e28659d,64ecad81f2f759acf903f496,null,null,"<p style=""font-size: 60px; font-family: BACS"">kabJbAZbl</p>",,,,,,,,,
html-keyboard-response,214,496535,0.0-11.0-0.45,6136aa846e80ebd7daf6e148,64e77d7b61f440b60e28659d,64ecad81f2f759acf903f496,null,null,"<p style=""font-size: 60px; font-family: BACS"">htmhCdRA</p>",,,,,,,,,
html-keyboard-response,215,497560,0.0-11.0-0.46,6136aa846e80ebd7daf6e148,64e77d7b61f440b60e28659d,64ecad81f2f759acf903f496,null,null,"<p style=""font-size: 60px; font-family: BACS"">uvaULkNc</p>",,,,,,,,,
html-keyboard-response,216,498579,0.0-11.0-0.47,6136aa846e80ebd7daf6e148,64e77d7b61f440b60e28659d,64ecad81f2f759acf903f496,null,null,"<p style=""font-size: 60px; font-family: BACS"">lBlEcthB</p>",,,,,,,,,
html-keyboard-response,217,499598,0.0-11.0-0.48,6136aa846e80ebd7daf6e148,64e77d7b61f440b60e28659d,64ecad81f2f759acf903f496,null,null,"<p style=""font-size: 60px; font-family: BACS"">ALOrlAZbl</p>",,,,,,,,,
html-keyboard-response,218,500614,0.0-11.0-0.49,6136aa846e80ebd7daf6e148,64e77d7b61f440b60e28659d,64ecad81f2f759acf903f496,null,null,"<p style=""font-size: 60px; font-family: BACS"">kabJbJcL</p>",,,,,,,,,
html-keyboard-response,219,501634,0.0-11.0-0.50,6136aa846e80ebd7daf6e148,64e77d7b61f440b60e28659d,64ecad81f2f759acf903f496,null,null,"<p style=""font-size: 60px; font-family: BACS"">damYbQru</p>",,,,,,,,,
html-keyboard-response,220,502675,0.0-11.0-0.51,6136aa846e80ebd7daf6e148,64e77d7b61f440b60e28659d,64ecad81f2f759acf903f496,null,null,"<p style=""font-size: 60px; font-family: BACS"">dKRDBCAd</p>",,,,,,,,,
html-keyboard-response,221,503692,0.0-11.0-0.52,6136aa846e80ebd7daf6e148,64e77d7b61f440b60e28659d,64ecad81f2f759acf903f496,null,null,"<p style=""font-size: 60px; font-family: BACS"">lRckAdTAh</p>",,,,,,,,,
html-keyboard-response,222,504708,0.0-11.0-0.53,6136aa846e80ebd7daf6e148,64e77d7b61f440b60e28659d,64ecad81f2f759acf903f496,null,null,"<p style=""font-size: 60px; font-family: BACS"">LOLkUAZbl</p>",,,,,,,,,
html-keyboard-response,223,505726,0.0-11.0-0.54,6136aa846e80ebd7daf6e148,64e77d7b61f440b60e28659d,64ecad81f2f759acf903f496,null,null,"<p style=""font-size: 60px; font-family: BACS"">JAdLmQru</p>",,,,,,,,,
html-keyboard-response,224,506745,0.0-11.0-0.55,6136aa846e80ebd7daf6e148,64e77d7b61f440b60e28659d,64ecad81f2f759acf903f496,null,null,"<p style=""font-size: 60px; font-family: BACS"">hmKPMdCKc</p>",,,,,,,,,
html-keyboard-response,225,507763,0.0-11.0-0.56,6136aa846e80ebd7daf6e148,64e77d7b61f440b60e28659d,64ecad81f2f759acf903f496,null,null,"<p style=""font-size: 60px; font-family: BACS"">TbKMEdRA</p>",,,,,,,,,
html-keyboard-response,226,508787,0.0-11.0-0.57,6136aa846e80ebd7daf6e148,64e77d7b61f440b60e28659d,64ecad81f2f759acf903f496,null,null,"<p style=""font-size: 60px; font-family: BACS"">KBKBEdCKc</p>",,,,,,,,,
html-keyboard-response,227,509807,0.0-11.0-0.58,6136aa846e80ebd7daf6e148,64e77d7b61f440b60e28659d,64ecad81f2f759acf903f496,null,null,"<p style=""font-size: 60px; font-family: BACS"">DhMtBCAd</p>",,,,,,,,,
html-keyboard-response,228,510825,0.0-11.0-0.59,6136aa846e80ebd7daf6e148,64e77d7b61f440b60e28659d,64ecad81f2f759acf903f496,null,null,"<p style=""font-size: 60px; font-family: BACS"">htmhCdCKc</p>",,,,,,,,,
html-keyboard-response,229,511843,0.0-11.0-0.60,6136aa846e80ebd7daf6e148,64e77d7b61f440b60e28659d,64ecad81f2f759acf903f496,null,null,"<p style=""font-size: 60px; font-family: BACS"">lRckActhB</p>",,,,,,,,,
html-keyboard-response,230,512862,0.0-11.0-0.61,6136aa846e80ebd7daf6e148,64e77d7b61f440b60e28659d,64ecad81f2f759acf903f496,null,null,"<p style=""font-size: 60px; font-family: BACS"">LOLkUdmkv</p>",,,,,,,,,
html-keyboard-response,231,513878,0.0-11.0-0.62,6136aa846e80ebd7daf6e148,64e77d7b61f440b60e28659d,64ecad81f2f759acf903f496,null,null,"<p style=""font-size: 60px; font-family: BACS"">ALOrlQru</p>",,,,,,,,,
html-keyboard-response,232,514888,0.0-11.0-0.63,6136aa846e80ebd7daf6e148,64e77d7b61f440b60e28659d,64ecad81f2f759acf903f496,null,null,"<p style=""font-size: 60px; font-family: BACS"">TbKMEBCAd</p>",,,,,,,,,
html-keyboard-response,233,515908,0.0-11.0-0.64,6136aa846e80ebd7daf6e148,64e77d7b61f440b60e28659d,64ecad81f2f759acf903f496,null,null,"<p style=""font-size: 60px; font-family: BACS"">JAdLmAZbl</p>",,,,,,,,,
html-keyboard-response,234,516912,0.0-11.0-0.65,6136aa846e80ebd7daf6e148,64e77d7b61f440b60e28659d,64ecad81f2f759acf903f496,null,null,"<p style=""font-size: 60px; font-family: BACS"">DhMtdTAh</p>",,,,,,,,,
html-keyboard-response,235,517930,0.0-11.0-0.66,6136aa846e80ebd7daf6e148,64e77d7b61f440b60e28659d,64ecad81f2f759acf903f496,null,null,"<p style=""font-size: 60px; font-family: BACS"">ALOrlLkNc</p>",,,,,,,,,
html-keyboard-response,236,518945,0.0-11.0-0.67,6136aa846e80ebd7daf6e148,64e77d7b61f440b60e28659d,64ecad81f2f759acf903f496,null,null,"<p style=""font-size: 60px; font-family: BACS"">LdrbvQru</p>",,,,,,,,,
html-keyboard-response,237,519962,0.0-11.0-0.68,6136aa846e80ebd7daf6e148,64e77d7b61f440b60e28659d,64ecad81f2f759acf903f496,null,null,"<p style=""font-size: 60px; font-family: BACS"">kZUbLkNc</p>",,,,,,,,,
html-keyboard-response,238,520979,0.0-11.0-0.69,6136aa846e80ebd7daf6e148,64e77d7b61f440b60e28659d,64ecad81f2f759acf903f496,null,null,"<p style=""font-size: 60px; font-family: BACS"">damYbdmkv</p>",,,,,,,,,
html-keyboard-response,239,522005,0.0-11.0-0.70,6136aa846e80ebd7daf6e148,64e77d7b61f440b60e28659d,64ecad81f2f759acf903f496,null,null,"<p style=""font-size: 60px; font-family: BACS"">kLvdNQru</p>",,,,,,,,,
html-keyboard-response,240,523024,0.0-11.0-0.71,6136aa846e80ebd7daf6e148,64e77d7b61f440b60e28659d,64ecad81f2f759acf903f496,null,null,"<p style=""font-size: 60px; font-family: BACS"">hmKPMBCAd</p>",,,,,,,,,
html-keyboard-response,241,524042,0.0-11.0-0.72,6136aa846e80ebd7daf6e148,64e77d7b61f440b60e28659d,64ecad81f2f759acf903f496,null,null,"<p style=""font-size: 60px; font-family: BACS"">dKRDdRA</p>",,,,,,,,,
html-keyboard-response,242,525060,0.0-11.0-0.73,6136aa846e80ebd7daf6e148,64e77d7b61f440b60e28659d,64ecad81f2f759acf903f496,null,null,"<p style=""font-size: 60px; font-family: BACS"">htmhCcthB</p>",,,,,,,,,
html-keyboard-response,243,526079,0.0-11.0-0.74,6136aa846e80ebd7daf6e148,64e77d7b61f440b60e28659d,64ecad81f2f759acf903f496,null,null,"<p style=""font-size: 60px; font-family: BACS"">hmKPMdTAh</p>",,,,,,,,,
html-keyboard-response,244,527097,0.0-11.0-0.75,6136aa846e80ebd7daf6e148,64e77d7b61f440b60e28659d,64ecad81f2f759acf903f496,null,null,"<p style=""font-size: 60px; font-family: BACS"">LdQvQru</p>",,,,,,,,,
html-keyboard-response,245,528123,0.0-11.0-0.76,6136aa846e80ebd7daf6e148,64e77d7b61f440b60e28659d,64ecad81f2f759acf903f496,null,null,"<p style=""font-size: 60px; font-family: BACS"">kZUbJcL</p>",,,,,,,,,
html-keyboard-response,246,529142,0.0-11.0-0.77,6136aa846e80ebd7daf6e148,64e77d7b61f440b60e28659d,64ecad81f2f759acf903f496,null,null,"<p style=""font-size: 60px; font-family: BACS"">hmKPMcthB</p>",,,,,,,,,
html-keyboard-response,247,530160,0.0-11.0-0.78,6136aa846e80ebd7daf6e148,64e77d7b61f440b60e28659d,64ecad81f2f759acf903f496,null,null,"<p style=""font-size: 60px; font-family: BACS"">DhMtdCKc</p>",,,,,,,,,
html-keyboard-response,248,531179,0.0-11.0-0.79,6136aa846e80ebd7daf6e148,64e77d7b61f440b60e28659d,64ecad81f2f759acf903f496,null,null,"<p style=""font-size: 60px; font-family: BACS"">kZUbQru</p>",,,,,,,,,
html-keyboard-response,249,545892,0.0-12.0,6136aa846e80ebd7daf6e148,64e77d7b61f440b60e28659d,64ecad81f2f759acf903f496,14708, ,"<p>Great, you've seen the third block of words. You may now take a short break.</p>
      <p>Press the spacebar when you're ready to continue.</p>",,,,,,,,,
html-keyboard-response,250,546900,0.0-13.0-0.0,6136aa846e80ebd7daf6e148,64e77d7b61f440b60e28659d,64ecad81f2f759acf903f496,null,null,"<p style=""font-size: 60px; font-family: BACS"">hTtBbdTAh</p>",,,,,,,,,
html-keyboard-response,251,547917,0.0-13.0-0.1,6136aa846e80ebd7daf6e148,64e77d7b61f440b60e28659d,64ecad81f2f759acf903f496,null,null,"<p style=""font-size: 60px; font-family: BACS"">kabJbJcL</p>",,,,,,,,,
html-keyboard-response,252,548934,0.0-13.0-0.2,6136aa846e80ebd7daf6e148,64e77d7b61f440b60e28659d,64ecad81f2f759acf903f496,null,null,"<p style=""font-size: 60px; font-family: BACS"">lRckAdTAh</p>",,,,,,,,,
html-keyboard-response,253,549939,0.0-13.0-0.3,6136aa846e80ebd7daf6e148,64e77d7b61f440b60e28659d,64ecad81f2f759acf903f496,null,null,"<p style=""font-size: 60px; font-family: BACS"">LOLkULkNc</p>",,,,,,,,,
html-keyboard-response,254,550956,0.0-13.0-0.4,6136aa846e80ebd7daf6e148,64e77d7b61f440b60e28659d,64ecad81f2f759acf903f496,null,null,"<p style=""font-size: 60px; font-family: BACS"">dMThkdTAh</p>",,,,,,,,,
html-keyboard-response,255,551974,0.0-13.0-0.5,6136aa846e80ebd7daf6e148,64e77d7b61f440b60e28659d,64ecad81f2f759acf903f496,null,null,"<p style=""font-size: 60px; font-family: BACS"">LdQvJcL</p>",,,,,,,,,
html-keyboard-response,256,552978,0.0-13.0-0.6,6136aa846e80ebd7daf6e148,64e77d7b61f440b60e28659d,64ecad81f2f759acf903f496,null,null,"<p style=""font-size: 60px; font-family: BACS"">ALOrldmkv</p>",,,,,,,,,
html-keyboard-response,257,554003,0.0-13.0-0.7,6136aa846e80ebd7daf6e148,64e77d7b61f440b60e28659d,64ecad81f2f759acf903f496,null,null,"<p style=""font-size: 60px; font-family: BACS"">KBKBEdTAh</p>",,,,,,,,,
html-keyboard-response,258,555022,0.0-13.0-0.8,6136aa846e80ebd7daf6e148,64e77d7b61f440b60e28659d,64ecad81f2f759acf903f496,null,null,"<p style=""font-size: 60px; font-family: BACS"">JAdLmdmkv</p>",,,,,,,,,
html-keyboard-response,259,556026,0.0-13.0-0.9,6136aa846e80ebd7daf6e148,64e77d7b61f440b60e28659d,64ecad81f2f759acf903f496,null,null,"<p style=""font-size: 60px; font-family: BACS"">hmKPMBCAd</p>",,,,,,,,,
html-keyboard-response,260,557046,0.0-13.0-0.10,6136aa846e80ebd7daf6e148,64e77d7b61f440b60e28659d,64ecad81f2f759acf903f496,null,null,"<p style=""font-size: 60px; font-family: BACS"">kLvdNLkNc</p>",,,,,,,,,
html-keyboard-response,261,558064,0.0-13.0-0.11,6136aa846e80ebd7daf6e148,64e77d7b61f440b60e28659d,64ecad81f2f759acf903f496,null,null,"<p style=""font-size: 60px; font-family: BACS"">KBKBEdCKc</p>",,,,,,,,,
html-keyboard-response,262,559083,0.0-13.0-0.12,6136aa846e80ebd7daf6e148,64e77d7b61f440b60e28659d,64ecad81f2f759acf903f496,null,null,"<p style=""font-size: 60px; font-family: BACS"">JAdLmQru</p>",,,,,,,,,
html-keyboard-response,263,560086,0.0-13.0-0.13,6136aa846e80ebd7daf6e148,64e77d7b61f440b60e28659d,64ecad81f2f759acf903f496,null,null,"<p style=""font-size: 60px; font-family: BACS"">hmKPMdTAh</p>",,,,,,,,,
html-keyboard-response,264,561090,0.0-13.0-0.14,6136aa846e80ebd7daf6e148,64e77d7b61f440b60e28659d,64ecad81f2f759acf903f496,null,null,"<p style=""font-size: 60px; font-family: BACS"">uvaUQru</p>",,,,,,,,,
html-keyboard-response,265,562109,0.0-13.0-0.15,6136aa846e80ebd7daf6e148,64e77d7b61f440b60e28659d,64ecad81f2f759acf903f496,null,null,"<p style=""font-size: 60px; font-family: BACS"">kabJbAZbl</p>",,,,,,,,,
html-keyboard-response,266,563135,0.0-13.0-0.16,6136aa846e80ebd7daf6e148,64e77d7b61f440b60e28659d,64ecad81f2f759acf903f496,null,null,"<p style=""font-size: 60px; font-family: BACS"">LdrbvLkNc</p>",,,,,,,,,
html-keyboard-response,267,564140,0.0-13.0-0.17,6136aa846e80ebd7daf6e148,64e77d7b61f440b60e28659d,64ecad81f2f759acf903f496,null,null,"<p style=""font-size: 60px; font-family: BACS"">htmhCdRA</p>",,,,,,,,,
html-keyboard-response,268,565156,0.0-13.0-0.18,6136aa846e80ebd7daf6e148,64e77d7b61f440b60e28659d,64ecad81f2f759acf903f496,null,null,"<p style=""font-size: 60px; font-family: BACS"">lBlEBCAd</p>",,,,,,,,,
html-keyboard-response,269,566176,0.0-13.0-0.19,6136aa846e80ebd7daf6e148,64e77d7b61f440b60e28659d,64ecad81f2f759acf903f496,null,null,"<p style=""font-size: 60px; font-family: BACS"">ALOrlAZbl</p>",,,,,,,,,
html-keyboard-response,270,567193,0.0-13.0-0.20,6136aa846e80ebd7daf6e148,64e77d7b61f440b60e28659d,64ecad81f2f759acf903f496,null,null,"<p style=""font-size: 60px; font-family: BACS"">LOLkUJcL</p>",,,,,,,,,
html-keyboard-response,271,568211,0.0-13.0-0.21,6136aa846e80ebd7daf6e148,64e77d7b61f440b60e28659d,64ecad81f2f759acf903f496,null,null,"<p style=""font-size: 60px; font-family: BACS"">TbKMEdRA</p>",,,,,,,,,
html-keyboard-response,272,569229,0.0-13.0-0.22,6136aa846e80ebd7daf6e148,64e77d7b61f440b60e28659d,64ecad81f2f759acf903f496,null,null,"<p style=""font-size: 60px; font-family: BACS"">lBlEcthB</p>",,,,,,,,,
html-keyboard-response,273,570256,0.0-13.0-0.23,6136aa846e80ebd7daf6e148,64e77d7b61f440b60e28659d,64ecad81f2f759acf903f496,null,null,"<p style=""font-size: 60px; font-family: BACS"">uvaUJcL</p>",,,,,,,,,
html-keyboard-response,274,571273,0.0-13.0-0.24,6136aa846e80ebd7daf6e148,64e77d7b61f440b60e28659d,64ecad81f2f759acf903f496,null,null,"<p style=""font-size: 60px; font-family: BACS"">damYbdmkv</p>",,,,,,,,,
html-keyboard-response,275,572276,0.0-13.0-0.25,6136aa846e80ebd7daf6e148,64e77d7b61f440b60e28659d,64ecad81f2f759acf903f496,null,null,"<p style=""font-size: 60px; font-family: BACS"">hTtBbdRA</p>",,,,,,,,,
html-keyboard-response,276,573294,0.0-13.0-0.26,6136aa846e80ebd7daf6e148,64e77d7b61f440b60e28659d,64ecad81f2f759acf903f496,null,null,"<p style=""font-size: 60px; font-family: BACS"">lRckABCAd</p>",,,,,,,,,
html-keyboard-response,277,574312,0.0-13.0-0.27,6136aa846e80ebd7daf6e148,64e77d7b61f440b60e28659d,64ecad81f2f759acf903f496,null,null,"<p style=""font-size: 60px; font-family: BACS"">htmhCdCKc</p>",,,,,,,,,
html-keyboard-response,278,575331,0.0-13.0-0.28,6136aa846e80ebd7daf6e148,64e77d7b61f440b60e28659d,64ecad81f2f759acf903f496,null,null,"<p style=""font-size: 60px; font-family: BACS"">kabJbLkNc</p>",,,,,,,,,
html-keyboard-response,279,576347,0.0-13.0-0.29,6136aa846e80ebd7daf6e148,64e77d7b61f440b60e28659d,64ecad81f2f759acf903f496,null,null,"<p style=""font-size: 60px; font-family: BACS"">LdrbvAZbl</p>",,,,,,,,,
html-keyboard-response,280,577373,0.0-13.0-0.30,6136aa846e80ebd7daf6e148,64e77d7b61f440b60e28659d,64ecad81f2f759acf903f496,null,null,"<p style=""font-size: 60px; font-family: BACS"">ALOrlQru</p>",,,,,,,,,
html-keyboard-response,281,578391,0.0-13.0-0.31,6136aa846e80ebd7daf6e148,64e77d7b61f440b60e28659d,64ecad81f2f759acf903f496,null,null,"<p style=""font-size: 60px; font-family: BACS"">hmKPMcthB</p>",,,,,,,,,
html-keyboard-response,282,579410,0.0-13.0-0.32,6136aa846e80ebd7daf6e148,64e77d7b61f440b60e28659d,64ecad81f2f759acf903f496,null,null,"<p style=""font-size: 60px; font-family: BACS"">kZUbQru</p>",,,,,,,,,
html-keyboard-response,283,580428,0.0-13.0-0.33,6136aa846e80ebd7daf6e148,64e77d7b61f440b60e28659d,64ecad81f2f759acf903f496,null,null,"<p style=""font-size: 60px; font-family: BACS"">dKRDdTAh</p>",,,,,,,,,
html-keyboard-response,284,581446,0.0-13.0-0.34,6136aa846e80ebd7daf6e148,64e77d7b61f440b60e28659d,64ecad81f2f759acf903f496,null,null,"<p style=""font-size: 60px; font-family: BACS"">damYbLkNc</p>",,,,,,,,,
html-keyboard-response,285,582465,0.0-13.0-0.35,6136aa846e80ebd7daf6e148,64e77d7b61f440b60e28659d,64ecad81f2f759acf903f496,null,null,"<p style=""font-size: 60px; font-family: BACS"">dMThkdCKc</p>",,,,,,,,,
html-keyboard-response,286,583473,0.0-13.0-0.36,6136aa846e80ebd7daf6e148,64e77d7b61f440b60e28659d,64ecad81f2f759acf903f496,null,null,"<p style=""font-size: 60px; font-family: BACS"">kZUbJcL</p>",,,,,,,,,
html-keyboard-response,287,584494,0.0-13.0-0.37,6136aa846e80ebd7daf6e148,64e77d7b61f440b60e28659d,64ecad81f2f759acf903f496,null,null,"<p style=""font-size: 60px; font-family: BACS"">TbKMEdCKc</p>",,,,,,,,,
html-keyboard-response,288,585511,0.0-13.0-0.38,6136aa846e80ebd7daf6e148,64e77d7b61f440b60e28659d,64ecad81f2f759acf903f496,null,null,"<p style=""font-size: 60px; font-family: BACS"">LdrbvQru</p>",,,,,,,,,
html-keyboard-response,289,586529,0.0-13.0-0.39,6136aa846e80ebd7daf6e148,64e77d7b61f440b60e28659d,64ecad81f2f759acf903f496,null,null,"<p style=""font-size: 60px; font-family: BACS"">damYbJcL</p>",,,,,,,,,
html-keyboard-response,290,587548,0.0-13.0-0.40,6136aa846e80ebd7daf6e148,64e77d7b61f440b60e28659d,64ecad81f2f759acf903f496,null,null,"<p style=""font-size: 60px; font-family: BACS"">lRckActhB</p>",,,,,,,,,
html-keyboard-response,291,588566,0.0-13.0-0.41,6136aa846e80ebd7daf6e148,64e77d7b61f440b60e28659d,64ecad81f2f759acf903f496,null,null,"<p style=""font-size: 60px; font-family: BACS"">DhMtdTAh</p>",,,,,,,,,
html-keyboard-response,292,589585,0.0-13.0-0.42,6136aa846e80ebd7daf6e148,64e77d7b61f440b60e28659d,64ecad81f2f759acf903f496,null,null,"<p style=""font-size: 60px; font-family: BACS"">hTtBbcthB</p>",,,,,,,,,
html-keyboard-response,293,590589,0.0-13.0-0.43,6136aa846e80ebd7daf6e148,64e77d7b61f440b60e28659d,64ecad81f2f759acf903f496,null,null,"<p style=""font-size: 60px; font-family: BACS"">LOLkUdmkv</p>",,,,,,,,,
html-keyboard-response,294,591614,0.0-13.0-0.44,6136aa846e80ebd7daf6e148,64e77d7b61f440b60e28659d,64ecad81f2f759acf903f496,null,null,"<p style=""font-size: 60px; font-family: BACS"">LdQvQru</p>",,,,,,,,,
html-keyboard-response,295,592636,0.0-13.0-0.45,6136aa846e80ebd7daf6e148,64e77d7b61f440b60e28659d,64ecad81f2f759acf903f496,null,null,"<p style=""font-size: 60px; font-family: BACS"">kLvdNdmkv</p>",,,,,,,,,
html-keyboard-response,296,593652,0.0-13.0-0.46,6136aa846e80ebd7daf6e148,64e77d7b61f440b60e28659d,64ecad81f2f759acf903f496,null,null,"<p style=""font-size: 60px; font-family: BACS"">dKRDBCAd</p>",,,,,,,,,
html-keyboard-response,297,594669,0.0-13.0-0.47,6136aa846e80ebd7daf6e148,64e77d7b61f440b60e28659d,64ecad81f2f759acf903f496,null,null,"<p style=""font-size: 60px; font-family: BACS"">LdQvdmkv</p>",,,,,,,,,
html-keyboard-response,298,595687,0.0-13.0-0.48,6136aa846e80ebd7daf6e148,64e77d7b61f440b60e28659d,64ecad81f2f759acf903f496,null,null,"<p style=""font-size: 60px; font-family: BACS"">kZUbAZbl</p>",,,,,,,,,
html-keyboard-response,299,596705,0.0-13.0-0.49,6136aa846e80ebd7daf6e148,64e77d7b61f440b60e28659d,64ecad81f2f759acf903f496,null,null,"<p style=""font-size: 60px; font-family: BACS"">htmhCcthB</p>",,,,,,,,,
html-keyboard-response,300,597732,0.0-13.0-0.50,6136aa846e80ebd7daf6e148,64e77d7b61f440b60e28659d,64ecad81f2f759acf903f496,null,null,"<p style=""font-size: 60px; font-family: BACS"">JAdLmJcL</p>",,,,,,,,,
html-keyboard-response,301,598750,0.0-13.0-0.51,6136aa846e80ebd7daf6e148,64e77d7b61f440b60e28659d,64ecad81f2f759acf903f496,null,null,"<p style=""font-size: 60px; font-family: BACS"">kZUbLkNc</p>",,,,,,,,,
html-keyboard-response,302,599767,0.0-13.0-0.52,6136aa846e80ebd7daf6e148,64e77d7b61f440b60e28659d,64ecad81f2f759acf903f496,null,null,"<p style=""font-size: 60px; font-family: BACS"">JAdLmAZbl</p>",,,,,,,,,
html-keyboard-response,303,600776,0.0-13.0-0.53,6136aa846e80ebd7daf6e148,64e77d7b61f440b60e28659d,64ecad81f2f759acf903f496,null,null,"<p style=""font-size: 60px; font-family: BACS"">uvaULkNc</p>",,,,,,,,,
html-keyboard-response,304,601789,0.0-13.0-0.54,6136aa846e80ebd7daf6e148,64e77d7b61f440b60e28659d,64ecad81f2f759acf903f496,null,null,"<p style=""font-size: 60px; font-family: BACS"">lBlEdRA</p>",,,,,,,,,
html-keyboard-response,305,602807,0.0-13.0-0.55,6136aa846e80ebd7daf6e148,64e77d7b61f440b60e28659d,64ecad81f2f759acf903f496,null,null,"<p style=""font-size: 60px; font-family: BACS"">LOLkUAZbl</p>",,,,,,,,,
html-keyboard-response,306,603825,0.0-13.0-0.56,6136aa846e80ebd7daf6e148,64e77d7b61f440b60e28659d,64ecad81f2f759acf903f496,null,null,"<p style=""font-size: 60px; font-family: BACS"">dKRDdRA</p>",,,,,,,,,
html-keyboard-response,307,604851,0.0-13.0-0.57,6136aa846e80ebd7daf6e148,64e77d7b61f440b60e28659d,64ecad81f2f759acf903f496,null,null,"<p style=""font-size: 60px; font-family: BACS"">damYbQru</p>",,,,,,,,,
html-keyboard-response,308,605870,0.0-13.0-0.58,6136aa846e80ebd7daf6e148,64e77d7b61f440b60e28659d,64ecad81f2f759acf903f496,null,null,"<p style=""font-size: 60px; font-family: BACS"">htmhCBCAd</p>",,,,,,,,,
html-keyboard-response,309,606880,0.0-13.0-0.59,6136aa846e80ebd7daf6e148,64e77d7b61f440b60e28659d,64ecad81f2f759acf903f496,null,null,"<p style=""font-size: 60px; font-family: BACS"">DhMtdCKc</p>",,,,,,,,,
html-keyboard-response,310,607889,0.0-13.0-0.60,6136aa846e80ebd7daf6e148,64e77d7b61f440b60e28659d,64ecad81f2f759acf903f496,null,null,"<p style=""font-size: 60px; font-family: BACS"">ALOrlLkNc</p>",,,,,,,,,
html-keyboard-response,311,608898,0.0-13.0-0.61,6136aa846e80ebd7daf6e148,64e77d7b61f440b60e28659d,64ecad81f2f759acf903f496,null,null,"<p style=""font-size: 60px; font-family: BACS"">KBKBEcthB</p>",,,,,,,,,
html-keyboard-response,312,609910,0.0-13.0-0.62,6136aa846e80ebd7daf6e148,64e77d7b61f440b60e28659d,64ecad81f2f759acf903f496,null,null,"<p style=""font-size: 60px; font-family: BACS"">dMThkdRA</p>",,,,,,,,,
html-keyboard-response,313,610918,0.0-13.0-0.63,6136aa846e80ebd7daf6e148,64e77d7b61f440b60e28659d,64ecad81f2f759acf903f496,null,null,"<p style=""font-size: 60px; font-family: BACS"">TbKMEBCAd</p>",,,,,,,,,
html-keyboard-response,314,611932,0.0-13.0-0.64,6136aa846e80ebd7daf6e148,64e77d7b61f440b60e28659d,64ecad81f2f759acf903f496,null,null,"<p style=""font-size: 60px; font-family: BACS"">lRckAdCKc</p>",,,,,,,,,
html-keyboard-response,315,612940,0.0-13.0-0.65,6136aa846e80ebd7daf6e148,64e77d7b61f440b60e28659d,64ecad81f2f759acf903f496,null,null,"<p style=""font-size: 60px; font-family: BACS"">LdrbvJcL</p>",,,,,,,,,
html-keyboard-response,316,613953,0.0-13.0-0.66,6136aa846e80ebd7daf6e148,64e77d7b61f440b60e28659d,64ecad81f2f759acf903f496,null,null,"<p style=""font-size: 60px; font-family: BACS"">uvaUdmkv</p>",,,,,,,,,
html-keyboard-response,317,614961,0.0-13.0-0.67,6136aa846e80ebd7daf6e148,64e77d7b61f440b60e28659d,64ecad81f2f759acf903f496,null,null,"<p style=""font-size: 60px; font-family: BACS"">DhMtdRA</p>",,,,,,,,,
html-keyboard-response,318,615981,0.0-13.0-0.68,6136aa846e80ebd7daf6e148,64e77d7b61f440b60e28659d,64ecad81f2f759acf903f496,null,null,"<p style=""font-size: 60px; font-family: BACS"">hmKPMdCKc</p>",,,,,,,,,
html-keyboard-response,319,617000,0.0-13.0-0.69,6136aa846e80ebd7daf6e148,64e77d7b61f440b60e28659d,64ecad81f2f759acf903f496,null,null,"<p style=""font-size: 60px; font-family: BACS"">KBKBEdRA</p>",,,,,,,,,
html-keyboard-response,320,618019,0.0-13.0-0.70,6136aa846e80ebd7daf6e148,64e77d7b61f440b60e28659d,64ecad81f2f759acf903f496,null,null,"<p style=""font-size: 60px; font-family: BACS"">DhMtBCAd</p>",,,,,,,,,
html-keyboard-response,321,619037,0.0-13.0-0.71,6136aa846e80ebd7daf6e148,64e77d7b61f440b60e28659d,64ecad81f2f759acf903f496,null,null,"<p style=""font-size: 60px; font-family: BACS"">kLvdNAZbl</p>",,,,,,,,,
html-keyboard-response,322,620057,0.0-13.0-0.72,6136aa846e80ebd7daf6e148,64e77d7b61f440b60e28659d,64ecad81f2f759acf903f496,null,null,"<p style=""font-size: 60px; font-family: BACS"">dKRDcthB</p>",,,,,,,,,
html-keyboard-response,323,621074,0.0-13.0-0.73,6136aa846e80ebd7daf6e148,64e77d7b61f440b60e28659d,64ecad81f2f759acf903f496,null,null,"<p style=""font-size: 60px; font-family: BACS"">kabJbdmkv</p>",,,,,,,,,
html-keyboard-response,324,622098,0.0-13.0-0.74,6136aa846e80ebd7daf6e148,64e77d7b61f440b60e28659d,64ecad81f2f759acf903f496,null,null,"<p style=""font-size: 60px; font-family: BACS"">dMThkcthB</p>",,,,,,,,,
html-keyboard-response,325,623118,0.0-13.0-0.75,6136aa846e80ebd7daf6e148,64e77d7b61f440b60e28659d,64ecad81f2f759acf903f496,null,null,"<p style=""font-size: 60px; font-family: BACS"">LdQvAZbl</p>",,,,,,,,,
html-keyboard-response,326,624139,0.0-13.0-0.76,6136aa846e80ebd7daf6e148,64e77d7b61f440b60e28659d,64ecad81f2f759acf903f496,null,null,"<p style=""font-size: 60px; font-family: BACS"">kLvdNQru</p>",,,,,,,,,
html-keyboard-response,327,625153,0.0-13.0-0.77,6136aa846e80ebd7daf6e148,64e77d7b61f440b60e28659d,64ecad81f2f759acf903f496,null,null,"<p style=""font-size: 60px; font-family: BACS"">TbKMEdTAh</p>",,,,,,,,,
html-keyboard-response,328,626172,0.0-13.0-0.78,6136aa846e80ebd7daf6e148,64e77d7b61f440b60e28659d,64ecad81f2f759acf903f496,null,null,"<p style=""font-size: 60px; font-family: BACS"">hTtBbBCAd</p>",,,,,,,,,
html-keyboard-response,329,627189,0.0-13.0-0.79,6136aa846e80ebd7daf6e148,64e77d7b61f440b60e28659d,64ecad81f2f759acf903f496,null,null,"<p style=""font-size: 60px; font-family: BACS"">lBlEdCKc</p>",,,,,,,,,
html-keyboard-response,330,631527,0.0-14.0,6136aa846e80ebd7daf6e148,64e77d7b61f440b60e28659d,64ecad81f2f759acf903f496,4333, ,"<p>Great, you've seen the fourth block of words. You may now take a short break.</p>
      <p>Press the spacebar when you're ready to continue.</p>",,,,,,,,,
html-keyboard-response,331,632543,0.0-15.0-0.0,6136aa846e80ebd7daf6e148,64e77d7b61f440b60e28659d,64ecad81f2f759acf903f496,null,null,"<p style=""font-size: 60px; font-family: BACS"">ALOrlLkNc</p>",,,,,,,,,
html-keyboard-response,332,633560,0.0-15.0-0.1,6136aa846e80ebd7daf6e148,64e77d7b61f440b60e28659d,64ecad81f2f759acf903f496,null,null,"<p style=""font-size: 60px; font-family: BACS"">ALOrlLkNc</p>",,,,,,,,,
html-keyboard-response,333,634580,0.0-15.0-0.2,6136aa846e80ebd7daf6e148,64e77d7b61f440b60e28659d,64ecad81f2f759acf903f496,null,null,"<p style=""font-size: 60px; font-family: BACS"">ALOrlLkNc</p>",,,,,,,,,
html-keyboard-response,334,635599,0.0-15.0-0.3,6136aa846e80ebd7daf6e148,64e77d7b61f440b60e28659d,64ecad81f2f759acf903f496,null,null,"<p style=""font-size: 60px; font-family: BACS"">ALOrlLkNc</p>",,,,,,,,,
html-keyboard-response,335,636615,0.0-15.0-0.4,6136aa846e80ebd7daf6e148,64e77d7b61f440b60e28659d,64ecad81f2f759acf903f496,null,null,"<p style=""font-size: 60px; font-family: BACS"">ALOrlLkNc</p>",,,,,,,,,
html-keyboard-response,336,637641,0.0-15.0-0.5,6136aa846e80ebd7daf6e148,64e77d7b61f440b60e28659d,64ecad81f2f759acf903f496,null,null,"<p style=""font-size: 60px; font-family: BACS"">ALOrlLkNc</p>",,,,,,,,,
html-keyboard-response,337,638645,0.0-15.0-0.6,6136aa846e80ebd7daf6e148,64e77d7b61f440b60e28659d,64ecad81f2f759acf903f496,null,null,"<p style=""font-size: 60px; font-family: BACS"">ALOrlLkNc</p>",,,,,,,,,
html-keyboard-response,338,639663,0.0-15.0-0.7,6136aa846e80ebd7daf6e148,64e77d7b61f440b60e28659d,64ecad81f2f759acf903f496,null,null,"<p style=""font-size: 60px; font-family: BACS"">ALOrlLkNc</p>",,,,,,,,,
html-keyboard-response,339,640681,0.0-15.0-0.8,6136aa846e80ebd7daf6e148,64e77d7b61f440b60e28659d,64ecad81f2f759acf903f496,null,null,"<p style=""font-size: 60px; font-family: BACS"">ALOrlLkNc</p>",,,,,,,,,
html-keyboard-response,340,641700,0.0-15.0-0.9,6136aa846e80ebd7daf6e148,64e77d7b61f440b60e28659d,64ecad81f2f759acf903f496,null,null,"<p style=""font-size: 60px; font-family: BACS"">ALOrlLkNc</p>",,,,,,,,,
html-keyboard-response,341,642721,0.0-15.0-0.10,6136aa846e80ebd7daf6e148,64e77d7b61f440b60e28659d,64ecad81f2f759acf903f496,null,null,"<p style=""font-size: 60px; font-family: BACS"">ALOrlLkNc</p>",,,,,,,,,
html-keyboard-response,342,643737,0.0-15.0-0.11,6136aa846e80ebd7daf6e148,64e77d7b61f440b60e28659d,64ecad81f2f759acf903f496,null,null,"<p style=""font-size: 60px; font-family: BACS"">ALOrlLkNc</p>",,,,,,,,,
html-keyboard-response,343,644741,0.0-15.0-0.12,6136aa846e80ebd7daf6e148,64e77d7b61f440b60e28659d,64ecad81f2f759acf903f496,null,null,"<p style=""font-size: 60px; font-family: BACS"">ALOrlLkNc</p>",,,,,,,,,
html-keyboard-response,344,645765,0.0-15.0-0.13,6136aa846e80ebd7daf6e148,64e77d7b61f440b60e28659d,64ecad81f2f759acf903f496,null,null,"<p style=""font-size: 60px; font-family: BACS"">ALOrlLkNc</p>",,,,,,,,,
html-keyboard-response,345,646784,0.0-15.0-0.14,6136aa846e80ebd7daf6e148,64e77d7b61f440b60e28659d,64ecad81f2f759acf903f496,null,null,"<p style=""font-size: 60px; font-family: BACS"">ALOrlLkNc</p>",,,,,,,,,
html-keyboard-response,346,647802,0.0-15.0-0.15,6136aa846e80ebd7daf6e148,64e77d7b61f440b60e28659d,64ecad81f2f759acf903f496,null,null,"<p style=""font-size: 60px; font-family: BACS"">ALOrlLkNc</p>",,,,,,,,,
html-keyboard-response,347,648823,0.0-15.0-0.16,6136aa846e80ebd7daf6e148,64e77d7b61f440b60e28659d,64ecad81f2f759acf903f496,null,null,"<p style=""font-size: 60px; font-family: BACS"">ALOrlLkNc</p>",,,,,,,,,
html-keyboard-response,348,649840,0.0-15.0-0.17,6136aa846e80ebd7daf6e148,64e77d7b61f440b60e28659d,64ecad81f2f759acf903f496,null,null,"<p style=""font-size: 60px; font-family: BACS"">ALOrlLkNc</p>",,,,,,,,,
html-keyboard-response,349,650860,0.0-15.0-0.18,6136aa846e80ebd7daf6e148,64e77d7b61f440b60e28659d,64ecad81f2f759acf903f496,null,null,"<p style=""font-size: 60px; font-family: BACS"">ALOrlLkNc</p>",,,,,,,,,
html-keyboard-response,350,651885,0.0-15.0-0.19,6136aa846e80ebd7daf6e148,64e77d7b61f440b60e28659d,64ecad81f2f759acf903f496,null,null,"<p style=""font-size: 60px; font-family: BACS"">ALOrlLkNc</p>",,,,,,,,,
html-keyboard-response,351,652904,0.0-15.0-0.20,6136aa846e80ebd7daf6e148,64e77d7b61f440b60e28659d,64ecad81f2f759acf903f496,null,null,"<p style=""font-size: 60px; font-family: BACS"">ALOrlLkNc</p>",,,,,,,,,
html-keyboard-response,352,653921,0.0-15.0-0.21,6136aa846e80ebd7daf6e148,64e77d7b61f440b60e28659d,64ecad81f2f759acf903f496,null,null,"<p style=""font-size: 60px; font-family: BACS"">ALOrlLkNc</p>",,,,,,,,,
html-keyboard-response,353,654940,0.0-15.0-0.22,6136aa846e80ebd7daf6e148,64e77d7b61f440b60e28659d,64ecad81f2f759acf903f496,null,null,"<p style=""font-size: 60px; font-family: BACS"">ALOrlLkNc</p>",,,,,,,,,
html-keyboard-response,354,655958,0.0-15.0-0.23,6136aa846e80ebd7daf6e148,64e77d7b61f440b60e28659d,64ecad81f2f759acf903f496,null,null,"<p style=""font-size: 60px; font-family: BACS"">ALOrlLkNc</p>",,,,,,,,,
html-keyboard-response,355,656976,0.0-15.0-0.24,6136aa846e80ebd7daf6e148,64e77d7b61f440b60e28659d,64ecad81f2f759acf903f496,null,null,"<p style=""font-size: 60px; font-family: BACS"">ALOrlLkNc</p>",,,,,,,,,
html-keyboard-response,356,657980,0.0-15.0-0.25,6136aa846e80ebd7daf6e148,64e77d7b61f440b60e28659d,64ecad81f2f759acf903f496,null,null,"<p style=""font-size: 60px; font-family: BACS"">ALOrlLkNc</p>",,,,,,,,,
html-keyboard-response,357,658984,0.0-15.0-0.26,6136aa846e80ebd7daf6e148,64e77d7b61f440b60e28659d,64ecad81f2f759acf903f496,null,null,"<p style=""font-size: 60px; font-family: BACS"">ALOrlLkNc</p>",,,,,,,,,
html-keyboard-response,358,660009,0.0-15.0-0.27,6136aa846e80ebd7daf6e148,64e77d7b61f440b60e28659d,64ecad81f2f759acf903f496,null,null,"<p style=""font-size: 60px; font-family: BACS"">ALOrlLkNc</p>",,,,,,,,,
html-keyboard-response,359,661027,0.0-15.0-0.28,6136aa846e80ebd7daf6e148,64e77d7b61f440b60e28659d,64ecad81f2f759acf903f496,null,null,"<p style=""font-size: 60px; font-family: BACS"">ALOrlLkNc</p>",,,,,,,,,
html-keyboard-response,360,662046,0.0-15.0-0.29,6136aa846e80ebd7daf6e148,64e77d7b61f440b60e28659d,64ecad81f2f759acf903f496,null,null,"<p style=""font-size: 60px; font-family: BACS"">ALOrlLkNc</p>",,,,,,,,,
html-keyboard-response,361,663065,0.0-15.0-0.30,6136aa846e80ebd7daf6e148,64e77d7b61f440b60e28659d,64ecad81f2f759acf903f496,null,null,"<p style=""font-size: 60px; font-family: BACS"">ALOrlLkNc</p>",,,,,,,,,
html-keyboard-response,362,664068,0.0-15.0-0.31,6136aa846e80ebd7daf6e148,64e77d7b61f440b60e28659d,64ecad81f2f759acf903f496,null,null,"<p style=""font-size: 60px; font-family: BACS"">ALOrlLkNc</p>",,,,,,,,,
html-keyboard-response,363,665082,0.0-15.0-0.32,6136aa846e80ebd7daf6e148,64e77d7b61f440b60e28659d,64ecad81f2f759acf903f496,null,null,"<p style=""font-size: 60px; font-family: BACS"">ALOrlLkNc</p>",,,,,,,,,
html-keyboard-response,364,666103,0.0-15.0-0.33,6136aa846e80ebd7daf6e148,64e77d7b61f440b60e28659d,64ecad81f2f759acf903f496,null,null,"<p style=""font-size: 60px; font-family: BACS"">ALOrlLkNc</p>",,,,,,,,,
html-keyboard-response,365,667130,0.0-15.0-0.34,6136aa846e80ebd7daf6e148,64e77d7b61f440b60e28659d,64ecad81f2f759acf903f496,null,null,"<p style=""font-size: 60px; font-family: BACS"">ALOrlLkNc</p>",,,,,,,,,
html-keyboard-response,366,668148,0.0-15.0-0.35,6136aa846e80ebd7daf6e148,64e77d7b61f440b60e28659d,64ecad81f2f759acf903f496,null,null,"<p style=""font-size: 60px; font-family: BACS"">ALOrlLkNc</p>",,,,,,,,,
html-keyboard-response,367,669166,0.0-15.0-0.36,6136aa846e80ebd7daf6e148,64e77d7b61f440b60e28659d,64ecad81f2f759acf903f496,null,null,"<p style=""font-size: 60px; font-family: BACS"">ALOrlLkNc</p>",,,,,,,,,
html-keyboard-response,368,670185,0.0-15.0-0.37,6136aa846e80ebd7daf6e148,64e77d7b61f440b60e28659d,64ecad81f2f759acf903f496,null,null,"<p style=""font-size: 60px; font-family: BACS"">ALOrlLkNc</p>",,,,,,,,,
html-keyboard-response,369,671203,0.0-15.0-0.38,6136aa846e80ebd7daf6e148,64e77d7b61f440b60e28659d,64ecad81f2f759acf903f496,null,null,"<p style=""font-size: 60px; font-family: BACS"">ALOrlLkNc</p>",,,,,,,,,
html-keyboard-response,370,672223,0.0-15.0-0.39,6136aa846e80ebd7daf6e148,64e77d7b61f440b60e28659d,64ecad81f2f759acf903f496,null,null,"<p style=""font-size: 60px; font-family: BACS"">ALOrlLkNc</p>",,,,,,,,,
html-keyboard-response,371,673247,0.0-15.0-0.40,6136aa846e80ebd7daf6e148,64e77d7b61f440b60e28659d,64ecad81f2f759acf903f496,null,null,"<p style=""font-size: 60px; font-family: BACS"">ALOrlLkNc</p>",,,,,,,,,
html-keyboard-response,372,674250,0.0-15.0-0.41,6136aa846e80ebd7daf6e148,64e77d7b61f440b60e28659d,64ecad81f2f759acf903f496,null,null,"<p style=""font-size: 60px; font-family: BACS"">ALOrlLkNc</p>",,,,,,,,,
html-keyboard-response,373,675268,0.0-15.0-0.42,6136aa846e80ebd7daf6e148,64e77d7b61f440b60e28659d,64ecad81f2f759acf903f496,null,null,"<p style=""font-size: 60px; font-family: BACS"">ALOrlLkNc</p>",,,,,,,,,
html-keyboard-response,374,676287,0.0-15.0-0.43,6136aa846e80ebd7daf6e148,64e77d7b61f440b60e28659d,64ecad81f2f759acf903f496,null,null,"<p style=""font-size: 60px; font-family: BACS"">ALOrlLkNc</p>",,,,,,,,,
html-keyboard-response,375,677305,0.0-15.0-0.44,6136aa846e80ebd7daf6e148,64e77d7b61f440b60e28659d,64ecad81f2f759acf903f496,null,null,"<p style=""font-size: 60px; font-family: BACS"">ALOrlLkNc</p>",,,,,,,,,
html-keyboard-response,376,678310,0.0-15.0-0.45,6136aa846e80ebd7daf6e148,64e77d7b61f440b60e28659d,64ecad81f2f759acf903f496,null,null,"<p style=""font-size: 60px; font-family: BACS"">ALOrlLkNc</p>",,,,,,,,,
html-keyboard-response,377,679324,0.0-15.0-0.46,6136aa846e80ebd7daf6e148,64e77d7b61f440b60e28659d,64ecad81f2f759acf903f496,null,null,"<p style=""font-size: 60px; font-family: BACS"">ALOrlLkNc</p>",,,,,,,,,
html-keyboard-response,378,680343,0.0-15.0-0.47,6136aa846e80ebd7daf6e148,64e77d7b61f440b60e28659d,64ecad81f2f759acf903f496,null,null,"<p style=""font-size: 60px; font-family: BACS"">ALOrlLkNc</p>",,,,,,,,,
html-keyboard-response,379,681368,0.0-15.0-0.48,6136aa846e80ebd7daf6e148,64e77d7b61f440b60e28659d,64ecad81f2f759acf903f496,null,null,"<p style=""font-size: 60px; font-family: BACS"">ALOrlLkNc</p>",,,,,,,,,
html-keyboard-response,380,682388,0.0-15.0-0.49,6136aa846e80ebd7daf6e148,64e77d7b61f440b60e28659d,64ecad81f2f759acf903f496,null,null,"<p style=""font-size: 60px; font-family: BACS"">ALOrlLkNc</p>",,,,,,,,,
html-keyboard-response,381,683407,0.0-15.0-0.50,6136aa846e80ebd7daf6e148,64e77d7b61f440b60e28659d,64ecad81f2f759acf903f496,null,null,"<p style=""font-size: 60px; font-family: BACS"">ALOrlLkNc</p>",,,,,,,,,
html-keyboard-response,382,684424,0.0-15.0-0.51,6136aa846e80ebd7daf6e148,64e77d7b61f440b60e28659d,64ecad81f2f759acf903f496,null,null,"<p style=""font-size: 60px; font-family: BACS"">ALOrlLkNc</p>",,,,,,,,,
html-keyboard-response,383,685441,0.0-15.0-0.52,6136aa846e80ebd7daf6e148,64e77d7b61f440b60e28659d,64ecad81f2f759acf903f496,null,null,"<p style=""font-size: 60px; font-family: BACS"">ALOrlLkNc</p>",,,,,,,,,
html-keyboard-response,384,686460,0.0-15.0-0.53,6136aa846e80ebd7daf6e148,64e77d7b61f440b60e28659d,64ecad81f2f759acf903f496,null,null,"<p style=""font-size: 60px; font-family: BACS"">ALOrlLkNc</p>",,,,,,,,,
html-keyboard-response,385,687469,0.0-15.0-0.54,6136aa846e80ebd7daf6e148,64e77d7b61f440b60e28659d,64ecad81f2f759acf903f496,null,null,"<p style=""font-size: 60px; font-family: BACS"">ALOrlLkNc</p>",,,,,,,,,
html-keyboard-response,386,688473,0.0-15.0-0.55,6136aa846e80ebd7daf6e148,64e77d7b61f440b60e28659d,64ecad81f2f759acf903f496,null,null,"<p style=""font-size: 60px; font-family: BACS"">ALOrlLkNc</p>",,,,,,,,,
html-keyboard-response,387,689491,0.0-15.0-0.56,6136aa846e80ebd7daf6e148,64e77d7b61f440b60e28659d,64ecad81f2f759acf903f496,null,null,"<p style=""font-size: 60px; font-family: BACS"">ALOrlLkNc</p>",,,,,,,,,
html-keyboard-response,388,690509,0.0-15.0-0.57,6136aa846e80ebd7daf6e148,64e77d7b61f440b60e28659d,64ecad81f2f759acf903f496,null,null,"<p style=""font-size: 60px; font-family: BACS"">ALOrlLkNc</p>",,,,,,,,,
html-keyboard-response,389,691526,0.0-15.0-0.58,6136aa846e80ebd7daf6e148,64e77d7b61f440b60e28659d,64ecad81f2f759acf903f496,null,null,"<p style=""font-size: 60px; font-family: BACS"">ALOrlLkNc</p>",,,,,,,,,
html-keyboard-response,390,692543,0.0-15.0-0.59,6136aa846e80ebd7daf6e148,64e77d7b61f440b60e28659d,64ecad81f2f759acf903f496,null,null,"<p style=""font-size: 60px; font-family: BACS"">ALOrlLkNc</p>",,,,,,,,,
html-keyboard-response,391,693569,0.0-15.0-0.60,6136aa846e80ebd7daf6e148,64e77d7b61f440b60e28659d,64ecad81f2f759acf903f496,null,null,"<p style=""font-size: 60px; font-family: BACS"">ALOrlLkNc</p>",,,,,,,,,
html-keyboard-response,392,694590,0.0-15.0-0.61,6136aa846e80ebd7daf6e148,64e77d7b61f440b60e28659d,64ecad81f2f759acf903f496,null,null,"<p style=""font-size: 60px; font-family: BACS"">ALOrlLkNc</p>",,,,,,,,,
html-keyboard-response,393,695608,0.0-15.0-0.62,6136aa846e80ebd7daf6e148,64e77d7b61f440b60e28659d,64ecad81f2f759acf903f496,null,null,"<p style=""font-size: 60px; font-family: BACS"">ALOrlLkNc</p>",,,,,,,,,
html-keyboard-response,394,696626,0.0-15.0-0.63,6136aa846e80ebd7daf6e148,64e77d7b61f440b60e28659d,64ecad81f2f759acf903f496,null,null,"<p style=""font-size: 60px; font-family: BACS"">ALOrlLkNc</p>",,,,,,,,,
html-keyboard-response,395,697644,0.0-15.0-0.64,6136aa846e80ebd7daf6e148,64e77d7b61f440b60e28659d,64ecad81f2f759acf903f496,null,null,"<p style=""font-size: 60px; font-family: BACS"">ALOrlLkNc</p>",,,,,,,,,
html-keyboard-response,396,698661,0.0-15.0-0.65,6136aa846e80ebd7daf6e148,64e77d7b61f440b60e28659d,64ecad81f2f759acf903f496,null,null,"<p style=""font-size: 60px; font-family: BACS"">ALOrlLkNc</p>",,,,,,,,,
html-keyboard-response,397,699686,0.0-15.0-0.66,6136aa846e80ebd7daf6e148,64e77d7b61f440b60e28659d,64ecad81f2f759acf903f496,null,null,"<p style=""font-size: 60px; font-family: BACS"">ALOrlLkNc</p>",,,,,,,,,
html-keyboard-response,398,700704,0.0-15.0-0.67,6136aa846e80ebd7daf6e148,64e77d7b61f440b60e28659d,64ecad81f2f759acf903f496,null,null,"<p style=""font-size: 60px; font-family: BACS"">ALOrlLkNc</p>",,,,,,,,,
html-keyboard-response,399,701723,0.0-15.0-0.68,6136aa846e80ebd7daf6e148,64e77d7b61f440b60e28659d,64ecad81f2f759acf903f496,null,null,"<p style=""font-size: 60px; font-family: BACS"">ALOrlLkNc</p>",,,,,,,,,
html-keyboard-response,400,702743,0.0-15.0-0.69,6136aa846e80ebd7daf6e148,64e77d7b61f440b60e28659d,64ecad81f2f759acf903f496,null,null,"<p style=""font-size: 60px; font-family: BACS"">ALOrlLkNc</p>",,,,,,,,,
html-keyboard-response,401,703756,0.0-15.0-0.70,6136aa846e80ebd7daf6e148,64e77d7b61f440b60e28659d,64ecad81f2f759acf903f496,null,null,"<p style=""font-size: 60px; font-family: BACS"">ALOrlLkNc</p>",,,,,,,,,
html-keyboard-response,402,704764,0.0-15.0-0.71,6136aa846e80ebd7daf6e148,64e77d7b61f440b60e28659d,64ecad81f2f759acf903f496,null,null,"<p style=""font-size: 60px; font-family: BACS"">ALOrlLkNc</p>",,,,,,,,,
html-keyboard-response,403,705782,0.0-15.0-0.72,6136aa846e80ebd7daf6e148,64e77d7b61f440b60e28659d,64ecad81f2f759acf903f496,null,null,"<p style=""font-size: 60px; font-family: BACS"">ALOrlLkNc</p>",,,,,,,,,
html-keyboard-response,404,706807,0.0-15.0-0.73,6136aa846e80ebd7daf6e148,64e77d7b61f440b60e28659d,64ecad81f2f759acf903f496,null,null,"<p style=""font-size: 60px; font-family: BACS"">ALOrlLkNc</p>",,,,,,,,,
html-keyboard-response,405,707825,0.0-15.0-0.74,6136aa846e80ebd7daf6e148,64e77d7b61f440b60e28659d,64ecad81f2f759acf903f496,null,null,"<p style=""font-size: 60px; font-family: BACS"">ALOrlLkNc</p>",,,,,,,,,
html-keyboard-response,406,708846,0.0-15.0-0.75,6136aa846e80ebd7daf6e148,64e77d7b61f440b60e28659d,64ecad81f2f759acf903f496,null,null,"<p style=""font-size: 60px; font-family: BACS"">ALOrlLkNc</p>",,,,,,,,,
html-keyboard-response,407,709863,0.0-15.0-0.76,6136aa846e80ebd7daf6e148,64e77d7b61f440b60e28659d,64ecad81f2f759acf903f496,null,null,"<p style=""font-size: 60px; font-family: BACS"">ALOrlLkNc</p>",,,,,,,,,
html-keyboard-response,408,710868,0.0-15.0-0.77,6136aa846e80ebd7daf6e148,64e77d7b61f440b60e28659d,64ecad81f2f759acf903f496,null,null,"<p style=""font-size: 60px; font-family: BACS"">ALOrlLkNc</p>",,,,,,,,,
html-keyboard-response,409,711884,0.0-15.0-0.78,6136aa846e80ebd7daf6e148,64e77d7b61f440b60e28659d,64ecad81f2f759acf903f496,null,null,"<p style=""font-size: 60px; font-family: BACS"">ALOrlLkNc</p>",,,,,,,,,
html-keyboard-response,410,712892,0.0-15.0-0.79,6136aa846e80ebd7daf6e148,64e77d7b61f440b60e28659d,64ecad81f2f759acf903f496,null,null,"<p style=""font-size: 60px; font-family: BACS"">ALOrlLkNc</p>",,,,,,,,,
html-keyboard-response,411,723493,0.0-16.0,6136aa846e80ebd7daf6e148,64e77d7b61f440b60e28659d,64ecad81f2f759acf903f496,10596, ,"<p>Great, you've seen the fifth block of words. You may now take a short break.</p>
      <p>Press the spacebar when you're ready to continue.</p>",,,,,,,,,
html-keyboard-response,412,724508,0.0-17.0-0.0,6136aa846e80ebd7daf6e148,64e77d7b61f440b60e28659d,64ecad81f2f759acf903f496,null,null,"<p style=""font-size: 60px; font-family: BACS"">DhMtBCAd</p>",,,,,,,,,
html-keyboard-response,413,725526,0.0-17.0-0.1,6136aa846e80ebd7daf6e148,64e77d7b61f440b60e28659d,64ecad81f2f759acf903f496,null,null,"<p style=""font-size: 60px; font-family: BACS"">LdQvJcL</p>",,,,,,,,,
html-keyboard-response,414,726544,0.0-17.0-0.2,6136aa846e80ebd7daf6e148,64e77d7b61f440b60e28659d,64ecad81f2f759acf903f496,null,null,"<p style=""font-size: 60px; font-family: BACS"">KBKBEdCKc</p>",,,,,,,,,
html-keyboard-response,415,727569,0.0-17.0-0.3,6136aa846e80ebd7daf6e148,64e77d7b61f440b60e28659d,64ecad81f2f759acf903f496,null,null,"<p style=""font-size: 60px; font-family: BACS"">hTtBbcthB</p>",,,,,,,,,
html-keyboard-response,416,728588,0.0-17.0-0.4,6136aa846e80ebd7daf6e148,64e77d7b61f440b60e28659d,64ecad81f2f759acf903f496,null,null,"<p style=""font-size: 60px; font-family: BACS"">kabJbAZbl</p>",,,,,,,,,
html-keyboard-response,417,729607,0.0-17.0-0.5,6136aa846e80ebd7daf6e148,64e77d7b61f440b60e28659d,64ecad81f2f759acf903f496,null,null,"<p style=""font-size: 60px; font-family: BACS"">hmKPMdTAh</p>",,,,,,,,,
html-keyboard-response,418,730626,0.0-17.0-0.6,6136aa846e80ebd7daf6e148,64e77d7b61f440b60e28659d,64ecad81f2f759acf903f496,null,null,"<p style=""font-size: 60px; font-family: BACS"">LdrbvAZbl</p>",,,,,,,,,
html-keyboard-response,419,731644,0.0-17.0-0.7,6136aa846e80ebd7daf6e148,64e77d7b61f440b60e28659d,64ecad81f2f759acf903f496,null,null,"<p style=""font-size: 60px; font-family: BACS"">kLvdNLkNc</p>",,,,,,,,,
html-keyboard-response,420,732662,0.0-17.0-0.8,6136aa846e80ebd7daf6e148,64e77d7b61f440b60e28659d,64ecad81f2f759acf903f496,null,null,"<p style=""font-size: 60px; font-family: BACS"">dKRDdRA</p>",,,,,,,,,
html-keyboard-response,421,733687,0.0-17.0-0.9,6136aa846e80ebd7daf6e148,64e77d7b61f440b60e28659d,64ecad81f2f759acf903f496,null,null,"<p style=""font-size: 60px; font-family: BACS"">kZUbJcL</p>",,,,,,,,,
html-keyboard-response,422,734691,0.0-17.0-0.10,6136aa846e80ebd7daf6e148,64e77d7b61f440b60e28659d,64ecad81f2f759acf903f496,null,null,"<p style=""font-size: 60px; font-family: BACS"">dKRDdTAh</p>",,,,,,,,,
html-keyboard-response,423,735711,0.0-17.0-0.11,6136aa846e80ebd7daf6e148,64e77d7b61f440b60e28659d,64ecad81f2f759acf903f496,null,null,"<p style=""font-size: 60px; font-family: BACS"">LdrbvJcL</p>",,,,,,,,,
html-keyboard-response,424,736727,0.0-17.0-0.12,6136aa846e80ebd7daf6e148,64e77d7b61f440b60e28659d,64ecad81f2f759acf903f496,null,null,"<p style=""font-size: 60px; font-family: BACS"">lBlEcthB</p>",,,,,,,,,
html-keyboard-response,425,737732,0.0-17.0-0.13,6136aa846e80ebd7daf6e148,64e77d7b61f440b60e28659d,64ecad81f2f759acf903f496,null,null,"<p style=""font-size: 60px; font-family: BACS"">LdQvAZbl</p>",,,,,,,,,
html-keyboard-response,426,738748,0.0-17.0-0.14,6136aa846e80ebd7daf6e148,64e77d7b61f440b60e28659d,64ecad81f2f759acf903f496,null,null,"<p style=""font-size: 60px; font-family: BACS"">lRckAdTAh</p>",,,,,,,,,
html-keyboard-response,427,739768,0.0-17.0-0.15,6136aa846e80ebd7daf6e148,64e77d7b61f440b60e28659d,64ecad81f2f759acf903f496,null,null,"<p style=""font-size: 60px; font-family: BACS"">lBlEdCKc</p>",,,,,,,,,
html-keyboard-response,428,740784,0.0-17.0-0.16,6136aa846e80ebd7daf6e148,64e77d7b61f440b60e28659d,64ecad81f2f759acf903f496,null,null,"<p style=""font-size: 60px; font-family: BACS"">hmKPMcthB</p>",,,,,,,,,
html-keyboard-response,429,741809,0.0-17.0-0.17,6136aa846e80ebd7daf6e148,64e77d7b61f440b60e28659d,64ecad81f2f759acf903f496,null,null,"<p style=""font-size: 60px; font-family: BACS"">KBKBEdRA</p>",,,,,,,,,
html-keyboard-response,430,742828,0.0-17.0-0.18,6136aa846e80ebd7daf6e148,64e77d7b61f440b60e28659d,64ecad81f2f759acf903f496,null,null,"<p style=""font-size: 60px; font-family: BACS"">kabJbdmkv</p>",,,,,,,,,
html-keyboard-response,431,743846,0.0-17.0-0.19,6136aa846e80ebd7daf6e148,64e77d7b61f440b60e28659d,64ecad81f2f759acf903f496,null,null,"<p style=""font-size: 60px; font-family: BACS"">hTtBbdTAh</p>",,,,,,,,,
html-keyboard-response,432,744866,0.0-17.0-0.20,6136aa846e80ebd7daf6e148,64e77d7b61f440b60e28659d,64ecad81f2f759acf903f496,null,null,"<p style=""font-size: 60px; font-family: BACS"">lBlEBCAd</p>",,,,,,,,,
html-keyboard-response,433,745883,0.0-17.0-0.21,6136aa846e80ebd7daf6e148,64e77d7b61f440b60e28659d,64ecad81f2f759acf903f496,null,null,"<p style=""font-size: 60px; font-family: BACS"">dMThkdCKc</p>",,,,,,,,,
html-keyboard-response,434,746891,0.0-17.0-0.22,6136aa846e80ebd7daf6e148,64e77d7b61f440b60e28659d,64ecad81f2f759acf903f496,null,null,"<p style=""font-size: 60px; font-family: BACS"">uvaUdmkv</p>",,,,,,,,,
html-keyboard-response,435,747905,0.0-17.0-0.23,6136aa846e80ebd7daf6e148,64e77d7b61f440b60e28659d,64ecad81f2f759acf903f496,null,null,"<p style=""font-size: 60px; font-family: BACS"">htmhCBCAd</p>",,,,,,,,,
html-keyboard-response,436,748912,0.0-17.0-0.24,6136aa846e80ebd7daf6e148,64e77d7b61f440b60e28659d,64ecad81f2f759acf903f496,null,null,"<p style=""font-size: 60px; font-family: BACS"">damYbdmkv</p>",,,,,,,,,
html-keyboard-response,437,749931,0.0-17.0-0.25,6136aa846e80ebd7daf6e148,64e77d7b61f440b60e28659d,64ecad81f2f759acf903f496,null,null,"<p style=""font-size: 60px; font-family: BACS"">dKRDcthB</p>",,,,,,,,,
html-keyboard-response,438,750950,0.0-17.0-0.26,6136aa846e80ebd7daf6e148,64e77d7b61f440b60e28659d,64ecad81f2f759acf903f496,null,null,"<p style=""font-size: 60px; font-family: BACS"">hTtBbdRA</p>",,,,,,,,,
html-keyboard-response,439,751969,0.0-17.0-0.27,6136aa846e80ebd7daf6e148,64e77d7b61f440b60e28659d,64ecad81f2f759acf903f496,null,null,"<p style=""font-size: 60px; font-family: BACS"">kabJbLkNc</p>",,,,,,,,,
html-keyboard-response,440,752988,0.0-17.0-0.28,6136aa846e80ebd7daf6e148,64e77d7b61f440b60e28659d,64ecad81f2f759acf903f496,null,null,"<p style=""font-size: 60px; font-family: BACS"">htmhCdRA</p>",,,,,,,,,
html-keyboard-response,441,754006,0.0-17.0-0.29,6136aa846e80ebd7daf6e148,64e77d7b61f440b60e28659d,64ecad81f2f759acf903f496,null,null,"<p style=""font-size: 60px; font-family: BACS"">KBKBEcthB</p>",,,,,,,,,
html-keyboard-response,442,755025,0.0-17.0-0.30,6136aa846e80ebd7daf6e148,64e77d7b61f440b60e28659d,64ecad81f2f759acf903f496,null,null,"<p style=""font-size: 60px; font-family: BACS"">TbKMEdCKc</p>",,,,,,,,,
html-keyboard-response,443,756052,0.0-17.0-0.31,6136aa846e80ebd7daf6e148,64e77d7b61f440b60e28659d,64ecad81f2f759acf903f496,null,null,"<p style=""font-size: 60px; font-family: BACS"">lBlEdRA</p>",,,,,,,,,
html-keyboard-response,444,757069,0.0-17.0-0.32,6136aa846e80ebd7daf6e148,64e77d7b61f440b60e28659d,64ecad81f2f759acf903f496,null,null,"<p style=""font-size: 60px; font-family: BACS"">htmhCdCKc</p>",,,,,,,,,
html-keyboard-response,445,758075,0.0-17.0-0.33,6136aa846e80ebd7daf6e148,64e77d7b61f440b60e28659d,64ecad81f2f759acf903f496,null,null,"<p style=""font-size: 60px; font-family: BACS"">LdQvdmkv</p>",,,,,,,,,
html-keyboard-response,446,759088,0.0-17.0-0.34,6136aa846e80ebd7daf6e148,64e77d7b61f440b60e28659d,64ecad81f2f759acf903f496,null,null,"<p style=""font-size: 60px; font-family: BACS"">kLvdNQru</p>",,,,,,,,,
html-keyboard-response,447,760090,0.0-17.0-0.35,6136aa846e80ebd7daf6e148,64e77d7b61f440b60e28659d,64ecad81f2f759acf903f496,null,null,"<p style=""font-size: 60px; font-family: BACS"">JAdLmJcL</p>",,,,,,,,,
html-keyboard-response,448,761116,0.0-17.0-0.36,6136aa846e80ebd7daf6e148,64e77d7b61f440b60e28659d,64ecad81f2f759acf903f496,null,null,"<p style=""font-size: 60px; font-family: BACS"">ALOrldmkv</p>",,,,,,,,,
html-keyboard-response,449,762136,0.0-17.0-0.37,6136aa846e80ebd7daf6e148,64e77d7b61f440b60e28659d,64ecad81f2f759acf903f496,null,null,"<p style=""font-size: 60px; font-family: BACS"">uvaUQru</p>",,,,,,,,,
html-keyboard-response,450,763155,0.0-17.0-0.38,6136aa846e80ebd7daf6e148,64e77d7b61f440b60e28659d,64ecad81f2f759acf903f496,null,null,"<p style=""font-size: 60px; font-family: BACS"">dKRDBCAd</p>",,,,,,,,,
html-keyboard-response,451,764173,0.0-17.0-0.39,6136aa846e80ebd7daf6e148,64e77d7b61f440b60e28659d,64ecad81f2f759acf903f496,null,null,"<p style=""font-size: 60px; font-family: BACS"">hmKPMdCKc</p>",,,,,,,,,
html-keyboard-response,452,765191,0.0-17.0-0.40,6136aa846e80ebd7daf6e148,64e77d7b61f440b60e28659d,64ecad81f2f759acf903f496,null,null,"<p style=""font-size: 60px; font-family: BACS"">JAdLmAZbl</p>",,,,,,,,,
html-keyboard-response,453,766211,0.0-17.0-0.41,6136aa846e80ebd7daf6e148,64e77d7b61f440b60e28659d,64ecad81f2f759acf903f496,null,null,"<p style=""font-size: 60px; font-family: BACS"">htmhCcthB</p>",,,,,,,,,
html-keyboard-response,454,767234,0.0-17.0-0.42,6136aa846e80ebd7daf6e148,64e77d7b61f440b60e28659d,64ecad81f2f759acf903f496,null,null,"<p style=""font-size: 60px; font-family: BACS"">TbKMEBCAd</p>",,,,,,,,,
html-keyboard-response,455,768254,0.0-17.0-0.43,6136aa846e80ebd7daf6e148,64e77d7b61f440b60e28659d,64ecad81f2f759acf903f496,null,null,"<p style=""font-size: 60px; font-family: BACS"">dMThkcthB</p>",,,,,,,,,
html-keyboard-response,456,769271,0.0-17.0-0.44,6136aa846e80ebd7daf6e148,64e77d7b61f440b60e28659d,64ecad81f2f759acf903f496,null,null,"<p style=""font-size: 60px; font-family: BACS"">uvaULkNc</p>",,,,,,,,,
html-keyboard-response,457,770291,0.0-17.0-0.45,6136aa846e80ebd7daf6e148,64e77d7b61f440b60e28659d,64ecad81f2f759acf903f496,null,null,"<p style=""font-size: 60px; font-family: BACS"">JAdLmQru</p>",,,,,,,,,
html-keyboard-response,458,771308,0.0-17.0-0.46,6136aa846e80ebd7daf6e148,64e77d7b61f440b60e28659d,64ecad81f2f759acf903f496,null,null,"<p style=""font-size: 60px; font-family: BACS"">ALOrlLkNc</p>",,,,,,,,,
html-keyboard-response,459,772327,0.0-17.0-0.47,6136aa846e80ebd7daf6e148,64e77d7b61f440b60e28659d,64ecad81f2f759acf903f496,null,null,"<p style=""font-size: 60px; font-family: BACS"">DhMtdRA</p>",,,,,,,,,
html-keyboard-response,460,773352,0.0-17.0-0.48,6136aa846e80ebd7daf6e148,64e77d7b61f440b60e28659d,64ecad81f2f759acf903f496,null,null,"<p style=""font-size: 60px; font-family: BACS"">kZUbAZbl</p>",,,,,,,,,
html-keyboard-response,461,774370,0.0-17.0-0.49,6136aa846e80ebd7daf6e148,64e77d7b61f440b60e28659d,64ecad81f2f759acf903f496,null,null,"<p style=""font-size: 60px; font-family: BACS"">damYbQru</p>",,,,,,,,,
html-keyboard-response,462,775390,0.0-17.0-0.50,6136aa846e80ebd7daf6e148,64e77d7b61f440b60e28659d,64ecad81f2f759acf903f496,null,null,"<p style=""font-size: 60px; font-family: BACS"">TbKMEdTAh</p>",,,,,,,,,
html-keyboard-response,463,776408,0.0-17.0-0.51,6136aa846e80ebd7daf6e148,64e77d7b61f440b60e28659d,64ecad81f2f759acf903f496,null,null,"<p style=""font-size: 60px; font-family: BACS"">hmKPMBCAd</p>",,,,,,,,,
html-keyboard-response,464,777426,0.0-17.0-0.52,6136aa846e80ebd7daf6e148,64e77d7b61f440b60e28659d,64ecad81f2f759acf903f496,null,null,"<p style=""font-size: 60px; font-family: BACS"">kZUbQru</p>",,,,,,,,,
html-keyboard-response,465,778445,0.0-17.0-0.53,6136aa846e80ebd7daf6e148,64e77d7b61f440b60e28659d,64ecad81f2f759acf903f496,null,null,"<p style=""font-size: 60px; font-family: BACS"">TbKMEdRA</p>",,,,,,,,,
html-keyboard-response,466,779470,0.0-17.0-0.54,6136aa846e80ebd7daf6e148,64e77d7b61f440b60e28659d,64ecad81f2f759acf903f496,null,null,"<p style=""font-size: 60px; font-family: BACS"">ALOrlQru</p>",,,,,,,,,
html-keyboard-response,467,780488,0.0-17.0-0.55,6136aa846e80ebd7daf6e148,64e77d7b61f440b60e28659d,64ecad81f2f759acf903f496,null,null,"<p style=""font-size: 60px; font-family: BACS"">lRckABCAd</p>",,,,,,,,,
html-keyboard-response,468,781507,0.0-17.0-0.56,6136aa846e80ebd7daf6e148,64e77d7b61f440b60e28659d,64ecad81f2f759acf903f496,null,null,"<p style=""font-size: 60px; font-family: BACS"">kZUbLkNc</p>",,,,,,,,,
html-keyboard-response,469,782526,0.0-17.0-0.57,6136aa846e80ebd7daf6e148,64e77d7b61f440b60e28659d,64ecad81f2f759acf903f496,null,null,"<p style=""font-size: 60px; font-family: BACS"">kLvdNdmkv</p>",,,,,,,,,
