"trial_type","trial_index","time_elapsed","internal_node_id","subject_id","study_id","session_id","rt","response","stimulus","success","item","task","correct_response","testing_condition","correct","target","confound","name"
"pavlovia","0","969","0.0-0.0","6122966a93af160af481836c","650c16f0f2faf8d7a0d14c09","651c0a5e1212768a2d5f5cc6","","","","","","","","","","","",""
"survey-html-form","1","7201","0.0-1.0","6122966a93af160af481836c","650c16f0f2faf8d7a0d14c09","651c0a5e1212768a2d5f5cc6","6230","{""ID"":""6122966a93af160af481836c""}","","","","","","","","","",""
"html-keyboard-response","2","17544","0.0-2.0","6122966a93af160af481836c","650c16f0f2faf8d7a0d14c09","651c0a5e1212768a2d5f5cc6","10342"," ","<p style=""font-size: 15px;"">Before beginning, we ask that you read the consent information and confirm your agreement to participate in the experiment.</p>
      <p style=""font-size: 15px;""> We ask that you remember that this is a research project and that your participation is entirely voluntary. You can stop your participation at any time, without needing to provide any explanation. The study we're asking you to participate in aims at examining how readers process written words. You will be engaged in a session of apprximately 20 minutes, followed by a brief questionnaire. You will have the opportunity to take a few breaks during the experiment. You will be paid £4 for your participation, corresponding to a rate of £8/hour. While this experiment looks at cognitive faculties, this experiment doesn't constitute clinical proof of eventual pathologies.</p>
      <p style=""font-size: 15px;"">All of the information collected thanks to yours and others' participation will be held in a secure password-protected server, and will not be shared with anyone not authorised to view it. Your personal information will be kept with an arbitrary participant ID. Thanks to this data anonymity process, any researcher analysing the data won't be able to track the information back to a specific participant. Therefore, this process will make identifying you impossibile, even when results from the study will be published in scientific reviews, presented at congresses, or at any other public forum. More generally, the collected data will be treated in accordance with the laws on privacy and conformity to the Legislative Degree n. 196 ""Code regarding the protection of personal data"" of the 30th of June 2003 and to the European Regulation 2016/670 (General Data Protection Regulation - GDPR). The Data Protection Officer is Avv. Valentina Carollo, who can be contacted at the following email addresses: <a href=""mailto:dpo@sissa.it"">dpo@sissa.it</a> or <a href=""mailto:rpd@sissa.it"">rpd@sissa.it</a> - PEC: <a href=""mailto:protocollo@pec.sissa.it"">protocollo@pec.sissa.it</a>.</p>
      <p style=""font-size: 15px;""> Before expressing your consent to participate, we would like to remind you again that in case you need explanations on any aspect of the experimental procedure, the researcher is at your disposition (<a href=""mailto:aliebelt@sissa.it"">aliebelt@sissa.it</a>, <a href=""mailto:davide.crepaldi@sissa.it"">davide.crepaldi@sissa.it</a>).</p>
      <p style=""font-size: 15px;"">If you would like to download the informed consent form, you can do so here: <a href=""BASL-Informed_Consent.pdf"" download>informed consent form</a>.</p>
      <p style=""font-size: 15px;"">We ask that you press the spacebar to proceed to the consent section.</p>","","","","","","","","",""
"survey-html-form","3","54386","0.0-3.0","6122966a93af160af481836c","650c16f0f2faf8d7a0d14c09","651c0a5e1212768a2d5f5cc6","36840","{""consent1"":""YES"",""consent2"":""YES"",""consent3"":""YES"",""consent4"":""YES"",""consent5"":""YES"",""consent6"":""YES""}","","","","","","","","","",""
"fullscreen","4","60698","0.0-4.0","6122966a93af160af481836c","650c16f0f2faf8d7a0d14c09","651c0a5e1212768a2d5f5cc6","","","","true","","","","","","","",""
"html-keyboard-response","5","78101","0.0-5.0","6122966a93af160af481836c","650c16f0f2faf8d7a0d14c09","651c0a5e1212768a2d5f5cc6","17402"," ","<p>Welcome, and thank you very much for your time!</p>
      <p>In this experiment, you'll be a language expert who's been asked to take a look at words that Earth has received in its first communication with aliens. Your task, in this first part of the experiment, is to pay close attention to the words you'll be shown; later, world leaders will ask you questions on what you saw. The words will be shown to you quite quickly; it seems that the aliens were in a hurry :-)</p>
      <p>Press the spacebar to continue.<p>","","","","","","","","",""
"html-keyboard-response","6","78154","0.0-6.0","6122966a93af160af481836c","650c16f0f2faf8d7a0d14c09","651c0a5e1212768a2d5f5cc6","null","null","<p style=""font-size: 120px; font-family: BACS""> </p>","","","","","","","","",""
"html-keyboard-response","7","85795","0.0-7.0","6122966a93af160af481836c","650c16f0f2faf8d7a0d14c09","651c0a5e1212768a2d5f5cc6","7640"," ","<p>Here is an example of the words you'll see:</p>
      <img src='esempio.png' height='400px'>
      <p>When you're ready to begin, press the spacebar.</p></div>","","","","","","","","",""
"html-keyboard-response","8","86810","0.0-8.0-0.0","6122966a93af160af481836c","650c16f0f2faf8d7a0d14c09","651c0a5e1212768a2d5f5cc6","null","null","<p style=""font-size: 60px; font-family: BACS"">aONduUmb</p>","","","","","","","","",""
"html-keyboard-response","9","87822","0.0-8.0-0.1","6122966a93af160af481836c","650c16f0f2faf8d7a0d14c09","651c0a5e1212768a2d5f5cc6","null","null","<p style=""font-size: 60px; font-family: BACS"">NvYJZckv</p>","","","","","","","","",""
"html-keyboard-response","10","88838","0.0-8.0-0.2","6122966a93af160af481836c","650c16f0f2faf8d7a0d14c09","651c0a5e1212768a2d5f5cc6","null","null","<p style=""font-size: 60px; font-family: BACS"">RhPmBRDh</p>","","","","","","","","",""
"html-keyboard-response","11","89853","0.0-8.0-0.3","6122966a93af160af481836c","650c16f0f2faf8d7a0d14c09","651c0a5e1212768a2d5f5cc6","null","null","<p style=""font-size: 60px; font-family: BACS"">NvYJuUmb</p>","","","","","","","","",""
"html-keyboard-response","12","90867","0.0-8.0-0.4","6122966a93af160af481836c","650c16f0f2faf8d7a0d14c09","651c0a5e1212768a2d5f5cc6","null","null","<p style=""font-size: 60px; font-family: BACS"">TDKhBCD</p>","","","","","","","","",""
"html-keyboard-response","13","91869","0.0-8.0-0.5","6122966a93af160af481836c","650c16f0f2faf8d7a0d14c09","651c0a5e1212768a2d5f5cc6","null","null","<p style=""font-size: 60px; font-family: BACS"">AdDbMAB</p>","","","","","","","","",""
"html-keyboard-response","14","92872","0.0-8.0-0.6","6122966a93af160af481836c","650c16f0f2faf8d7a0d14c09","651c0a5e1212768a2d5f5cc6","null","null","<p style=""font-size: 60px; font-family: BACS"">DmAMEPMd</p>","","","","","","","","",""
"html-keyboard-response","15","93886","0.0-8.0-0.7","6122966a93af160af481836c","650c16f0f2faf8d7a0d14c09","651c0a5e1212768a2d5f5cc6","null","null","<p style=""font-size: 60px; font-family: BACS"">aONdvAvb</p>","","","","","","","","",""
"html-keyboard-response","16","94898","0.0-8.0-0.8","6122966a93af160af481836c","650c16f0f2faf8d7a0d14c09","651c0a5e1212768a2d5f5cc6","null","null","<p style=""font-size: 60px; font-family: BACS"">NAacQvUdm</p>","","","","","","","","",""
"html-keyboard-response","17","95901","0.0-8.0-0.9","6122966a93af160af481836c","650c16f0f2faf8d7a0d14c09","651c0a5e1212768a2d5f5cc6","null","null","<p style=""font-size: 60px; font-family: BACS"">vblrkdrO</p>","","","","","","","","",""
"html-keyboard-response","18","96914","0.0-8.0-0.10","6122966a93af160af481836c","650c16f0f2faf8d7a0d14c09","651c0a5e1212768a2d5f5cc6","null","null","<p style=""font-size: 60px; font-family: BACS"">TKDkDbMR</p>","","","","","","","","",""
"html-keyboard-response","19","97917","0.0-8.0-0.11","6122966a93af160af481836c","650c16f0f2faf8d7a0d14c09","651c0a5e1212768a2d5f5cc6","null","null","<p style=""font-size: 60px; font-family: BACS"">uQuZcvAvb</p>","","","","","","","","",""
"html-keyboard-response","20","98932","0.0-8.0-0.12","6122966a93af160af481836c","650c16f0f2faf8d7a0d14c09","651c0a5e1212768a2d5f5cc6","null","null","<p style=""font-size: 60px; font-family: BACS"">TKDkBRDh</p>","","","","","","","","",""
"html-keyboard-response","21","99934","0.0-8.0-0.13","6122966a93af160af481836c","650c16f0f2faf8d7a0d14c09","651c0a5e1212768a2d5f5cc6","null","null","<p style=""font-size: 60px; font-family: BACS"">NvYJvAvb</p>","","","","","","","","",""
"html-keyboard-response","22","100935","0.0-8.0-0.14","6122966a93af160af481836c","650c16f0f2faf8d7a0d14c09","651c0a5e1212768a2d5f5cc6","null","null","<p style=""font-size: 60px; font-family: BACS"">TKDkBCD</p>","","","","","","","","",""
"html-keyboard-response","23","101946","0.0-8.0-0.15","6122966a93af160af481836c","650c16f0f2faf8d7a0d14c09","651c0a5e1212768a2d5f5cc6","null","null","<p style=""font-size: 60px; font-family: BACS"">uQuZcuUmb</p>","","","","","","","","",""
"html-keyboard-response","24","102949","0.0-8.0-0.16","6122966a93af160af481836c","650c16f0f2faf8d7a0d14c09","651c0a5e1212768a2d5f5cc6","null","null","<p style=""font-size: 60px; font-family: BACS"">TPCbBCD</p>","","","","","","","","",""
"html-keyboard-response","25","103963","0.0-8.0-0.17","6122966a93af160af481836c","650c16f0f2faf8d7a0d14c09","651c0a5e1212768a2d5f5cc6","null","null","<p style=""font-size: 60px; font-family: BACS"">ObZbAvUdm</p>","","","","","","","","",""
"html-keyboard-response","26","104966","0.0-8.0-0.18","6122966a93af160af481836c","650c16f0f2faf8d7a0d14c09","651c0a5e1212768a2d5f5cc6","null","null","<p style=""font-size: 60px; font-family: BACS"">CmcOBRDh</p>","","","","","","","","",""
"html-keyboard-response","27","105982","0.0-8.0-0.19","6122966a93af160af481836c","650c16f0f2faf8d7a0d14c09","651c0a5e1212768a2d5f5cc6","null","null","<p style=""font-size: 60px; font-family: BACS"">AdDbPMd</p>","","","","","","","","",""
"html-keyboard-response","28","106985","0.0-8.0-0.20","6122966a93af160af481836c","650c16f0f2faf8d7a0d14c09","651c0a5e1212768a2d5f5cc6","null","null","<p style=""font-size: 60px; font-family: BACS"">PhktkDbMR</p>","","","","","","","","",""
"html-keyboard-response","29","107989","0.0-8.0-0.21","6122966a93af160af481836c","650c16f0f2faf8d7a0d14c09","651c0a5e1212768a2d5f5cc6","null","null","<p style=""font-size: 60px; font-family: BACS"">uauOZckv</p>","","","","","","","","",""
"html-keyboard-response","30","109000","0.0-8.0-0.22","6122966a93af160af481836c","650c16f0f2faf8d7a0d14c09","651c0a5e1212768a2d5f5cc6","null","null","<p style=""font-size: 60px; font-family: BACS"">CDEmYBCD</p>","","","","","","","","",""
"html-keyboard-response","31","110003","0.0-8.0-0.23","6122966a93af160af481836c","650c16f0f2faf8d7a0d14c09","651c0a5e1212768a2d5f5cc6","null","null","<p style=""font-size: 60px; font-family: BACS"">NAacQvAvb</p>","","","","","","","","",""
"html-keyboard-response","32","111006","0.0-8.0-0.24","6122966a93af160af481836c","650c16f0f2faf8d7a0d14c09","651c0a5e1212768a2d5f5cc6","null","null","<p style=""font-size: 60px; font-family: BACS"">dKDthBCD</p>","","","","","","","","",""
"html-keyboard-response","33","112022","0.0-8.0-0.25","6122966a93af160af481836c","650c16f0f2faf8d7a0d14c09","651c0a5e1212768a2d5f5cc6","null","null","<p style=""font-size: 60px; font-family: BACS"">LckGNkdrO</p>","","","","","","","","",""
"html-keyboard-response","34","113024","0.0-8.0-0.26","6122966a93af160af481836c","650c16f0f2faf8d7a0d14c09","651c0a5e1212768a2d5f5cc6","null","null","<p style=""font-size: 60px; font-family: BACS"">RhPmPMd</p>","","","","","","","","",""
"html-keyboard-response","35","114027","0.0-8.0-0.27","6122966a93af160af481836c","650c16f0f2faf8d7a0d14c09","651c0a5e1212768a2d5f5cc6","null","null","<p style=""font-size: 60px; font-family: BACS"">uauOvAvb</p>","","","","","","","","",""
"html-keyboard-response","36","115040","0.0-8.0-0.28","6122966a93af160af481836c","650c16f0f2faf8d7a0d14c09","651c0a5e1212768a2d5f5cc6","null","null","<p style=""font-size: 60px; font-family: BACS"">vblrZckv</p>","","","","","","","","",""
"html-keyboard-response","37","116045","0.0-8.0-0.29","6122966a93af160af481836c","650c16f0f2faf8d7a0d14c09","651c0a5e1212768a2d5f5cc6","null","null","<p style=""font-size: 60px; font-family: BACS"">CDEmYBRDh</p>","","","","","","","","",""
"html-keyboard-response","38","117060","0.0-8.0-0.30","6122966a93af160af481836c","650c16f0f2faf8d7a0d14c09","651c0a5e1212768a2d5f5cc6","null","null","<p style=""font-size: 60px; font-family: BACS"">CmcOPMd</p>","","","","","","","","",""
"html-keyboard-response","39","118062","0.0-8.0-0.31","6122966a93af160af481836c","650c16f0f2faf8d7a0d14c09","651c0a5e1212768a2d5f5cc6","null","null","<p style=""font-size: 60px; font-family: BACS"">vblruUmb</p>","","","","","","","","",""
"html-keyboard-response","40","119063","0.0-8.0-0.32","6122966a93af160af481836c","650c16f0f2faf8d7a0d14c09","651c0a5e1212768a2d5f5cc6","null","null","<p style=""font-size: 60px; font-family: BACS"">dKDthBRDh</p>","","","","","","","","",""
"html-keyboard-response","41","120065","0.0-8.0-0.33","6122966a93af160af481836c","650c16f0f2faf8d7a0d14c09","651c0a5e1212768a2d5f5cc6","null","null","<p style=""font-size: 60px; font-family: BACS"">TDKhPMd</p>","","","","","","","","",""
"html-keyboard-response","42","121080","0.0-8.0-0.34","6122966a93af160af481836c","650c16f0f2faf8d7a0d14c09","651c0a5e1212768a2d5f5cc6","null","null","<p style=""font-size: 60px; font-family: BACS"">LckGNZckv</p>","","","","","","","","",""
"html-keyboard-response","43","122092","0.0-8.0-0.35","6122966a93af160af481836c","650c16f0f2faf8d7a0d14c09","651c0a5e1212768a2d5f5cc6","null","null","<p style=""font-size: 60px; font-family: BACS"">JAdLmvUdm</p>","","","","","","","","",""
"html-keyboard-response","44","123101","0.0-8.0-0.36","6122966a93af160af481836c","650c16f0f2faf8d7a0d14c09","651c0a5e1212768a2d5f5cc6","null","null","<p style=""font-size: 60px; font-family: BACS"">PhktkBRDh</p>","","","","","","","","",""
"html-keyboard-response","45","124103","0.0-8.0-0.37","6122966a93af160af481836c","650c16f0f2faf8d7a0d14c09","651c0a5e1212768a2d5f5cc6","null","null","<p style=""font-size: 60px; font-family: BACS"">dKDthDbMR</p>","","","","","","","","",""
"html-keyboard-response","46","125110","0.0-8.0-0.38","6122966a93af160af481836c","650c16f0f2faf8d7a0d14c09","651c0a5e1212768a2d5f5cc6","null","null","<p style=""font-size: 60px; font-family: BACS"">uQuZckdrO</p>","","","","","","","","",""
"html-keyboard-response","47","126114","0.0-8.0-0.39","6122966a93af160af481836c","650c16f0f2faf8d7a0d14c09","651c0a5e1212768a2d5f5cc6","null","null","<p style=""font-size: 60px; font-family: BACS"">uauOvUdm</p>","","","","","","","","",""
"html-keyboard-response","48","127116","0.0-8.0-0.40","6122966a93af160af481836c","650c16f0f2faf8d7a0d14c09","651c0a5e1212768a2d5f5cc6","null","null","<p style=""font-size: 60px; font-family: BACS"">CmcOBCD</p>","","","","","","","","",""
"html-keyboard-response","49","128118","0.0-8.0-0.41","6122966a93af160af481836c","650c16f0f2faf8d7a0d14c09","651c0a5e1212768a2d5f5cc6","null","null","<p style=""font-size: 60px; font-family: BACS"">CDEmYPMd</p>","","","","","","","","",""
"html-keyboard-response","50","129129","0.0-8.0-0.42","6122966a93af160af481836c","650c16f0f2faf8d7a0d14c09","651c0a5e1212768a2d5f5cc6","null","null","<p style=""font-size: 60px; font-family: BACS"">JAdLmkdrO</p>","","","","","","","","",""
"html-keyboard-response","51","130132","0.0-8.0-0.43","6122966a93af160af481836c","650c16f0f2faf8d7a0d14c09","651c0a5e1212768a2d5f5cc6","null","null","<p style=""font-size: 60px; font-family: BACS"">PhktkPMd</p>","","","","","","","","",""
"html-keyboard-response","52","131137","0.0-8.0-0.44","6122966a93af160af481836c","650c16f0f2faf8d7a0d14c09","651c0a5e1212768a2d5f5cc6","null","null","<p style=""font-size: 60px; font-family: BACS"">vblrvUdm</p>","","","","","","","","",""
"html-keyboard-response","53","132144","0.0-8.0-0.45","6122966a93af160af481836c","650c16f0f2faf8d7a0d14c09","651c0a5e1212768a2d5f5cc6","null","null","<p style=""font-size: 60px; font-family: BACS"">CDEmYMAB</p>","","","","","","","","",""
"html-keyboard-response","54","133150","0.0-8.0-0.46","6122966a93af160af481836c","650c16f0f2faf8d7a0d14c09","651c0a5e1212768a2d5f5cc6","null","null","<p style=""font-size: 60px; font-family: BACS"">RhPmDbMR</p>","","","","","","","","",""
"html-keyboard-response","55","134155","0.0-8.0-0.47","6122966a93af160af481836c","650c16f0f2faf8d7a0d14c09","651c0a5e1212768a2d5f5cc6","null","null","<p style=""font-size: 60px; font-family: BACS"">NAacQkdrO</p>","","","","","","","","",""
"html-keyboard-response","56","135157","0.0-8.0-0.48","6122966a93af160af481836c","650c16f0f2faf8d7a0d14c09","651c0a5e1212768a2d5f5cc6","null","null","<p style=""font-size: 60px; font-family: BACS"">uQuZcZckv</p>","","","","","","","","",""
"html-keyboard-response","57","136164","0.0-8.0-0.49","6122966a93af160af481836c","650c16f0f2faf8d7a0d14c09","651c0a5e1212768a2d5f5cc6","null","null","<p style=""font-size: 60px; font-family: BACS"">LckGNvAvb</p>","","","","","","","","",""
"html-keyboard-response","58","137179","0.0-8.0-0.50","6122966a93af160af481836c","650c16f0f2faf8d7a0d14c09","651c0a5e1212768a2d5f5cc6","null","null","<p style=""font-size: 60px; font-family: BACS"">AdDbBRDh</p>","","","","","","","","",""
"html-keyboard-response","59","138189","0.0-8.0-0.51","6122966a93af160af481836c","650c16f0f2faf8d7a0d14c09","651c0a5e1212768a2d5f5cc6","null","null","<p style=""font-size: 60px; font-family: BACS"">uauOkdrO</p>","","","","","","","","",""
"html-keyboard-response","60","139204","0.0-8.0-0.52","6122966a93af160af481836c","650c16f0f2faf8d7a0d14c09","651c0a5e1212768a2d5f5cc6","null","null","<p style=""font-size: 60px; font-family: BACS"">JAdLmZckv</p>","","","","","","","","",""
"html-keyboard-response","61","140207","0.0-8.0-0.53","6122966a93af160af481836c","650c16f0f2faf8d7a0d14c09","651c0a5e1212768a2d5f5cc6","null","null","<p style=""font-size: 60px; font-family: BACS"">CmcOMAB</p>","","","","","","","","",""
"html-keyboard-response","62","141220","0.0-8.0-0.54","6122966a93af160af481836c","650c16f0f2faf8d7a0d14c09","651c0a5e1212768a2d5f5cc6","null","null","<p style=""font-size: 60px; font-family: BACS"">aONdvUdm</p>","","","","","","","","",""
"html-keyboard-response","63","142232","0.0-8.0-0.55","6122966a93af160af481836c","650c16f0f2faf8d7a0d14c09","651c0a5e1212768a2d5f5cc6","null","null","<p style=""font-size: 60px; font-family: BACS"">TPCbPMd</p>","","","","","","","","",""
"html-keyboard-response","64","143246","0.0-8.0-0.56","6122966a93af160af481836c","650c16f0f2faf8d7a0d14c09","651c0a5e1212768a2d5f5cc6","null","null","<p style=""font-size: 60px; font-family: BACS"">ObZbAuUmb</p>","","","","","","","","",""
"html-keyboard-response","65","144259","0.0-8.0-0.57","6122966a93af160af481836c","650c16f0f2faf8d7a0d14c09","651c0a5e1212768a2d5f5cc6","null","null","<p style=""font-size: 60px; font-family: BACS"">aONdZckv</p>","","","","","","","","",""
"html-keyboard-response","66","145261","0.0-8.0-0.58","6122966a93af160af481836c","650c16f0f2faf8d7a0d14c09","651c0a5e1212768a2d5f5cc6","null","null","<p style=""font-size: 60px; font-family: BACS"">NvYJvUdm</p>","","","","","","","","",""
"html-keyboard-response","67","146276","0.0-8.0-0.59","6122966a93af160af481836c","650c16f0f2faf8d7a0d14c09","651c0a5e1212768a2d5f5cc6","null","null","<p style=""font-size: 60px; font-family: BACS"">AdDbDbMR</p>","","","","","","","","",""
"html-keyboard-response","68","147278","0.0-8.0-0.60","6122966a93af160af481836c","650c16f0f2faf8d7a0d14c09","651c0a5e1212768a2d5f5cc6","null","null","<p style=""font-size: 60px; font-family: BACS"">DmAMEBCD</p>","","","","","","","","",""
"html-keyboard-response","69","148293","0.0-8.0-0.61","6122966a93af160af481836c","650c16f0f2faf8d7a0d14c09","651c0a5e1212768a2d5f5cc6","null","null","<p style=""font-size: 60px; font-family: BACS"">TKDkMAB</p>","","","","","","","","",""
"html-keyboard-response","70","149297","0.0-8.0-0.62","6122966a93af160af481836c","650c16f0f2faf8d7a0d14c09","651c0a5e1212768a2d5f5cc6","null","null","<p style=""font-size: 60px; font-family: BACS"">TDKhDbMR</p>","","","","","","","","",""
"html-keyboard-response","71","150304","0.0-8.0-0.63","6122966a93af160af481836c","650c16f0f2faf8d7a0d14c09","651c0a5e1212768a2d5f5cc6","null","null","<p style=""font-size: 60px; font-family: BACS"">aYQmvUdm</p>","","","","","","","","",""
"html-keyboard-response","72","151319","0.0-8.0-0.64","6122966a93af160af481836c","650c16f0f2faf8d7a0d14c09","651c0a5e1212768a2d5f5cc6","null","null","<p style=""font-size: 60px; font-family: BACS"">ObZbAZckv</p>","","","","","","","","",""
"html-keyboard-response","73","152335","0.0-8.0-0.65","6122966a93af160af481836c","650c16f0f2faf8d7a0d14c09","651c0a5e1212768a2d5f5cc6","null","null","<p style=""font-size: 60px; font-family: BACS"">aYQmvAvb</p>","","","","","","","","",""
"html-keyboard-response","74","153351","0.0-8.0-0.66","6122966a93af160af481836c","650c16f0f2faf8d7a0d14c09","651c0a5e1212768a2d5f5cc6","null","null","<p style=""font-size: 60px; font-family: BACS"">NAacQuUmb</p>","","","","","","","","",""
"html-keyboard-response","75","154359","0.0-8.0-0.67","6122966a93af160af481836c","650c16f0f2faf8d7a0d14c09","651c0a5e1212768a2d5f5cc6","null","null","<p style=""font-size: 60px; font-family: BACS"">aYQmkdrO</p>","","","","","","","","",""
"html-keyboard-response","76","155362","0.0-8.0-0.68","6122966a93af160af481836c","650c16f0f2faf8d7a0d14c09","651c0a5e1212768a2d5f5cc6","null","null","<p style=""font-size: 60px; font-family: BACS"">DmAMEDbMR</p>","","","","","","","","",""
"html-keyboard-response","77","156377","0.0-8.0-0.69","6122966a93af160af481836c","650c16f0f2faf8d7a0d14c09","651c0a5e1212768a2d5f5cc6","null","null","<p style=""font-size: 60px; font-family: BACS"">TPCbMAB</p>","","","","","","","","",""
"html-keyboard-response","78","157379","0.0-8.0-0.70","6122966a93af160af481836c","650c16f0f2faf8d7a0d14c09","651c0a5e1212768a2d5f5cc6","null","null","<p style=""font-size: 60px; font-family: BACS"">JAdLmvAvb</p>","","","","","","","","",""
"html-keyboard-response","79","158381","0.0-8.0-0.71","6122966a93af160af481836c","650c16f0f2faf8d7a0d14c09","651c0a5e1212768a2d5f5cc6","null","null","<p style=""font-size: 60px; font-family: BACS"">RhPmMAB</p>","","","","","","","","",""
"html-keyboard-response","80","159383","0.0-8.0-0.72","6122966a93af160af481836c","650c16f0f2faf8d7a0d14c09","651c0a5e1212768a2d5f5cc6","null","null","<p style=""font-size: 60px; font-family: BACS"">TPCbDbMR</p>","","","","","","","","",""
"html-keyboard-response","81","160387","0.0-8.0-0.73","6122966a93af160af481836c","650c16f0f2faf8d7a0d14c09","651c0a5e1212768a2d5f5cc6","null","null","<p style=""font-size: 60px; font-family: BACS"">ObZbAkdrO</p>","","","","","","","","",""
"html-keyboard-response","82","161389","0.0-8.0-0.74","6122966a93af160af481836c","650c16f0f2faf8d7a0d14c09","651c0a5e1212768a2d5f5cc6","null","null","<p style=""font-size: 60px; font-family: BACS"">TDKhBRDh</p>","","","","","","","","",""
"html-keyboard-response","83","162405","0.0-8.0-0.75","6122966a93af160af481836c","650c16f0f2faf8d7a0d14c09","651c0a5e1212768a2d5f5cc6","null","null","<p style=""font-size: 60px; font-family: BACS"">LckGNuUmb</p>","","","","","","","","",""
"html-keyboard-response","84","163421","0.0-8.0-0.76","6122966a93af160af481836c","650c16f0f2faf8d7a0d14c09","651c0a5e1212768a2d5f5cc6","null","null","<p style=""font-size: 60px; font-family: BACS"">dKDthMAB</p>","","","","","","","","",""
"html-keyboard-response","85","164425","0.0-8.0-0.77","6122966a93af160af481836c","650c16f0f2faf8d7a0d14c09","651c0a5e1212768a2d5f5cc6","null","null","<p style=""font-size: 60px; font-family: BACS"">PhktkBCD</p>","","","","","","","","",""
"html-keyboard-response","86","165441","0.0-8.0-0.78","6122966a93af160af481836c","650c16f0f2faf8d7a0d14c09","651c0a5e1212768a2d5f5cc6","null","null","<p style=""font-size: 60px; font-family: BACS"">DmAMEMAB</p>","","","","","","","","",""
"html-keyboard-response","87","166443","0.0-8.0-0.79","6122966a93af160af481836c","650c16f0f2faf8d7a0d14c09","651c0a5e1212768a2d5f5cc6","null","null","<p style=""font-size: 60px; font-family: BACS"">aYQmuUmb</p>","","","","","","","","",""
"html-keyboard-response","88","259785","0.0-9.0","6122966a93af160af481836c","650c16f0f2faf8d7a0d14c09","651c0a5e1212768a2d5f5cc6","93341"," ","<p>Great, you've seen the first block of words. You may now take a short break.</p>
      <p>Press the spacebar when you're ready to continue.</p>","","","","","","","","",""
"html-keyboard-response","89","260800","0.0-10.0-0.0","6122966a93af160af481836c","650c16f0f2faf8d7a0d14c09","651c0a5e1212768a2d5f5cc6","null","null","<p style=""font-size: 60px; font-family: BACS"">NAacQvAvb</p>","","","","","","","","",""
"html-keyboard-response","90","261802","0.0-10.0-0.1","6122966a93af160af481836c","650c16f0f2faf8d7a0d14c09","651c0a5e1212768a2d5f5cc6","null","null","<p style=""font-size: 60px; font-family: BACS"">CmcOMAB</p>","","","","","","","","",""
"html-keyboard-response","91","262805","0.0-10.0-0.2","6122966a93af160af481836c","650c16f0f2faf8d7a0d14c09","651c0a5e1212768a2d5f5cc6","null","null","<p style=""font-size: 60px; font-family: BACS"">LckGNvAvb</p>","","","","","","","","",""
"html-keyboard-response","92","263806","0.0-10.0-0.3","6122966a93af160af481836c","650c16f0f2faf8d7a0d14c09","651c0a5e1212768a2d5f5cc6","null","null","<p style=""font-size: 60px; font-family: BACS"">vblrkdrO</p>","","","","","","","","",""
"html-keyboard-response","93","264819","0.0-10.0-0.4","6122966a93af160af481836c","650c16f0f2faf8d7a0d14c09","651c0a5e1212768a2d5f5cc6","null","null","<p style=""font-size: 60px; font-family: BACS"">TPCbPMd</p>","","","","","","","","",""
"html-keyboard-response","94","265834","0.0-10.0-0.5","6122966a93af160af481836c","650c16f0f2faf8d7a0d14c09","651c0a5e1212768a2d5f5cc6","null","null","<p style=""font-size: 60px; font-family: BACS"">dKDthMAB</p>","","","","","","","","",""
"html-keyboard-response","95","266842","0.0-10.0-0.6","6122966a93af160af481836c","650c16f0f2faf8d7a0d14c09","651c0a5e1212768a2d5f5cc6","null","null","<p style=""font-size: 60px; font-family: BACS"">uQuZcuUmb</p>","","","","","","","","",""
"html-keyboard-response","96","267844","0.0-10.0-0.7","6122966a93af160af481836c","650c16f0f2faf8d7a0d14c09","651c0a5e1212768a2d5f5cc6","null","null","<p style=""font-size: 60px; font-family: BACS"">PhktkDbMR</p>","","","","","","","","",""
"html-keyboard-response","97","268846","0.0-10.0-0.8","6122966a93af160af481836c","650c16f0f2faf8d7a0d14c09","651c0a5e1212768a2d5f5cc6","null","null","<p style=""font-size: 60px; font-family: BACS"">TDKhBCD</p>","","","","","","","","",""
"html-keyboard-response","98","269861","0.0-10.0-0.9","6122966a93af160af481836c","650c16f0f2faf8d7a0d14c09","651c0a5e1212768a2d5f5cc6","null","null","<p style=""font-size: 60px; font-family: BACS"">LckGNkdrO</p>","","","","","","","","",""
"html-keyboard-response","99","270873","0.0-10.0-0.10","6122966a93af160af481836c","650c16f0f2faf8d7a0d14c09","651c0a5e1212768a2d5f5cc6","null","null","<p style=""font-size: 60px; font-family: BACS"">PhktkBRDh</p>","","","","","","","","",""
"html-keyboard-response","100","271889","0.0-10.0-0.11","6122966a93af160af481836c","650c16f0f2faf8d7a0d14c09","651c0a5e1212768a2d5f5cc6","null","null","<p style=""font-size: 60px; font-family: BACS"">uauOvAvb</p>","","","","","","","","",""
"html-keyboard-response","101","272890","0.0-10.0-0.12","6122966a93af160af481836c","650c16f0f2faf8d7a0d14c09","651c0a5e1212768a2d5f5cc6","null","null","<p style=""font-size: 60px; font-family: BACS"">NAacQkdrO</p>","","","","","","","","",""
"html-keyboard-response","102","273904","0.0-10.0-0.13","6122966a93af160af481836c","650c16f0f2faf8d7a0d14c09","651c0a5e1212768a2d5f5cc6","null","null","<p style=""font-size: 60px; font-family: BACS"">CDEmYBRDh</p>","","","","","","","","",""
"html-keyboard-response","103","274919","0.0-10.0-0.14","6122966a93af160af481836c","650c16f0f2faf8d7a0d14c09","651c0a5e1212768a2d5f5cc6","null","null","<p style=""font-size: 60px; font-family: BACS"">AdDbDbMR</p>","","","","","","","","",""
"html-keyboard-response","104","275921","0.0-10.0-0.15","6122966a93af160af481836c","650c16f0f2faf8d7a0d14c09","651c0a5e1212768a2d5f5cc6","null","null","<p style=""font-size: 60px; font-family: BACS"">aONdvUdm</p>","","","","","","","","",""
"html-keyboard-response","105","276927","0.0-10.0-0.16","6122966a93af160af481836c","650c16f0f2faf8d7a0d14c09","651c0a5e1212768a2d5f5cc6","null","null","<p style=""font-size: 60px; font-family: BACS"">TDKhPMd</p>","","","","","","","","",""
"html-keyboard-response","106","277933","0.0-10.0-0.17","6122966a93af160af481836c","650c16f0f2faf8d7a0d14c09","651c0a5e1212768a2d5f5cc6","null","null","<p style=""font-size: 60px; font-family: BACS"">DmAMEDbMR</p>","","","","","","","","",""
"html-keyboard-response","107","278934","0.0-10.0-0.18","6122966a93af160af481836c","650c16f0f2faf8d7a0d14c09","651c0a5e1212768a2d5f5cc6","null","null","<p style=""font-size: 60px; font-family: BACS"">uQuZcvAvb</p>","","","","","","","","",""
"html-keyboard-response","108","279950","0.0-10.0-0.19","6122966a93af160af481836c","650c16f0f2faf8d7a0d14c09","651c0a5e1212768a2d5f5cc6","null","null","<p style=""font-size: 60px; font-family: BACS"">CmcOPMd</p>","","","","","","","","",""
"html-keyboard-response","109","280965","0.0-10.0-0.20","6122966a93af160af481836c","650c16f0f2faf8d7a0d14c09","651c0a5e1212768a2d5f5cc6","null","null","<p style=""font-size: 60px; font-family: BACS"">TKDkDbMR</p>","","","","","","","","",""
"html-keyboard-response","110","281979","0.0-10.0-0.21","6122966a93af160af481836c","650c16f0f2faf8d7a0d14c09","651c0a5e1212768a2d5f5cc6","null","null","<p style=""font-size: 60px; font-family: BACS"">CDEmYMAB</p>","","","","","","","","",""
"html-keyboard-response","111","282991","0.0-10.0-0.22","6122966a93af160af481836c","650c16f0f2faf8d7a0d14c09","651c0a5e1212768a2d5f5cc6","null","null","<p style=""font-size: 60px; font-family: BACS"">NvYJuUmb</p>","","","","","","","","",""
"html-keyboard-response","112","284005","0.0-10.0-0.23","6122966a93af160af481836c","650c16f0f2faf8d7a0d14c09","651c0a5e1212768a2d5f5cc6","null","null","<p style=""font-size: 60px; font-family: BACS"">aYQmvUdm</p>","","","","","","","","",""
"html-keyboard-response","113","285017","0.0-10.0-0.24","6122966a93af160af481836c","650c16f0f2faf8d7a0d14c09","651c0a5e1212768a2d5f5cc6","null","null","<p style=""font-size: 60px; font-family: BACS"">ObZbAkdrO</p>","","","","","","","","",""
"html-keyboard-response","114","286033","0.0-10.0-0.25","6122966a93af160af481836c","650c16f0f2faf8d7a0d14c09","651c0a5e1212768a2d5f5cc6","null","null","<p style=""font-size: 60px; font-family: BACS"">aONduUmb</p>","","","","","","","","",""
"html-keyboard-response","115","287048","0.0-10.0-0.26","6122966a93af160af481836c","650c16f0f2faf8d7a0d14c09","651c0a5e1212768a2d5f5cc6","null","null","<p style=""font-size: 60px; font-family: BACS"">vblrZckv</p>","","","","","","","","",""
"html-keyboard-response","116","288049","0.0-10.0-0.27","6122966a93af160af481836c","650c16f0f2faf8d7a0d14c09","651c0a5e1212768a2d5f5cc6","null","null","<p style=""font-size: 60px; font-family: BACS"">TPCbMAB</p>","","","","","","","","",""
"html-keyboard-response","117","289062","0.0-10.0-0.28","6122966a93af160af481836c","650c16f0f2faf8d7a0d14c09","651c0a5e1212768a2d5f5cc6","null","null","<p style=""font-size: 60px; font-family: BACS"">PhktkBCD</p>","","","","","","","","",""
"html-keyboard-response","118","290063","0.0-10.0-0.29","6122966a93af160af481836c","650c16f0f2faf8d7a0d14c09","651c0a5e1212768a2d5f5cc6","null","null","<p style=""font-size: 60px; font-family: BACS"">JAdLmvAvb</p>","","","","","","","","",""
"html-keyboard-response","119","291078","0.0-10.0-0.30","6122966a93af160af481836c","650c16f0f2faf8d7a0d14c09","651c0a5e1212768a2d5f5cc6","null","null","<p style=""font-size: 60px; font-family: BACS"">PhktkPMd</p>","","","","","","","","",""
"html-keyboard-response","120","292079","0.0-10.0-0.31","6122966a93af160af481836c","650c16f0f2faf8d7a0d14c09","651c0a5e1212768a2d5f5cc6","null","null","<p style=""font-size: 60px; font-family: BACS"">aYQmvAvb</p>","","","","","","","","",""
"html-keyboard-response","121","293081","0.0-10.0-0.32","6122966a93af160af481836c","650c16f0f2faf8d7a0d14c09","651c0a5e1212768a2d5f5cc6","null","null","<p style=""font-size: 60px; font-family: BACS"">AdDbPMd</p>","","","","","","","","",""
"html-keyboard-response","122","294086","0.0-10.0-0.33","6122966a93af160af481836c","650c16f0f2faf8d7a0d14c09","651c0a5e1212768a2d5f5cc6","null","null","<p style=""font-size: 60px; font-family: BACS"">TKDkMAB</p>","","","","","","","","",""
"html-keyboard-response","123","295087","0.0-10.0-0.34","6122966a93af160af481836c","650c16f0f2faf8d7a0d14c09","651c0a5e1212768a2d5f5cc6","null","null","<p style=""font-size: 60px; font-family: BACS"">ObZbAuUmb</p>","","","","","","","","",""
"html-keyboard-response","124","296088","0.0-10.0-0.35","6122966a93af160af481836c","650c16f0f2faf8d7a0d14c09","651c0a5e1212768a2d5f5cc6","null","null","<p style=""font-size: 60px; font-family: BACS"">JAdLmZckv</p>","","","","","","","","",""
"html-keyboard-response","125","297091","0.0-10.0-0.36","6122966a93af160af481836c","650c16f0f2faf8d7a0d14c09","651c0a5e1212768a2d5f5cc6","null","null","<p style=""font-size: 60px; font-family: BACS"">RhPmBRDh</p>","","","","","","","","",""
"html-keyboard-response","126","298093","0.0-10.0-0.37","6122966a93af160af481836c","650c16f0f2faf8d7a0d14c09","651c0a5e1212768a2d5f5cc6","null","null","<p style=""font-size: 60px; font-family: BACS"">CDEmYPMd</p>","","","","","","","","",""
"html-keyboard-response","127","299098","0.0-10.0-0.38","6122966a93af160af481836c","650c16f0f2faf8d7a0d14c09","651c0a5e1212768a2d5f5cc6","null","null","<p style=""font-size: 60px; font-family: BACS"">JAdLmvUdm</p>","","","","","","","","",""
"html-keyboard-response","128","300113","0.0-10.0-0.39","6122966a93af160af481836c","650c16f0f2faf8d7a0d14c09","651c0a5e1212768a2d5f5cc6","null","null","<p style=""font-size: 60px; font-family: BACS"">aONdZckv</p>","","","","","","","","",""
"html-keyboard-response","129","301114","0.0-10.0-0.40","6122966a93af160af481836c","650c16f0f2faf8d7a0d14c09","651c0a5e1212768a2d5f5cc6","null","null","<p style=""font-size: 60px; font-family: BACS"">CmcOBCD</p>","","","","","","","","",""
"html-keyboard-response","130","302125","0.0-10.0-0.41","6122966a93af160af481836c","650c16f0f2faf8d7a0d14c09","651c0a5e1212768a2d5f5cc6","null","null","<p style=""font-size: 60px; font-family: BACS"">DmAMEMAB</p>","","","","","","","","",""
"html-keyboard-response","131","303131","0.0-10.0-0.42","6122966a93af160af481836c","650c16f0f2faf8d7a0d14c09","651c0a5e1212768a2d5f5cc6","null","null","<p style=""font-size: 60px; font-family: BACS"">TPCbDbMR</p>","","","","","","","","",""
"html-keyboard-response","132","304133","0.0-10.0-0.43","6122966a93af160af481836c","650c16f0f2faf8d7a0d14c09","651c0a5e1212768a2d5f5cc6","null","null","<p style=""font-size: 60px; font-family: BACS"">NAacQvUdm</p>","","","","","","","","",""
"html-keyboard-response","133","305135","0.0-10.0-0.44","6122966a93af160af481836c","650c16f0f2faf8d7a0d14c09","651c0a5e1212768a2d5f5cc6","null","null","<p style=""font-size: 60px; font-family: BACS"">uQuZcZckv</p>","","","","","","","","",""
"html-keyboard-response","134","306151","0.0-10.0-0.45","6122966a93af160af481836c","650c16f0f2faf8d7a0d14c09","651c0a5e1212768a2d5f5cc6","null","null","<p style=""font-size: 60px; font-family: BACS"">vblrvUdm</p>","","","","","","","","",""
"html-keyboard-response","135","307165","0.0-10.0-0.46","6122966a93af160af481836c","650c16f0f2faf8d7a0d14c09","651c0a5e1212768a2d5f5cc6","null","null","<p style=""font-size: 60px; font-family: BACS"">LckGNZckv</p>","","","","","","","","",""
"html-keyboard-response","136","308180","0.0-10.0-0.47","6122966a93af160af481836c","650c16f0f2faf8d7a0d14c09","651c0a5e1212768a2d5f5cc6","null","null","<p style=""font-size: 60px; font-family: BACS"">NvYJvAvb</p>","","","","","","","","",""
"html-keyboard-response","137","309194","0.0-10.0-0.48","6122966a93af160af481836c","650c16f0f2faf8d7a0d14c09","651c0a5e1212768a2d5f5cc6","null","null","<p style=""font-size: 60px; font-family: BACS"">dKDthBCD</p>","","","","","","","","",""
"html-keyboard-response","138","310204","0.0-10.0-0.49","6122966a93af160af481836c","650c16f0f2faf8d7a0d14c09","651c0a5e1212768a2d5f5cc6","null","null","<p style=""font-size: 60px; font-family: BACS"">AdDbBRDh</p>","","","","","","","","",""
"html-keyboard-response","139","311216","0.0-10.0-0.50","6122966a93af160af481836c","650c16f0f2faf8d7a0d14c09","651c0a5e1212768a2d5f5cc6","null","null","<p style=""font-size: 60px; font-family: BACS"">NvYJZckv</p>","","","","","","","","",""
"html-keyboard-response","140","312220","0.0-10.0-0.51","6122966a93af160af481836c","650c16f0f2faf8d7a0d14c09","651c0a5e1212768a2d5f5cc6","null","null","<p style=""font-size: 60px; font-family: BACS"">AdDbMAB</p>","","","","","","","","",""
"html-keyboard-response","141","313223","0.0-10.0-0.52","6122966a93af160af481836c","650c16f0f2faf8d7a0d14c09","651c0a5e1212768a2d5f5cc6","null","null","<p style=""font-size: 60px; font-family: BACS"">ObZbAZckv</p>","","","","","","","","",""
"html-keyboard-response","142","314238","0.0-10.0-0.53","6122966a93af160af481836c","650c16f0f2faf8d7a0d14c09","651c0a5e1212768a2d5f5cc6","null","null","<p style=""font-size: 60px; font-family: BACS"">TPCbBCD</p>","","","","","","","","",""
"html-keyboard-response","143","315241","0.0-10.0-0.54","6122966a93af160af481836c","650c16f0f2faf8d7a0d14c09","651c0a5e1212768a2d5f5cc6","null","null","<p style=""font-size: 60px; font-family: BACS"">RhPmDbMR</p>","","","","","","","","",""
"html-keyboard-response","144","316242","0.0-10.0-0.55","6122966a93af160af481836c","650c16f0f2faf8d7a0d14c09","651c0a5e1212768a2d5f5cc6","null","null","<p style=""font-size: 60px; font-family: BACS"">LckGNuUmb</p>","","","","","","","","",""
"html-keyboard-response","145","317245","0.0-10.0-0.56","6122966a93af160af481836c","650c16f0f2faf8d7a0d14c09","651c0a5e1212768a2d5f5cc6","null","null","<p style=""font-size: 60px; font-family: BACS"">uauOZckv</p>","","","","","","","","",""
"html-keyboard-response","146","318253","0.0-10.0-0.57","6122966a93af160af481836c","650c16f0f2faf8d7a0d14c09","651c0a5e1212768a2d5f5cc6","null","null","<p style=""font-size: 60px; font-family: BACS"">vblruUmb</p>","","","","","","","","",""
"html-keyboard-response","147","319257","0.0-10.0-0.58","6122966a93af160af481836c","650c16f0f2faf8d7a0d14c09","651c0a5e1212768a2d5f5cc6","null","null","<p style=""font-size: 60px; font-family: BACS"">DmAMEPMd</p>","","","","","","","","",""
"html-keyboard-response","148","320273","0.0-10.0-0.59","6122966a93af160af481836c","650c16f0f2faf8d7a0d14c09","651c0a5e1212768a2d5f5cc6","null","null","<p style=""font-size: 60px; font-family: BACS"">uQuZckdrO</p>","","","","","","","","",""
"html-keyboard-response","149","321274","0.0-10.0-0.60","6122966a93af160af481836c","650c16f0f2faf8d7a0d14c09","651c0a5e1212768a2d5f5cc6","null","null","<p style=""font-size: 60px; font-family: BACS"">TDKhBRDh</p>","","","","","","","","",""
"html-keyboard-response","150","322289","0.0-10.0-0.61","6122966a93af160af481836c","650c16f0f2faf8d7a0d14c09","651c0a5e1212768a2d5f5cc6","null","null","<p style=""font-size: 60px; font-family: BACS"">aYQmkdrO</p>","","","","","","","","",""
"html-keyboard-response","151","323290","0.0-10.0-0.62","6122966a93af160af481836c","650c16f0f2faf8d7a0d14c09","651c0a5e1212768a2d5f5cc6","null","null","<p style=""font-size: 60px; font-family: BACS"">TKDkBRDh</p>","","","","","","","","",""
"html-keyboard-response","152","324294","0.0-10.0-0.63","6122966a93af160af481836c","650c16f0f2faf8d7a0d14c09","651c0a5e1212768a2d5f5cc6","null","null","<p style=""font-size: 60px; font-family: BACS"">NAacQuUmb</p>","","","","","","","","",""
"html-keyboard-response","153","325297","0.0-10.0-0.64","6122966a93af160af481836c","650c16f0f2faf8d7a0d14c09","651c0a5e1212768a2d5f5cc6","null","null","<p style=""font-size: 60px; font-family: BACS"">aONdvAvb</p>","","","","","","","","",""
"html-keyboard-response","154","326300","0.0-10.0-0.65","6122966a93af160af481836c","650c16f0f2faf8d7a0d14c09","651c0a5e1212768a2d5f5cc6","null","null","<p style=""font-size: 60px; font-family: BACS"">TDKhDbMR</p>","","","","","","","","",""
"html-keyboard-response","155","327312","0.0-10.0-0.66","6122966a93af160af481836c","650c16f0f2faf8d7a0d14c09","651c0a5e1212768a2d5f5cc6","null","null","<p style=""font-size: 60px; font-family: BACS"">NvYJvUdm</p>","","","","","","","","",""
"html-keyboard-response","156","328313","0.0-10.0-0.67","6122966a93af160af481836c","650c16f0f2faf8d7a0d14c09","651c0a5e1212768a2d5f5cc6","null","null","<p style=""font-size: 60px; font-family: BACS"">RhPmMAB</p>","","","","","","","","",""
"html-keyboard-response","157","329329","0.0-10.0-0.68","6122966a93af160af481836c","650c16f0f2faf8d7a0d14c09","651c0a5e1212768a2d5f5cc6","null","null","<p style=""font-size: 60px; font-family: BACS"">aYQmuUmb</p>","","","","","","","","",""
"html-keyboard-response","158","330342","0.0-10.0-0.69","6122966a93af160af481836c","650c16f0f2faf8d7a0d14c09","651c0a5e1212768a2d5f5cc6","null","null","<p style=""font-size: 60px; font-family: BACS"">JAdLmkdrO</p>","","","","","","","","",""
"html-keyboard-response","159","331357","0.0-10.0-0.70","6122966a93af160af481836c","650c16f0f2faf8d7a0d14c09","651c0a5e1212768a2d5f5cc6","null","null","<p style=""font-size: 60px; font-family: BACS"">CmcOBRDh</p>","","","","","","","","",""
"html-keyboard-response","160","332373","0.0-10.0-0.71","6122966a93af160af481836c","650c16f0f2faf8d7a0d14c09","651c0a5e1212768a2d5f5cc6","null","null","<p style=""font-size: 60px; font-family: BACS"">ObZbAvUdm</p>","","","","","","","","",""
"html-keyboard-response","161","333388","0.0-10.0-0.72","6122966a93af160af481836c","650c16f0f2faf8d7a0d14c09","651c0a5e1212768a2d5f5cc6","null","null","<p style=""font-size: 60px; font-family: BACS"">RhPmPMd</p>","","","","","","","","",""
"html-keyboard-response","162","334405","0.0-10.0-0.73","6122966a93af160af481836c","650c16f0f2faf8d7a0d14c09","651c0a5e1212768a2d5f5cc6","null","null","<p style=""font-size: 60px; font-family: BACS"">uauOvUdm</p>","","","","","","","","",""
"html-keyboard-response","163","335420","0.0-10.0-0.74","6122966a93af160af481836c","650c16f0f2faf8d7a0d14c09","651c0a5e1212768a2d5f5cc6","null","null","<p style=""font-size: 60px; font-family: BACS"">CDEmYBCD</p>","","","","","","","","",""
"html-keyboard-response","164","336421","0.0-10.0-0.75","6122966a93af160af481836c","650c16f0f2faf8d7a0d14c09","651c0a5e1212768a2d5f5cc6","null","null","<p style=""font-size: 60px; font-family: BACS"">uauOkdrO</p>","","","","","","","","",""
"html-keyboard-response","165","337425","0.0-10.0-0.76","6122966a93af160af481836c","650c16f0f2faf8d7a0d14c09","651c0a5e1212768a2d5f5cc6","null","null","<p style=""font-size: 60px; font-family: BACS"">DmAMEBCD</p>","","","","","","","","",""
"html-keyboard-response","166","338441","0.0-10.0-0.77","6122966a93af160af481836c","650c16f0f2faf8d7a0d14c09","651c0a5e1212768a2d5f5cc6","null","null","<p style=""font-size: 60px; font-family: BACS"">dKDthBRDh</p>","","","","","","","","",""
"html-keyboard-response","167","339453","0.0-10.0-0.78","6122966a93af160af481836c","650c16f0f2faf8d7a0d14c09","651c0a5e1212768a2d5f5cc6","null","null","<p style=""font-size: 60px; font-family: BACS"">TKDkBCD</p>","","","","","","","","",""
"html-keyboard-response","168","340467","0.0-10.0-0.79","6122966a93af160af481836c","650c16f0f2faf8d7a0d14c09","651c0a5e1212768a2d5f5cc6","null","null","<p style=""font-size: 60px; font-family: BACS"">dKDthDbMR</p>","","","","","","","","",""
"html-keyboard-response","169","515842","0.0-11.0","6122966a93af160af481836c","650c16f0f2faf8d7a0d14c09","651c0a5e1212768a2d5f5cc6","175374"," ","<p>Great, you've seen the second block of words. You may now take a short break.</p>
      <p>Press the spacebar when you're ready to continue.</p>","","","","","","","","",""
"html-keyboard-response","170","516847","0.0-12.0-0.0","6122966a93af160af481836c","650c16f0f2faf8d7a0d14c09","651c0a5e1212768a2d5f5cc6","null","null","<p style=""font-size: 60px; font-family: BACS"">AdDbMAB</p>","","","","","","","","",""
"html-keyboard-response","171","517852","0.0-12.0-0.1","6122966a93af160af481836c","650c16f0f2faf8d7a0d14c09","651c0a5e1212768a2d5f5cc6","null","null","<p style=""font-size: 60px; font-family: BACS"">TKDkBCD</p>","","","","","","","","",""
"html-keyboard-response","172","518855","0.0-12.0-0.2","6122966a93af160af481836c","650c16f0f2faf8d7a0d14c09","651c0a5e1212768a2d5f5cc6","null","null","<p style=""font-size: 60px; font-family: BACS"">CmcOBRDh</p>","","","","","","","","",""
"html-keyboard-response","173","519857","0.0-12.0-0.3","6122966a93af160af481836c","650c16f0f2faf8d7a0d14c09","651c0a5e1212768a2d5f5cc6","null","null","<p style=""font-size: 60px; font-family: BACS"">ObZbAuUmb</p>","","","","","","","","",""
"html-keyboard-response","174","520862","0.0-12.0-0.4","6122966a93af160af481836c","650c16f0f2faf8d7a0d14c09","651c0a5e1212768a2d5f5cc6","null","null","<p style=""font-size: 60px; font-family: BACS"">TPCbPMd</p>","","","","","","","","",""
"html-keyboard-response","175","521865","0.0-12.0-0.5","6122966a93af160af481836c","650c16f0f2faf8d7a0d14c09","651c0a5e1212768a2d5f5cc6","null","null","<p style=""font-size: 60px; font-family: BACS"">aYQmvAvb</p>","","","","","","","","",""
"html-keyboard-response","176","522867","0.0-12.0-0.6","6122966a93af160af481836c","650c16f0f2faf8d7a0d14c09","651c0a5e1212768a2d5f5cc6","null","null","<p style=""font-size: 60px; font-family: BACS"">NAacQkdrO</p>","","","","","","","","",""
"html-keyboard-response","177","523875","0.0-12.0-0.7","6122966a93af160af481836c","650c16f0f2faf8d7a0d14c09","651c0a5e1212768a2d5f5cc6","null","null","<p style=""font-size: 60px; font-family: BACS"">dKDthMAB</p>","","","","","","","","",""
"html-keyboard-response","178","524885","0.0-12.0-0.8","6122966a93af160af481836c","650c16f0f2faf8d7a0d14c09","651c0a5e1212768a2d5f5cc6","null","null","<p style=""font-size: 60px; font-family: BACS"">uQuZcvAvb</p>","","","","","","","","",""
"html-keyboard-response","179","525888","0.0-12.0-0.9","6122966a93af160af481836c","650c16f0f2faf8d7a0d14c09","651c0a5e1212768a2d5f5cc6","null","null","<p style=""font-size: 60px; font-family: BACS"">ObZbAkdrO</p>","","","","","","","","",""
"html-keyboard-response","180","526902","0.0-12.0-0.10","6122966a93af160af481836c","650c16f0f2faf8d7a0d14c09","651c0a5e1212768a2d5f5cc6","null","null","<p style=""font-size: 60px; font-family: BACS"">AdDbBRDh</p>","","","","","","","","",""
"html-keyboard-response","181","527905","0.0-12.0-0.11","6122966a93af160af481836c","650c16f0f2faf8d7a0d14c09","651c0a5e1212768a2d5f5cc6","null","null","<p style=""font-size: 60px; font-family: BACS"">vblrZckv</p>","","","","","","","","",""
"html-keyboard-response","182","528916","0.0-12.0-0.12","6122966a93af160af481836c","650c16f0f2faf8d7a0d14c09","651c0a5e1212768a2d5f5cc6","null","null","<p style=""font-size: 60px; font-family: BACS"">PhktkBRDh</p>","","","","","","","","",""
"html-keyboard-response","183","529925","0.0-12.0-0.13","6122966a93af160af481836c","650c16f0f2faf8d7a0d14c09","651c0a5e1212768a2d5f5cc6","null","null","<p style=""font-size: 60px; font-family: BACS"">CmcOPMd</p>","","","","","","","","",""
"html-keyboard-response","184","530928","0.0-12.0-0.14","6122966a93af160af481836c","650c16f0f2faf8d7a0d14c09","651c0a5e1212768a2d5f5cc6","null","null","<p style=""font-size: 60px; font-family: BACS"">JAdLmvAvb</p>","","","","","","","","",""
"html-keyboard-response","185","531930","0.0-12.0-0.15","6122966a93af160af481836c","650c16f0f2faf8d7a0d14c09","651c0a5e1212768a2d5f5cc6","null","null","<p style=""font-size: 60px; font-family: BACS"">uauOvUdm</p>","","","","","","","","",""
"html-keyboard-response","186","532945","0.0-12.0-0.16","6122966a93af160af481836c","650c16f0f2faf8d7a0d14c09","651c0a5e1212768a2d5f5cc6","null","null","<p style=""font-size: 60px; font-family: BACS"">vblruUmb</p>","","","","","","","","",""
"html-keyboard-response","187","533960","0.0-12.0-0.17","6122966a93af160af481836c","650c16f0f2faf8d7a0d14c09","651c0a5e1212768a2d5f5cc6","null","null","<p style=""font-size: 60px; font-family: BACS"">AdDbDbMR</p>","","","","","","","","",""
"html-keyboard-response","188","534975","0.0-12.0-0.18","6122966a93af160af481836c","650c16f0f2faf8d7a0d14c09","651c0a5e1212768a2d5f5cc6","null","null","<p style=""font-size: 60px; font-family: BACS"">CDEmYBRDh</p>","","","","","","","","",""
"html-keyboard-response","189","535976","0.0-12.0-0.19","6122966a93af160af481836c","650c16f0f2faf8d7a0d14c09","651c0a5e1212768a2d5f5cc6","null","null","<p style=""font-size: 60px; font-family: BACS"">CmcOBCD</p>","","","","","","","","",""
"html-keyboard-response","190","536986","0.0-12.0-0.20","6122966a93af160af481836c","650c16f0f2faf8d7a0d14c09","651c0a5e1212768a2d5f5cc6","null","null","<p style=""font-size: 60px; font-family: BACS"">DmAMEDbMR</p>","","","","","","","","",""
"html-keyboard-response","191","538000","0.0-12.0-0.21","6122966a93af160af481836c","650c16f0f2faf8d7a0d14c09","651c0a5e1212768a2d5f5cc6","null","null","<p style=""font-size: 60px; font-family: BACS"">NAacQvUdm</p>","","","","","","","","",""
"html-keyboard-response","192","539013","0.0-12.0-0.22","6122966a93af160af481836c","650c16f0f2faf8d7a0d14c09","651c0a5e1212768a2d5f5cc6","null","null","<p style=""font-size: 60px; font-family: BACS"">aONdZckv</p>","","","","","","","","",""
"html-keyboard-response","193","540018","0.0-12.0-0.23","6122966a93af160af481836c","650c16f0f2faf8d7a0d14c09","651c0a5e1212768a2d5f5cc6","null","null","<p style=""font-size: 60px; font-family: BACS"">LckGNkdrO</p>","","","","","","","","",""
"html-keyboard-response","194","541029","0.0-12.0-0.24","6122966a93af160af481836c","650c16f0f2faf8d7a0d14c09","651c0a5e1212768a2d5f5cc6","null","null","<p style=""font-size: 60px; font-family: BACS"">uauOvAvb</p>","","","","","","","","",""
"html-keyboard-response","195","542038","0.0-12.0-0.25","6122966a93af160af481836c","650c16f0f2faf8d7a0d14c09","651c0a5e1212768a2d5f5cc6","null","null","<p style=""font-size: 60px; font-family: BACS"">JAdLmZckv</p>","","","","","","","","",""
"html-keyboard-response","196","543041","0.0-12.0-0.26","6122966a93af160af481836c","650c16f0f2faf8d7a0d14c09","651c0a5e1212768a2d5f5cc6","null","null","<p style=""font-size: 60px; font-family: BACS"">TDKhBCD</p>","","","","","","","","",""
"html-keyboard-response","197","544054","0.0-12.0-0.27","6122966a93af160af481836c","650c16f0f2faf8d7a0d14c09","651c0a5e1212768a2d5f5cc6","null","null","<p style=""font-size: 60px; font-family: BACS"">NvYJvAvb</p>","","","","","","","","",""
"html-keyboard-response","198","545069","0.0-12.0-0.28","6122966a93af160af481836c","650c16f0f2faf8d7a0d14c09","651c0a5e1212768a2d5f5cc6","null","null","<p style=""font-size: 60px; font-family: BACS"">TDKhDbMR</p>","","","","","","","","",""
"html-keyboard-response","199","546085","0.0-12.0-0.29","6122966a93af160af481836c","650c16f0f2faf8d7a0d14c09","651c0a5e1212768a2d5f5cc6","null","null","<p style=""font-size: 60px; font-family: BACS"">TPCbBCD</p>","","","","","","","","",""
"html-keyboard-response","200","547100","0.0-12.0-0.30","6122966a93af160af481836c","650c16f0f2faf8d7a0d14c09","651c0a5e1212768a2d5f5cc6","null","null","<p style=""font-size: 60px; font-family: BACS"">TDKhPMd</p>","","","","","","","","",""
"html-keyboard-response","201","548111","0.0-12.0-0.31","6122966a93af160af481836c","650c16f0f2faf8d7a0d14c09","651c0a5e1212768a2d5f5cc6","null","null","<p style=""font-size: 60px; font-family: BACS"">JAdLmvUdm</p>","","","","","","","","",""
"html-keyboard-response","202","549125","0.0-12.0-0.32","6122966a93af160af481836c","650c16f0f2faf8d7a0d14c09","651c0a5e1212768a2d5f5cc6","null","null","<p style=""font-size: 60px; font-family: BACS"">CDEmYBCD</p>","","","","","","","","",""
"html-keyboard-response","203","550130","0.0-12.0-0.33","6122966a93af160af481836c","650c16f0f2faf8d7a0d14c09","651c0a5e1212768a2d5f5cc6","null","null","<p style=""font-size: 60px; font-family: BACS"">NvYJvUdm</p>","","","","","","","","",""
"html-keyboard-response","204","551134","0.0-12.0-0.34","6122966a93af160af481836c","650c16f0f2faf8d7a0d14c09","651c0a5e1212768a2d5f5cc6","null","null","<p style=""font-size: 60px; font-family: BACS"">JAdLmkdrO</p>","","","","","","","","",""
"html-keyboard-response","205","552141","0.0-12.0-0.35","6122966a93af160af481836c","650c16f0f2faf8d7a0d14c09","651c0a5e1212768a2d5f5cc6","null","null","<p style=""font-size: 60px; font-family: BACS"">LckGNZckv</p>","","","","","","","","",""
"html-keyboard-response","206","553150","0.0-12.0-0.36","6122966a93af160af481836c","650c16f0f2faf8d7a0d14c09","651c0a5e1212768a2d5f5cc6","null","null","<p style=""font-size: 60px; font-family: BACS"">dKDthDbMR</p>","","","","","","","","",""
"html-keyboard-response","207","554163","0.0-12.0-0.37","6122966a93af160af481836c","650c16f0f2faf8d7a0d14c09","651c0a5e1212768a2d5f5cc6","null","null","<p style=""font-size: 60px; font-family: BACS"">TKDkBRDh</p>","","","","","","","","",""
"html-keyboard-response","208","555170","0.0-12.0-0.38","6122966a93af160af481836c","650c16f0f2faf8d7a0d14c09","651c0a5e1212768a2d5f5cc6","null","null","<p style=""font-size: 60px; font-family: BACS"">uQuZcZckv</p>","","","","","","","","",""
"html-keyboard-response","209","556175","0.0-12.0-0.39","6122966a93af160af481836c","650c16f0f2faf8d7a0d14c09","651c0a5e1212768a2d5f5cc6","null","null","<p style=""font-size: 60px; font-family: BACS"">TPCbMAB</p>","","","","","","","","",""
"html-keyboard-response","210","557178","0.0-12.0-0.40","6122966a93af160af481836c","650c16f0f2faf8d7a0d14c09","651c0a5e1212768a2d5f5cc6","null","null","<p style=""font-size: 60px; font-family: BACS"">NvYJZckv</p>","","","","","","","","",""
"html-keyboard-response","211","558184","0.0-12.0-0.41","6122966a93af160af481836c","650c16f0f2faf8d7a0d14c09","651c0a5e1212768a2d5f5cc6","null","null","<p style=""font-size: 60px; font-family: BACS"">DmAMEPMd</p>","","","","","","","","",""
"html-keyboard-response","212","559194","0.0-12.0-0.42","6122966a93af160af481836c","650c16f0f2faf8d7a0d14c09","651c0a5e1212768a2d5f5cc6","null","null","<p style=""font-size: 60px; font-family: BACS"">aYQmkdrO</p>","","","","","","","","",""
"html-keyboard-response","213","560200","0.0-12.0-0.43","6122966a93af160af481836c","650c16f0f2faf8d7a0d14c09","651c0a5e1212768a2d5f5cc6","null","null","<p style=""font-size: 60px; font-family: BACS"">RhPmPMd</p>","","","","","","","","",""
"html-keyboard-response","214","561202","0.0-12.0-0.44","6122966a93af160af481836c","650c16f0f2faf8d7a0d14c09","651c0a5e1212768a2d5f5cc6","null","null","<p style=""font-size: 60px; font-family: BACS"">aONdvUdm</p>","","","","","","","","",""
"html-keyboard-response","215","562217","0.0-12.0-0.45","6122966a93af160af481836c","650c16f0f2faf8d7a0d14c09","651c0a5e1212768a2d5f5cc6","null","null","<p style=""font-size: 60px; font-family: BACS"">LckGNuUmb</p>","","","","","","","","",""
"html-keyboard-response","216","563219","0.0-12.0-0.46","6122966a93af160af481836c","650c16f0f2faf8d7a0d14c09","651c0a5e1212768a2d5f5cc6","null","null","<p style=""font-size: 60px; font-family: BACS"">NAacQvAvb</p>","","","","","","","","",""
"html-keyboard-response","217","564220","0.0-12.0-0.47","6122966a93af160af481836c","650c16f0f2faf8d7a0d14c09","651c0a5e1212768a2d5f5cc6","null","null","<p style=""font-size: 60px; font-family: BACS"">AdDbPMd</p>","","","","","","","","",""
"html-keyboard-response","218","565222","0.0-12.0-0.48","6122966a93af160af481836c","650c16f0f2faf8d7a0d14c09","651c0a5e1212768a2d5f5cc6","null","null","<p style=""font-size: 60px; font-family: BACS"">aYQmuUmb</p>","","","","","","","","",""
"html-keyboard-response","219","566237","0.0-12.0-0.49","6122966a93af160af481836c","650c16f0f2faf8d7a0d14c09","651c0a5e1212768a2d5f5cc6","null","null","<p style=""font-size: 60px; font-family: BACS"">LckGNvAvb</p>","","","","","","","","",""
"html-keyboard-response","220","567250","0.0-12.0-0.50","6122966a93af160af481836c","650c16f0f2faf8d7a0d14c09","651c0a5e1212768a2d5f5cc6","null","null","<p style=""font-size: 60px; font-family: BACS"">ObZbAZckv</p>","","","","","","","","",""
"html-keyboard-response","221","568261","0.0-12.0-0.51","6122966a93af160af481836c","650c16f0f2faf8d7a0d14c09","651c0a5e1212768a2d5f5cc6","null","null","<p style=""font-size: 60px; font-family: BACS"">CDEmYMAB</p>","","","","","","","","",""
"html-keyboard-response","222","569264","0.0-12.0-0.52","6122966a93af160af481836c","650c16f0f2faf8d7a0d14c09","651c0a5e1212768a2d5f5cc6","null","null","<p style=""font-size: 60px; font-family: BACS"">NAacQuUmb</p>","","","","","","","","",""
"html-keyboard-response","223","570280","0.0-12.0-0.53","6122966a93af160af481836c","650c16f0f2faf8d7a0d14c09","651c0a5e1212768a2d5f5cc6","null","null","<p style=""font-size: 60px; font-family: BACS"">TKDkMAB</p>","","","","","","","","",""
"html-keyboard-response","224","571295","0.0-12.0-0.54","6122966a93af160af481836c","650c16f0f2faf8d7a0d14c09","651c0a5e1212768a2d5f5cc6","null","null","<p style=""font-size: 60px; font-family: BACS"">TDKhBRDh</p>","","","","","","","","",""
"html-keyboard-response","225","572299","0.0-12.0-0.55","6122966a93af160af481836c","650c16f0f2faf8d7a0d14c09","651c0a5e1212768a2d5f5cc6","null","null","<p style=""font-size: 60px; font-family: BACS"">aONdvAvb</p>","","","","","","","","",""
"html-keyboard-response","226","573302","0.0-12.0-0.56","6122966a93af160af481836c","650c16f0f2faf8d7a0d14c09","651c0a5e1212768a2d5f5cc6","null","null","<p style=""font-size: 60px; font-family: BACS"">RhPmBRDh</p>","","","","","","","","",""
"html-keyboard-response","227","574316","0.0-12.0-0.57","6122966a93af160af481836c","650c16f0f2faf8d7a0d14c09","651c0a5e1212768a2d5f5cc6","null","null","<p style=""font-size: 60px; font-family: BACS"">PhktkBCD</p>","","","","","","","","",""
"html-keyboard-response","228","575328","0.0-12.0-0.58","6122966a93af160af481836c","650c16f0f2faf8d7a0d14c09","651c0a5e1212768a2d5f5cc6","null","null","<p style=""font-size: 60px; font-family: BACS"">CmcOMAB</p>","","","","","","","","",""
"html-keyboard-response","229","576343","0.0-12.0-0.59","6122966a93af160af481836c","650c16f0f2faf8d7a0d14c09","651c0a5e1212768a2d5f5cc6","null","null","<p style=""font-size: 60px; font-family: BACS"">vblrkdrO</p>","","","","","","","","",""
"html-keyboard-response","230","577347","0.0-12.0-0.60","6122966a93af160af481836c","650c16f0f2faf8d7a0d14c09","651c0a5e1212768a2d5f5cc6","null","null","<p style=""font-size: 60px; font-family: BACS"">RhPmMAB</p>","","","","","","","","",""
"html-keyboard-response","231","578350","0.0-12.0-0.61","6122966a93af160af481836c","650c16f0f2faf8d7a0d14c09","651c0a5e1212768a2d5f5cc6","null","null","<p style=""font-size: 60px; font-family: BACS"">dKDthBRDh</p>","","","","","","","","",""
"html-keyboard-response","232","579353","0.0-12.0-0.62","6122966a93af160af481836c","650c16f0f2faf8d7a0d14c09","651c0a5e1212768a2d5f5cc6","null","null","<p style=""font-size: 60px; font-family: BACS"">NvYJuUmb</p>","","","","","","","","",""
"html-keyboard-response","233","580368","0.0-12.0-0.63","6122966a93af160af481836c","650c16f0f2faf8d7a0d14c09","651c0a5e1212768a2d5f5cc6","null","null","<p style=""font-size: 60px; font-family: BACS"">ObZbAvUdm</p>","","","","","","","","",""
"html-keyboard-response","234","581373","0.0-12.0-0.64","6122966a93af160af481836c","650c16f0f2faf8d7a0d14c09","651c0a5e1212768a2d5f5cc6","null","null","<p style=""font-size: 60px; font-family: BACS"">uQuZcuUmb</p>","","","","","","","","",""
"html-keyboard-response","235","582376","0.0-12.0-0.65","6122966a93af160af481836c","650c16f0f2faf8d7a0d14c09","651c0a5e1212768a2d5f5cc6","null","null","<p style=""font-size: 60px; font-family: BACS"">CDEmYPMd</p>","","","","","","","","",""
"html-keyboard-response","236","583391","0.0-12.0-0.66","6122966a93af160af481836c","650c16f0f2faf8d7a0d14c09","651c0a5e1212768a2d5f5cc6","null","null","<p style=""font-size: 60px; font-family: BACS"">uauOkdrO</p>","","","","","","","","",""
"html-keyboard-response","237","584392","0.0-12.0-0.67","6122966a93af160af481836c","650c16f0f2faf8d7a0d14c09","651c0a5e1212768a2d5f5cc6","null","null","<p style=""font-size: 60px; font-family: BACS"">TKDkDbMR</p>","","","","","","","","",""
"html-keyboard-response","238","585406","0.0-12.0-0.68","6122966a93af160af481836c","650c16f0f2faf8d7a0d14c09","651c0a5e1212768a2d5f5cc6","null","null","<p style=""font-size: 60px; font-family: BACS"">aYQmvUdm</p>","","","","","","","","",""
"html-keyboard-response","239","586415","0.0-12.0-0.69","6122966a93af160af481836c","650c16f0f2faf8d7a0d14c09","651c0a5e1212768a2d5f5cc6","null","null","<p style=""font-size: 60px; font-family: BACS"">aONduUmb</p>","","","","","","","","",""
"html-keyboard-response","240","587431","0.0-12.0-0.70","6122966a93af160af481836c","650c16f0f2faf8d7a0d14c09","651c0a5e1212768a2d5f5cc6","null","null","<p style=""font-size: 60px; font-family: BACS"">DmAMEMAB</p>","","","","","","","","",""
"html-keyboard-response","241","588445","0.0-12.0-0.71","6122966a93af160af481836c","650c16f0f2faf8d7a0d14c09","651c0a5e1212768a2d5f5cc6","null","null","<p style=""font-size: 60px; font-family: BACS"">uauOZckv</p>","","","","","","","","",""
"html-keyboard-response","242","589461","0.0-12.0-0.72","6122966a93af160af481836c","650c16f0f2faf8d7a0d14c09","651c0a5e1212768a2d5f5cc6","null","null","<p style=""font-size: 60px; font-family: BACS"">PhktkPMd</p>","","","","","","","","",""
"html-keyboard-response","243","590462","0.0-12.0-0.73","6122966a93af160af481836c","650c16f0f2faf8d7a0d14c09","651c0a5e1212768a2d5f5cc6","null","null","<p style=""font-size: 60px; font-family: BACS"">vblrvUdm</p>","","","","","","","","",""
"html-keyboard-response","244","591478","0.0-12.0-0.74","6122966a93af160af481836c","650c16f0f2faf8d7a0d14c09","651c0a5e1212768a2d5f5cc6","null","null","<p style=""font-size: 60px; font-family: BACS"">TPCbDbMR</p>","","","","","","","","",""
"html-keyboard-response","245","592485","0.0-12.0-0.75","6122966a93af160af481836c","650c16f0f2faf8d7a0d14c09","651c0a5e1212768a2d5f5cc6","null","null","<p style=""font-size: 60px; font-family: BACS"">DmAMEBCD</p>","","","","","","","","",""
"html-keyboard-response","246","593493","0.0-12.0-0.76","6122966a93af160af481836c","650c16f0f2faf8d7a0d14c09","651c0a5e1212768a2d5f5cc6","null","null","<p style=""font-size: 60px; font-family: BACS"">RhPmDbMR</p>","","","","","","","","",""
"html-keyboard-response","247","594494","0.0-12.0-0.77","6122966a93af160af481836c","650c16f0f2faf8d7a0d14c09","651c0a5e1212768a2d5f5cc6","null","null","<p style=""font-size: 60px; font-family: BACS"">uQuZckdrO</p>","","","","","","","","",""
"html-keyboard-response","248","595496","0.0-12.0-0.78","6122966a93af160af481836c","650c16f0f2faf8d7a0d14c09","651c0a5e1212768a2d5f5cc6","null","null","<p style=""font-size: 60px; font-family: BACS"">dKDthBCD</p>","","","","","","","","",""
"html-keyboard-response","249","596500","0.0-12.0-0.79","6122966a93af160af481836c","650c16f0f2faf8d7a0d14c09","651c0a5e1212768a2d5f5cc6","null","null","<p style=""font-size: 60px; font-family: BACS"">PhktkDbMR</p>","","","","","","","","",""
"html-keyboard-response","250","648463","0.0-13.0","6122966a93af160af481836c","650c16f0f2faf8d7a0d14c09","651c0a5e1212768a2d5f5cc6","51963"," ","<p>Great, you've seen the third block of words. You may now take a short break.</p>
      <p>Press the spacebar when you're ready to continue.</p>","","","","","","","","",""
"html-keyboard-response","251","649464","0.0-14.0-0.0","6122966a93af160af481836c","650c16f0f2faf8d7a0d14c09","651c0a5e1212768a2d5f5cc6","null","null","<p style=""font-size: 60px; font-family: BACS"">TKDkBCD</p>","","","","","","","","",""
"html-keyboard-response","252","650469","0.0-14.0-0.1","6122966a93af160af481836c","650c16f0f2faf8d7a0d14c09","651c0a5e1212768a2d5f5cc6","null","null","<p style=""font-size: 60px; font-family: BACS"">CmcOMAB</p>","","","","","","","","",""
"html-keyboard-response","253","651474","0.0-14.0-0.2","6122966a93af160af481836c","650c16f0f2faf8d7a0d14c09","651c0a5e1212768a2d5f5cc6","null","null","<p style=""font-size: 60px; font-family: BACS"">CDEmYBCD</p>","","","","","","","","",""
"html-keyboard-response","254","652485","0.0-14.0-0.3","6122966a93af160af481836c","650c16f0f2faf8d7a0d14c09","651c0a5e1212768a2d5f5cc6","null","null","<p style=""font-size: 60px; font-family: BACS"">ObZbAuUmb</p>","","","","","","","","",""
"html-keyboard-response","255","653489","0.0-14.0-0.4","6122966a93af160af481836c","650c16f0f2faf8d7a0d14c09","651c0a5e1212768a2d5f5cc6","null","null","<p style=""font-size: 60px; font-family: BACS"">TDKhBRDh</p>","","","","","","","","",""
"html-keyboard-response","256","654505","0.0-14.0-0.5","6122966a93af160af481836c","650c16f0f2faf8d7a0d14c09","651c0a5e1212768a2d5f5cc6","null","null","<p style=""font-size: 60px; font-family: BACS"">TKDkMAB</p>","","","","","","","","",""
"html-keyboard-response","257","655517","0.0-14.0-0.6","6122966a93af160af481836c","650c16f0f2faf8d7a0d14c09","651c0a5e1212768a2d5f5cc6","null","null","<p style=""font-size: 60px; font-family: BACS"">aYQmvAvb</p>","","","","","","","","",""
"html-keyboard-response","258","656520","0.0-14.0-0.7","6122966a93af160af481836c","650c16f0f2faf8d7a0d14c09","651c0a5e1212768a2d5f5cc6","null","null","<p style=""font-size: 60px; font-family: BACS"">TPCbDbMR</p>","","","","","","","","",""
"html-keyboard-response","259","657534","0.0-14.0-0.8","6122966a93af160af481836c","650c16f0f2faf8d7a0d14c09","651c0a5e1212768a2d5f5cc6","null","null","<p style=""font-size: 60px; font-family: BACS"">DmAMEBCD</p>","","","","","","","","",""
"html-keyboard-response","260","658548","0.0-14.0-0.9","6122966a93af160af481836c","650c16f0f2faf8d7a0d14c09","651c0a5e1212768a2d5f5cc6","null","null","<p style=""font-size: 60px; font-family: BACS"">JAdLmkdrO</p>","","","","","","","","",""
"html-keyboard-response","261","659564","0.0-14.0-0.10","6122966a93af160af481836c","650c16f0f2faf8d7a0d14c09","651c0a5e1212768a2d5f5cc6","null","null","<p style=""font-size: 60px; font-family: BACS"">PhktkDbMR</p>","","","","","","","","",""
"html-keyboard-response","262","660578","0.0-14.0-0.11","6122966a93af160af481836c","650c16f0f2faf8d7a0d14c09","651c0a5e1212768a2d5f5cc6","null","null","<p style=""font-size: 60px; font-family: BACS"">uQuZcvAvb</p>","","","","","","","","",""
"html-keyboard-response","263","661583","0.0-14.0-0.12","6122966a93af160af481836c","650c16f0f2faf8d7a0d14c09","651c0a5e1212768a2d5f5cc6","null","null","<p style=""font-size: 60px; font-family: BACS"">AdDbBRDh</p>","","","","","","","","",""
"html-keyboard-response","264","662586","0.0-14.0-0.13","6122966a93af160af481836c","650c16f0f2faf8d7a0d14c09","651c0a5e1212768a2d5f5cc6","null","null","<p style=""font-size: 60px; font-family: BACS"">PhktkPMd</p>","","","","","","","","",""
"html-keyboard-response","265","663602","0.0-14.0-0.14","6122966a93af160af481836c","650c16f0f2faf8d7a0d14c09","651c0a5e1212768a2d5f5cc6","null","null","<p style=""font-size: 60px; font-family: BACS"">CDEmYMAB</p>","","","","","","","","",""
"html-keyboard-response","266","664604","0.0-14.0-0.15","6122966a93af160af481836c","650c16f0f2faf8d7a0d14c09","651c0a5e1212768a2d5f5cc6","null","null","<p style=""font-size: 60px; font-family: BACS"">LckGNkdrO</p>","","","","","","","","",""
"html-keyboard-response","267","665609","0.0-14.0-0.16","6122966a93af160af481836c","650c16f0f2faf8d7a0d14c09","651c0a5e1212768a2d5f5cc6","null","null","<p style=""font-size: 60px; font-family: BACS"">vblruUmb</p>","","","","","","","","",""
"html-keyboard-response","268","666624","0.0-14.0-0.17","6122966a93af160af481836c","650c16f0f2faf8d7a0d14c09","651c0a5e1212768a2d5f5cc6","null","null","<p style=""font-size: 60px; font-family: BACS"">TDKhDbMR</p>","","","","","","","","",""
"html-keyboard-response","269","667639","0.0-14.0-0.18","6122966a93af160af481836c","650c16f0f2faf8d7a0d14c09","651c0a5e1212768a2d5f5cc6","null","null","<p style=""font-size: 60px; font-family: BACS"">aONduUmb</p>","","","","","","","","",""
"html-keyboard-response","270","668652","0.0-14.0-0.19","6122966a93af160af481836c","650c16f0f2faf8d7a0d14c09","651c0a5e1212768a2d5f5cc6","null","null","<p style=""font-size: 60px; font-family: BACS"">TPCbBCD</p>","","","","","","","","",""
"html-keyboard-response","271","669654","0.0-14.0-0.20","6122966a93af160af481836c","650c16f0f2faf8d7a0d14c09","651c0a5e1212768a2d5f5cc6","null","null","<p style=""font-size: 60px; font-family: BACS"">LckGNvAvb</p>","","","","","","","","",""
"html-keyboard-response","272","670668","0.0-14.0-0.21","6122966a93af160af481836c","650c16f0f2faf8d7a0d14c09","651c0a5e1212768a2d5f5cc6","null","null","<p style=""font-size: 60px; font-family: BACS"">vblrkdrO</p>","","","","","","","","",""
"html-keyboard-response","273","671682","0.0-14.0-0.22","6122966a93af160af481836c","650c16f0f2faf8d7a0d14c09","651c0a5e1212768a2d5f5cc6","null","null","<p style=""font-size: 60px; font-family: BACS"">dKDthMAB</p>","","","","","","","","",""
"html-keyboard-response","274","672686","0.0-14.0-0.23","6122966a93af160af481836c","650c16f0f2faf8d7a0d14c09","651c0a5e1212768a2d5f5cc6","null","null","<p style=""font-size: 60px; font-family: BACS"">TKDkDbMR</p>","","","","","","","","",""
"html-keyboard-response","275","673687","0.0-14.0-0.24","6122966a93af160af481836c","650c16f0f2faf8d7a0d14c09","651c0a5e1212768a2d5f5cc6","null","null","<p style=""font-size: 60px; font-family: BACS"">PhktkBRDh</p>","","","","","","","","",""
"html-keyboard-response","276","674689","0.0-14.0-0.25","6122966a93af160af481836c","650c16f0f2faf8d7a0d14c09","651c0a5e1212768a2d5f5cc6","null","null","<p style=""font-size: 60px; font-family: BACS"">uauOkdrO</p>","","","","","","","","",""
"html-keyboard-response","277","675702","0.0-14.0-0.26","6122966a93af160af481836c","650c16f0f2faf8d7a0d14c09","651c0a5e1212768a2d5f5cc6","null","null","<p style=""font-size: 60px; font-family: BACS"">TDKhBCD</p>","","","","","","","","",""
"html-keyboard-response","278","676718","0.0-14.0-0.27","6122966a93af160af481836c","650c16f0f2faf8d7a0d14c09","651c0a5e1212768a2d5f5cc6","null","null","<p style=""font-size: 60px; font-family: BACS"">LckGNuUmb</p>","","","","","","","","",""
"html-keyboard-response","279","677719","0.0-14.0-0.28","6122966a93af160af481836c","650c16f0f2faf8d7a0d14c09","651c0a5e1212768a2d5f5cc6","null","null","<p style=""font-size: 60px; font-family: BACS"">CDEmYPMd</p>","","","","","","","","",""
"html-keyboard-response","280","678722","0.0-14.0-0.29","6122966a93af160af481836c","650c16f0f2faf8d7a0d14c09","651c0a5e1212768a2d5f5cc6","null","null","<p style=""font-size: 60px; font-family: BACS"">dKDthBRDh</p>","","","","","","","","",""
"html-keyboard-response","281","679737","0.0-14.0-0.30","6122966a93af160af481836c","650c16f0f2faf8d7a0d14c09","651c0a5e1212768a2d5f5cc6","null","null","<p style=""font-size: 60px; font-family: BACS"">uauOvAvb</p>","","","","","","","","",""
"html-keyboard-response","282","680740","0.0-14.0-0.31","6122966a93af160af481836c","650c16f0f2faf8d7a0d14c09","651c0a5e1212768a2d5f5cc6","null","null","<p style=""font-size: 60px; font-family: BACS"">DmAMEMAB</p>","","","","","","","","",""
"html-keyboard-response","283","681753","0.0-14.0-0.32","6122966a93af160af481836c","650c16f0f2faf8d7a0d14c09","651c0a5e1212768a2d5f5cc6","null","null","<p style=""font-size: 60px; font-family: BACS"">CmcOBCD</p>","","","","","","","","",""
"html-keyboard-response","284","682758","0.0-14.0-0.33","6122966a93af160af481836c","650c16f0f2faf8d7a0d14c09","651c0a5e1212768a2d5f5cc6","null","null","<p style=""font-size: 60px; font-family: BACS"">JAdLmZckv</p>","","","","","","","","",""
"html-keyboard-response","285","683759","0.0-14.0-0.34","6122966a93af160af481836c","650c16f0f2faf8d7a0d14c09","651c0a5e1212768a2d5f5cc6","null","null","<p style=""font-size: 60px; font-family: BACS"">AdDbMAB</p>","","","","","","","","",""
"html-keyboard-response","286","684766","0.0-14.0-0.35","6122966a93af160af481836c","650c16f0f2faf8d7a0d14c09","651c0a5e1212768a2d5f5cc6","null","null","<p style=""font-size: 60px; font-family: BACS"">CmcOBRDh</p>","","","","","","","","",""
"html-keyboard-response","287","685769","0.0-14.0-0.36","6122966a93af160af481836c","650c16f0f2faf8d7a0d14c09","651c0a5e1212768a2d5f5cc6","null","null","<p style=""font-size: 60px; font-family: BACS"">ObZbAvUdm</p>","","","","","","","","",""
"html-keyboard-response","288","686770","0.0-14.0-0.37","6122966a93af160af481836c","650c16f0f2faf8d7a0d14c09","651c0a5e1212768a2d5f5cc6","null","null","<p style=""font-size: 60px; font-family: BACS"">dKDthBCD</p>","","","","","","","","",""
"html-keyboard-response","289","687785","0.0-14.0-0.38","6122966a93af160af481836c","650c16f0f2faf8d7a0d14c09","651c0a5e1212768a2d5f5cc6","null","null","<p style=""font-size: 60px; font-family: BACS"">LckGNZckv</p>","","","","","","","","",""
"html-keyboard-response","290","688790","0.0-14.0-0.39","6122966a93af160af481836c","650c16f0f2faf8d7a0d14c09","651c0a5e1212768a2d5f5cc6","null","null","<p style=""font-size: 60px; font-family: BACS"">uQuZckdrO</p>","","","","","","","","",""
"html-keyboard-response","291","689805","0.0-14.0-0.40","6122966a93af160af481836c","650c16f0f2faf8d7a0d14c09","651c0a5e1212768a2d5f5cc6","null","null","<p style=""font-size: 60px; font-family: BACS"">vblrvUdm</p>","","","","","","","","",""
"html-keyboard-response","292","690810","0.0-14.0-0.41","6122966a93af160af481836c","650c16f0f2faf8d7a0d14c09","651c0a5e1212768a2d5f5cc6","null","null","<p style=""font-size: 60px; font-family: BACS"">TKDkBRDh</p>","","","","","","","","",""
"html-keyboard-response","293","691812","0.0-14.0-0.42","6122966a93af160af481836c","650c16f0f2faf8d7a0d14c09","651c0a5e1212768a2d5f5cc6","null","null","<p style=""font-size: 60px; font-family: BACS"">ObZbAkdrO</p>","","","","","","","","",""
"html-keyboard-response","294","692820","0.0-14.0-0.43","6122966a93af160af481836c","650c16f0f2faf8d7a0d14c09","651c0a5e1212768a2d5f5cc6","null","null","<p style=""font-size: 60px; font-family: BACS"">NAacQuUmb</p>","","","","","","","","",""
"html-keyboard-response","295","693834","0.0-14.0-0.44","6122966a93af160af481836c","650c16f0f2faf8d7a0d14c09","651c0a5e1212768a2d5f5cc6","null","null","<p style=""font-size: 60px; font-family: BACS"">vblrZckv</p>","","","","","","","","",""
"html-keyboard-response","296","694835","0.0-14.0-0.45","6122966a93af160af481836c","650c16f0f2faf8d7a0d14c09","651c0a5e1212768a2d5f5cc6","null","null","<p style=""font-size: 60px; font-family: BACS"">DmAMEPMd</p>","","","","","","","","",""
"html-keyboard-response","297","695841","0.0-14.0-0.46","6122966a93af160af481836c","650c16f0f2faf8d7a0d14c09","651c0a5e1212768a2d5f5cc6","null","null","<p style=""font-size: 60px; font-family: BACS"">JAdLmvUdm</p>","","","","","","","","",""
"html-keyboard-response","298","696854","0.0-14.0-0.47","6122966a93af160af481836c","650c16f0f2faf8d7a0d14c09","651c0a5e1212768a2d5f5cc6","null","null","<p style=""font-size: 60px; font-family: BACS"">CmcOPMd</p>","","","","","","","","",""
"html-keyboard-response","299","697855","0.0-14.0-0.48","6122966a93af160af481836c","650c16f0f2faf8d7a0d14c09","651c0a5e1212768a2d5f5cc6","null","null","<p style=""font-size: 60px; font-family: BACS"">uQuZcZckv</p>","","","","","","","","",""
"html-keyboard-response","300","698861","0.0-14.0-0.49","6122966a93af160af481836c","650c16f0f2faf8d7a0d14c09","651c0a5e1212768a2d5f5cc6","null","null","<p style=""font-size: 60px; font-family: BACS"">AdDbDbMR</p>","","","","","","","","",""
"html-keyboard-response","301","699862","0.0-14.0-0.50","6122966a93af160af481836c","650c16f0f2faf8d7a0d14c09","651c0a5e1212768a2d5f5cc6","null","null","<p style=""font-size: 60px; font-family: BACS"">RhPmMAB</p>","","","","","","","","",""
"html-keyboard-response","302","700864","0.0-14.0-0.51","6122966a93af160af481836c","650c16f0f2faf8d7a0d14c09","651c0a5e1212768a2d5f5cc6","null","null","<p style=""font-size: 60px; font-family: BACS"">PhktkBCD</p>","","","","","","","","",""
"html-keyboard-response","303","701865","0.0-14.0-0.52","6122966a93af160af481836c","650c16f0f2faf8d7a0d14c09","651c0a5e1212768a2d5f5cc6","null","null","<p style=""font-size: 60px; font-family: BACS"">RhPmDbMR</p>","","","","","","","","",""
"html-keyboard-response","304","702877","0.0-14.0-0.53","6122966a93af160af481836c","650c16f0f2faf8d7a0d14c09","651c0a5e1212768a2d5f5cc6","null","null","<p style=""font-size: 60px; font-family: BACS"">aONdZckv</p>","","","","","","","","",""
"html-keyboard-response","305","703879","0.0-14.0-0.54","6122966a93af160af481836c","650c16f0f2faf8d7a0d14c09","651c0a5e1212768a2d5f5cc6","null","null","<p style=""font-size: 60px; font-family: BACS"">dKDthDbMR</p>","","","","","","","","",""
"html-keyboard-response","306","704881","0.0-14.0-0.55","6122966a93af160af481836c","650c16f0f2faf8d7a0d14c09","651c0a5e1212768a2d5f5cc6","null","null","<p style=""font-size: 60px; font-family: BACS"">NAacQkdrO</p>","","","","","","","","",""
"html-keyboard-response","307","705883","0.0-14.0-0.56","6122966a93af160af481836c","650c16f0f2faf8d7a0d14c09","651c0a5e1212768a2d5f5cc6","null","null","<p style=""font-size: 60px; font-family: BACS"">aONdvUdm</p>","","","","","","","","",""
"html-keyboard-response","308","706888","0.0-14.0-0.57","6122966a93af160af481836c","650c16f0f2faf8d7a0d14c09","651c0a5e1212768a2d5f5cc6","null","null","<p style=""font-size: 60px; font-family: BACS"">uauOZckv</p>","","","","","","","","",""
"html-keyboard-response","309","707893","0.0-14.0-0.58","6122966a93af160af481836c","650c16f0f2faf8d7a0d14c09","651c0a5e1212768a2d5f5cc6","null","null","<p style=""font-size: 60px; font-family: BACS"">NvYJvAvb</p>","","","","","","","","",""
"html-keyboard-response","310","708909","0.0-14.0-0.59","6122966a93af160af481836c","650c16f0f2faf8d7a0d14c09","651c0a5e1212768a2d5f5cc6","null","null","<p style=""font-size: 60px; font-family: BACS"">aYQmvUdm</p>","","","","","","","","",""
"html-keyboard-response","311","709923","0.0-14.0-0.60","6122966a93af160af481836c","650c16f0f2faf8d7a0d14c09","651c0a5e1212768a2d5f5cc6","null","null","<p style=""font-size: 60px; font-family: BACS"">RhPmPMd</p>","","","","","","","","",""
"html-keyboard-response","312","710928","0.0-14.0-0.61","6122966a93af160af481836c","650c16f0f2faf8d7a0d14c09","651c0a5e1212768a2d5f5cc6","null","null","<p style=""font-size: 60px; font-family: BACS"">NAacQvUdm</p>","","","","","","","","",""
"html-keyboard-response","313","711932","0.0-14.0-0.62","6122966a93af160af481836c","650c16f0f2faf8d7a0d14c09","651c0a5e1212768a2d5f5cc6","null","null","<p style=""font-size: 60px; font-family: BACS"">TDKhPMd</p>","","","","","","","","",""
"html-keyboard-response","314","712933","0.0-14.0-0.63","6122966a93af160af481836c","650c16f0f2faf8d7a0d14c09","651c0a5e1212768a2d5f5cc6","null","null","<p style=""font-size: 60px; font-family: BACS"">TPCbMAB</p>","","","","","","","","",""
"html-keyboard-response","315","713949","0.0-14.0-0.64","6122966a93af160af481836c","650c16f0f2faf8d7a0d14c09","651c0a5e1212768a2d5f5cc6","null","null","<p style=""font-size: 60px; font-family: BACS"">AdDbPMd</p>","","","","","","","","",""
"html-keyboard-response","316","714963","0.0-14.0-0.65","6122966a93af160af481836c","650c16f0f2faf8d7a0d14c09","651c0a5e1212768a2d5f5cc6","null","null","<p style=""font-size: 60px; font-family: BACS"">NAacQvAvb</p>","","","","","","","","",""
"html-keyboard-response","317","715964","0.0-14.0-0.66","6122966a93af160af481836c","650c16f0f2faf8d7a0d14c09","651c0a5e1212768a2d5f5cc6","null","null","<p style=""font-size: 60px; font-family: BACS"">aYQmuUmb</p>","","","","","","","","",""
"html-keyboard-response","318","716976","0.0-14.0-0.67","6122966a93af160af481836c","650c16f0f2faf8d7a0d14c09","651c0a5e1212768a2d5f5cc6","null","null","<p style=""font-size: 60px; font-family: BACS"">DmAMEDbMR</p>","","","","","","","","",""
"html-keyboard-response","319","717990","0.0-14.0-0.68","6122966a93af160af481836c","650c16f0f2faf8d7a0d14c09","651c0a5e1212768a2d5f5cc6","null","null","<p style=""font-size: 60px; font-family: BACS"">NvYJvUdm</p>","","","","","","","","",""
"html-keyboard-response","320","719006","0.0-14.0-0.69","6122966a93af160af481836c","650c16f0f2faf8d7a0d14c09","651c0a5e1212768a2d5f5cc6","null","null","<p style=""font-size: 60px; font-family: BACS"">JAdLmvAvb</p>","","","","","","","","",""
"html-keyboard-response","321","720012","0.0-14.0-0.70","6122966a93af160af481836c","650c16f0f2faf8d7a0d14c09","651c0a5e1212768a2d5f5cc6","null","null","<p style=""font-size: 60px; font-family: BACS"">aYQmkdrO</p>","","","","","","","","",""
"html-keyboard-response","322","721027","0.0-14.0-0.71","6122966a93af160af481836c","650c16f0f2faf8d7a0d14c09","651c0a5e1212768a2d5f5cc6","null","null","<p style=""font-size: 60px; font-family: BACS"">CDEmYBRDh</p>","","","","","","","","",""
"html-keyboard-response","323","722032","0.0-14.0-0.72","6122966a93af160af481836c","650c16f0f2faf8d7a0d14c09","651c0a5e1212768a2d5f5cc6","null","null","<p style=""font-size: 60px; font-family: BACS"">ObZbAZckv</p>","","","","","","","","",""
"html-keyboard-response","324","723040","0.0-14.0-0.73","6122966a93af160af481836c","650c16f0f2faf8d7a0d14c09","651c0a5e1212768a2d5f5cc6","null","null","<p style=""font-size: 60px; font-family: BACS"">NvYJuUmb</p>","","","","","","","","",""
"html-keyboard-response","325","724049","0.0-14.0-0.74","6122966a93af160af481836c","650c16f0f2faf8d7a0d14c09","651c0a5e1212768a2d5f5cc6","null","null","<p style=""font-size: 60px; font-family: BACS"">aONdvAvb</p>","","","","","","","","",""
"html-keyboard-response","326","725052","0.0-14.0-0.75","6122966a93af160af481836c","650c16f0f2faf8d7a0d14c09","651c0a5e1212768a2d5f5cc6","null","null","<p style=""font-size: 60px; font-family: BACS"">NvYJZckv</p>","","","","","","","","",""
"html-keyboard-response","327","726068","0.0-14.0-0.76","6122966a93af160af481836c","650c16f0f2faf8d7a0d14c09","651c0a5e1212768a2d5f5cc6","null","null","<p style=""font-size: 60px; font-family: BACS"">uauOvUdm</p>","","","","","","","","",""
"html-keyboard-response","328","727070","0.0-14.0-0.77","6122966a93af160af481836c","650c16f0f2faf8d7a0d14c09","651c0a5e1212768a2d5f5cc6","null","null","<p style=""font-size: 60px; font-family: BACS"">RhPmBRDh</p>","","","","","","","","",""
"html-keyboard-response","329","728086","0.0-14.0-0.78","6122966a93af160af481836c","650c16f0f2faf8d7a0d14c09","651c0a5e1212768a2d5f5cc6","null","null","<p style=""font-size: 60px; font-family: BACS"">TPCbPMd</p>","","","","","","","","",""
"html-keyboard-response","330","729087","0.0-14.0-0.79","6122966a93af160af481836c","650c16f0f2faf8d7a0d14c09","651c0a5e1212768a2d5f5cc6","null","null","<p style=""font-size: 60px; font-family: BACS"">uQuZcuUmb</p>","","","","","","","","",""
"html-keyboard-response","331","733005","0.0-15.0","6122966a93af160af481836c","650c16f0f2faf8d7a0d14c09","651c0a5e1212768a2d5f5cc6","3918"," ","<p>Great, you've seen the fourth block of words. You may now take a short break.</p>
      <p>Press the spacebar when you're ready to continue.</p>","","","","","","","","",""
"html-keyboard-response","332","734008","0.0-16.0-0.0","6122966a93af160af481836c","650c16f0f2faf8d7a0d14c09","651c0a5e1212768a2d5f5cc6","null","null","<p style=""font-size: 60px; font-family: BACS"">aYQmuUmb</p>","","","","","","","","",""
"html-keyboard-response","333","735013","0.0-16.0-0.1","6122966a93af160af481836c","650c16f0f2faf8d7a0d14c09","651c0a5e1212768a2d5f5cc6","null","null","<p style=""font-size: 60px; font-family: BACS"">aYQmuUmb</p>","","","","","","","","",""
"html-keyboard-response","334","736025","0.0-16.0-0.2","6122966a93af160af481836c","650c16f0f2faf8d7a0d14c09","651c0a5e1212768a2d5f5cc6","null","null","<p style=""font-size: 60px; font-family: BACS"">aYQmuUmb</p>","","","","","","","","",""
"html-keyboard-response","335","737038","0.0-16.0-0.3","6122966a93af160af481836c","650c16f0f2faf8d7a0d14c09","651c0a5e1212768a2d5f5cc6","null","null","<p style=""font-size: 60px; font-family: BACS"">aYQmuUmb</p>","","","","","","","","",""
"html-keyboard-response","336","738050","0.0-16.0-0.4","6122966a93af160af481836c","650c16f0f2faf8d7a0d14c09","651c0a5e1212768a2d5f5cc6","null","null","<p style=""font-size: 60px; font-family: BACS"">aYQmuUmb</p>","","","","","","","","",""
"html-keyboard-response","337","739065","0.0-16.0-0.5","6122966a93af160af481836c","650c16f0f2faf8d7a0d14c09","651c0a5e1212768a2d5f5cc6","null","null","<p style=""font-size: 60px; font-family: BACS"">aYQmuUmb</p>","","","","","","","","",""
"html-keyboard-response","338","740066","0.0-16.0-0.6","6122966a93af160af481836c","650c16f0f2faf8d7a0d14c09","651c0a5e1212768a2d5f5cc6","null","null","<p style=""font-size: 60px; font-family: BACS"">aYQmuUmb</p>","","","","","","","","",""
"html-keyboard-response","339","741082","0.0-16.0-0.7","6122966a93af160af481836c","650c16f0f2faf8d7a0d14c09","651c0a5e1212768a2d5f5cc6","null","null","<p style=""font-size: 60px; font-family: BACS"">aYQmuUmb</p>","","","","","","","","",""
"html-keyboard-response","340","742098","0.0-16.0-0.8","6122966a93af160af481836c","650c16f0f2faf8d7a0d14c09","651c0a5e1212768a2d5f5cc6","null","null","<p style=""font-size: 60px; font-family: BACS"">aYQmuUmb</p>","","","","","","","","",""
"html-keyboard-response","341","743100","0.0-16.0-0.9","6122966a93af160af481836c","650c16f0f2faf8d7a0d14c09","651c0a5e1212768a2d5f5cc6","null","null","<p style=""font-size: 60px; font-family: BACS"">aYQmuUmb</p>","","","","","","","","",""
"html-keyboard-response","342","744102","0.0-16.0-0.10","6122966a93af160af481836c","650c16f0f2faf8d7a0d14c09","651c0a5e1212768a2d5f5cc6","null","null","<p style=""font-size: 60px; font-family: BACS"">aYQmuUmb</p>","","","","","","","","",""
"html-keyboard-response","343","745106","0.0-16.0-0.11","6122966a93af160af481836c","650c16f0f2faf8d7a0d14c09","651c0a5e1212768a2d5f5cc6","null","null","<p style=""font-size: 60px; font-family: BACS"">aYQmuUmb</p>","","","","","","","","",""
"html-keyboard-response","344","746110","0.0-16.0-0.12","6122966a93af160af481836c","650c16f0f2faf8d7a0d14c09","651c0a5e1212768a2d5f5cc6","null","null","<p style=""font-size: 60px; font-family: BACS"">aYQmuUmb</p>","","","","","","","","",""
"html-keyboard-response","345","747125","0.0-16.0-0.13","6122966a93af160af481836c","650c16f0f2faf8d7a0d14c09","651c0a5e1212768a2d5f5cc6","null","null","<p style=""font-size: 60px; font-family: BACS"">aYQmuUmb</p>","","","","","","","","",""
"html-keyboard-response","346","748132","0.0-16.0-0.14","6122966a93af160af481836c","650c16f0f2faf8d7a0d14c09","651c0a5e1212768a2d5f5cc6","null","null","<p style=""font-size: 60px; font-family: BACS"">aYQmuUmb</p>","","","","","","","","",""
"html-keyboard-response","347","749136","0.0-16.0-0.15","6122966a93af160af481836c","650c16f0f2faf8d7a0d14c09","651c0a5e1212768a2d5f5cc6","null","null","<p style=""font-size: 60px; font-family: BACS"">aYQmuUmb</p>","","","","","","","","",""
"html-keyboard-response","348","750138","0.0-16.0-0.16","6122966a93af160af481836c","650c16f0f2faf8d7a0d14c09","651c0a5e1212768a2d5f5cc6","null","null","<p style=""font-size: 60px; font-family: BACS"">aYQmuUmb</p>","","","","","","","","",""
"html-keyboard-response","349","751144","0.0-16.0-0.17","6122966a93af160af481836c","650c16f0f2faf8d7a0d14c09","651c0a5e1212768a2d5f5cc6","null","null","<p style=""font-size: 60px; font-family: BACS"">aYQmuUmb</p>","","","","","","","","",""
"html-keyboard-response","350","752146","0.0-16.0-0.18","6122966a93af160af481836c","650c16f0f2faf8d7a0d14c09","651c0a5e1212768a2d5f5cc6","null","null","<p style=""font-size: 60px; font-family: BACS"">aYQmuUmb</p>","","","","","","","","",""
"html-keyboard-response","351","753152","0.0-16.0-0.19","6122966a93af160af481836c","650c16f0f2faf8d7a0d14c09","651c0a5e1212768a2d5f5cc6","null","null","<p style=""font-size: 60px; font-family: BACS"">aYQmuUmb</p>","","","","","","","","",""
"html-keyboard-response","352","754164","0.0-16.0-0.20","6122966a93af160af481836c","650c16f0f2faf8d7a0d14c09","651c0a5e1212768a2d5f5cc6","null","null","<p style=""font-size: 60px; font-family: BACS"">aYQmuUmb</p>","","","","","","","","",""
"html-keyboard-response","353","755165","0.0-16.0-0.21","6122966a93af160af481836c","650c16f0f2faf8d7a0d14c09","651c0a5e1212768a2d5f5cc6","null","null","<p style=""font-size: 60px; font-family: BACS"">aYQmuUmb</p>","","","","","","","","",""
"html-keyboard-response","354","756167","0.0-16.0-0.22","6122966a93af160af481836c","650c16f0f2faf8d7a0d14c09","651c0a5e1212768a2d5f5cc6","null","null","<p style=""font-size: 60px; font-family: BACS"">aYQmuUmb</p>","","","","","","","","",""
"html-keyboard-response","355","757168","0.0-16.0-0.23","6122966a93af160af481836c","650c16f0f2faf8d7a0d14c09","651c0a5e1212768a2d5f5cc6","null","null","<p style=""font-size: 60px; font-family: BACS"">aYQmuUmb</p>","","","","","","","","",""
"html-keyboard-response","356","758179","0.0-16.0-0.24","6122966a93af160af481836c","650c16f0f2faf8d7a0d14c09","651c0a5e1212768a2d5f5cc6","null","null","<p style=""font-size: 60px; font-family: BACS"">aYQmuUmb</p>","","","","","","","","",""
"html-keyboard-response","357","759181","0.0-16.0-0.25","6122966a93af160af481836c","650c16f0f2faf8d7a0d14c09","651c0a5e1212768a2d5f5cc6","null","null","<p style=""font-size: 60px; font-family: BACS"">aYQmuUmb</p>","","","","","","","","",""
"html-keyboard-response","358","760185","0.0-16.0-0.26","6122966a93af160af481836c","650c16f0f2faf8d7a0d14c09","651c0a5e1212768a2d5f5cc6","null","null","<p style=""font-size: 60px; font-family: BACS"">aYQmuUmb</p>","","","","","","","","",""
"html-keyboard-response","359","761187","0.0-16.0-0.27","6122966a93af160af481836c","650c16f0f2faf8d7a0d14c09","651c0a5e1212768a2d5f5cc6","null","null","<p style=""font-size: 60px; font-family: BACS"">aYQmuUmb</p>","","","","","","","","",""
"html-keyboard-response","360","762202","0.0-16.0-0.28","6122966a93af160af481836c","650c16f0f2faf8d7a0d14c09","651c0a5e1212768a2d5f5cc6","null","null","<p style=""font-size: 60px; font-family: BACS"">aYQmuUmb</p>","","","","","","","","",""
"html-keyboard-response","361","763210","0.0-16.0-0.29","6122966a93af160af481836c","650c16f0f2faf8d7a0d14c09","651c0a5e1212768a2d5f5cc6","null","null","<p style=""font-size: 60px; font-family: BACS"">aYQmuUmb</p>","","","","","","","","",""
"html-keyboard-response","362","764217","0.0-16.0-0.30","6122966a93af160af481836c","650c16f0f2faf8d7a0d14c09","651c0a5e1212768a2d5f5cc6","null","null","<p style=""font-size: 60px; font-family: BACS"">aYQmuUmb</p>","","","","","","","","",""
"html-keyboard-response","363","765220","0.0-16.0-0.31","6122966a93af160af481836c","650c16f0f2faf8d7a0d14c09","651c0a5e1212768a2d5f5cc6","null","null","<p style=""font-size: 60px; font-family: BACS"">aYQmuUmb</p>","","","","","","","","",""
"html-keyboard-response","364","766221","0.0-16.0-0.32","6122966a93af160af481836c","650c16f0f2faf8d7a0d14c09","651c0a5e1212768a2d5f5cc6","null","null","<p style=""font-size: 60px; font-family: BACS"">aYQmuUmb</p>","","","","","","","","",""
"html-keyboard-response","365","767237","0.0-16.0-0.33","6122966a93af160af481836c","650c16f0f2faf8d7a0d14c09","651c0a5e1212768a2d5f5cc6","null","null","<p style=""font-size: 60px; font-family: BACS"">aYQmuUmb</p>","","","","","","","","",""
"html-keyboard-response","366","768239","0.0-16.0-0.34","6122966a93af160af481836c","650c16f0f2faf8d7a0d14c09","651c0a5e1212768a2d5f5cc6","null","null","<p style=""font-size: 60px; font-family: BACS"">aYQmuUmb</p>","","","","","","","","",""
"html-keyboard-response","367","769242","0.0-16.0-0.35","6122966a93af160af481836c","650c16f0f2faf8d7a0d14c09","651c0a5e1212768a2d5f5cc6","null","null","<p style=""font-size: 60px; font-family: BACS"">aYQmuUmb</p>","","","","","","","","",""
"html-keyboard-response","368","770246","0.0-16.0-0.36","6122966a93af160af481836c","650c16f0f2faf8d7a0d14c09","651c0a5e1212768a2d5f5cc6","null","null","<p style=""font-size: 60px; font-family: BACS"">aYQmuUmb</p>","","","","","","","","",""
"html-keyboard-response","369","771261","0.0-16.0-0.37","6122966a93af160af481836c","650c16f0f2faf8d7a0d14c09","651c0a5e1212768a2d5f5cc6","null","null","<p style=""font-size: 60px; font-family: BACS"">aYQmuUmb</p>","","","","","","","","",""
"html-keyboard-response","370","772264","0.0-16.0-0.38","6122966a93af160af481836c","650c16f0f2faf8d7a0d14c09","651c0a5e1212768a2d5f5cc6","null","null","<p style=""font-size: 60px; font-family: BACS"">aYQmuUmb</p>","","","","","","","","",""
"html-keyboard-response","371","773276","0.0-16.0-0.39","6122966a93af160af481836c","650c16f0f2faf8d7a0d14c09","651c0a5e1212768a2d5f5cc6","null","null","<p style=""font-size: 60px; font-family: BACS"">aYQmuUmb</p>","","","","","","","","",""
"html-keyboard-response","372","774284","0.0-16.0-0.40","6122966a93af160af481836c","650c16f0f2faf8d7a0d14c09","651c0a5e1212768a2d5f5cc6","null","null","<p style=""font-size: 60px; font-family: BACS"">aYQmuUmb</p>","","","","","","","","",""
"html-keyboard-response","373","775296","0.0-16.0-0.41","6122966a93af160af481836c","650c16f0f2faf8d7a0d14c09","651c0a5e1212768a2d5f5cc6","null","null","<p style=""font-size: 60px; font-family: BACS"">aYQmuUmb</p>","","","","","","","","",""
"html-keyboard-response","374","776306","0.0-16.0-0.42","6122966a93af160af481836c","650c16f0f2faf8d7a0d14c09","651c0a5e1212768a2d5f5cc6","null","null","<p style=""font-size: 60px; font-family: BACS"">aYQmuUmb</p>","","","","","","","","",""
"html-keyboard-response","375","777317","0.0-16.0-0.43","6122966a93af160af481836c","650c16f0f2faf8d7a0d14c09","651c0a5e1212768a2d5f5cc6","null","null","<p style=""font-size: 60px; font-family: BACS"">aYQmuUmb</p>","","","","","","","","",""
"html-keyboard-response","376","778320","0.0-16.0-0.44","6122966a93af160af481836c","650c16f0f2faf8d7a0d14c09","651c0a5e1212768a2d5f5cc6","null","null","<p style=""font-size: 60px; font-family: BACS"">aYQmuUmb</p>","","","","","","","","",""
"html-keyboard-response","377","779322","0.0-16.0-0.45","6122966a93af160af481836c","650c16f0f2faf8d7a0d14c09","651c0a5e1212768a2d5f5cc6","null","null","<p style=""font-size: 60px; font-family: BACS"">aYQmuUmb</p>","","","","","","","","",""
"html-keyboard-response","378","780337","0.0-16.0-0.46","6122966a93af160af481836c","650c16f0f2faf8d7a0d14c09","651c0a5e1212768a2d5f5cc6","null","null","<p style=""font-size: 60px; font-family: BACS"">aYQmuUmb</p>","","","","","","","","",""
"html-keyboard-response","379","781341","0.0-16.0-0.47","6122966a93af160af481836c","650c16f0f2faf8d7a0d14c09","651c0a5e1212768a2d5f5cc6","null","null","<p style=""font-size: 60px; font-family: BACS"">aYQmuUmb</p>","","","","","","","","",""
"html-keyboard-response","380","782344","0.0-16.0-0.48","6122966a93af160af481836c","650c16f0f2faf8d7a0d14c09","651c0a5e1212768a2d5f5cc6","null","null","<p style=""font-size: 60px; font-family: BACS"">aYQmuUmb</p>","","","","","","","","",""
"html-keyboard-response","381","783347","0.0-16.0-0.49","6122966a93af160af481836c","650c16f0f2faf8d7a0d14c09","651c0a5e1212768a2d5f5cc6","null","null","<p style=""font-size: 60px; font-family: BACS"">aYQmuUmb</p>","","","","","","","","",""
"html-keyboard-response","382","784352","0.0-16.0-0.50","6122966a93af160af481836c","650c16f0f2faf8d7a0d14c09","651c0a5e1212768a2d5f5cc6","null","null","<p style=""font-size: 60px; font-family: BACS"">aYQmuUmb</p>","","","","","","","","",""
"html-keyboard-response","383","785357","0.0-16.0-0.51","6122966a93af160af481836c","650c16f0f2faf8d7a0d14c09","651c0a5e1212768a2d5f5cc6","null","null","<p style=""font-size: 60px; font-family: BACS"">aYQmuUmb</p>","","","","","","","","",""
"html-keyboard-response","384","786361","0.0-16.0-0.52","6122966a93af160af481836c","650c16f0f2faf8d7a0d14c09","651c0a5e1212768a2d5f5cc6","null","null","<p style=""font-size: 60px; font-family: BACS"">aYQmuUmb</p>","","","","","","","","",""
"html-keyboard-response","385","787375","0.0-16.0-0.53","6122966a93af160af481836c","650c16f0f2faf8d7a0d14c09","651c0a5e1212768a2d5f5cc6","null","null","<p style=""font-size: 60px; font-family: BACS"">aYQmuUmb</p>","","","","","","","","",""
"html-keyboard-response","386","788386","0.0-16.0-0.54","6122966a93af160af481836c","650c16f0f2faf8d7a0d14c09","651c0a5e1212768a2d5f5cc6","null","null","<p style=""font-size: 60px; font-family: BACS"">aYQmuUmb</p>","","","","","","","","",""
"html-keyboard-response","387","789389","0.0-16.0-0.55","6122966a93af160af481836c","650c16f0f2faf8d7a0d14c09","651c0a5e1212768a2d5f5cc6","null","null","<p style=""font-size: 60px; font-family: BACS"">aYQmuUmb</p>","","","","","","","","",""
"html-keyboard-response","388","790396","0.0-16.0-0.56","6122966a93af160af481836c","650c16f0f2faf8d7a0d14c09","651c0a5e1212768a2d5f5cc6","null","null","<p style=""font-size: 60px; font-family: BACS"">aYQmuUmb</p>","","","","","","","","",""
"html-keyboard-response","389","791398","0.0-16.0-0.57","6122966a93af160af481836c","650c16f0f2faf8d7a0d14c09","651c0a5e1212768a2d5f5cc6","null","null","<p style=""font-size: 60px; font-family: BACS"">aYQmuUmb</p>","","","","","","","","",""
"html-keyboard-response","390","792406","0.0-16.0-0.58","6122966a93af160af481836c","650c16f0f2faf8d7a0d14c09","651c0a5e1212768a2d5f5cc6","null","null","<p style=""font-size: 60px; font-family: BACS"">aYQmuUmb</p>","","","","","","","","",""
"html-keyboard-response","391","793412","0.0-16.0-0.59","6122966a93af160af481836c","650c16f0f2faf8d7a0d14c09","651c0a5e1212768a2d5f5cc6","null","null","<p style=""font-size: 60px; font-family: BACS"">aYQmuUmb</p>","","","","","","","","",""
"html-keyboard-response","392","794421","0.0-16.0-0.60","6122966a93af160af481836c","650c16f0f2faf8d7a0d14c09","651c0a5e1212768a2d5f5cc6","null","null","<p style=""font-size: 60px; font-family: BACS"">aYQmuUmb</p>","","","","","","","","",""
"html-keyboard-response","393","795430","0.0-16.0-0.61","6122966a93af160af481836c","650c16f0f2faf8d7a0d14c09","651c0a5e1212768a2d5f5cc6","null","null","<p style=""font-size: 60px; font-family: BACS"">aYQmuUmb</p>","","","","","","","","",""
"html-keyboard-response","394","796441","0.0-16.0-0.62","6122966a93af160af481836c","650c16f0f2faf8d7a0d14c09","651c0a5e1212768a2d5f5cc6","null","null","<p style=""font-size: 60px; font-family: BACS"">aYQmuUmb</p>","","","","","","","","",""
"html-keyboard-response","395","797456","0.0-16.0-0.63","6122966a93af160af481836c","650c16f0f2faf8d7a0d14c09","651c0a5e1212768a2d5f5cc6","null","null","<p style=""font-size: 60px; font-family: BACS"">aYQmuUmb</p>","","","","","","","","",""
"html-keyboard-response","396","798472","0.0-16.0-0.64","6122966a93af160af481836c","650c16f0f2faf8d7a0d14c09","651c0a5e1212768a2d5f5cc6","null","null","<p style=""font-size: 60px; font-family: BACS"">aYQmuUmb</p>","","","","","","","","",""
"html-keyboard-response","397","799487","0.0-16.0-0.65","6122966a93af160af481836c","650c16f0f2faf8d7a0d14c09","651c0a5e1212768a2d5f5cc6","null","null","<p style=""font-size: 60px; font-family: BACS"">aYQmuUmb</p>","","","","","","","","",""
"html-keyboard-response","398","800502","0.0-16.0-0.66","6122966a93af160af481836c","650c16f0f2faf8d7a0d14c09","651c0a5e1212768a2d5f5cc6","null","null","<p style=""font-size: 60px; font-family: BACS"">aYQmuUmb</p>","","","","","","","","",""
"html-keyboard-response","399","801507","0.0-16.0-0.67","6122966a93af160af481836c","650c16f0f2faf8d7a0d14c09","651c0a5e1212768a2d5f5cc6","null","null","<p style=""font-size: 60px; font-family: BACS"">aYQmuUmb</p>","","","","","","","","",""
