"trial_type","trial_index","time_elapsed","internal_node_id","subject_id","study_id","session_id","rt","response","stimulus","success","item","task","correct_response","testing_condition","correct","target","confound","name"
"pavlovia","0","1134","0.0-0.0","5aa787c66219a30001c765f8","650c16f0f2faf8d7a0d14c09","651c1d678c59f21a2b1a06bd","","","","","","","","","","","",""
"survey-html-form","1","5089","0.0-1.0","5aa787c66219a30001c765f8","650c16f0f2faf8d7a0d14c09","651c1d678c59f21a2b1a06bd","3954","{""ID"":""5aa787c66219a30001c765f8""}","","","","","","","","","",""
"html-keyboard-response","2","87948","0.0-2.0","5aa787c66219a30001c765f8","650c16f0f2faf8d7a0d14c09","651c1d678c59f21a2b1a06bd","82858"," ","<p style=""font-size: 15px;"">Before beginning, we ask that you read the consent information and confirm your agreement to participate in the experiment.</p>
      <p style=""font-size: 15px;""> We ask that you remember that this is a research project and that your participation is entirely voluntary. You can stop your participation at any time, without needing to provide any explanation. The study we're asking you to participate in aims at examining how readers process written words. You will be engaged in a session of apprximately 20 minutes, followed by a brief questionnaire. You will have the opportunity to take a few breaks during the experiment. You will be paid £4 for your participation, corresponding to a rate of £8/hour. While this experiment looks at cognitive faculties, this experiment doesn't constitute clinical proof of eventual pathologies.</p>
      <p style=""font-size: 15px;"">All of the information collected thanks to yours and others' participation will be held in a secure password-protected server, and will not be shared with anyone not authorised to view it. Your personal information will be kept with an arbitrary participant ID. Thanks to this data anonymity process, any researcher analysing the data won't be able to track the information back to a specific participant. Therefore, this process will make identifying you impossibile, even when results from the study will be published in scientific reviews, presented at congresses, or at any other public forum. More generally, the collected data will be treated in accordance with the laws on privacy and conformity to the Legislative Degree n. 196 ""Code regarding the protection of personal data"" of the 30th of June 2003 and to the European Regulation 2016/670 (General Data Protection Regulation - GDPR). The Data Protection Officer is Avv. Valentina Carollo, who can be contacted at the following email addresses: <a href=""mailto:dpo@sissa.it"">dpo@sissa.it</a> or <a href=""mailto:rpd@sissa.it"">rpd@sissa.it</a> - PEC: <a href=""mailto:protocollo@pec.sissa.it"">protocollo@pec.sissa.it</a>.</p>
      <p style=""font-size: 15px;""> Before expressing your consent to participate, we would like to remind you again that in case you need explanations on any aspect of the experimental procedure, the researcher is at your disposition (<a href=""mailto:aliebelt@sissa.it"">aliebelt@sissa.it</a>, <a href=""mailto:davide.crepaldi@sissa.it"">davide.crepaldi@sissa.it</a>).</p>
      <p style=""font-size: 15px;"">If you would like to download the informed consent form, you can do so here: <a href=""BASL-Informed_Consent.pdf"" download>informed consent form</a>.</p>
      <p style=""font-size: 15px;"">We ask that you press the spacebar to proceed to the consent section.</p>","","","","","","","","",""
"survey-html-form","3","114705","0.0-3.0","5aa787c66219a30001c765f8","650c16f0f2faf8d7a0d14c09","651c1d678c59f21a2b1a06bd","26757","{""consent1"":""YES"",""consent2"":""YES"",""consent3"":""YES"",""consent4"":""YES"",""consent5"":""YES"",""consent6"":""YES""}","","","","","","","","","",""
"fullscreen","4","152698","0.0-4.0","5aa787c66219a30001c765f8","650c16f0f2faf8d7a0d14c09","651c1d678c59f21a2b1a06bd","","","","true","","","","","","","",""
"html-keyboard-response","5","168102","0.0-5.0","5aa787c66219a30001c765f8","650c16f0f2faf8d7a0d14c09","651c1d678c59f21a2b1a06bd","15402"," ","<p>Welcome, and thank you very much for your time!</p>
      <p>In this experiment, you'll be a language expert who's been asked to take a look at words that Earth has received in its first communication with aliens. Your task, in this first part of the experiment, is to pay close attention to the words you'll be shown; later, world leaders will ask you questions on what you saw. The words will be shown to you quite quickly; it seems that the aliens were in a hurry :-)</p>
      <p>Press the spacebar to continue.<p>","","","","","","","","",""
"html-keyboard-response","6","168156","0.0-6.0","5aa787c66219a30001c765f8","650c16f0f2faf8d7a0d14c09","651c1d678c59f21a2b1a06bd","null","null","<p style=""font-size: 120px; font-family: BACS""> </p>","","","","","","","","",""
"html-keyboard-response","7","172893","0.0-7.0","5aa787c66219a30001c765f8","650c16f0f2faf8d7a0d14c09","651c1d678c59f21a2b1a06bd","4735"," ","<p>Here is an example of the words you'll see:</p>
      <img src='esempio.png' height='400px'>
      <p>When you're ready to begin, press the spacebar.</p></div>","","","","","","","","",""
"html-keyboard-response","8","173897","0.0-8.0-0.0","5aa787c66219a30001c765f8","650c16f0f2faf8d7a0d14c09","651c1d678c59f21a2b1a06bd","null","null","<p style=""font-size: 60px; font-family: BACS"">DhMtYDTk</p>","","","","","","","","",""
"html-keyboard-response","9","174905","0.0-8.0-0.1","5aa787c66219a30001c765f8","650c16f0f2faf8d7a0d14c09","651c1d678c59f21a2b1a06bd","null","null","<p style=""font-size: 60px; font-family: BACS"">ckLALrAJu</p>","","","","","","","","",""
"html-keyboard-response","10","175913","0.0-8.0-0.2","5aa787c66219a30001c765f8","650c16f0f2faf8d7a0d14c09","651c1d678c59f21a2b1a06bd","null","null","<p style=""font-size: 60px; font-family: BACS"">PMPtkYDTk</p>","","","","","","","","",""
"html-keyboard-response","11","176921","0.0-8.0-0.3","5aa787c66219a30001c765f8","650c16f0f2faf8d7a0d14c09","651c1d678c59f21a2b1a06bd","null","null","<p style=""font-size: 60px; font-family: BACS"">TEBKYDE</p>","","","","","","","","",""
"html-keyboard-response","12","177929","0.0-8.0-0.4","5aa787c66219a30001c765f8","650c16f0f2faf8d7a0d14c09","651c1d678c59f21a2b1a06bd","null","null","<p style=""font-size: 60px; font-family: BACS"">uQkrdYNu</p>","","","","","","","","",""
"html-keyboard-response","13","178937","0.0-8.0-0.5","5aa787c66219a30001c765f8","650c16f0f2faf8d7a0d14c09","651c1d678c59f21a2b1a06bd","null","null","<p style=""font-size: 60px; font-family: BACS"">OZkbaQr</p>","","","","","","","","",""
"html-keyboard-response","14","179944","0.0-8.0-0.6","5aa787c66219a30001c765f8","650c16f0f2faf8d7a0d14c09","651c1d678c59f21a2b1a06bd","null","null","<p style=""font-size: 60px; font-family: BACS"">DhMtYDE</p>","","","","","","","","",""
"html-keyboard-response","15","180953","0.0-8.0-0.7","5aa787c66219a30001c765f8","650c16f0f2faf8d7a0d14c09","651c1d678c59f21a2b1a06bd","null","null","<p style=""font-size: 60px; font-family: BACS"">KdARYDTk</p>","","","","","","","","",""
"html-keyboard-response","16","181960","0.0-8.0-0.8","5aa787c66219a30001c765f8","650c16f0f2faf8d7a0d14c09","651c1d678c59f21a2b1a06bd","null","null","<p style=""font-size: 60px; font-family: BACS"">uQkrdaQr</p>","","","","","","","","",""
"html-keyboard-response","17","182968","0.0-8.0-0.9","5aa787c66219a30001c765f8","650c16f0f2faf8d7a0d14c09","651c1d678c59f21a2b1a06bd","null","null","<p style=""font-size: 60px; font-family: BACS"">mcOJNac</p>","","","","","","","","",""
"html-keyboard-response","18","183977","0.0-8.0-0.10","5aa787c66219a30001c765f8","650c16f0f2faf8d7a0d14c09","651c1d678c59f21a2b1a06bd","null","null","<p style=""font-size: 60px; font-family: BACS"">lrZGYNu</p>","","","","","","","","",""
"html-keyboard-response","19","184984","0.0-8.0-0.11","5aa787c66219a30001c765f8","650c16f0f2faf8d7a0d14c09","651c1d678c59f21a2b1a06bd","null","null","<p style=""font-size: 60px; font-family: BACS"">KdARAPT</p>","","","","","","","","",""
"html-keyboard-response","20","185992","0.0-8.0-0.12","5aa787c66219a30001c765f8","650c16f0f2faf8d7a0d14c09","651c1d678c59f21a2b1a06bd","null","null","<p style=""font-size: 60px; font-family: BACS"">lBKtYDTk</p>","","","","","","","","",""
"html-keyboard-response","21","187000","0.0-8.0-0.13","5aa787c66219a30001c765f8","650c16f0f2faf8d7a0d14c09","651c1d678c59f21a2b1a06bd","null","null","<p style=""font-size: 60px; font-family: BACS"">dkLlNac</p>","","","","","","","","",""
"html-keyboard-response","22","188002","0.0-8.0-0.14","5aa787c66219a30001c765f8","650c16f0f2faf8d7a0d14c09","651c1d678c59f21a2b1a06bd","null","null","<p style=""font-size: 60px; font-family: BACS"">OmtlDYDTk</p>","","","","","","","","",""
"html-keyboard-response","23","189008","0.0-8.0-0.15","5aa787c66219a30001c765f8","650c16f0f2faf8d7a0d14c09","651c1d678c59f21a2b1a06bd","null","null","<p style=""font-size: 60px; font-family: BACS"">lBKtBbM</p>","","","","","","","","",""
"html-keyboard-response","24","190017","0.0-8.0-0.16","5aa787c66219a30001c765f8","650c16f0f2faf8d7a0d14c09","651c1d678c59f21a2b1a06bd","null","null","<p style=""font-size: 60px; font-family: BACS"">PMPtkAPT</p>","","","","","","","","",""
"html-keyboard-response","25","191025","0.0-8.0-0.17","5aa787c66219a30001c765f8","650c16f0f2faf8d7a0d14c09","651c1d678c59f21a2b1a06bd","null","null","<p style=""font-size: 60px; font-family: BACS"">EPMDkYDE</p>","","","","","","","","",""
"html-keyboard-response","26","192032","0.0-8.0-0.18","5aa787c66219a30001c765f8","650c16f0f2faf8d7a0d14c09","651c1d678c59f21a2b1a06bd","null","null","<p style=""font-size: 60px; font-family: BACS"">YJLcAYNu</p>","","","","","","","","",""
"html-keyboard-response","27","193040","0.0-8.0-0.19","5aa787c66219a30001c765f8","650c16f0f2faf8d7a0d14c09","651c1d678c59f21a2b1a06bd","null","null","<p style=""font-size: 60px; font-family: BACS"">EPMDklMck</p>","","","","","","","","",""
"html-keyboard-response","28","194049","0.0-8.0-0.20","5aa787c66219a30001c765f8","650c16f0f2faf8d7a0d14c09","651c1d678c59f21a2b1a06bd","null","null","<p style=""font-size: 60px; font-family: BACS"">lBKtAPT</p>","","","","","","","","",""
"html-keyboard-response","29","195056","0.0-8.0-0.21","5aa787c66219a30001c765f8","650c16f0f2faf8d7a0d14c09","651c1d678c59f21a2b1a06bd","null","null","<p style=""font-size: 60px; font-family: BACS"">OZkbYNu</p>","","","","","","","","",""
"html-keyboard-response","30","196064","0.0-8.0-0.22","5aa787c66219a30001c765f8","650c16f0f2faf8d7a0d14c09","651c1d678c59f21a2b1a06bd","null","null","<p style=""font-size: 60px; font-family: BACS"">PMPtklMck</p>","","","","","","","","",""
"html-keyboard-response","31","197072","0.0-8.0-0.23","5aa787c66219a30001c765f8","650c16f0f2faf8d7a0d14c09","651c1d678c59f21a2b1a06bd","null","null","<p style=""font-size: 60px; font-family: BACS"">lrZGNac</p>","","","","","","","","",""
"html-keyboard-response","32","198080","0.0-8.0-0.24","5aa787c66219a30001c765f8","650c16f0f2faf8d7a0d14c09","651c1d678c59f21a2b1a06bd","null","null","<p style=""font-size: 60px; font-family: BACS"">EtMDMAPT</p>","","","","","","","","",""
"html-keyboard-response","33","199088","0.0-8.0-0.25","5aa787c66219a30001c765f8","650c16f0f2faf8d7a0d14c09","651c1d678c59f21a2b1a06bd","null","null","<p style=""font-size: 60px; font-family: BACS"">ckLALaQr</p>","","","","","","","","",""
"html-keyboard-response","34","200096","0.0-8.0-0.26","5aa787c66219a30001c765f8","650c16f0f2faf8d7a0d14c09","651c1d678c59f21a2b1a06bd","null","null","<p style=""font-size: 60px; font-family: BACS"">UJkGNac</p>","","","","","","","","",""
"html-keyboard-response","35","201104","0.0-8.0-0.27","5aa787c66219a30001c765f8","650c16f0f2faf8d7a0d14c09","651c1d678c59f21a2b1a06bd","null","null","<p style=""font-size: 60px; font-family: BACS"">DhMtBbM</p>","","","","","","","","",""
"html-keyboard-response","36","202112","0.0-8.0-0.28","5aa787c66219a30001c765f8","650c16f0f2faf8d7a0d14c09","651c1d678c59f21a2b1a06bd","null","null","<p style=""font-size: 60px; font-family: BACS"">ckLALQONk</p>","","","","","","","","",""
"html-keyboard-response","37","203120","0.0-8.0-0.29","5aa787c66219a30001c765f8","650c16f0f2faf8d7a0d14c09","651c1d678c59f21a2b1a06bd","null","null","<p style=""font-size: 60px; font-family: BACS"">hmKPMAPT</p>","","","","","","","","",""
"html-keyboard-response","38","204128","0.0-8.0-0.30","5aa787c66219a30001c765f8","650c16f0f2faf8d7a0d14c09","651c1d678c59f21a2b1a06bd","null","null","<p style=""font-size: 60px; font-family: BACS"">OmtlDBbM</p>","","","","","","","","",""
"html-keyboard-response","39","205136","0.0-8.0-0.31","5aa787c66219a30001c765f8","650c16f0f2faf8d7a0d14c09","651c1d678c59f21a2b1a06bd","null","null","<p style=""font-size: 60px; font-family: BACS"">OZkbQONk</p>","","","","","","","","",""
"html-keyboard-response","40","206142","0.0-8.0-0.32","5aa787c66219a30001c765f8","650c16f0f2faf8d7a0d14c09","651c1d678c59f21a2b1a06bd","null","null","<p style=""font-size: 60px; font-family: BACS"">TEBKAPT</p>","","","","","","","","",""
"html-keyboard-response","41","207144","0.0-8.0-0.33","5aa787c66219a30001c765f8","650c16f0f2faf8d7a0d14c09","651c1d678c59f21a2b1a06bd","null","null","<p style=""font-size: 60px; font-family: BACS"">vmuLlrAJu</p>","","","","","","","","",""
"html-keyboard-response","42","208150","0.0-8.0-0.34","5aa787c66219a30001c765f8","650c16f0f2faf8d7a0d14c09","651c1d678c59f21a2b1a06bd","null","null","<p style=""font-size: 60px; font-family: BACS"">hkRKBbM</p>","","","","","","","","",""
"html-keyboard-response","43","209153","0.0-8.0-0.35","5aa787c66219a30001c765f8","650c16f0f2faf8d7a0d14c09","651c1d678c59f21a2b1a06bd","null","null","<p style=""font-size: 60px; font-family: BACS"">vmuLlQONk</p>","","","","","","","","",""
"html-keyboard-response","44","210160","0.0-8.0-0.36","5aa787c66219a30001c765f8","650c16f0f2faf8d7a0d14c09","651c1d678c59f21a2b1a06bd","null","null","<p style=""font-size: 60px; font-family: BACS"">hmKPMYDTk</p>","","","","","","","","",""
"html-keyboard-response","45","211168","0.0-8.0-0.37","5aa787c66219a30001c765f8","650c16f0f2faf8d7a0d14c09","651c1d678c59f21a2b1a06bd","null","null","<p style=""font-size: 60px; font-family: BACS"">dkLlrAJu</p>","","","","","","","","",""
"html-keyboard-response","46","212176","0.0-8.0-0.38","5aa787c66219a30001c765f8","650c16f0f2faf8d7a0d14c09","651c1d678c59f21a2b1a06bd","null","null","<p style=""font-size: 60px; font-family: BACS"">EPMDkBbM</p>","","","","","","","","",""
"html-keyboard-response","47","213184","0.0-8.0-0.39","5aa787c66219a30001c765f8","650c16f0f2faf8d7a0d14c09","651c1d678c59f21a2b1a06bd","null","null","<p style=""font-size: 60px; font-family: BACS"">JAdLmNac</p>","","","","","","","","",""
"html-keyboard-response","48","214192","0.0-8.0-0.40","5aa787c66219a30001c765f8","650c16f0f2faf8d7a0d14c09","651c1d678c59f21a2b1a06bd","null","null","<p style=""font-size: 60px; font-family: BACS"">PMPtkYDE</p>","","","","","","","","",""
"html-keyboard-response","49","215200","0.0-8.0-0.41","5aa787c66219a30001c765f8","650c16f0f2faf8d7a0d14c09","651c1d678c59f21a2b1a06bd","null","null","<p style=""font-size: 60px; font-family: BACS"">OZkbrAJu</p>","","","","","","","","",""
"html-keyboard-response","50","216208","0.0-8.0-0.42","5aa787c66219a30001c765f8","650c16f0f2faf8d7a0d14c09","651c1d678c59f21a2b1a06bd","null","null","<p style=""font-size: 60px; font-family: BACS"">EPMDkAPT</p>","","","","","","","","",""
"html-keyboard-response","51","217216","0.0-8.0-0.43","5aa787c66219a30001c765f8","650c16f0f2faf8d7a0d14c09","651c1d678c59f21a2b1a06bd","null","null","<p style=""font-size: 60px; font-family: BACS"">dkLlaQr</p>","","","","","","","","",""
"html-keyboard-response","52","218224","0.0-8.0-0.44","5aa787c66219a30001c765f8","650c16f0f2faf8d7a0d14c09","651c1d678c59f21a2b1a06bd","null","null","<p style=""font-size: 60px; font-family: BACS"">OmtlDAPT</p>","","","","","","","","",""
"html-keyboard-response","53","219232","0.0-8.0-0.45","5aa787c66219a30001c765f8","650c16f0f2faf8d7a0d14c09","651c1d678c59f21a2b1a06bd","null","null","<p style=""font-size: 60px; font-family: BACS"">EtMDMBbM</p>","","","","","","","","",""
"html-keyboard-response","54","220236","0.0-8.0-0.46","5aa787c66219a30001c765f8","650c16f0f2faf8d7a0d14c09","651c1d678c59f21a2b1a06bd","null","null","<p style=""font-size: 60px; font-family: BACS"">mcOJaQr</p>","","","","","","","","",""
"html-keyboard-response","55","221240","0.0-8.0-0.47","5aa787c66219a30001c765f8","650c16f0f2faf8d7a0d14c09","651c1d678c59f21a2b1a06bd","null","null","<p style=""font-size: 60px; font-family: BACS"">ckLALNac</p>","","","","","","","","",""
"html-keyboard-response","56","222247","0.0-8.0-0.48","5aa787c66219a30001c765f8","650c16f0f2faf8d7a0d14c09","651c1d678c59f21a2b1a06bd","null","null","<p style=""font-size: 60px; font-family: BACS"">UJkGaQr</p>","","","","","","","","",""
"html-keyboard-response","57","223256","0.0-8.0-0.49","5aa787c66219a30001c765f8","650c16f0f2faf8d7a0d14c09","651c1d678c59f21a2b1a06bd","null","null","<p style=""font-size: 60px; font-family: BACS"">YJLcAQONk</p>","","","","","","","","",""
"html-keyboard-response","58","224263","0.0-8.0-0.50","5aa787c66219a30001c765f8","650c16f0f2faf8d7a0d14c09","651c1d678c59f21a2b1a06bd","null","null","<p style=""font-size: 60px; font-family: BACS"">uQkrdrAJu</p>","","","","","","","","",""
"html-keyboard-response","59","225272","0.0-8.0-0.51","5aa787c66219a30001c765f8","650c16f0f2faf8d7a0d14c09","651c1d678c59f21a2b1a06bd","null","null","<p style=""font-size: 60px; font-family: BACS"">UJkGQONk</p>","","","","","","","","",""
"html-keyboard-response","60","226280","0.0-8.0-0.52","5aa787c66219a30001c765f8","650c16f0f2faf8d7a0d14c09","651c1d678c59f21a2b1a06bd","null","null","<p style=""font-size: 60px; font-family: BACS"">lBKtlMck</p>","","","","","","","","",""
"html-keyboard-response","61","227282","0.0-8.0-0.53","5aa787c66219a30001c765f8","650c16f0f2faf8d7a0d14c09","651c1d678c59f21a2b1a06bd","null","null","<p style=""font-size: 60px; font-family: BACS"">dkLlYNu</p>","","","","","","","","",""
"html-keyboard-response","62","228287","0.0-8.0-0.54","5aa787c66219a30001c765f8","650c16f0f2faf8d7a0d14c09","651c1d678c59f21a2b1a06bd","null","null","<p style=""font-size: 60px; font-family: BACS"">vmuLlaQr</p>","","","","","","","","",""
"html-keyboard-response","63","229296","0.0-8.0-0.55","5aa787c66219a30001c765f8","650c16f0f2faf8d7a0d14c09","651c1d678c59f21a2b1a06bd","null","null","<p style=""font-size: 60px; font-family: BACS"">mcOJQONk</p>","","","","","","","","",""
"html-keyboard-response","64","230303","0.0-8.0-0.56","5aa787c66219a30001c765f8","650c16f0f2faf8d7a0d14c09","651c1d678c59f21a2b1a06bd","null","null","<p style=""font-size: 60px; font-family: BACS"">hmKPMBbM</p>","","","","","","","","",""
"html-keyboard-response","65","231311","0.0-8.0-0.57","5aa787c66219a30001c765f8","650c16f0f2faf8d7a0d14c09","651c1d678c59f21a2b1a06bd","null","null","<p style=""font-size: 60px; font-family: BACS"">KdARYDE</p>","","","","","","","","",""
"html-keyboard-response","66","232320","0.0-8.0-0.58","5aa787c66219a30001c765f8","650c16f0f2faf8d7a0d14c09","651c1d678c59f21a2b1a06bd","null","null","<p style=""font-size: 60px; font-family: BACS"">JAdLmYNu</p>","","","","","","","","",""
"html-keyboard-response","67","233328","0.0-8.0-0.59","5aa787c66219a30001c765f8","650c16f0f2faf8d7a0d14c09","651c1d678c59f21a2b1a06bd","null","null","<p style=""font-size: 60px; font-family: BACS"">YJLcArAJu</p>","","","","","","","","",""
"html-keyboard-response","68","234335","0.0-8.0-0.60","5aa787c66219a30001c765f8","650c16f0f2faf8d7a0d14c09","651c1d678c59f21a2b1a06bd","null","null","<p style=""font-size: 60px; font-family: BACS"">vmuLlYNu</p>","","","","","","","","",""
"html-keyboard-response","69","235344","0.0-8.0-0.61","5aa787c66219a30001c765f8","650c16f0f2faf8d7a0d14c09","651c1d678c59f21a2b1a06bd","null","null","<p style=""font-size: 60px; font-family: BACS"">hkRKYDE</p>","","","","","","","","",""
"html-keyboard-response","70","236352","0.0-8.0-0.62","5aa787c66219a30001c765f8","650c16f0f2faf8d7a0d14c09","651c1d678c59f21a2b1a06bd","null","null","<p style=""font-size: 60px; font-family: BACS"">DhMtlMck</p>","","","","","","","","",""
"html-keyboard-response","71","237360","0.0-8.0-0.63","5aa787c66219a30001c765f8","650c16f0f2faf8d7a0d14c09","651c1d678c59f21a2b1a06bd","null","null","<p style=""font-size: 60px; font-family: BACS"">uQkrdNac</p>","","","","","","","","",""
"html-keyboard-response","72","238368","0.0-8.0-0.64","5aa787c66219a30001c765f8","650c16f0f2faf8d7a0d14c09","651c1d678c59f21a2b1a06bd","null","null","<p style=""font-size: 60px; font-family: BACS"">KdARlMck</p>","","","","","","","","",""
"html-keyboard-response","73","239376","0.0-8.0-0.65","5aa787c66219a30001c765f8","650c16f0f2faf8d7a0d14c09","651c1d678c59f21a2b1a06bd","null","null","<p style=""font-size: 60px; font-family: BACS"">JAdLmaQr</p>","","","","","","","","",""
"html-keyboard-response","74","240384","0.0-8.0-0.66","5aa787c66219a30001c765f8","650c16f0f2faf8d7a0d14c09","651c1d678c59f21a2b1a06bd","null","null","<p style=""font-size: 60px; font-family: BACS"">EtMDMYDE</p>","","","","","","","","",""
"html-keyboard-response","75","241386","0.0-8.0-0.67","5aa787c66219a30001c765f8","650c16f0f2faf8d7a0d14c09","651c1d678c59f21a2b1a06bd","null","null","<p style=""font-size: 60px; font-family: BACS"">YJLcANac</p>","","","","","","","","",""
"html-keyboard-response","76","242392","0.0-8.0-0.68","5aa787c66219a30001c765f8","650c16f0f2faf8d7a0d14c09","651c1d678c59f21a2b1a06bd","null","null","<p style=""font-size: 60px; font-family: BACS"">TEBKBbM</p>","","","","","","","","",""
"html-keyboard-response","77","243399","0.0-8.0-0.69","5aa787c66219a30001c765f8","650c16f0f2faf8d7a0d14c09","651c1d678c59f21a2b1a06bd","null","null","<p style=""font-size: 60px; font-family: BACS"">JAdLmQONk</p>","","","","","","","","",""
"html-keyboard-response","78","244407","0.0-8.0-0.70","5aa787c66219a30001c765f8","650c16f0f2faf8d7a0d14c09","651c1d678c59f21a2b1a06bd","null","null","<p style=""font-size: 60px; font-family: BACS"">hkRKYDTk</p>","","","","","","","","",""
"html-keyboard-response","79","245415","0.0-8.0-0.71","5aa787c66219a30001c765f8","650c16f0f2faf8d7a0d14c09","651c1d678c59f21a2b1a06bd","null","null","<p style=""font-size: 60px; font-family: BACS"">EtMDMlMck</p>","","","","","","","","",""
"html-keyboard-response","80","246424","0.0-8.0-0.72","5aa787c66219a30001c765f8","650c16f0f2faf8d7a0d14c09","651c1d678c59f21a2b1a06bd","null","null","<p style=""font-size: 60px; font-family: BACS"">lrZGQONk</p>","","","","","","","","",""
"html-keyboard-response","81","247432","0.0-8.0-0.73","5aa787c66219a30001c765f8","650c16f0f2faf8d7a0d14c09","651c1d678c59f21a2b1a06bd","null","null","<p style=""font-size: 60px; font-family: BACS"">hkRKlMck</p>","","","","","","","","",""
"html-keyboard-response","82","248439","0.0-8.0-0.74","5aa787c66219a30001c765f8","650c16f0f2faf8d7a0d14c09","651c1d678c59f21a2b1a06bd","null","null","<p style=""font-size: 60px; font-family: BACS"">OmtlDYDE</p>","","","","","","","","",""
"html-keyboard-response","83","249447","0.0-8.0-0.75","5aa787c66219a30001c765f8","650c16f0f2faf8d7a0d14c09","651c1d678c59f21a2b1a06bd","null","null","<p style=""font-size: 60px; font-family: BACS"">UJkGrAJu</p>","","","","","","","","",""
"html-keyboard-response","84","250455","0.0-8.0-0.76","5aa787c66219a30001c765f8","650c16f0f2faf8d7a0d14c09","651c1d678c59f21a2b1a06bd","null","null","<p style=""font-size: 60px; font-family: BACS"">TEBKYDTk</p>","","","","","","","","",""
"html-keyboard-response","85","251463","0.0-8.0-0.77","5aa787c66219a30001c765f8","650c16f0f2faf8d7a0d14c09","651c1d678c59f21a2b1a06bd","null","null","<p style=""font-size: 60px; font-family: BACS"">hmKPMlMck</p>","","","","","","","","",""
"html-keyboard-response","86","252471","0.0-8.0-0.78","5aa787c66219a30001c765f8","650c16f0f2faf8d7a0d14c09","651c1d678c59f21a2b1a06bd","null","null","<p style=""font-size: 60px; font-family: BACS"">mcOJYNu</p>","","","","","","","","",""
"html-keyboard-response","87","253479","0.0-8.0-0.79","5aa787c66219a30001c765f8","650c16f0f2faf8d7a0d14c09","651c1d678c59f21a2b1a06bd","null","null","<p style=""font-size: 60px; font-family: BACS"">lrZGrAJu</p>","","","","","","","","",""
"html-keyboard-response","88","253533","0.0-9.0","5aa787c66219a30001c765f8","650c16f0f2faf8d7a0d14c09","651c1d678c59f21a2b1a06bd","53"," ","<p>Great, you've seen the first block of words. You may now take a short break.</p>
      <p>Press the spacebar when you're ready to continue.</p>","","","","","","","","",""
"html-keyboard-response","89","254535","0.0-10.0-0.0","5aa787c66219a30001c765f8","650c16f0f2faf8d7a0d14c09","651c1d678c59f21a2b1a06bd","null","null","<p style=""font-size: 60px; font-family: BACS"">uQkrdrAJu</p>","","","","","","","","",""
"html-keyboard-response","90","255543","0.0-10.0-0.1","5aa787c66219a30001c765f8","650c16f0f2faf8d7a0d14c09","651c1d678c59f21a2b1a06bd","null","null","<p style=""font-size: 60px; font-family: BACS"">EPMDklMck</p>","","","","","","","","",""
"html-keyboard-response","91","256551","0.0-10.0-0.2","5aa787c66219a30001c765f8","650c16f0f2faf8d7a0d14c09","651c1d678c59f21a2b1a06bd","null","null","<p style=""font-size: 60px; font-family: BACS"">PMPtkYDTk</p>","","","","","","","","",""
"html-keyboard-response","92","257559","0.0-10.0-0.3","5aa787c66219a30001c765f8","650c16f0f2faf8d7a0d14c09","651c1d678c59f21a2b1a06bd","null","null","<p style=""font-size: 60px; font-family: BACS"">TEBKYDE</p>","","","","","","","","",""
"html-keyboard-response","93","258568","0.0-10.0-0.4","5aa787c66219a30001c765f8","650c16f0f2faf8d7a0d14c09","651c1d678c59f21a2b1a06bd","null","null","<p style=""font-size: 60px; font-family: BACS"">dkLlaQr</p>","","","","","","","","",""
"html-keyboard-response","94","259575","0.0-10.0-0.5","5aa787c66219a30001c765f8","650c16f0f2faf8d7a0d14c09","651c1d678c59f21a2b1a06bd","null","null","<p style=""font-size: 60px; font-family: BACS"">YJLcArAJu</p>","","","","","","","","",""
"html-keyboard-response","95","260583","0.0-10.0-0.6","5aa787c66219a30001c765f8","650c16f0f2faf8d7a0d14c09","651c1d678c59f21a2b1a06bd","null","null","<p style=""font-size: 60px; font-family: BACS"">PMPtkYDE</p>","","","","","","","","",""
"html-keyboard-response","96","261584","0.0-10.0-0.7","5aa787c66219a30001c765f8","650c16f0f2faf8d7a0d14c09","651c1d678c59f21a2b1a06bd","null","null","<p style=""font-size: 60px; font-family: BACS"">hmKPMAPT</p>","","","","","","","","",""
"html-keyboard-response","97","262592","0.0-10.0-0.8","5aa787c66219a30001c765f8","650c16f0f2faf8d7a0d14c09","651c1d678c59f21a2b1a06bd","null","null","<p style=""font-size: 60px; font-family: BACS"">OZkbYNu</p>","","","","","","","","",""
"html-keyboard-response","98","263599","0.0-10.0-0.9","5aa787c66219a30001c765f8","650c16f0f2faf8d7a0d14c09","651c1d678c59f21a2b1a06bd","null","null","<p style=""font-size: 60px; font-family: BACS"">vmuLlQONk</p>","","","","","","","","",""
"html-keyboard-response","99","264607","0.0-10.0-0.10","5aa787c66219a30001c765f8","650c16f0f2faf8d7a0d14c09","651c1d678c59f21a2b1a06bd","null","null","<p style=""font-size: 60px; font-family: BACS"">JAdLmNac</p>","","","","","","","","",""
"html-keyboard-response","100","265615","0.0-10.0-0.11","5aa787c66219a30001c765f8","650c16f0f2faf8d7a0d14c09","651c1d678c59f21a2b1a06bd","null","null","<p style=""font-size: 60px; font-family: BACS"">EtMDMBbM</p>","","","","","","","","",""
"html-keyboard-response","101","266623","0.0-10.0-0.12","5aa787c66219a30001c765f8","650c16f0f2faf8d7a0d14c09","651c1d678c59f21a2b1a06bd","null","null","<p style=""font-size: 60px; font-family: BACS"">mcOJQONk</p>","","","","","","","","",""
"html-keyboard-response","102","267631","0.0-10.0-0.13","5aa787c66219a30001c765f8","650c16f0f2faf8d7a0d14c09","651c1d678c59f21a2b1a06bd","null","null","<p style=""font-size: 60px; font-family: BACS"">hkRKBbM</p>","","","","","","","","",""
"html-keyboard-response","103","268639","0.0-10.0-0.14","5aa787c66219a30001c765f8","650c16f0f2faf8d7a0d14c09","651c1d678c59f21a2b1a06bd","null","null","<p style=""font-size: 60px; font-family: BACS"">OmtlDYDE</p>","","","","","","","","",""
"html-keyboard-response","104","269647","0.0-10.0-0.15","5aa787c66219a30001c765f8","650c16f0f2faf8d7a0d14c09","651c1d678c59f21a2b1a06bd","null","null","<p style=""font-size: 60px; font-family: BACS"">DhMtYDTk</p>","","","","","","","","",""
"html-keyboard-response","105","270655","0.0-10.0-0.16","5aa787c66219a30001c765f8","650c16f0f2faf8d7a0d14c09","651c1d678c59f21a2b1a06bd","null","null","<p style=""font-size: 60px; font-family: BACS"">mcOJNac</p>","","","","","","","","",""
"html-keyboard-response","106","271663","0.0-10.0-0.17","5aa787c66219a30001c765f8","650c16f0f2faf8d7a0d14c09","651c1d678c59f21a2b1a06bd","null","null","<p style=""font-size: 60px; font-family: BACS"">DhMtYDE</p>","","","","","","","","",""
"html-keyboard-response","107","272671","0.0-10.0-0.18","5aa787c66219a30001c765f8","650c16f0f2faf8d7a0d14c09","651c1d678c59f21a2b1a06bd","null","null","<p style=""font-size: 60px; font-family: BACS"">UJkGrAJu</p>","","","","","","","","",""
"html-keyboard-response","108","273679","0.0-10.0-0.19","5aa787c66219a30001c765f8","650c16f0f2faf8d7a0d14c09","651c1d678c59f21a2b1a06bd","null","null","<p style=""font-size: 60px; font-family: BACS"">JAdLmaQr</p>","","","","","","","","",""
"html-keyboard-response","109","274687","0.0-10.0-0.20","5aa787c66219a30001c765f8","650c16f0f2faf8d7a0d14c09","651c1d678c59f21a2b1a06bd","null","null","<p style=""font-size: 60px; font-family: BACS"">TEBKBbM</p>","","","","","","","","",""
"html-keyboard-response","110","275695","0.0-10.0-0.21","5aa787c66219a30001c765f8","650c16f0f2faf8d7a0d14c09","651c1d678c59f21a2b1a06bd","null","null","<p style=""font-size: 60px; font-family: BACS"">dkLlNac</p>","","","","","","","","",""
"html-keyboard-response","111","276703","0.0-10.0-0.22","5aa787c66219a30001c765f8","650c16f0f2faf8d7a0d14c09","651c1d678c59f21a2b1a06bd","null","null","<p style=""font-size: 60px; font-family: BACS"">vmuLlaQr</p>","","","","","","","","",""
"html-keyboard-response","112","277711","0.0-10.0-0.23","5aa787c66219a30001c765f8","650c16f0f2faf8d7a0d14c09","651c1d678c59f21a2b1a06bd","null","null","<p style=""font-size: 60px; font-family: BACS"">hmKPMYDTk</p>","","","","","","","","",""
"html-keyboard-response","113","278719","0.0-10.0-0.24","5aa787c66219a30001c765f8","650c16f0f2faf8d7a0d14c09","651c1d678c59f21a2b1a06bd","null","null","<p style=""font-size: 60px; font-family: BACS"">KdARAPT</p>","","","","","","","","",""
"html-keyboard-response","114","279727","0.0-10.0-0.25","5aa787c66219a30001c765f8","650c16f0f2faf8d7a0d14c09","651c1d678c59f21a2b1a06bd","null","null","<p style=""font-size: 60px; font-family: BACS"">dkLlrAJu</p>","","","","","","","","",""
"html-keyboard-response","115","280734","0.0-10.0-0.26","5aa787c66219a30001c765f8","650c16f0f2faf8d7a0d14c09","651c1d678c59f21a2b1a06bd","null","null","<p style=""font-size: 60px; font-family: BACS"">ckLALaQr</p>","","","","","","","","",""
"html-keyboard-response","116","281742","0.0-10.0-0.27","5aa787c66219a30001c765f8","650c16f0f2faf8d7a0d14c09","651c1d678c59f21a2b1a06bd","null","null","<p style=""font-size: 60px; font-family: BACS"">EtMDMYDE</p>","","","","","","","","",""
"html-keyboard-response","117","282750","0.0-10.0-0.28","5aa787c66219a30001c765f8","650c16f0f2faf8d7a0d14c09","651c1d678c59f21a2b1a06bd","null","null","<p style=""font-size: 60px; font-family: BACS"">hkRKlMck</p>","","","","","","","","",""
"html-keyboard-response","118","283758","0.0-10.0-0.29","5aa787c66219a30001c765f8","650c16f0f2faf8d7a0d14c09","651c1d678c59f21a2b1a06bd","null","null","<p style=""font-size: 60px; font-family: BACS"">lrZGrAJu</p>","","","","","","","","",""
"html-keyboard-response","119","284766","0.0-10.0-0.30","5aa787c66219a30001c765f8","650c16f0f2faf8d7a0d14c09","651c1d678c59f21a2b1a06bd","null","null","<p style=""font-size: 60px; font-family: BACS"">OmtlDYDTk</p>","","","","","","","","",""
"html-keyboard-response","120","285774","0.0-10.0-0.31","5aa787c66219a30001c765f8","650c16f0f2faf8d7a0d14c09","651c1d678c59f21a2b1a06bd","null","null","<p style=""font-size: 60px; font-family: BACS"">UJkGaQr</p>","","","","","","","","",""
"html-keyboard-response","121","286783","0.0-10.0-0.32","5aa787c66219a30001c765f8","650c16f0f2faf8d7a0d14c09","651c1d678c59f21a2b1a06bd","null","null","<p style=""font-size: 60px; font-family: BACS"">lrZGYNu</p>","","","","","","","","",""
"html-keyboard-response","122","287790","0.0-10.0-0.33","5aa787c66219a30001c765f8","650c16f0f2faf8d7a0d14c09","651c1d678c59f21a2b1a06bd","null","null","<p style=""font-size: 60px; font-family: BACS"">DhMtBbM</p>","","","","","","","","",""
"html-keyboard-response","123","288798","0.0-10.0-0.34","5aa787c66219a30001c765f8","650c16f0f2faf8d7a0d14c09","651c1d678c59f21a2b1a06bd","null","null","<p style=""font-size: 60px; font-family: BACS"">EPMDkYDE</p>","","","","","","","","",""
"html-keyboard-response","124","289806","0.0-10.0-0.35","5aa787c66219a30001c765f8","650c16f0f2faf8d7a0d14c09","651c1d678c59f21a2b1a06bd","null","null","<p style=""font-size: 60px; font-family: BACS"">KdARYDTk</p>","","","","","","","","",""
"html-keyboard-response","125","290815","0.0-10.0-0.36","5aa787c66219a30001c765f8","650c16f0f2faf8d7a0d14c09","651c1d678c59f21a2b1a06bd","null","null","<p style=""font-size: 60px; font-family: BACS"">ckLALQONk</p>","","","","","","","","",""
"html-keyboard-response","126","291823","0.0-10.0-0.37","5aa787c66219a30001c765f8","650c16f0f2faf8d7a0d14c09","651c1d678c59f21a2b1a06bd","null","null","<p style=""font-size: 60px; font-family: BACS"">PMPtklMck</p>","","","","","","","","",""
"html-keyboard-response","127","292831","0.0-10.0-0.38","5aa787c66219a30001c765f8","650c16f0f2faf8d7a0d14c09","651c1d678c59f21a2b1a06bd","null","null","<p style=""font-size: 60px; font-family: BACS"">uQkrdaQr</p>","","","","","","","","",""
"html-keyboard-response","128","293838","0.0-10.0-0.39","5aa787c66219a30001c765f8","650c16f0f2faf8d7a0d14c09","651c1d678c59f21a2b1a06bd","null","null","<p style=""font-size: 60px; font-family: BACS"">YJLcAQONk</p>","","","","","","","","",""
"html-keyboard-response","129","294846","0.0-10.0-0.40","5aa787c66219a30001c765f8","650c16f0f2faf8d7a0d14c09","651c1d678c59f21a2b1a06bd","null","null","<p style=""font-size: 60px; font-family: BACS"">lBKtlMck</p>","","","","","","","","",""
"html-keyboard-response","130","295854","0.0-10.0-0.41","5aa787c66219a30001c765f8","650c16f0f2faf8d7a0d14c09","651c1d678c59f21a2b1a06bd","null","null","<p style=""font-size: 60px; font-family: BACS"">UJkGQONk</p>","","","","","","","","",""
"html-keyboard-response","131","296862","0.0-10.0-0.42","5aa787c66219a30001c765f8","650c16f0f2faf8d7a0d14c09","651c1d678c59f21a2b1a06bd","null","null","<p style=""font-size: 60px; font-family: BACS"">PMPtkAPT</p>","","","","","","","","",""
"html-keyboard-response","132","297870","0.0-10.0-0.43","5aa787c66219a30001c765f8","650c16f0f2faf8d7a0d14c09","651c1d678c59f21a2b1a06bd","null","null","<p style=""font-size: 60px; font-family: BACS"">KdARYDE</p>","","","","","","","","",""
"html-keyboard-response","133","298878","0.0-10.0-0.44","5aa787c66219a30001c765f8","650c16f0f2faf8d7a0d14c09","651c1d678c59f21a2b1a06bd","null","null","<p style=""font-size: 60px; font-family: BACS"">vmuLlYNu</p>","","","","","","","","",""
"html-keyboard-response","134","299886","0.0-10.0-0.45","5aa787c66219a30001c765f8","650c16f0f2faf8d7a0d14c09","651c1d678c59f21a2b1a06bd","null","null","<p style=""font-size: 60px; font-family: BACS"">OZkbrAJu</p>","","","","","","","","",""
"html-keyboard-response","135","300887","0.0-10.0-0.46","5aa787c66219a30001c765f8","650c16f0f2faf8d7a0d14c09","651c1d678c59f21a2b1a06bd","null","null","<p style=""font-size: 60px; font-family: BACS"">hkRKYDTk</p>","","","","","","","","",""
"html-keyboard-response","136","301894","0.0-10.0-0.47","5aa787c66219a30001c765f8","650c16f0f2faf8d7a0d14c09","651c1d678c59f21a2b1a06bd","null","null","<p style=""font-size: 60px; font-family: BACS"">YJLcANac</p>","","","","","","","","",""
"html-keyboard-response","137","302902","0.0-10.0-0.48","5aa787c66219a30001c765f8","650c16f0f2faf8d7a0d14c09","651c1d678c59f21a2b1a06bd","null","null","<p style=""font-size: 60px; font-family: BACS"">OmtlDBbM</p>","","","","","","","","",""
"html-keyboard-response","138","303910","0.0-10.0-0.49","5aa787c66219a30001c765f8","650c16f0f2faf8d7a0d14c09","651c1d678c59f21a2b1a06bd","null","null","<p style=""font-size: 60px; font-family: BACS"">vmuLlrAJu</p>","","","","","","","","",""
"html-keyboard-response","139","304918","0.0-10.0-0.50","5aa787c66219a30001c765f8","650c16f0f2faf8d7a0d14c09","651c1d678c59f21a2b1a06bd","null","null","<p style=""font-size: 60px; font-family: BACS"">hmKPMBbM</p>","","","","","","","","",""
"html-keyboard-response","140","305926","0.0-10.0-0.51","5aa787c66219a30001c765f8","650c16f0f2faf8d7a0d14c09","651c1d678c59f21a2b1a06bd","null","null","<p style=""font-size: 60px; font-family: BACS"">ckLALrAJu</p>","","","","","","","","",""
"html-keyboard-response","141","306934","0.0-10.0-0.52","5aa787c66219a30001c765f8","650c16f0f2faf8d7a0d14c09","651c1d678c59f21a2b1a06bd","null","null","<p style=""font-size: 60px; font-family: BACS"">lrZGNac</p>","","","","","","","","",""
"html-keyboard-response","142","307942","0.0-10.0-0.53","5aa787c66219a30001c765f8","650c16f0f2faf8d7a0d14c09","651c1d678c59f21a2b1a06bd","null","null","<p style=""font-size: 60px; font-family: BACS"">YJLcAYNu</p>","","","","","","","","",""
"html-keyboard-response","143","308950","0.0-10.0-0.54","5aa787c66219a30001c765f8","650c16f0f2faf8d7a0d14c09","651c1d678c59f21a2b1a06bd","null","null","<p style=""font-size: 60px; font-family: BACS"">hmKPMlMck</p>","","","","","","","","",""
"html-keyboard-response","144","309958","0.0-10.0-0.55","5aa787c66219a30001c765f8","650c16f0f2faf8d7a0d14c09","651c1d678c59f21a2b1a06bd","null","null","<p style=""font-size: 60px; font-family: BACS"">hkRKYDE</p>","","","","","","","","",""
"html-keyboard-response","145","310966","0.0-10.0-0.56","5aa787c66219a30001c765f8","650c16f0f2faf8d7a0d14c09","651c1d678c59f21a2b1a06bd","null","null","<p style=""font-size: 60px; font-family: BACS"">TEBKAPT</p>","","","","","","","","",""
"html-keyboard-response","146","311974","0.0-10.0-0.57","5aa787c66219a30001c765f8","650c16f0f2faf8d7a0d14c09","651c1d678c59f21a2b1a06bd","null","null","<p style=""font-size: 60px; font-family: BACS"">lrZGQONk</p>","","","","","","","","",""
"html-keyboard-response","147","312982","0.0-10.0-0.58","5aa787c66219a30001c765f8","650c16f0f2faf8d7a0d14c09","651c1d678c59f21a2b1a06bd","null","null","<p style=""font-size: 60px; font-family: BACS"">uQkrdYNu</p>","","","","","","","","",""
"html-keyboard-response","148","313990","0.0-10.0-0.59","5aa787c66219a30001c765f8","650c16f0f2faf8d7a0d14c09","651c1d678c59f21a2b1a06bd","null","null","<p style=""font-size: 60px; font-family: BACS"">JAdLmQONk</p>","","","","","","","","",""
"html-keyboard-response","149","314998","0.0-10.0-0.60","5aa787c66219a30001c765f8","650c16f0f2faf8d7a0d14c09","651c1d678c59f21a2b1a06bd","null","null","<p style=""font-size: 60px; font-family: BACS"">EtMDMlMck</p>","","","","","","","","",""
"html-keyboard-response","150","316006","0.0-10.0-0.61","5aa787c66219a30001c765f8","650c16f0f2faf8d7a0d14c09","651c1d678c59f21a2b1a06bd","null","null","<p style=""font-size: 60px; font-family: BACS"">EPMDkAPT</p>","","","","","","","","",""
"html-keyboard-response","151","317013","0.0-10.0-0.62","5aa787c66219a30001c765f8","650c16f0f2faf8d7a0d14c09","651c1d678c59f21a2b1a06bd","null","null","<p style=""font-size: 60px; font-family: BACS"">ckLALNac</p>","","","","","","","","",""
"html-keyboard-response","152","318022","0.0-10.0-0.63","5aa787c66219a30001c765f8","650c16f0f2faf8d7a0d14c09","651c1d678c59f21a2b1a06bd","null","null","<p style=""font-size: 60px; font-family: BACS"">DhMtlMck</p>","","","","","","","","",""
"html-keyboard-response","153","319030","0.0-10.0-0.64","5aa787c66219a30001c765f8","650c16f0f2faf8d7a0d14c09","651c1d678c59f21a2b1a06bd","null","null","<p style=""font-size: 60px; font-family: BACS"">EtMDMAPT</p>","","","","","","","","",""
"html-keyboard-response","154","320038","0.0-10.0-0.65","5aa787c66219a30001c765f8","650c16f0f2faf8d7a0d14c09","651c1d678c59f21a2b1a06bd","null","null","<p style=""font-size: 60px; font-family: BACS"">dkLlYNu</p>","","","","","","","","",""
"html-keyboard-response","155","321045","0.0-10.0-0.66","5aa787c66219a30001c765f8","650c16f0f2faf8d7a0d14c09","651c1d678c59f21a2b1a06bd","null","null","<p style=""font-size: 60px; font-family: BACS"">lBKtBbM</p>","","","","","","","","",""
"html-keyboard-response","156","322054","0.0-10.0-0.67","5aa787c66219a30001c765f8","650c16f0f2faf8d7a0d14c09","651c1d678c59f21a2b1a06bd","null","null","<p style=""font-size: 60px; font-family: BACS"">JAdLmYNu</p>","","","","","","","","",""
"html-keyboard-response","157","323062","0.0-10.0-0.68","5aa787c66219a30001c765f8","650c16f0f2faf8d7a0d14c09","651c1d678c59f21a2b1a06bd","null","null","<p style=""font-size: 60px; font-family: BACS"">TEBKYDTk</p>","","","","","","","","",""
"html-keyboard-response","158","324070","0.0-10.0-0.69","5aa787c66219a30001c765f8","650c16f0f2faf8d7a0d14c09","651c1d678c59f21a2b1a06bd","null","null","<p style=""font-size: 60px; font-family: BACS"">mcOJaQr</p>","","","","","","","","",""
"html-keyboard-response","159","325078","0.0-10.0-0.70","5aa787c66219a30001c765f8","650c16f0f2faf8d7a0d14c09","651c1d678c59f21a2b1a06bd","null","null","<p style=""font-size: 60px; font-family: BACS"">EPMDkBbM</p>","","","","","","","","",""
"html-keyboard-response","160","326086","0.0-10.0-0.71","5aa787c66219a30001c765f8","650c16f0f2faf8d7a0d14c09","651c1d678c59f21a2b1a06bd","null","null","<p style=""font-size: 60px; font-family: BACS"">lBKtAPT</p>","","","","","","","","",""
"html-keyboard-response","161","327094","0.0-10.0-0.72","5aa787c66219a30001c765f8","650c16f0f2faf8d7a0d14c09","651c1d678c59f21a2b1a06bd","null","null","<p style=""font-size: 60px; font-family: BACS"">mcOJYNu</p>","","","","","","","","",""
"html-keyboard-response","162","328101","0.0-10.0-0.73","5aa787c66219a30001c765f8","650c16f0f2faf8d7a0d14c09","651c1d678c59f21a2b1a06bd","null","null","<p style=""font-size: 60px; font-family: BACS"">lBKtYDTk</p>","","","","","","","","",""
"html-keyboard-response","163","329109","0.0-10.0-0.74","5aa787c66219a30001c765f8","650c16f0f2faf8d7a0d14c09","651c1d678c59f21a2b1a06bd","null","null","<p style=""font-size: 60px; font-family: BACS"">OmtlDAPT</p>","","","","","","","","",""
"html-keyboard-response","164","330118","0.0-10.0-0.75","5aa787c66219a30001c765f8","650c16f0f2faf8d7a0d14c09","651c1d678c59f21a2b1a06bd","null","null","<p style=""font-size: 60px; font-family: BACS"">OZkbQONk</p>","","","","","","","","",""
"html-keyboard-response","165","331125","0.0-10.0-0.76","5aa787c66219a30001c765f8","650c16f0f2faf8d7a0d14c09","651c1d678c59f21a2b1a06bd","null","null","<p style=""font-size: 60px; font-family: BACS"">KdARlMck</p>","","","","","","","","",""
"html-keyboard-response","166","332133","0.0-10.0-0.77","5aa787c66219a30001c765f8","650c16f0f2faf8d7a0d14c09","651c1d678c59f21a2b1a06bd","null","null","<p style=""font-size: 60px; font-family: BACS"">UJkGNac</p>","","","","","","","","",""
"html-keyboard-response","167","333142","0.0-10.0-0.78","5aa787c66219a30001c765f8","650c16f0f2faf8d7a0d14c09","651c1d678c59f21a2b1a06bd","null","null","<p style=""font-size: 60px; font-family: BACS"">OZkbaQr</p>","","","","","","","","",""
"html-keyboard-response","168","334150","0.0-10.0-0.79","5aa787c66219a30001c765f8","650c16f0f2faf8d7a0d14c09","651c1d678c59f21a2b1a06bd","null","null","<p style=""font-size: 60px; font-family: BACS"">uQkrdNac</p>","","","","","","","","",""
"html-keyboard-response","169","341209","0.0-11.0","5aa787c66219a30001c765f8","650c16f0f2faf8d7a0d14c09","651c1d678c59f21a2b1a06bd","7058"," ","<p>Great, you've seen the second block of words. You may now take a short break.</p>
      <p>Press the spacebar when you're ready to continue.</p>","","","","","","","","",""
"html-keyboard-response","170","342213","0.0-12.0-0.0","5aa787c66219a30001c765f8","650c16f0f2faf8d7a0d14c09","651c1d678c59f21a2b1a06bd","null","null","<p style=""font-size: 60px; font-family: BACS"">lBKtBbM</p>","","","","","","","","",""
"html-keyboard-response","171","343221","0.0-12.0-0.1","5aa787c66219a30001c765f8","650c16f0f2faf8d7a0d14c09","651c1d678c59f21a2b1a06bd","null","null","<p style=""font-size: 60px; font-family: BACS"">uQkrdrAJu</p>","","","","","","","","",""
"html-keyboard-response","172","344229","0.0-12.0-0.2","5aa787c66219a30001c765f8","650c16f0f2faf8d7a0d14c09","651c1d678c59f21a2b1a06bd","null","null","<p style=""font-size: 60px; font-family: BACS"">EtMDMlMck</p>","","","","","","","","",""
"html-keyboard-response","173","345237","0.0-12.0-0.3","5aa787c66219a30001c765f8","650c16f0f2faf8d7a0d14c09","651c1d678c59f21a2b1a06bd","null","null","<p style=""font-size: 60px; font-family: BACS"">dkLlNac</p>","","","","","","","","",""
"html-keyboard-response","174","346245","0.0-12.0-0.4","5aa787c66219a30001c765f8","650c16f0f2faf8d7a0d14c09","651c1d678c59f21a2b1a06bd","null","null","<p style=""font-size: 60px; font-family: BACS"">mcOJYNu</p>","","","","","","","","",""
"html-keyboard-response","175","347253","0.0-12.0-0.5","5aa787c66219a30001c765f8","650c16f0f2faf8d7a0d14c09","651c1d678c59f21a2b1a06bd","null","null","<p style=""font-size: 60px; font-family: BACS"">DhMtBbM</p>","","","","","","","","",""
"html-keyboard-response","176","348262","0.0-12.0-0.6","5aa787c66219a30001c765f8","650c16f0f2faf8d7a0d14c09","651c1d678c59f21a2b1a06bd","null","null","<p style=""font-size: 60px; font-family: BACS"">KdARYDTk</p>","","","","","","","","",""
"html-keyboard-response","177","349269","0.0-12.0-0.7","5aa787c66219a30001c765f8","650c16f0f2faf8d7a0d14c09","651c1d678c59f21a2b1a06bd","null","null","<p style=""font-size: 60px; font-family: BACS"">UJkGrAJu</p>","","","","","","","","",""
"html-keyboard-response","178","350277","0.0-12.0-0.8","5aa787c66219a30001c765f8","650c16f0f2faf8d7a0d14c09","651c1d678c59f21a2b1a06bd","null","null","<p style=""font-size: 60px; font-family: BACS"">hkRKYDE</p>","","","","","","","","",""
"html-keyboard-response","179","351285","0.0-12.0-0.9","5aa787c66219a30001c765f8","650c16f0f2faf8d7a0d14c09","651c1d678c59f21a2b1a06bd","null","null","<p style=""font-size: 60px; font-family: BACS"">ckLALQONk</p>","","","","","","","","",""
"html-keyboard-response","180","352293","0.0-12.0-0.10","5aa787c66219a30001c765f8","650c16f0f2faf8d7a0d14c09","651c1d678c59f21a2b1a06bd","null","null","<p style=""font-size: 60px; font-family: BACS"">EtMDMYDE</p>","","","","","","","","",""
"html-keyboard-response","181","353302","0.0-12.0-0.11","5aa787c66219a30001c765f8","650c16f0f2faf8d7a0d14c09","651c1d678c59f21a2b1a06bd","null","null","<p style=""font-size: 60px; font-family: BACS"">OZkbaQr</p>","","","","","","","","",""
"html-keyboard-response","182","354309","0.0-12.0-0.12","5aa787c66219a30001c765f8","650c16f0f2faf8d7a0d14c09","651c1d678c59f21a2b1a06bd","null","null","<p style=""font-size: 60px; font-family: BACS"">EPMDkYDE</p>","","","","","","","","",""
"html-keyboard-response","183","355317","0.0-12.0-0.13","5aa787c66219a30001c765f8","650c16f0f2faf8d7a0d14c09","651c1d678c59f21a2b1a06bd","null","null","<p style=""font-size: 60px; font-family: BACS"">uQkrdNac</p>","","","","","","","","",""
"html-keyboard-response","184","356325","0.0-12.0-0.14","5aa787c66219a30001c765f8","650c16f0f2faf8d7a0d14c09","651c1d678c59f21a2b1a06bd","null","null","<p style=""font-size: 60px; font-family: BACS"">lrZGrAJu</p>","","","","","","","","",""
"html-keyboard-response","185","357333","0.0-12.0-0.15","5aa787c66219a30001c765f8","650c16f0f2faf8d7a0d14c09","651c1d678c59f21a2b1a06bd","null","null","<p style=""font-size: 60px; font-family: BACS"">PMPtklMck</p>","","","","","","","","",""
"html-keyboard-response","186","358341","0.0-12.0-0.16","5aa787c66219a30001c765f8","650c16f0f2faf8d7a0d14c09","651c1d678c59f21a2b1a06bd","null","null","<p style=""font-size: 60px; font-family: BACS"">mcOJNac</p>","","","","","","","","",""
"html-keyboard-response","187","359349","0.0-12.0-0.17","5aa787c66219a30001c765f8","650c16f0f2faf8d7a0d14c09","651c1d678c59f21a2b1a06bd","null","null","<p style=""font-size: 60px; font-family: BACS"">DhMtYDE</p>","","","","","","","","",""
"html-keyboard-response","188","360357","0.0-12.0-0.18","5aa787c66219a30001c765f8","650c16f0f2faf8d7a0d14c09","651c1d678c59f21a2b1a06bd","null","null","<p style=""font-size: 60px; font-family: BACS"">TEBKBbM</p>","","","","","","","","",""
"html-keyboard-response","189","361364","0.0-12.0-0.19","5aa787c66219a30001c765f8","650c16f0f2faf8d7a0d14c09","651c1d678c59f21a2b1a06bd","null","null","<p style=""font-size: 60px; font-family: BACS"">lrZGYNu</p>","","","","","","","","",""
"html-keyboard-response","190","362373","0.0-12.0-0.20","5aa787c66219a30001c765f8","650c16f0f2faf8d7a0d14c09","651c1d678c59f21a2b1a06bd","null","null","<p style=""font-size: 60px; font-family: BACS"">UJkGNac</p>","","","","","","","","",""
"html-keyboard-response","191","363380","0.0-12.0-0.21","5aa787c66219a30001c765f8","650c16f0f2faf8d7a0d14c09","651c1d678c59f21a2b1a06bd","null","null","<p style=""font-size: 60px; font-family: BACS"">hmKPMAPT</p>","","","","","","","","",""
"html-keyboard-response","192","364389","0.0-12.0-0.22","5aa787c66219a30001c765f8","650c16f0f2faf8d7a0d14c09","651c1d678c59f21a2b1a06bd","null","null","<p style=""font-size: 60px; font-family: BACS"">JAdLmaQr</p>","","","","","","","","",""
"html-keyboard-response","193","365396","0.0-12.0-0.23","5aa787c66219a30001c765f8","650c16f0f2faf8d7a0d14c09","651c1d678c59f21a2b1a06bd","null","null","<p style=""font-size: 60px; font-family: BACS"">uQkrdYNu</p>","","","","","","","","",""
"html-keyboard-response","194","366405","0.0-12.0-0.24","5aa787c66219a30001c765f8","650c16f0f2faf8d7a0d14c09","651c1d678c59f21a2b1a06bd","null","null","<p style=""font-size: 60px; font-family: BACS"">mcOJaQr</p>","","","","","","","","",""
"html-keyboard-response","195","367413","0.0-12.0-0.25","5aa787c66219a30001c765f8","650c16f0f2faf8d7a0d14c09","651c1d678c59f21a2b1a06bd","null","null","<p style=""font-size: 60px; font-family: BACS"">OZkbrAJu</p>","","","","","","","","",""
"html-keyboard-response","196","368420","0.0-12.0-0.26","5aa787c66219a30001c765f8","650c16f0f2faf8d7a0d14c09","651c1d678c59f21a2b1a06bd","null","null","<p style=""font-size: 60px; font-family: BACS"">ckLALaQr</p>","","","","","","","","",""
"html-keyboard-response","197","369428","0.0-12.0-0.27","5aa787c66219a30001c765f8","650c16f0f2faf8d7a0d14c09","651c1d678c59f21a2b1a06bd","null","null","<p style=""font-size: 60px; font-family: BACS"">PMPtkYDE</p>","","","","","","","","",""
"html-keyboard-response","198","370437","0.0-12.0-0.28","5aa787c66219a30001c765f8","650c16f0f2faf8d7a0d14c09","651c1d678c59f21a2b1a06bd","null","null","<p style=""font-size: 60px; font-family: BACS"">uQkrdaQr</p>","","","","","","","","",""
"html-keyboard-response","199","371444","0.0-12.0-0.29","5aa787c66219a30001c765f8","650c16f0f2faf8d7a0d14c09","651c1d678c59f21a2b1a06bd","null","null","<p style=""font-size: 60px; font-family: BACS"">OmtlDBbM</p>","","","","","","","","",""
"html-keyboard-response","200","372452","0.0-12.0-0.30","5aa787c66219a30001c765f8","650c16f0f2faf8d7a0d14c09","651c1d678c59f21a2b1a06bd","null","null","<p style=""font-size: 60px; font-family: BACS"">vmuLlaQr</p>","","","","","","","","",""
"html-keyboard-response","201","373461","0.0-12.0-0.31","5aa787c66219a30001c765f8","650c16f0f2faf8d7a0d14c09","651c1d678c59f21a2b1a06bd","null","null","<p style=""font-size: 60px; font-family: BACS"">OmtlDYDTk</p>","","","","","","","","",""
"html-keyboard-response","202","374469","0.0-12.0-0.32","5aa787c66219a30001c765f8","650c16f0f2faf8d7a0d14c09","651c1d678c59f21a2b1a06bd","null","null","<p style=""font-size: 60px; font-family: BACS"">vmuLlrAJu</p>","","","","","","","","",""
"html-keyboard-response","203","375477","0.0-12.0-0.33","5aa787c66219a30001c765f8","650c16f0f2faf8d7a0d14c09","651c1d678c59f21a2b1a06bd","null","null","<p style=""font-size: 60px; font-family: BACS"">PMPtkAPT</p>","","","","","","","","",""
"html-keyboard-response","204","376485","0.0-12.0-0.34","5aa787c66219a30001c765f8","650c16f0f2faf8d7a0d14c09","651c1d678c59f21a2b1a06bd","null","null","<p style=""font-size: 60px; font-family: BACS"">EtMDMBbM</p>","","","","","","","","",""
"html-keyboard-response","205","377492","0.0-12.0-0.35","5aa787c66219a30001c765f8","650c16f0f2faf8d7a0d14c09","651c1d678c59f21a2b1a06bd","null","null","<p style=""font-size: 60px; font-family: BACS"">YJLcAYNu</p>","","","","","","","","",""
"html-keyboard-response","206","378501","0.0-12.0-0.36","5aa787c66219a30001c765f8","650c16f0f2faf8d7a0d14c09","651c1d678c59f21a2b1a06bd","null","null","<p style=""font-size: 60px; font-family: BACS"">OmtlDYDE</p>","","","","","","","","",""
"html-keyboard-response","207","379509","0.0-12.0-0.37","5aa787c66219a30001c765f8","650c16f0f2faf8d7a0d14c09","651c1d678c59f21a2b1a06bd","null","null","<p style=""font-size: 60px; font-family: BACS"">lrZGNac</p>","","","","","","","","",""
"html-keyboard-response","208","380516","0.0-12.0-0.38","5aa787c66219a30001c765f8","650c16f0f2faf8d7a0d14c09","651c1d678c59f21a2b1a06bd","null","null","<p style=""font-size: 60px; font-family: BACS"">hkRKBbM</p>","","","","","","","","",""
"html-keyboard-response","209","381525","0.0-12.0-0.39","5aa787c66219a30001c765f8","650c16f0f2faf8d7a0d14c09","651c1d678c59f21a2b1a06bd","null","null","<p style=""font-size: 60px; font-family: BACS"">KdARYDE</p>","","","","","","","","",""
"html-keyboard-response","210","382533","0.0-12.0-0.40","5aa787c66219a30001c765f8","650c16f0f2faf8d7a0d14c09","651c1d678c59f21a2b1a06bd","null","null","<p style=""font-size: 60px; font-family: BACS"">dkLlYNu</p>","","","","","","","","",""
"html-keyboard-response","211","383540","0.0-12.0-0.41","5aa787c66219a30001c765f8","650c16f0f2faf8d7a0d14c09","651c1d678c59f21a2b1a06bd","null","null","<p style=""font-size: 60px; font-family: BACS"">TEBKYDTk</p>","","","","","","","","",""
"html-keyboard-response","212","384548","0.0-12.0-0.42","5aa787c66219a30001c765f8","650c16f0f2faf8d7a0d14c09","651c1d678c59f21a2b1a06bd","null","null","<p style=""font-size: 60px; font-family: BACS"">hkRKlMck</p>","","","","","","","","",""
"html-keyboard-response","213","385557","0.0-12.0-0.43","5aa787c66219a30001c765f8","650c16f0f2faf8d7a0d14c09","651c1d678c59f21a2b1a06bd","null","null","<p style=""font-size: 60px; font-family: BACS"">JAdLmNac</p>","","","","","","","","",""
"html-keyboard-response","214","386564","0.0-12.0-0.44","5aa787c66219a30001c765f8","650c16f0f2faf8d7a0d14c09","651c1d678c59f21a2b1a06bd","null","null","<p style=""font-size: 60px; font-family: BACS"">mcOJQONk</p>","","","","","","","","",""
"html-keyboard-response","215","387572","0.0-12.0-0.45","5aa787c66219a30001c765f8","650c16f0f2faf8d7a0d14c09","651c1d678c59f21a2b1a06bd","null","null","<p style=""font-size: 60px; font-family: BACS"">hkRKYDTk</p>","","","","","","","","",""
"html-keyboard-response","216","388580","0.0-12.0-0.46","5aa787c66219a30001c765f8","650c16f0f2faf8d7a0d14c09","651c1d678c59f21a2b1a06bd","null","null","<p style=""font-size: 60px; font-family: BACS"">ckLALrAJu</p>","","","","","","","","",""
"html-keyboard-response","217","389588","0.0-12.0-0.47","5aa787c66219a30001c765f8","650c16f0f2faf8d7a0d14c09","651c1d678c59f21a2b1a06bd","null","null","<p style=""font-size: 60px; font-family: BACS"">KdARAPT</p>","","","","","","","","",""
"html-keyboard-response","218","390597","0.0-12.0-0.48","5aa787c66219a30001c765f8","650c16f0f2faf8d7a0d14c09","651c1d678c59f21a2b1a06bd","null","null","<p style=""font-size: 60px; font-family: BACS"">PMPtkYDTk</p>","","","","","","","","",""
"html-keyboard-response","219","391604","0.0-12.0-0.49","5aa787c66219a30001c765f8","650c16f0f2faf8d7a0d14c09","651c1d678c59f21a2b1a06bd","null","null","<p style=""font-size: 60px; font-family: BACS"">JAdLmYNu</p>","","","","","","","","",""
"html-keyboard-response","220","392613","0.0-12.0-0.50","5aa787c66219a30001c765f8","650c16f0f2faf8d7a0d14c09","651c1d678c59f21a2b1a06bd","null","null","<p style=""font-size: 60px; font-family: BACS"">DhMtlMck</p>","","","","","","","","",""
"html-keyboard-response","221","393620","0.0-12.0-0.51","5aa787c66219a30001c765f8","650c16f0f2faf8d7a0d14c09","651c1d678c59f21a2b1a06bd","null","null","<p style=""font-size: 60px; font-family: BACS"">TEBKAPT</p>","","","","","","","","",""
"html-keyboard-response","222","394628","0.0-12.0-0.52","5aa787c66219a30001c765f8","650c16f0f2faf8d7a0d14c09","651c1d678c59f21a2b1a06bd","null","null","<p style=""font-size: 60px; font-family: BACS"">UJkGQONk</p>","","","","","","","","",""
"html-keyboard-response","223","395636","0.0-12.0-0.53","5aa787c66219a30001c765f8","650c16f0f2faf8d7a0d14c09","651c1d678c59f21a2b1a06bd","null","null","<p style=""font-size: 60px; font-family: BACS"">OZkbYNu</p>","","","","","","","","",""
"html-keyboard-response","224","396645","0.0-12.0-0.54","5aa787c66219a30001c765f8","650c16f0f2faf8d7a0d14c09","651c1d678c59f21a2b1a06bd","null","null","<p style=""font-size: 60px; font-family: BACS"">lBKtYDTk</p>","","","","","","","","",""
"html-keyboard-response","225","397652","0.0-12.0-0.55","5aa787c66219a30001c765f8","650c16f0f2faf8d7a0d14c09","651c1d678c59f21a2b1a06bd","null","null","<p style=""font-size: 60px; font-family: BACS"">YJLcArAJu</p>","","","","","","","","",""
"html-keyboard-response","226","398660","0.0-12.0-0.56","5aa787c66219a30001c765f8","650c16f0f2faf8d7a0d14c09","651c1d678c59f21a2b1a06bd","null","null","<p style=""font-size: 60px; font-family: BACS"">lBKtlMck</p>","","","","","","","","",""
"html-keyboard-response","227","399668","0.0-12.0-0.57","5aa787c66219a30001c765f8","650c16f0f2faf8d7a0d14c09","651c1d678c59f21a2b1a06bd","null","null","<p style=""font-size: 60px; font-family: BACS"">ckLALNac</p>","","","","","","","","",""
"html-keyboard-response","228","400677","0.0-12.0-0.58","5aa787c66219a30001c765f8","650c16f0f2faf8d7a0d14c09","651c1d678c59f21a2b1a06bd","null","null","<p style=""font-size: 60px; font-family: BACS"">hmKPMlMck</p>","","","","","","","","",""
"html-keyboard-response","229","401684","0.0-12.0-0.59","5aa787c66219a30001c765f8","650c16f0f2faf8d7a0d14c09","651c1d678c59f21a2b1a06bd","null","null","<p style=""font-size: 60px; font-family: BACS"">DhMtYDTk</p>","","","","","","","","",""
"html-keyboard-response","230","402692","0.0-12.0-0.60","5aa787c66219a30001c765f8","650c16f0f2faf8d7a0d14c09","651c1d678c59f21a2b1a06bd","null","null","<p style=""font-size: 60px; font-family: BACS"">dkLlaQr</p>","","","","","","","","",""
"html-keyboard-response","231","403699","0.0-12.0-0.61","5aa787c66219a30001c765f8","650c16f0f2faf8d7a0d14c09","651c1d678c59f21a2b1a06bd","null","null","<p style=""font-size: 60px; font-family: BACS"">KdARlMck</p>","","","","","","","","",""
"html-keyboard-response","232","404708","0.0-12.0-0.62","5aa787c66219a30001c765f8","650c16f0f2faf8d7a0d14c09","651c1d678c59f21a2b1a06bd","null","null","<p style=""font-size: 60px; font-family: BACS"">OmtlDAPT</p>","","","","","","","","",""
"html-keyboard-response","233","405715","0.0-12.0-0.63","5aa787c66219a30001c765f8","650c16f0f2faf8d7a0d14c09","651c1d678c59f21a2b1a06bd","null","null","<p style=""font-size: 60px; font-family: BACS"">EPMDklMck</p>","","","","","","","","",""
"html-keyboard-response","234","406724","0.0-12.0-0.64","5aa787c66219a30001c765f8","650c16f0f2faf8d7a0d14c09","651c1d678c59f21a2b1a06bd","null","null","<p style=""font-size: 60px; font-family: BACS"">YJLcANac</p>","","","","","","","","",""
"html-keyboard-response","235","407731","0.0-12.0-0.65","5aa787c66219a30001c765f8","650c16f0f2faf8d7a0d14c09","651c1d678c59f21a2b1a06bd","null","null","<p style=""font-size: 60px; font-family: BACS"">TEBKYDE</p>","","","","","","","","",""
"html-keyboard-response","236","408740","0.0-12.0-0.66","5aa787c66219a30001c765f8","650c16f0f2faf8d7a0d14c09","651c1d678c59f21a2b1a06bd","null","null","<p style=""font-size: 60px; font-family: BACS"">EPMDkBbM</p>","","","","","","","","",""
"html-keyboard-response","237","409748","0.0-12.0-0.67","5aa787c66219a30001c765f8","650c16f0f2faf8d7a0d14c09","651c1d678c59f21a2b1a06bd","null","null","<p style=""font-size: 60px; font-family: BACS"">YJLcAQONk</p>","","","","","","","","",""
"html-keyboard-response","238","410756","0.0-12.0-0.68","5aa787c66219a30001c765f8","650c16f0f2faf8d7a0d14c09","651c1d678c59f21a2b1a06bd","null","null","<p style=""font-size: 60px; font-family: BACS"">UJkGaQr</p>","","","","","","","","",""
"html-keyboard-response","239","411763","0.0-12.0-0.69","5aa787c66219a30001c765f8","650c16f0f2faf8d7a0d14c09","651c1d678c59f21a2b1a06bd","null","null","<p style=""font-size: 60px; font-family: BACS"">vmuLlYNu</p>","","","","","","","","",""
"html-keyboard-response","240","412771","0.0-12.0-0.70","5aa787c66219a30001c765f8","650c16f0f2faf8d7a0d14c09","651c1d678c59f21a2b1a06bd","null","null","<p style=""font-size: 60px; font-family: BACS"">lBKtAPT</p>","","","","","","","","",""
"html-keyboard-response","241","413780","0.0-12.0-0.71","5aa787c66219a30001c765f8","650c16f0f2faf8d7a0d14c09","651c1d678c59f21a2b1a06bd","null","null","<p style=""font-size: 60px; font-family: BACS"">dkLlrAJu</p>","","","","","","","","",""
"html-keyboard-response","242","414787","0.0-12.0-0.72","5aa787c66219a30001c765f8","650c16f0f2faf8d7a0d14c09","651c1d678c59f21a2b1a06bd","null","null","<p style=""font-size: 60px; font-family: BACS"">EtMDMAPT</p>","","","","","","","","",""
"html-keyboard-response","243","415795","0.0-12.0-0.73","5aa787c66219a30001c765f8","650c16f0f2faf8d7a0d14c09","651c1d678c59f21a2b1a06bd","null","null","<p style=""font-size: 60px; font-family: BACS"">JAdLmQONk</p>","","","","","","","","",""
"html-keyboard-response","244","416804","0.0-12.0-0.74","5aa787c66219a30001c765f8","650c16f0f2faf8d7a0d14c09","651c1d678c59f21a2b1a06bd","null","null","<p style=""font-size: 60px; font-family: BACS"">hmKPMYDTk</p>","","","","","","","","",""
"html-keyboard-response","245","417812","0.0-12.0-0.75","5aa787c66219a30001c765f8","650c16f0f2faf8d7a0d14c09","651c1d678c59f21a2b1a06bd","null","null","<p style=""font-size: 60px; font-family: BACS"">OZkbQONk</p>","","","","","","","","",""
"html-keyboard-response","246","418819","0.0-12.0-0.76","5aa787c66219a30001c765f8","650c16f0f2faf8d7a0d14c09","651c1d678c59f21a2b1a06bd","null","null","<p style=""font-size: 60px; font-family: BACS"">EPMDkAPT</p>","","","","","","","","",""
"html-keyboard-response","247","419828","0.0-12.0-0.77","5aa787c66219a30001c765f8","650c16f0f2faf8d7a0d14c09","651c1d678c59f21a2b1a06bd","null","null","<p style=""font-size: 60px; font-family: BACS"">lrZGQONk</p>","","","","","","","","",""
"html-keyboard-response","248","420836","0.0-12.0-0.78","5aa787c66219a30001c765f8","650c16f0f2faf8d7a0d14c09","651c1d678c59f21a2b1a06bd","null","null","<p style=""font-size: 60px; font-family: BACS"">hmKPMBbM</p>","","","","","","","","",""
"html-keyboard-response","249","421843","0.0-12.0-0.79","5aa787c66219a30001c765f8","650c16f0f2faf8d7a0d14c09","651c1d678c59f21a2b1a06bd","null","null","<p style=""font-size: 60px; font-family: BACS"">vmuLlQONk</p>","","","","","","","","",""
"html-keyboard-response","250","427012","0.0-13.0","5aa787c66219a30001c765f8","650c16f0f2faf8d7a0d14c09","651c1d678c59f21a2b1a06bd","5168"," ","<p>Great, you've seen the third block of words. You may now take a short break.</p>
      <p>Press the spacebar when you're ready to continue.</p>","","","","","","","","",""
"html-keyboard-response","251","428020","0.0-14.0-0.0","5aa787c66219a30001c765f8","650c16f0f2faf8d7a0d14c09","651c1d678c59f21a2b1a06bd","null","null","<p style=""font-size: 60px; font-family: BACS"">hkRKYDE</p>","","","","","","","","",""
"html-keyboard-response","252","429028","0.0-14.0-0.1","5aa787c66219a30001c765f8","650c16f0f2faf8d7a0d14c09","651c1d678c59f21a2b1a06bd","null","null","<p style=""font-size: 60px; font-family: BACS"">vmuLlaQr</p>","","","","","","","","",""
"html-keyboard-response","253","430035","0.0-14.0-0.2","5aa787c66219a30001c765f8","650c16f0f2faf8d7a0d14c09","651c1d678c59f21a2b1a06bd","null","null","<p style=""font-size: 60px; font-family: BACS"">EPMDkBbM</p>","","","","","","","","",""
"html-keyboard-response","254","431043","0.0-14.0-0.3","5aa787c66219a30001c765f8","650c16f0f2faf8d7a0d14c09","651c1d678c59f21a2b1a06bd","null","null","<p style=""font-size: 60px; font-family: BACS"">lBKtAPT</p>","","","","","","","","",""
"html-keyboard-response","255","432051","0.0-14.0-0.4","5aa787c66219a30001c765f8","650c16f0f2faf8d7a0d14c09","651c1d678c59f21a2b1a06bd","null","null","<p style=""font-size: 60px; font-family: BACS"">UJkGaQr</p>","","","","","","","","",""
"html-keyboard-response","256","433059","0.0-14.0-0.5","5aa787c66219a30001c765f8","650c16f0f2faf8d7a0d14c09","651c1d678c59f21a2b1a06bd","null","null","<p style=""font-size: 60px; font-family: BACS"">lBKtBbM</p>","","","","","","","","",""
"html-keyboard-response","257","434067","0.0-14.0-0.6","5aa787c66219a30001c765f8","650c16f0f2faf8d7a0d14c09","651c1d678c59f21a2b1a06bd","null","null","<p style=""font-size: 60px; font-family: BACS"">hmKPMlMck</p>","","","","","","","","",""
"html-keyboard-response","258","435075","0.0-14.0-0.7","5aa787c66219a30001c765f8","650c16f0f2faf8d7a0d14c09","651c1d678c59f21a2b1a06bd","null","null","<p style=""font-size: 60px; font-family: BACS"">JAdLmQONk</p>","","","","","","","","",""
"html-keyboard-response","259","436083","0.0-14.0-0.8","5aa787c66219a30001c765f8","650c16f0f2faf8d7a0d14c09","651c1d678c59f21a2b1a06bd","null","null","<p style=""font-size: 60px; font-family: BACS"">TEBKYDE</p>","","","","","","","","",""
"html-keyboard-response","260","437092","0.0-14.0-0.9","5aa787c66219a30001c765f8","650c16f0f2faf8d7a0d14c09","651c1d678c59f21a2b1a06bd","null","null","<p style=""font-size: 60px; font-family: BACS"">dkLlrAJu</p>","","","","","","","","",""
"html-keyboard-response","261","438099","0.0-14.0-0.10","5aa787c66219a30001c765f8","650c16f0f2faf8d7a0d14c09","651c1d678c59f21a2b1a06bd","null","null","<p style=""font-size: 60px; font-family: BACS"">lBKtlMck</p>","","","","","","","","",""
"html-keyboard-response","262","439107","0.0-14.0-0.11","5aa787c66219a30001c765f8","650c16f0f2faf8d7a0d14c09","651c1d678c59f21a2b1a06bd","null","null","<p style=""font-size: 60px; font-family: BACS"">YJLcAQONk</p>","","","","","","","","",""
"html-keyboard-response","263","440115","0.0-14.0-0.12","5aa787c66219a30001c765f8","650c16f0f2faf8d7a0d14c09","651c1d678c59f21a2b1a06bd","null","null","<p style=""font-size: 60px; font-family: BACS"">PMPtkYDTk</p>","","","","","","","","",""
"html-keyboard-response","264","441123","0.0-14.0-0.13","5aa787c66219a30001c765f8","650c16f0f2faf8d7a0d14c09","651c1d678c59f21a2b1a06bd","null","null","<p style=""font-size: 60px; font-family: BACS"">OZkbYNu</p>","","","","","","","","",""
"html-keyboard-response","265","442131","0.0-14.0-0.14","5aa787c66219a30001c765f8","650c16f0f2faf8d7a0d14c09","651c1d678c59f21a2b1a06bd","null","null","<p style=""font-size: 60px; font-family: BACS"">UJkGNac</p>","","","","","","","","",""
"html-keyboard-response","266","443139","0.0-14.0-0.15","5aa787c66219a30001c765f8","650c16f0f2faf8d7a0d14c09","651c1d678c59f21a2b1a06bd","null","null","<p style=""font-size: 60px; font-family: BACS"">OmtlDAPT</p>","","","","","","","","",""
"html-keyboard-response","267","444147","0.0-14.0-0.16","5aa787c66219a30001c765f8","650c16f0f2faf8d7a0d14c09","651c1d678c59f21a2b1a06bd","null","null","<p style=""font-size: 60px; font-family: BACS"">uQkrdYNu</p>","","","","","","","","",""
"html-keyboard-response","268","445155","0.0-14.0-0.17","5aa787c66219a30001c765f8","650c16f0f2faf8d7a0d14c09","651c1d678c59f21a2b1a06bd","null","null","<p style=""font-size: 60px; font-family: BACS"">EPMDkYDE</p>","","","","","","","","",""
"html-keyboard-response","269","446163","0.0-14.0-0.18","5aa787c66219a30001c765f8","650c16f0f2faf8d7a0d14c09","651c1d678c59f21a2b1a06bd","null","null","<p style=""font-size: 60px; font-family: BACS"">EtMDMlMck</p>","","","","","","","","",""
"html-keyboard-response","270","447171","0.0-14.0-0.19","5aa787c66219a30001c765f8","650c16f0f2faf8d7a0d14c09","651c1d678c59f21a2b1a06bd","null","null","<p style=""font-size: 60px; font-family: BACS"">OmtlDYDTk</p>","","","","","","","","",""
"html-keyboard-response","271","448179","0.0-14.0-0.20","5aa787c66219a30001c765f8","650c16f0f2faf8d7a0d14c09","651c1d678c59f21a2b1a06bd","null","null","<p style=""font-size: 60px; font-family: BACS"">lrZGYNu</p>","","","","","","","","",""
"html-keyboard-response","272","449187","0.0-14.0-0.21","5aa787c66219a30001c765f8","650c16f0f2faf8d7a0d14c09","651c1d678c59f21a2b1a06bd","null","null","<p style=""font-size: 60px; font-family: BACS"">EtMDMAPT</p>","","","","","","","","",""
"html-keyboard-response","273","450194","0.0-14.0-0.22","5aa787c66219a30001c765f8","650c16f0f2faf8d7a0d14c09","651c1d678c59f21a2b1a06bd","null","null","<p style=""font-size: 60px; font-family: BACS"">uQkrdaQr</p>","","","","","","","","",""
"html-keyboard-response","274","451203","0.0-14.0-0.23","5aa787c66219a30001c765f8","650c16f0f2faf8d7a0d14c09","651c1d678c59f21a2b1a06bd","null","null","<p style=""font-size: 60px; font-family: BACS"">lrZGNac</p>","","","","","","","","",""
"html-keyboard-response","275","452211","0.0-14.0-0.24","5aa787c66219a30001c765f8","650c16f0f2faf8d7a0d14c09","651c1d678c59f21a2b1a06bd","null","null","<p style=""font-size: 60px; font-family: BACS"">lBKtYDTk</p>","","","","","","","","",""
"html-keyboard-response","276","453218","0.0-14.0-0.25","5aa787c66219a30001c765f8","650c16f0f2faf8d7a0d14c09","651c1d678c59f21a2b1a06bd","null","null","<p style=""font-size: 60px; font-family: BACS"">mcOJNac</p>","","","","","","","","",""
"html-keyboard-response","277","454226","0.0-14.0-0.26","5aa787c66219a30001c765f8","650c16f0f2faf8d7a0d14c09","651c1d678c59f21a2b1a06bd","null","null","<p style=""font-size: 60px; font-family: BACS"">UJkGQONk</p>","","","","","","","","",""
"html-keyboard-response","278","455234","0.0-14.0-0.27","5aa787c66219a30001c765f8","650c16f0f2faf8d7a0d14c09","651c1d678c59f21a2b1a06bd","null","null","<p style=""font-size: 60px; font-family: BACS"">hkRKBbM</p>","","","","","","","","",""
"html-keyboard-response","279","456243","0.0-14.0-0.28","5aa787c66219a30001c765f8","650c16f0f2faf8d7a0d14c09","651c1d678c59f21a2b1a06bd","null","null","<p style=""font-size: 60px; font-family: BACS"">mcOJYNu</p>","","","","","","","","",""
"html-keyboard-response","280","457251","0.0-14.0-0.29","5aa787c66219a30001c765f8","650c16f0f2faf8d7a0d14c09","651c1d678c59f21a2b1a06bd","null","null","<p style=""font-size: 60px; font-family: BACS"">dkLlaQr</p>","","","","","","","","",""
"html-keyboard-response","281","458259","0.0-14.0-0.30","5aa787c66219a30001c765f8","650c16f0f2faf8d7a0d14c09","651c1d678c59f21a2b1a06bd","null","null","<p style=""font-size: 60px; font-family: BACS"">ckLALQONk</p>","","","","","","","","",""
"html-keyboard-response","282","459267","0.0-14.0-0.31","5aa787c66219a30001c765f8","650c16f0f2faf8d7a0d14c09","651c1d678c59f21a2b1a06bd","null","null","<p style=""font-size: 60px; font-family: BACS"">DhMtYDE</p>","","","","","","","","",""
"html-keyboard-response","283","460275","0.0-14.0-0.32","5aa787c66219a30001c765f8","650c16f0f2faf8d7a0d14c09","651c1d678c59f21a2b1a06bd","null","null","<p style=""font-size: 60px; font-family: BACS"">PMPtklMck</p>","","","","","","","","",""
"html-keyboard-response","284","461282","0.0-14.0-0.33","5aa787c66219a30001c765f8","650c16f0f2faf8d7a0d14c09","651c1d678c59f21a2b1a06bd","null","null","<p style=""font-size: 60px; font-family: BACS"">TEBKBbM</p>","","","","","","","","",""
"html-keyboard-response","285","462288","0.0-14.0-0.34","5aa787c66219a30001c765f8","650c16f0f2faf8d7a0d14c09","651c1d678c59f21a2b1a06bd","null","null","<p style=""font-size: 60px; font-family: BACS"">uQkrdNac</p>","","","","","","","","",""
"html-keyboard-response","286","463291","0.0-14.0-0.35","5aa787c66219a30001c765f8","650c16f0f2faf8d7a0d14c09","651c1d678c59f21a2b1a06bd","null","null","<p style=""font-size: 60px; font-family: BACS"">hkRKYDTk</p>","","","","","","","","",""
"html-keyboard-response","287","464299","0.0-14.0-0.36","5aa787c66219a30001c765f8","650c16f0f2faf8d7a0d14c09","651c1d678c59f21a2b1a06bd","null","null","<p style=""font-size: 60px; font-family: BACS"">lrZGrAJu</p>","","","","","","","","",""
"html-keyboard-response","288","465306","0.0-14.0-0.37","5aa787c66219a30001c765f8","650c16f0f2faf8d7a0d14c09","651c1d678c59f21a2b1a06bd","null","null","<p style=""font-size: 60px; font-family: BACS"">EtMDMBbM</p>","","","","","","","","",""
"html-keyboard-response","289","466314","0.0-14.0-0.38","5aa787c66219a30001c765f8","650c16f0f2faf8d7a0d14c09","651c1d678c59f21a2b1a06bd","null","null","<p style=""font-size: 60px; font-family: BACS"">JAdLmNac</p>","","","","","","","","",""
"html-keyboard-response","290","467323","0.0-14.0-0.39","5aa787c66219a30001c765f8","650c16f0f2faf8d7a0d14c09","651c1d678c59f21a2b1a06bd","null","null","<p style=""font-size: 60px; font-family: BACS"">EPMDklMck</p>","","","","","","","","",""
"html-keyboard-response","291","468330","0.0-14.0-0.40","5aa787c66219a30001c765f8","650c16f0f2faf8d7a0d14c09","651c1d678c59f21a2b1a06bd","null","null","<p style=""font-size: 60px; font-family: BACS"">ckLALrAJu</p>","","","","","","","","",""
"html-keyboard-response","292","469338","0.0-14.0-0.41","5aa787c66219a30001c765f8","650c16f0f2faf8d7a0d14c09","651c1d678c59f21a2b1a06bd","null","null","<p style=""font-size: 60px; font-family: BACS"">YJLcAYNu</p>","","","","","","","","",""
"html-keyboard-response","293","470346","0.0-14.0-0.42","5aa787c66219a30001c765f8","650c16f0f2faf8d7a0d14c09","651c1d678c59f21a2b1a06bd","null","null","<p style=""font-size: 60px; font-family: BACS"">EtMDMYDE</p>","","","","","","","","",""
"html-keyboard-response","294","471354","0.0-14.0-0.43","5aa787c66219a30001c765f8","650c16f0f2faf8d7a0d14c09","651c1d678c59f21a2b1a06bd","null","null","<p style=""font-size: 60px; font-family: BACS"">PMPtkAPT</p>","","","","","","","","",""
"html-keyboard-response","295","472363","0.0-14.0-0.44","5aa787c66219a30001c765f8","650c16f0f2faf8d7a0d14c09","651c1d678c59f21a2b1a06bd","null","null","<p style=""font-size: 60px; font-family: BACS"">dkLlNac</p>","","","","","","","","",""
"html-keyboard-response","296","473370","0.0-14.0-0.45","5aa787c66219a30001c765f8","650c16f0f2faf8d7a0d14c09","651c1d678c59f21a2b1a06bd","null","null","<p style=""font-size: 60px; font-family: BACS"">JAdLmYNu</p>","","","","","","","","",""
"html-keyboard-response","297","474378","0.0-14.0-0.46","5aa787c66219a30001c765f8","650c16f0f2faf8d7a0d14c09","651c1d678c59f21a2b1a06bd","null","null","<p style=""font-size: 60px; font-family: BACS"">OZkbaQr</p>","","","","","","","","",""
"html-keyboard-response","298","475387","0.0-14.0-0.47","5aa787c66219a30001c765f8","650c16f0f2faf8d7a0d14c09","651c1d678c59f21a2b1a06bd","null","null","<p style=""font-size: 60px; font-family: BACS"">EPMDkAPT</p>","","","","","","","","",""
"html-keyboard-response","299","476394","0.0-14.0-0.48","5aa787c66219a30001c765f8","650c16f0f2faf8d7a0d14c09","651c1d678c59f21a2b1a06bd","null","null","<p style=""font-size: 60px; font-family: BACS"">KdARYDE</p>","","","","","","","","",""
"html-keyboard-response","300","477402","0.0-14.0-0.49","5aa787c66219a30001c765f8","650c16f0f2faf8d7a0d14c09","651c1d678c59f21a2b1a06bd","null","null","<p style=""font-size: 60px; font-family: BACS"">TEBKAPT</p>","","","","","","","","",""
"html-keyboard-response","301","478410","0.0-14.0-0.50","5aa787c66219a30001c765f8","650c16f0f2faf8d7a0d14c09","651c1d678c59f21a2b1a06bd","null","null","<p style=""font-size: 60px; font-family: BACS"">YJLcArAJu</p>","","","","","","","","",""
"html-keyboard-response","302","479418","0.0-14.0-0.51","5aa787c66219a30001c765f8","650c16f0f2faf8d7a0d14c09","651c1d678c59f21a2b1a06bd","null","null","<p style=""font-size: 60px; font-family: BACS"">hkRKlMck</p>","","","","","","","","",""
"html-keyboard-response","303","480426","0.0-14.0-0.52","5aa787c66219a30001c765f8","650c16f0f2faf8d7a0d14c09","651c1d678c59f21a2b1a06bd","null","null","<p style=""font-size: 60px; font-family: BACS"">OZkbQONk</p>","","","","","","","","",""
"html-keyboard-response","304","481434","0.0-14.0-0.53","5aa787c66219a30001c765f8","650c16f0f2faf8d7a0d14c09","651c1d678c59f21a2b1a06bd","null","null","<p style=""font-size: 60px; font-family: BACS"">ckLALNac</p>","","","","","","","","",""
"html-keyboard-response","305","482443","0.0-14.0-0.54","5aa787c66219a30001c765f8","650c16f0f2faf8d7a0d14c09","651c1d678c59f21a2b1a06bd","null","null","<p style=""font-size: 60px; font-family: BACS"">mcOJaQr</p>","","","","","","","","",""
"html-keyboard-response","306","483450","0.0-14.0-0.55","5aa787c66219a30001c765f8","650c16f0f2faf8d7a0d14c09","651c1d678c59f21a2b1a06bd","null","null","<p style=""font-size: 60px; font-family: BACS"">UJkGrAJu</p>","","","","","","","","",""
"html-keyboard-response","307","484458","0.0-14.0-0.56","5aa787c66219a30001c765f8","650c16f0f2faf8d7a0d14c09","651c1d678c59f21a2b1a06bd","null","null","<p style=""font-size: 60px; font-family: BACS"">DhMtBbM</p>","","","","","","","","",""
"html-keyboard-response","308","485466","0.0-14.0-0.57","5aa787c66219a30001c765f8","650c16f0f2faf8d7a0d14c09","651c1d678c59f21a2b1a06bd","null","null","<p style=""font-size: 60px; font-family: BACS"">KdARAPT</p>","","","","","","","","",""
"html-keyboard-response","309","486474","0.0-14.0-0.58","5aa787c66219a30001c765f8","650c16f0f2faf8d7a0d14c09","651c1d678c59f21a2b1a06bd","null","null","<p style=""font-size: 60px; font-family: BACS"">TEBKYDTk</p>","","","","","","","","",""
"html-keyboard-response","310","487482","0.0-14.0-0.59","5aa787c66219a30001c765f8","650c16f0f2faf8d7a0d14c09","651c1d678c59f21a2b1a06bd","null","null","<p style=""font-size: 60px; font-family: BACS"">hmKPMAPT</p>","","","","","","","","",""
"html-keyboard-response","311","488490","0.0-14.0-0.60","5aa787c66219a30001c765f8","650c16f0f2faf8d7a0d14c09","651c1d678c59f21a2b1a06bd","null","null","<p style=""font-size: 60px; font-family: BACS"">OZkbrAJu</p>","","","","","","","","",""
"html-keyboard-response","312","489498","0.0-14.0-0.61","5aa787c66219a30001c765f8","650c16f0f2faf8d7a0d14c09","651c1d678c59f21a2b1a06bd","null","null","<p style=""font-size: 60px; font-family: BACS"">KdARlMck</p>","","","","","","","","",""
"html-keyboard-response","313","490506","0.0-14.0-0.62","5aa787c66219a30001c765f8","650c16f0f2faf8d7a0d14c09","651c1d678c59f21a2b1a06bd","null","null","<p style=""font-size: 60px; font-family: BACS"">PMPtkYDE</p>","","","","","","","","",""
"html-keyboard-response","314","491514","0.0-14.0-0.63","5aa787c66219a30001c765f8","650c16f0f2faf8d7a0d14c09","651c1d678c59f21a2b1a06bd","null","null","<p style=""font-size: 60px; font-family: BACS"">ckLALaQr</p>","","","","","","","","",""
"html-keyboard-response","315","492523","0.0-14.0-0.64","5aa787c66219a30001c765f8","650c16f0f2faf8d7a0d14c09","651c1d678c59f21a2b1a06bd","null","null","<p style=""font-size: 60px; font-family: BACS"">vmuLlQONk</p>","","","","","","","","",""
"html-keyboard-response","316","493530","0.0-14.0-0.65","5aa787c66219a30001c765f8","650c16f0f2faf8d7a0d14c09","651c1d678c59f21a2b1a06bd","null","null","<p style=""font-size: 60px; font-family: BACS"">hmKPMBbM</p>","","","","","","","","",""
"html-keyboard-response","317","494538","0.0-14.0-0.66","5aa787c66219a30001c765f8","650c16f0f2faf8d7a0d14c09","651c1d678c59f21a2b1a06bd","null","null","<p style=""font-size: 60px; font-family: BACS"">lrZGQONk</p>","","","","","","","","",""
"html-keyboard-response","318","495546","0.0-14.0-0.67","5aa787c66219a30001c765f8","650c16f0f2faf8d7a0d14c09","651c1d678c59f21a2b1a06bd","null","null","<p style=""font-size: 60px; font-family: BACS"">YJLcANac</p>","","","","","","","","",""
"html-keyboard-response","319","496554","0.0-14.0-0.68","5aa787c66219a30001c765f8","650c16f0f2faf8d7a0d14c09","651c1d678c59f21a2b1a06bd","null","null","<p style=""font-size: 60px; font-family: BACS"">dkLlYNu</p>","","","","","","","","",""
"html-keyboard-response","320","497562","0.0-14.0-0.69","5aa787c66219a30001c765f8","650c16f0f2faf8d7a0d14c09","651c1d678c59f21a2b1a06bd","null","null","<p style=""font-size: 60px; font-family: BACS"">OmtlDBbM</p>","","","","","","","","",""
"html-keyboard-response","321","498570","0.0-14.0-0.70","5aa787c66219a30001c765f8","650c16f0f2faf8d7a0d14c09","651c1d678c59f21a2b1a06bd","null","null","<p style=""font-size: 60px; font-family: BACS"">vmuLlYNu</p>","","","","","","","","",""
"html-keyboard-response","322","499578","0.0-14.0-0.71","5aa787c66219a30001c765f8","650c16f0f2faf8d7a0d14c09","651c1d678c59f21a2b1a06bd","null","null","<p style=""font-size: 60px; font-family: BACS"">uQkrdrAJu</p>","","","","","","","","",""
"html-keyboard-response","323","500586","0.0-14.0-0.72","5aa787c66219a30001c765f8","650c16f0f2faf8d7a0d14c09","651c1d678c59f21a2b1a06bd","null","null","<p style=""font-size: 60px; font-family: BACS"">hmKPMYDTk</p>","","","","","","","","",""
"html-keyboard-response","324","501594","0.0-14.0-0.73","5aa787c66219a30001c765f8","650c16f0f2faf8d7a0d14c09","651c1d678c59f21a2b1a06bd","null","null","<p style=""font-size: 60px; font-family: BACS"">mcOJQONk</p>","","","","","","","","",""
"html-keyboard-response","325","502602","0.0-14.0-0.74","5aa787c66219a30001c765f8","650c16f0f2faf8d7a0d14c09","651c1d678c59f21a2b1a06bd","null","null","<p style=""font-size: 60px; font-family: BACS"">DhMtlMck</p>","","","","","","","","",""
"html-keyboard-response","326","503609","0.0-14.0-0.75","5aa787c66219a30001c765f8","650c16f0f2faf8d7a0d14c09","651c1d678c59f21a2b1a06bd","null","null","<p style=""font-size: 60px; font-family: BACS"">JAdLmaQr</p>","","","","","","","","",""
"html-keyboard-response","327","504617","0.0-14.0-0.76","5aa787c66219a30001c765f8","650c16f0f2faf8d7a0d14c09","651c1d678c59f21a2b1a06bd","null","null","<p style=""font-size: 60px; font-family: BACS"">KdARYDTk</p>","","","","","","","","",""
"html-keyboard-response","328","505625","0.0-14.0-0.77","5aa787c66219a30001c765f8","650c16f0f2faf8d7a0d14c09","651c1d678c59f21a2b1a06bd","null","null","<p style=""font-size: 60px; font-family: BACS"">OmtlDYDE</p>","","","","","","","","",""
"html-keyboard-response","329","506633","0.0-14.0-0.78","5aa787c66219a30001c765f8","650c16f0f2faf8d7a0d14c09","651c1d678c59f21a2b1a06bd","null","null","<p style=""font-size: 60px; font-family: BACS"">vmuLlrAJu</p>","","","","","","","","",""
"html-keyboard-response","330","507642","0.0-14.0-0.79","5aa787c66219a30001c765f8","650c16f0f2faf8d7a0d14c09","651c1d678c59f21a2b1a06bd","null","null","<p style=""font-size: 60px; font-family: BACS"">DhMtYDTk</p>","","","","","","","","",""
"html-keyboard-response","331","513469","0.0-15.0","5aa787c66219a30001c765f8","650c16f0f2faf8d7a0d14c09","651c1d678c59f21a2b1a06bd","5826"," ","<p>Great, you've seen the fourth block of words. You may now take a short break.</p>
      <p>Press the spacebar when you're ready to continue.</p>","","","","","","","","",""
"html-keyboard-response","332","514474","0.0-16.0-0.0","5aa787c66219a30001c765f8","650c16f0f2faf8d7a0d14c09","651c1d678c59f21a2b1a06bd","null","null","<p style=""font-size: 60px; font-family: BACS"">lrZGrAJu</p>","","","","","","","","",""
"html-keyboard-response","333","515481","0.0-16.0-0.1","5aa787c66219a30001c765f8","650c16f0f2faf8d7a0d14c09","651c1d678c59f21a2b1a06bd","null","null","<p style=""font-size: 60px; font-family: BACS"">lrZGrAJu</p>","","","","","","","","",""
"html-keyboard-response","334","516489","0.0-16.0-0.2","5aa787c66219a30001c765f8","650c16f0f2faf8d7a0d14c09","651c1d678c59f21a2b1a06bd","null","null","<p style=""font-size: 60px; font-family: BACS"">lrZGrAJu</p>","","","","","","","","",""
"html-keyboard-response","335","517497","0.0-16.0-0.3","5aa787c66219a30001c765f8","650c16f0f2faf8d7a0d14c09","651c1d678c59f21a2b1a06bd","null","null","<p style=""font-size: 60px; font-family: BACS"">lrZGrAJu</p>","","","","","","","","",""
"html-keyboard-response","336","518505","0.0-16.0-0.4","5aa787c66219a30001c765f8","650c16f0f2faf8d7a0d14c09","651c1d678c59f21a2b1a06bd","null","null","<p style=""font-size: 60px; font-family: BACS"">lrZGrAJu</p>","","","","","","","","",""
"html-keyboard-response","337","519514","0.0-16.0-0.5","5aa787c66219a30001c765f8","650c16f0f2faf8d7a0d14c09","651c1d678c59f21a2b1a06bd","null","null","<p style=""font-size: 60px; font-family: BACS"">lrZGrAJu</p>","","","","","","","","",""
"html-keyboard-response","338","520522","0.0-16.0-0.6","5aa787c66219a30001c765f8","650c16f0f2faf8d7a0d14c09","651c1d678c59f21a2b1a06bd","null","null","<p style=""font-size: 60px; font-family: BACS"">lrZGrAJu</p>","","","","","","","","",""
"html-keyboard-response","339","521529","0.0-16.0-0.7","5aa787c66219a30001c765f8","650c16f0f2faf8d7a0d14c09","651c1d678c59f21a2b1a06bd","null","null","<p style=""font-size: 60px; font-family: BACS"">lrZGrAJu</p>","","","","","","","","",""
"html-keyboard-response","340","522538","0.0-16.0-0.8","5aa787c66219a30001c765f8","650c16f0f2faf8d7a0d14c09","651c1d678c59f21a2b1a06bd","null","null","<p style=""font-size: 60px; font-family: BACS"">lrZGrAJu</p>","","","","","","","","",""
"html-keyboard-response","341","523545","0.0-16.0-0.9","5aa787c66219a30001c765f8","650c16f0f2faf8d7a0d14c09","651c1d678c59f21a2b1a06bd","null","null","<p style=""font-size: 60px; font-family: BACS"">lrZGrAJu</p>","","","","","","","","",""
"html-keyboard-response","342","524553","0.0-16.0-0.10","5aa787c66219a30001c765f8","650c16f0f2faf8d7a0d14c09","651c1d678c59f21a2b1a06bd","null","null","<p style=""font-size: 60px; font-family: BACS"">lrZGrAJu</p>","","","","","","","","",""
"html-keyboard-response","343","525562","0.0-16.0-0.11","5aa787c66219a30001c765f8","650c16f0f2faf8d7a0d14c09","651c1d678c59f21a2b1a06bd","null","null","<p style=""font-size: 60px; font-family: BACS"">lrZGrAJu</p>","","","","","","","","",""
"html-keyboard-response","344","526569","0.0-16.0-0.12","5aa787c66219a30001c765f8","650c16f0f2faf8d7a0d14c09","651c1d678c59f21a2b1a06bd","null","null","<p style=""font-size: 60px; font-family: BACS"">lrZGrAJu</p>","","","","","","","","",""
"html-keyboard-response","345","527577","0.0-16.0-0.13","5aa787c66219a30001c765f8","650c16f0f2faf8d7a0d14c09","651c1d678c59f21a2b1a06bd","null","null","<p style=""font-size: 60px; font-family: BACS"">lrZGrAJu</p>","","","","","","","","",""
"html-keyboard-response","346","528585","0.0-16.0-0.14","5aa787c66219a30001c765f8","650c16f0f2faf8d7a0d14c09","651c1d678c59f21a2b1a06bd","null","null","<p style=""font-size: 60px; font-family: BACS"">lrZGrAJu</p>","","","","","","","","",""
"html-keyboard-response","347","529593","0.0-16.0-0.15","5aa787c66219a30001c765f8","650c16f0f2faf8d7a0d14c09","651c1d678c59f21a2b1a06bd","null","null","<p style=""font-size: 60px; font-family: BACS"">lrZGrAJu</p>","","","","","","","","",""
"html-keyboard-response","348","530602","0.0-16.0-0.16","5aa787c66219a30001c765f8","650c16f0f2faf8d7a0d14c09","651c1d678c59f21a2b1a06bd","null","null","<p style=""font-size: 60px; font-family: BACS"">lrZGrAJu</p>","","","","","","","","",""
"html-keyboard-response","349","531610","0.0-16.0-0.17","5aa787c66219a30001c765f8","650c16f0f2faf8d7a0d14c09","651c1d678c59f21a2b1a06bd","null","null","<p style=""font-size: 60px; font-family: BACS"">lrZGrAJu</p>","","","","","","","","",""
"html-keyboard-response","350","532617","0.0-16.0-0.18","5aa787c66219a30001c765f8","650c16f0f2faf8d7a0d14c09","651c1d678c59f21a2b1a06bd","null","null","<p style=""font-size: 60px; font-family: BACS"">lrZGrAJu</p>","","","","","","","","",""
"html-keyboard-response","351","533625","0.0-16.0-0.19","5aa787c66219a30001c765f8","650c16f0f2faf8d7a0d14c09","651c1d678c59f21a2b1a06bd","null","null","<p style=""font-size: 60px; font-family: BACS"">lrZGrAJu</p>","","","","","","","","",""
"html-keyboard-response","352","534633","0.0-16.0-0.20","5aa787c66219a30001c765f8","650c16f0f2faf8d7a0d14c09","651c1d678c59f21a2b1a06bd","null","null","<p style=""font-size: 60px; font-family: BACS"">lrZGrAJu</p>","","","","","","","","",""
"html-keyboard-response","353","535641","0.0-16.0-0.21","5aa787c66219a30001c765f8","650c16f0f2faf8d7a0d14c09","651c1d678c59f21a2b1a06bd","null","null","<p style=""font-size: 60px; font-family: BACS"">lrZGrAJu</p>","","","","","","","","",""
"html-keyboard-response","354","536649","0.0-16.0-0.22","5aa787c66219a30001c765f8","650c16f0f2faf8d7a0d14c09","651c1d678c59f21a2b1a06bd","null","null","<p style=""font-size: 60px; font-family: BACS"">lrZGrAJu</p>","","","","","","","","",""
"html-keyboard-response","355","537657","0.0-16.0-0.23","5aa787c66219a30001c765f8","650c16f0f2faf8d7a0d14c09","651c1d678c59f21a2b1a06bd","null","null","<p style=""font-size: 60px; font-family: BACS"">lrZGrAJu</p>","","","","","","","","",""
"html-keyboard-response","356","538665","0.0-16.0-0.24","5aa787c66219a30001c765f8","650c16f0f2faf8d7a0d14c09","651c1d678c59f21a2b1a06bd","null","null","<p style=""font-size: 60px; font-family: BACS"">lrZGrAJu</p>","","","","","","","","",""
"html-keyboard-response","357","539673","0.0-16.0-0.25","5aa787c66219a30001c765f8","650c16f0f2faf8d7a0d14c09","651c1d678c59f21a2b1a06bd","null","null","<p style=""font-size: 60px; font-family: BACS"">lrZGrAJu</p>","","","","","","","","",""
"html-keyboard-response","358","540680","0.0-16.0-0.26","5aa787c66219a30001c765f8","650c16f0f2faf8d7a0d14c09","651c1d678c59f21a2b1a06bd","null","null","<p style=""font-size: 60px; font-family: BACS"">lrZGrAJu</p>","","","","","","","","",""
"html-keyboard-response","359","541689","0.0-16.0-0.27","5aa787c66219a30001c765f8","650c16f0f2faf8d7a0d14c09","651c1d678c59f21a2b1a06bd","null","null","<p style=""font-size: 60px; font-family: BACS"">lrZGrAJu</p>","","","","","","","","",""
"html-keyboard-response","360","542697","0.0-16.0-0.28","5aa787c66219a30001c765f8","650c16f0f2faf8d7a0d14c09","651c1d678c59f21a2b1a06bd","null","null","<p style=""font-size: 60px; font-family: BACS"">lrZGrAJu</p>","","","","","","","","",""
"html-keyboard-response","361","543705","0.0-16.0-0.29","5aa787c66219a30001c765f8","650c16f0f2faf8d7a0d14c09","651c1d678c59f21a2b1a06bd","null","null","<p style=""font-size: 60px; font-family: BACS"">lrZGrAJu</p>","","","","","","","","",""
"html-keyboard-response","362","544713","0.0-16.0-0.30","5aa787c66219a30001c765f8","650c16f0f2faf8d7a0d14c09","651c1d678c59f21a2b1a06bd","null","null","<p style=""font-size: 60px; font-family: BACS"">lrZGrAJu</p>","","","","","","","","",""
"html-keyboard-response","363","545720","0.0-16.0-0.31","5aa787c66219a30001c765f8","650c16f0f2faf8d7a0d14c09","651c1d678c59f21a2b1a06bd","null","null","<p style=""font-size: 60px; font-family: BACS"">lrZGrAJu</p>","","","","","","","","",""
"html-keyboard-response","364","546729","0.0-16.0-0.32","5aa787c66219a30001c765f8","650c16f0f2faf8d7a0d14c09","651c1d678c59f21a2b1a06bd","null","null","<p style=""font-size: 60px; font-family: BACS"">lrZGrAJu</p>","","","","","","","","",""
"html-keyboard-response","365","547736","0.0-16.0-0.33","5aa787c66219a30001c765f8","650c16f0f2faf8d7a0d14c09","651c1d678c59f21a2b1a06bd","null","null","<p style=""font-size: 60px; font-family: BACS"">lrZGrAJu</p>","","","","","","","","",""
"html-keyboard-response","366","548745","0.0-16.0-0.34","5aa787c66219a30001c765f8","650c16f0f2faf8d7a0d14c09","651c1d678c59f21a2b1a06bd","null","null","<p style=""font-size: 60px; font-family: BACS"">lrZGrAJu</p>","","","","","","","","",""
"html-keyboard-response","367","549753","0.0-16.0-0.35","5aa787c66219a30001c765f8","650c16f0f2faf8d7a0d14c09","651c1d678c59f21a2b1a06bd","null","null","<p style=""font-size: 60px; font-family: BACS"">lrZGrAJu</p>","","","","","","","","",""
"html-keyboard-response","368","550760","0.0-16.0-0.36","5aa787c66219a30001c765f8","650c16f0f2faf8d7a0d14c09","651c1d678c59f21a2b1a06bd","null","null","<p style=""font-size: 60px; font-family: BACS"">lrZGrAJu</p>","","","","","","","","",""
"html-keyboard-response","369","551768","0.0-16.0-0.37","5aa787c66219a30001c765f8","650c16f0f2faf8d7a0d14c09","651c1d678c59f21a2b1a06bd","null","null","<p style=""font-size: 60px; font-family: BACS"">lrZGrAJu</p>","","","","","","","","",""
"html-keyboard-response","370","552777","0.0-16.0-0.38","5aa787c66219a30001c765f8","650c16f0f2faf8d7a0d14c09","651c1d678c59f21a2b1a06bd","null","null","<p style=""font-size: 60px; font-family: BACS"">lrZGrAJu</p>","","","","","","","","",""
"html-keyboard-response","371","553785","0.0-16.0-0.39","5aa787c66219a30001c765f8","650c16f0f2faf8d7a0d14c09","651c1d678c59f21a2b1a06bd","null","null","<p style=""font-size: 60px; font-family: BACS"">lrZGrAJu</p>","","","","","","","","",""
"html-keyboard-response","372","554793","0.0-16.0-0.40","5aa787c66219a30001c765f8","650c16f0f2faf8d7a0d14c09","651c1d678c59f21a2b1a06bd","null","null","<p style=""font-size: 60px; font-family: BACS"">lrZGrAJu</p>","","","","","","","","",""
"html-keyboard-response","373","555801","0.0-16.0-0.41","5aa787c66219a30001c765f8","650c16f0f2faf8d7a0d14c09","651c1d678c59f21a2b1a06bd","null","null","<p style=""font-size: 60px; font-family: BACS"">lrZGrAJu</p>","","","","","","","","",""
"html-keyboard-response","374","556809","0.0-16.0-0.42","5aa787c66219a30001c765f8","650c16f0f2faf8d7a0d14c09","651c1d678c59f21a2b1a06bd","null","null","<p style=""font-size: 60px; font-family: BACS"">lrZGrAJu</p>","","","","","","","","",""
"html-keyboard-response","375","557816","0.0-16.0-0.43","5aa787c66219a30001c765f8","650c16f0f2faf8d7a0d14c09","651c1d678c59f21a2b1a06bd","null","null","<p style=""font-size: 60px; font-family: BACS"">lrZGrAJu</p>","","","","","","","","",""
"html-keyboard-response","376","558825","0.0-16.0-0.44","5aa787c66219a30001c765f8","650c16f0f2faf8d7a0d14c09","651c1d678c59f21a2b1a06bd","null","null","<p style=""font-size: 60px; font-family: BACS"">lrZGrAJu</p>","","","","","","","","",""
"html-keyboard-response","377","559833","0.0-16.0-0.45","5aa787c66219a30001c765f8","650c16f0f2faf8d7a0d14c09","651c1d678c59f21a2b1a06bd","null","null","<p style=""font-size: 60px; font-family: BACS"">lrZGrAJu</p>","","","","","","","","",""
"html-keyboard-response","378","560840","0.0-16.0-0.46","5aa787c66219a30001c765f8","650c16f0f2faf8d7a0d14c09","651c1d678c59f21a2b1a06bd","null","null","<p style=""font-size: 60px; font-family: BACS"">lrZGrAJu</p>","","","","","","","","",""
"html-keyboard-response","379","561848","0.0-16.0-0.47","5aa787c66219a30001c765f8","650c16f0f2faf8d7a0d14c09","651c1d678c59f21a2b1a06bd","null","null","<p style=""font-size: 60px; font-family: BACS"">lrZGrAJu</p>","","","","","","","","",""
"html-keyboard-response","380","562856","0.0-16.0-0.48","5aa787c66219a30001c765f8","650c16f0f2faf8d7a0d14c09","651c1d678c59f21a2b1a06bd","null","null","<p style=""font-size: 60px; font-family: BACS"">lrZGrAJu</p>","","","","","","","","",""
"html-keyboard-response","381","563863","0.0-16.0-0.49","5aa787c66219a30001c765f8","650c16f0f2faf8d7a0d14c09","651c1d678c59f21a2b1a06bd","null","null","<p style=""font-size: 60px; font-family: BACS"">lrZGrAJu</p>","","","","","","","","",""
"html-keyboard-response","382","564872","0.0-16.0-0.50","5aa787c66219a30001c765f8","650c16f0f2faf8d7a0d14c09","651c1d678c59f21a2b1a06bd","null","null","<p style=""font-size: 60px; font-family: BACS"">lrZGrAJu</p>","","","","","","","","",""
"html-keyboard-response","383","565880","0.0-16.0-0.51","5aa787c66219a30001c765f8","650c16f0f2faf8d7a0d14c09","651c1d678c59f21a2b1a06bd","null","null","<p style=""font-size: 60px; font-family: BACS"">lrZGrAJu</p>","","","","","","","","",""
"html-keyboard-response","384","566888","0.0-16.0-0.52","5aa787c66219a30001c765f8","650c16f0f2faf8d7a0d14c09","651c1d678c59f21a2b1a06bd","null","null","<p style=""font-size: 60px; font-family: BACS"">lrZGrAJu</p>","","","","","","","","",""
"html-keyboard-response","385","567897","0.0-16.0-0.53","5aa787c66219a30001c765f8","650c16f0f2faf8d7a0d14c09","651c1d678c59f21a2b1a06bd","null","null","<p style=""font-size: 60px; font-family: BACS"">lrZGrAJu</p>","","","","","","","","",""
"html-keyboard-response","386","568904","0.0-16.0-0.54","5aa787c66219a30001c765f8","650c16f0f2faf8d7a0d14c09","651c1d678c59f21a2b1a06bd","null","null","<p style=""font-size: 60px; font-family: BACS"">lrZGrAJu</p>","","","","","","","","",""
"html-keyboard-response","387","569913","0.0-16.0-0.55","5aa787c66219a30001c765f8","650c16f0f2faf8d7a0d14c09","651c1d678c59f21a2b1a06bd","null","null","<p style=""font-size: 60px; font-family: BACS"">lrZGrAJu</p>","","","","","","","","",""
"html-keyboard-response","388","570920","0.0-16.0-0.56","5aa787c66219a30001c765f8","650c16f0f2faf8d7a0d14c09","651c1d678c59f21a2b1a06bd","null","null","<p style=""font-size: 60px; font-family: BACS"">lrZGrAJu</p>","","","","","","","","",""
"html-keyboard-response","389","571928","0.0-16.0-0.57","5aa787c66219a30001c765f8","650c16f0f2faf8d7a0d14c09","651c1d678c59f21a2b1a06bd","null","null","<p style=""font-size: 60px; font-family: BACS"">lrZGrAJu</p>","","","","","","","","",""
"html-keyboard-response","390","572937","0.0-16.0-0.58","5aa787c66219a30001c765f8","650c16f0f2faf8d7a0d14c09","651c1d678c59f21a2b1a06bd","null","null","<p style=""font-size: 60px; font-family: BACS"">lrZGrAJu</p>","","","","","","","","",""
"html-keyboard-response","391","573944","0.0-16.0-0.59","5aa787c66219a30001c765f8","650c16f0f2faf8d7a0d14c09","651c1d678c59f21a2b1a06bd","null","null","<p style=""font-size: 60px; font-family: BACS"">lrZGrAJu</p>","","","","","","","","",""
"html-keyboard-response","392","574952","0.0-16.0-0.60","5aa787c66219a30001c765f8","650c16f0f2faf8d7a0d14c09","651c1d678c59f21a2b1a06bd","null","null","<p style=""font-size: 60px; font-family: BACS"">lrZGrAJu</p>","","","","","","","","",""
"html-keyboard-response","393","575960","0.0-16.0-0.61","5aa787c66219a30001c765f8","650c16f0f2faf8d7a0d14c09","651c1d678c59f21a2b1a06bd","null","null","<p style=""font-size: 60px; font-family: BACS"">lrZGrAJu</p>","","","","","","","","",""
"html-keyboard-response","394","576968","0.0-16.0-0.62","5aa787c66219a30001c765f8","650c16f0f2faf8d7a0d14c09","651c1d678c59f21a2b1a06bd","null","null","<p style=""font-size: 60px; font-family: BACS"">lrZGrAJu</p>","","","","","","","","",""
"html-keyboard-response","395","577976","0.0-16.0-0.63","5aa787c66219a30001c765f8","650c16f0f2faf8d7a0d14c09","651c1d678c59f21a2b1a06bd","null","null","<p style=""font-size: 60px; font-family: BACS"">lrZGrAJu</p>","","","","","","","","",""
"html-keyboard-response","396","578984","0.0-16.0-0.64","5aa787c66219a30001c765f8","650c16f0f2faf8d7a0d14c09","651c1d678c59f21a2b1a06bd","null","null","<p style=""font-size: 60px; font-family: BACS"">lrZGrAJu</p>","","","","","","","","",""
"html-keyboard-response","397","579992","0.0-16.0-0.65","5aa787c66219a30001c765f8","650c16f0f2faf8d7a0d14c09","651c1d678c59f21a2b1a06bd","null","null","<p style=""font-size: 60px; font-family: BACS"">lrZGrAJu</p>","","","","","","","","",""
"html-keyboard-response","398","581000","0.0-16.0-0.66","5aa787c66219a30001c765f8","650c16f0f2faf8d7a0d14c09","651c1d678c59f21a2b1a06bd","null","null","<p style=""font-size: 60px; font-family: BACS"">lrZGrAJu</p>","","","","","","","","",""
"html-keyboard-response","399","582009","0.0-16.0-0.67","5aa787c66219a30001c765f8","650c16f0f2faf8d7a0d14c09","651c1d678c59f21a2b1a06bd","null","null","<p style=""font-size: 60px; font-family: BACS"">lrZGrAJu</p>","","","","","","","","",""
"html-keyboard-response","400","583016","0.0-16.0-0.68","5aa787c66219a30001c765f8","650c16f0f2faf8d7a0d14c09","651c1d678c59f21a2b1a06bd","null","null","<p style=""font-size: 60px; font-family: BACS"">lrZGrAJu</p>","","","","","","","","",""
