"trial_type","trial_index","time_elapsed","internal_node_id","subject_id","study_id","session_id","rt","response","stimulus","success","item","task","correct_response","testing_condition","correct","target","confound","name"
"pavlovia","0","1475","0.0-0.0","614dd6473c74b217ad73cc9c","650c16f0f2faf8d7a0d14c09","651c1b0872134699e23133ff","","","","","","","","","","","",""
"survey-html-form","1","4855","0.0-1.0","614dd6473c74b217ad73cc9c","650c16f0f2faf8d7a0d14c09","651c1b0872134699e23133ff","3378","{""ID"":""614dd6473c74b217ad73cc9c""}","","","","","","","","","",""
"html-keyboard-response","2","13886","0.0-2.0","614dd6473c74b217ad73cc9c","650c16f0f2faf8d7a0d14c09","651c1b0872134699e23133ff","9029"," ","<p style=""font-size: 15px;"">Before beginning, we ask that you read the consent information and confirm your agreement to participate in the experiment.</p>
      <p style=""font-size: 15px;""> We ask that you remember that this is a research project and that your participation is entirely voluntary. You can stop your participation at any time, without needing to provide any explanation. The study we're asking you to participate in aims at examining how readers process written words. You will be engaged in a session of apprximately 20 minutes, followed by a brief questionnaire. You will have the opportunity to take a few breaks during the experiment. You will be paid £4 for your participation, corresponding to a rate of £8/hour. While this experiment looks at cognitive faculties, this experiment doesn't constitute clinical proof of eventual pathologies.</p>
      <p style=""font-size: 15px;"">All of the information collected thanks to yours and others' participation will be held in a secure password-protected server, and will not be shared with anyone not authorised to view it. Your personal information will be kept with an arbitrary participant ID. Thanks to this data anonymity process, any researcher analysing the data won't be able to track the information back to a specific participant. Therefore, this process will make identifying you impossibile, even when results from the study will be published in scientific reviews, presented at congresses, or at any other public forum. More generally, the collected data will be treated in accordance with the laws on privacy and conformity to the Legislative Degree n. 196 ""Code regarding the protection of personal data"" of the 30th of June 2003 and to the European Regulation 2016/670 (General Data Protection Regulation - GDPR). The Data Protection Officer is Avv. Valentina Carollo, who can be contacted at the following email addresses: <a href=""mailto:dpo@sissa.it"">dpo@sissa.it</a> or <a href=""mailto:rpd@sissa.it"">rpd@sissa.it</a> - PEC: <a href=""mailto:protocollo@pec.sissa.it"">protocollo@pec.sissa.it</a>.</p>
      <p style=""font-size: 15px;""> Before expressing your consent to participate, we would like to remind you again that in case you need explanations on any aspect of the experimental procedure, the researcher is at your disposition (<a href=""mailto:aliebelt@sissa.it"">aliebelt@sissa.it</a>, <a href=""mailto:davide.crepaldi@sissa.it"">davide.crepaldi@sissa.it</a>).</p>
      <p style=""font-size: 15px;"">If you would like to download the informed consent form, you can do so here: <a href=""BASL-Informed_Consent.pdf"" download>informed consent form</a>.</p>
      <p style=""font-size: 15px;"">We ask that you press the spacebar to proceed to the consent section.</p>","","","","","","","","",""
"survey-html-form","3","59975","0.0-3.0","614dd6473c74b217ad73cc9c","650c16f0f2faf8d7a0d14c09","651c1b0872134699e23133ff","46088","{""consent1"":""YES"",""consent2"":""YES"",""consent3"":""YES"",""consent4"":""YES"",""consent5"":""YES"",""consent6"":""YES""}","","","","","","","","","",""
"fullscreen","4","74091","0.0-4.0","614dd6473c74b217ad73cc9c","650c16f0f2faf8d7a0d14c09","651c1b0872134699e23133ff","","","","true","","","","","","","",""
"html-keyboard-response","5","182556","0.0-5.0","614dd6473c74b217ad73cc9c","650c16f0f2faf8d7a0d14c09","651c1b0872134699e23133ff","108464"," ","<p>Welcome, and thank you very much for your time!</p>
      <p>In this experiment, you'll be a language expert who's been asked to take a look at words that Earth has received in its first communication with aliens. Your task, in this first part of the experiment, is to pay close attention to the words you'll be shown; later, world leaders will ask you questions on what you saw. The words will be shown to you quite quickly; it seems that the aliens were in a hurry :-)</p>
      <p>Press the spacebar to continue.<p>","","","","","","","","",""
"html-keyboard-response","6","182607","0.0-6.0","614dd6473c74b217ad73cc9c","650c16f0f2faf8d7a0d14c09","651c1b0872134699e23133ff","null","null","<p style=""font-size: 120px; font-family: BACS""> </p>","","","","","","","","",""
"html-keyboard-response","7","195544","0.0-7.0","614dd6473c74b217ad73cc9c","650c16f0f2faf8d7a0d14c09","651c1b0872134699e23133ff","12937"," ","<p>Here is an example of the words you'll see:</p>
      <img src='esempio.png' height='400px'>
      <p>When you're ready to begin, press the spacebar.</p></div>","","","","","","","","",""
"html-keyboard-response","8","196560","0.0-8.0-0.0","614dd6473c74b217ad73cc9c","650c16f0f2faf8d7a0d14c09","651c1b0872134699e23133ff","null","null","<p style=""font-size: 60px; font-family: BACS"">cRElDlRE</p>","","","","","","","","",""
"html-keyboard-response","9","197577","0.0-8.0-0.1","614dd6473c74b217ad73cc9c","650c16f0f2faf8d7a0d14c09","651c1b0872134699e23133ff","null","null","<p style=""font-size: 60px; font-family: BACS"">uQkrdUdvY</p>","","","","","","","","",""
"html-keyboard-response","10","198592","0.0-8.0-0.2","614dd6473c74b217ad73cc9c","650c16f0f2faf8d7a0d14c09","651c1b0872134699e23133ff","null","null","<p style=""font-size: 60px; font-family: BACS"">LcNUJvUdm</p>","","","","","","","","",""
"html-keyboard-response","11","199596","0.0-8.0-0.3","614dd6473c74b217ad73cc9c","650c16f0f2faf8d7a0d14c09","651c1b0872134699e23133ff","null","null","<p style=""font-size: 60px; font-family: BACS"">khmhCMdP</p>","","","","","","","","",""
"html-keyboard-response","12","200607","0.0-8.0-0.4","614dd6473c74b217ad73cc9c","650c16f0f2faf8d7a0d14c09","651c1b0872134699e23133ff","null","null","<p style=""font-size: 60px; font-family: BACS"">COtBDdmRb</p>","","","","","","","","",""
"html-keyboard-response","13","201622","0.0-8.0-0.5","614dd6473c74b217ad73cc9c","650c16f0f2faf8d7a0d14c09","651c1b0872134699e23133ff","null","null","<p style=""font-size: 60px; font-family: BACS"">kDRKclRE</p>","","","","","","","","",""
"html-keyboard-response","14","202638","0.0-8.0-0.6","614dd6473c74b217ad73cc9c","650c16f0f2faf8d7a0d14c09","651c1b0872134699e23133ff","null","null","<p style=""font-size: 60px; font-family: BACS"">DdckAPEM</p>","","","","","","","","",""
"html-keyboard-response","15","203648","0.0-8.0-0.7","614dd6473c74b217ad73cc9c","650c16f0f2faf8d7a0d14c09","651c1b0872134699e23133ff","null","null","<p style=""font-size: 60px; font-family: BACS"">UmNJkam</p>","","","","","","","","",""
"html-keyboard-response","16","204669","0.0-8.0-0.8","614dd6473c74b217ad73cc9c","650c16f0f2faf8d7a0d14c09","651c1b0872134699e23133ff","null","null","<p style=""font-size: 60px; font-family: BACS"">OLJblUZu</p>","","","","","","","","",""
"html-keyboard-response","17","205684","0.0-8.0-0.9","614dd6473c74b217ad73cc9c","650c16f0f2faf8d7a0d14c09","651c1b0872134699e23133ff","null","null","<p style=""font-size: 60px; font-family: BACS"">ukcYkam</p>","","","","","","","","",""
"html-keyboard-response","18","206700","0.0-8.0-0.10","614dd6473c74b217ad73cc9c","650c16f0f2faf8d7a0d14c09","651c1b0872134699e23133ff","null","null","<p style=""font-size: 60px; font-family: BACS"">uQkrdUZu</p>","","","","","","","","",""
"html-keyboard-response","19","207713","0.0-8.0-0.11","614dd6473c74b217ad73cc9c","650c16f0f2faf8d7a0d14c09","651c1b0872134699e23133ff","null","null","<p style=""font-size: 60px; font-family: BACS"">bRABtKEdl</p>","","","","","","","","",""
"html-keyboard-response","20","208724","0.0-8.0-0.12","614dd6473c74b217ad73cc9c","650c16f0f2faf8d7a0d14c09","651c1b0872134699e23133ff","null","null","<p style=""font-size: 60px; font-family: BACS"">cRElDdmRb</p>","","","","","","","","",""
"html-keyboard-response","21","209732","0.0-8.0-0.13","614dd6473c74b217ad73cc9c","650c16f0f2faf8d7a0d14c09","651c1b0872134699e23133ff","null","null","<p style=""font-size: 60px; font-family: BACS"">kNuaUdvY</p>","","","","","","","","",""
"html-keyboard-response","22","210748","0.0-8.0-0.14","614dd6473c74b217ad73cc9c","650c16f0f2faf8d7a0d14c09","651c1b0872134699e23133ff","null","null","<p style=""font-size: 60px; font-family: BACS"">bRABtAPEM</p>","","","","","","","","",""
"html-keyboard-response","23","211763","0.0-8.0-0.15","614dd6473c74b217ad73cc9c","650c16f0f2faf8d7a0d14c09","651c1b0872134699e23133ff","null","null","<p style=""font-size: 60px; font-family: BACS"">uQkrdZckv</p>","","","","","","","","",""
"html-keyboard-response","24","212779","0.0-8.0-0.16","614dd6473c74b217ad73cc9c","650c16f0f2faf8d7a0d14c09","651c1b0872134699e23133ff","null","null","<p style=""font-size: 60px; font-family: BACS"">YNrAmUdvY</p>","","","","","","","","",""
"html-keyboard-response","25","213795","0.0-8.0-0.17","614dd6473c74b217ad73cc9c","650c16f0f2faf8d7a0d14c09","651c1b0872134699e23133ff","null","null","<p style=""font-size: 60px; font-family: BACS"">hChYdmRb</p>","","","","","","","","",""
"html-keyboard-response","26","214801","0.0-8.0-0.18","614dd6473c74b217ad73cc9c","650c16f0f2faf8d7a0d14c09","651c1b0872134699e23133ff","null","null","<p style=""font-size: 60px; font-family: BACS"">OtlRAPEM</p>","","","","","","","","",""
"html-keyboard-response","27","215810","0.0-8.0-0.19","614dd6473c74b217ad73cc9c","650c16f0f2faf8d7a0d14c09","651c1b0872134699e23133ff","null","null","<p style=""font-size: 60px; font-family: BACS"">cRElDKEdl</p>","","","","","","","","",""
"html-keyboard-response","28","216826","0.0-8.0-0.20","614dd6473c74b217ad73cc9c","650c16f0f2faf8d7a0d14c09","651c1b0872134699e23133ff","null","null","<p style=""font-size: 60px; font-family: BACS"">LcNUJUdvY</p>","","","","","","","","",""
"html-keyboard-response","29","217829","0.0-8.0-0.21","614dd6473c74b217ad73cc9c","650c16f0f2faf8d7a0d14c09","651c1b0872134699e23133ff","null","null","<p style=""font-size: 60px; font-family: BACS"">RlAKclRE</p>","","","","","","","","",""
"html-keyboard-response","30","218841","0.0-8.0-0.22","614dd6473c74b217ad73cc9c","650c16f0f2faf8d7a0d14c09","651c1b0872134699e23133ff","null","null","<p style=""font-size: 60px; font-family: BACS"">khmhKEdl</p>","","","","","","","","",""
"html-keyboard-response","31","219856","0.0-8.0-0.23","614dd6473c74b217ad73cc9c","650c16f0f2faf8d7a0d14c09","651c1b0872134699e23133ff","null","null","<p style=""font-size: 60px; font-family: BACS"">UmNJvUdm</p>","","","","","","","","",""
"html-keyboard-response","32","220873","0.0-8.0-0.24","614dd6473c74b217ad73cc9c","650c16f0f2faf8d7a0d14c09","651c1b0872134699e23133ff","null","null","<p style=""font-size: 60px; font-family: BACS"">COtBDlRE</p>","","","","","","","","",""
"html-keyboard-response","33","221889","0.0-8.0-0.25","614dd6473c74b217ad73cc9c","650c16f0f2faf8d7a0d14c09","651c1b0872134699e23133ff","null","null","<p style=""font-size: 60px; font-family: BACS"">JdOAYkam</p>","","","","","","","","",""
"html-keyboard-response","34","222898","0.0-8.0-0.26","614dd6473c74b217ad73cc9c","650c16f0f2faf8d7a0d14c09","651c1b0872134699e23133ff","null","null","<p style=""font-size: 60px; font-family: BACS"">OmtlDdmRb</p>","","","","","","","","",""
"html-keyboard-response","35","223904","0.0-8.0-0.27","614dd6473c74b217ad73cc9c","650c16f0f2faf8d7a0d14c09","651c1b0872134699e23133ff","null","null","<p style=""font-size: 60px; font-family: BACS"">OAmGrvUdm</p>","","","","","","","","",""
"html-keyboard-response","36","224919","0.0-8.0-0.28","614dd6473c74b217ad73cc9c","650c16f0f2faf8d7a0d14c09","651c1b0872134699e23133ff","null","null","<p style=""font-size: 60px; font-family: BACS"">OtlRKEdl</p>","","","","","","","","",""
"html-keyboard-response","37","225934","0.0-8.0-0.29","614dd6473c74b217ad73cc9c","650c16f0f2faf8d7a0d14c09","651c1b0872134699e23133ff","null","null","<p style=""font-size: 60px; font-family: BACS"">YNrAmvUdm</p>","","","","","","","","",""
"html-keyboard-response","38","226950","0.0-8.0-0.30","614dd6473c74b217ad73cc9c","650c16f0f2faf8d7a0d14c09","651c1b0872134699e23133ff","null","null","<p style=""font-size: 60px; font-family: BACS"">ukcYUdvY</p>","","","","","","","","",""
"html-keyboard-response","39","227955","0.0-8.0-0.31","614dd6473c74b217ad73cc9c","650c16f0f2faf8d7a0d14c09","651c1b0872134699e23133ff","null","null","<p style=""font-size: 60px; font-family: BACS"">OtlRlRE</p>","","","","","","","","",""
"html-keyboard-response","40","228966","0.0-8.0-0.32","614dd6473c74b217ad73cc9c","650c16f0f2faf8d7a0d14c09","651c1b0872134699e23133ff","null","null","<p style=""font-size: 60px; font-family: BACS"">uQkrdkam</p>","","","","","","","","",""
"html-keyboard-response","41","229967","0.0-8.0-0.33","614dd6473c74b217ad73cc9c","650c16f0f2faf8d7a0d14c09","651c1b0872134699e23133ff","null","null","<p style=""font-size: 60px; font-family: BACS"">hChYlRE</p>","","","","","","","","",""
"html-keyboard-response","42","230982","0.0-8.0-0.34","614dd6473c74b217ad73cc9c","650c16f0f2faf8d7a0d14c09","651c1b0872134699e23133ff","null","null","<p style=""font-size: 60px; font-family: BACS"">khmhdmRb</p>","","","","","","","","",""
"html-keyboard-response","43","231997","0.0-8.0-0.35","614dd6473c74b217ad73cc9c","650c16f0f2faf8d7a0d14c09","651c1b0872134699e23133ff","null","null","<p style=""font-size: 60px; font-family: BACS"">LcNUJZckv</p>","","","","","","","","",""
"html-keyboard-response","44","233014","0.0-8.0-0.36","614dd6473c74b217ad73cc9c","650c16f0f2faf8d7a0d14c09","651c1b0872134699e23133ff","null","null","<p style=""font-size: 60px; font-family: BACS"">OmtlDlRE</p>","","","","","","","","",""
"html-keyboard-response","45","234015","0.0-8.0-0.37","614dd6473c74b217ad73cc9c","650c16f0f2faf8d7a0d14c09","651c1b0872134699e23133ff","null","null","<p style=""font-size: 60px; font-family: BACS"">DdckKEdl</p>","","","","","","","","",""
"html-keyboard-response","46","235028","0.0-8.0-0.38","614dd6473c74b217ad73cc9c","650c16f0f2faf8d7a0d14c09","651c1b0872134699e23133ff","null","null","<p style=""font-size: 60px; font-family: BACS"">COtBDCMdP</p>","","","","","","","","",""
"html-keyboard-response","47","236045","0.0-8.0-0.39","614dd6473c74b217ad73cc9c","650c16f0f2faf8d7a0d14c09","651c1b0872134699e23133ff","null","null","<p style=""font-size: 60px; font-family: BACS"">OAmGrUdvY</p>","","","","","","","","",""
"html-keyboard-response","48","237056","0.0-8.0-0.40","614dd6473c74b217ad73cc9c","650c16f0f2faf8d7a0d14c09","651c1b0872134699e23133ff","null","null","<p style=""font-size: 60px; font-family: BACS"">khmhAPEM</p>","","","","","","","","",""
"html-keyboard-response","49","238072","0.0-8.0-0.41","614dd6473c74b217ad73cc9c","650c16f0f2faf8d7a0d14c09","651c1b0872134699e23133ff","null","null","<p style=""font-size: 60px; font-family: BACS"">OmtlDKEdl</p>","","","","","","","","",""
"html-keyboard-response","50","239089","0.0-8.0-0.42","614dd6473c74b217ad73cc9c","650c16f0f2faf8d7a0d14c09","651c1b0872134699e23133ff","null","null","<p style=""font-size: 60px; font-family: BACS"">hChYAPEM</p>","","","","","","","","",""
"html-keyboard-response","51","240091","0.0-8.0-0.43","614dd6473c74b217ad73cc9c","650c16f0f2faf8d7a0d14c09","651c1b0872134699e23133ff","null","null","<p style=""font-size: 60px; font-family: BACS"">LcNUJkam</p>","","","","","","","","",""
"html-keyboard-response","52","241106","0.0-8.0-0.44","614dd6473c74b217ad73cc9c","650c16f0f2faf8d7a0d14c09","651c1b0872134699e23133ff","null","null","<p style=""font-size: 60px; font-family: BACS"">OmtlDAPEM</p>","","","","","","","","",""
"html-keyboard-response","53","242123","0.0-8.0-0.45","614dd6473c74b217ad73cc9c","650c16f0f2faf8d7a0d14c09","651c1b0872134699e23133ff","null","null","<p style=""font-size: 60px; font-family: BACS"">AmaclUZu</p>","","","","","","","","",""
"html-keyboard-response","54","243138","0.0-8.0-0.46","614dd6473c74b217ad73cc9c","650c16f0f2faf8d7a0d14c09","651c1b0872134699e23133ff","null","null","<p style=""font-size: 60px; font-family: BACS"">OAmGrZckv</p>","","","","","","","","",""
"html-keyboard-response","55","244154","0.0-8.0-0.47","614dd6473c74b217ad73cc9c","650c16f0f2faf8d7a0d14c09","651c1b0872134699e23133ff","null","null","<p style=""font-size: 60px; font-family: BACS"">Amaclkam</p>","","","","","","","","",""
"html-keyboard-response","56","245169","0.0-8.0-0.48","614dd6473c74b217ad73cc9c","650c16f0f2faf8d7a0d14c09","651c1b0872134699e23133ff","null","null","<p style=""font-size: 60px; font-family: BACS"">bRABtCMdP</p>","","","","","","","","",""
"html-keyboard-response","57","246185","0.0-8.0-0.49","614dd6473c74b217ad73cc9c","650c16f0f2faf8d7a0d14c09","651c1b0872134699e23133ff","null","null","<p style=""font-size: 60px; font-family: BACS"">YNrAmZckv</p>","","","","","","","","",""
"html-keyboard-response","58","247191","0.0-8.0-0.50","614dd6473c74b217ad73cc9c","650c16f0f2faf8d7a0d14c09","651c1b0872134699e23133ff","null","null","<p style=""font-size: 60px; font-family: BACS"">cRElDCMdP</p>","","","","","","","","",""
"html-keyboard-response","59","248201","0.0-8.0-0.51","614dd6473c74b217ad73cc9c","650c16f0f2faf8d7a0d14c09","651c1b0872134699e23133ff","null","null","<p style=""font-size: 60px; font-family: BACS"">kDRKcAPEM</p>","","","","","","","","",""
"html-keyboard-response","60","249203","0.0-8.0-0.52","614dd6473c74b217ad73cc9c","650c16f0f2faf8d7a0d14c09","651c1b0872134699e23133ff","null","null","<p style=""font-size: 60px; font-family: BACS"">OAmGrUZu</p>","","","","","","","","",""
"html-keyboard-response","61","250216","0.0-8.0-0.53","614dd6473c74b217ad73cc9c","650c16f0f2faf8d7a0d14c09","651c1b0872134699e23133ff","null","null","<p style=""font-size: 60px; font-family: BACS"">RlAKcAPEM</p>","","","","","","","","",""
"html-keyboard-response","62","251225","0.0-8.0-0.54","614dd6473c74b217ad73cc9c","650c16f0f2faf8d7a0d14c09","651c1b0872134699e23133ff","null","null","<p style=""font-size: 60px; font-family: BACS"">COtBDKEdl</p>","","","","","","","","",""
"html-keyboard-response","63","252247","0.0-8.0-0.55","614dd6473c74b217ad73cc9c","650c16f0f2faf8d7a0d14c09","651c1b0872134699e23133ff","null","null","<p style=""font-size: 60px; font-family: BACS"">JdOAYvUdm</p>","","","","","","","","",""
"html-keyboard-response","64","253263","0.0-8.0-0.56","614dd6473c74b217ad73cc9c","650c16f0f2faf8d7a0d14c09","651c1b0872134699e23133ff","null","null","<p style=""font-size: 60px; font-family: BACS"">ukcYUZu</p>","","","","","","","","",""
"html-keyboard-response","65","254275","0.0-8.0-0.57","614dd6473c74b217ad73cc9c","650c16f0f2faf8d7a0d14c09","651c1b0872134699e23133ff","null","null","<p style=""font-size: 60px; font-family: BACS"">JdOAYUdvY</p>","","","","","","","","",""
"html-keyboard-response","66","255279","0.0-8.0-0.58","614dd6473c74b217ad73cc9c","650c16f0f2faf8d7a0d14c09","651c1b0872134699e23133ff","null","null","<p style=""font-size: 60px; font-family: BACS"">DdckCMdP</p>","","","","","","","","",""
"html-keyboard-response","67","256294","0.0-8.0-0.59","614dd6473c74b217ad73cc9c","650c16f0f2faf8d7a0d14c09","651c1b0872134699e23133ff","null","null","<p style=""font-size: 60px; font-family: BACS"">AmaclZckv</p>","","","","","","","","",""
"html-keyboard-response","68","257310","0.0-8.0-0.60","614dd6473c74b217ad73cc9c","650c16f0f2faf8d7a0d14c09","651c1b0872134699e23133ff","null","null","<p style=""font-size: 60px; font-family: BACS"">OLJblUdvY</p>","","","","","","","","",""
"html-keyboard-response","69","258325","0.0-8.0-0.61","614dd6473c74b217ad73cc9c","650c16f0f2faf8d7a0d14c09","651c1b0872134699e23133ff","null","null","<p style=""font-size: 60px; font-family: BACS"">UmNJZckv</p>","","","","","","","","",""
"html-keyboard-response","70","259341","0.0-8.0-0.62","614dd6473c74b217ad73cc9c","650c16f0f2faf8d7a0d14c09","651c1b0872134699e23133ff","null","null","<p style=""font-size: 60px; font-family: BACS"">JdOAYUZu</p>","","","","","","","","",""
"html-keyboard-response","71","260350","0.0-8.0-0.63","614dd6473c74b217ad73cc9c","650c16f0f2faf8d7a0d14c09","651c1b0872134699e23133ff","null","null","<p style=""font-size: 60px; font-family: BACS"">OLJblZckv</p>","","","","","","","","",""
"html-keyboard-response","72","261372","0.0-8.0-0.64","614dd6473c74b217ad73cc9c","650c16f0f2faf8d7a0d14c09","651c1b0872134699e23133ff","null","null","<p style=""font-size: 60px; font-family: BACS"">AmaclvUdm</p>","","","","","","","","",""
"html-keyboard-response","73","262388","0.0-8.0-0.65","614dd6473c74b217ad73cc9c","650c16f0f2faf8d7a0d14c09","651c1b0872134699e23133ff","null","null","<p style=""font-size: 60px; font-family: BACS"">kDRKcCMdP</p>","","","","","","","","",""
"html-keyboard-response","74","263404","0.0-8.0-0.66","614dd6473c74b217ad73cc9c","650c16f0f2faf8d7a0d14c09","651c1b0872134699e23133ff","null","null","<p style=""font-size: 60px; font-family: BACS"">kNuavUdm</p>","","","","","","","","",""
"html-keyboard-response","75","264420","0.0-8.0-0.67","614dd6473c74b217ad73cc9c","650c16f0f2faf8d7a0d14c09","651c1b0872134699e23133ff","null","null","<p style=""font-size: 60px; font-family: BACS"">RlAKcdmRb</p>","","","","","","","","",""
"html-keyboard-response","76","265428","0.0-8.0-0.68","614dd6473c74b217ad73cc9c","650c16f0f2faf8d7a0d14c09","651c1b0872134699e23133ff","null","null","<p style=""font-size: 60px; font-family: BACS"">kDRKcKEdl</p>","","","","","","","","",""
"html-keyboard-response","77","266435","0.0-8.0-0.69","614dd6473c74b217ad73cc9c","650c16f0f2faf8d7a0d14c09","651c1b0872134699e23133ff","null","null","<p style=""font-size: 60px; font-family: BACS"">UmNJUZu</p>","","","","","","","","",""
"html-keyboard-response","78","267450","0.0-8.0-0.70","614dd6473c74b217ad73cc9c","650c16f0f2faf8d7a0d14c09","651c1b0872134699e23133ff","null","null","<p style=""font-size: 60px; font-family: BACS"">kNuaZckv</p>","","","","","","","","",""
"html-keyboard-response","79","268463","0.0-8.0-0.71","614dd6473c74b217ad73cc9c","650c16f0f2faf8d7a0d14c09","651c1b0872134699e23133ff","null","null","<p style=""font-size: 60px; font-family: BACS"">DdckdmRb</p>","","","","","","","","",""
"html-keyboard-response","80","269466","0.0-8.0-0.72","614dd6473c74b217ad73cc9c","650c16f0f2faf8d7a0d14c09","651c1b0872134699e23133ff","null","null","<p style=""font-size: 60px; font-family: BACS"">OLJblkam</p>","","","","","","","","",""
"html-keyboard-response","81","270482","0.0-8.0-0.73","614dd6473c74b217ad73cc9c","650c16f0f2faf8d7a0d14c09","651c1b0872134699e23133ff","null","null","<p style=""font-size: 60px; font-family: BACS"">bRABtlRE</p>","","","","","","","","",""
"html-keyboard-response","82","271498","0.0-8.0-0.74","614dd6473c74b217ad73cc9c","650c16f0f2faf8d7a0d14c09","651c1b0872134699e23133ff","null","null","<p style=""font-size: 60px; font-family: BACS"">YNrAmkam</p>","","","","","","","","",""
"html-keyboard-response","83","272512","0.0-8.0-0.75","614dd6473c74b217ad73cc9c","650c16f0f2faf8d7a0d14c09","651c1b0872134699e23133ff","null","null","<p style=""font-size: 60px; font-family: BACS"">kNuaUZu</p>","","","","","","","","",""
"html-keyboard-response","84","273529","0.0-8.0-0.76","614dd6473c74b217ad73cc9c","650c16f0f2faf8d7a0d14c09","651c1b0872134699e23133ff","null","null","<p style=""font-size: 60px; font-family: BACS"">hChYCMdP</p>","","","","","","","","",""
"html-keyboard-response","85","274543","0.0-8.0-0.77","614dd6473c74b217ad73cc9c","650c16f0f2faf8d7a0d14c09","651c1b0872134699e23133ff","null","null","<p style=""font-size: 60px; font-family: BACS"">ukcYvUdm</p>","","","","","","","","",""
"html-keyboard-response","86","275544","0.0-8.0-0.78","614dd6473c74b217ad73cc9c","650c16f0f2faf8d7a0d14c09","651c1b0872134699e23133ff","null","null","<p style=""font-size: 60px; font-family: BACS"">RlAKcCMdP</p>","","","","","","","","",""
"html-keyboard-response","87","276560","0.0-8.0-0.79","614dd6473c74b217ad73cc9c","650c16f0f2faf8d7a0d14c09","651c1b0872134699e23133ff","null","null","<p style=""font-size: 60px; font-family: BACS"">OtlRdmRb</p>","","","","","","","","",""
"html-keyboard-response","88","285005","0.0-9.0","614dd6473c74b217ad73cc9c","650c16f0f2faf8d7a0d14c09","651c1b0872134699e23133ff","8444"," ","<p>Great, you've seen the first block of words. You may now take a short break.</p>
      <p>Press the spacebar when you're ready to continue.</p>","","","","","","","","",""
"html-keyboard-response","89","286013","0.0-10.0-0.0","614dd6473c74b217ad73cc9c","650c16f0f2faf8d7a0d14c09","651c1b0872134699e23133ff","null","null","<p style=""font-size: 60px; font-family: BACS"">cRElDCMdP</p>","","","","","","","","",""
"html-keyboard-response","90","287016","0.0-10.0-0.1","614dd6473c74b217ad73cc9c","650c16f0f2faf8d7a0d14c09","651c1b0872134699e23133ff","null","null","<p style=""font-size: 60px; font-family: BACS"">OtlRAPEM</p>","","","","","","","","",""
"html-keyboard-response","91","288024","0.0-10.0-0.2","614dd6473c74b217ad73cc9c","650c16f0f2faf8d7a0d14c09","651c1b0872134699e23133ff","null","null","<p style=""font-size: 60px; font-family: BACS"">Amaclkam</p>","","","","","","","","",""
"html-keyboard-response","92","289028","0.0-10.0-0.3","614dd6473c74b217ad73cc9c","650c16f0f2faf8d7a0d14c09","651c1b0872134699e23133ff","null","null","<p style=""font-size: 60px; font-family: BACS"">OLJblUZu</p>","","","","","","","","",""
"html-keyboard-response","93","290044","0.0-10.0-0.4","614dd6473c74b217ad73cc9c","650c16f0f2faf8d7a0d14c09","651c1b0872134699e23133ff","null","null","<p style=""font-size: 60px; font-family: BACS"">OtlRdmRb</p>","","","","","","","","",""
"html-keyboard-response","94","291052","0.0-10.0-0.5","614dd6473c74b217ad73cc9c","650c16f0f2faf8d7a0d14c09","651c1b0872134699e23133ff","null","null","<p style=""font-size: 60px; font-family: BACS"">OAmGrUZu</p>","","","","","","","","",""
"html-keyboard-response","95","292060","0.0-10.0-0.6","614dd6473c74b217ad73cc9c","650c16f0f2faf8d7a0d14c09","651c1b0872134699e23133ff","null","null","<p style=""font-size: 60px; font-family: BACS"">kDRKcCMdP</p>","","","","","","","","",""
"html-keyboard-response","96","293075","0.0-10.0-0.7","614dd6473c74b217ad73cc9c","650c16f0f2faf8d7a0d14c09","651c1b0872134699e23133ff","null","null","<p style=""font-size: 60px; font-family: BACS"">LcNUJkam</p>","","","","","","","","",""
"html-keyboard-response","97","294092","0.0-10.0-0.8","614dd6473c74b217ad73cc9c","650c16f0f2faf8d7a0d14c09","651c1b0872134699e23133ff","null","null","<p style=""font-size: 60px; font-family: BACS"">UmNJvUdm</p>","","","","","","","","",""
"html-keyboard-response","98","295107","0.0-10.0-0.9","614dd6473c74b217ad73cc9c","650c16f0f2faf8d7a0d14c09","651c1b0872134699e23133ff","null","null","<p style=""font-size: 60px; font-family: BACS"">RlAKcdmRb</p>","","","","","","","","",""
"html-keyboard-response","99","296123","0.0-10.0-0.10","614dd6473c74b217ad73cc9c","650c16f0f2faf8d7a0d14c09","651c1b0872134699e23133ff","null","null","<p style=""font-size: 60px; font-family: BACS"">COtBDKEdl</p>","","","","","","","","",""
"html-keyboard-response","100","297137","0.0-10.0-0.11","614dd6473c74b217ad73cc9c","650c16f0f2faf8d7a0d14c09","651c1b0872134699e23133ff","null","null","<p style=""font-size: 60px; font-family: BACS"">OLJblkam</p>","","","","","","","","",""
"html-keyboard-response","101","298151","0.0-10.0-0.12","614dd6473c74b217ad73cc9c","650c16f0f2faf8d7a0d14c09","651c1b0872134699e23133ff","null","null","<p style=""font-size: 60px; font-family: BACS"">hChYdmRb</p>","","","","","","","","",""
"html-keyboard-response","102","299154","0.0-10.0-0.13","614dd6473c74b217ad73cc9c","650c16f0f2faf8d7a0d14c09","651c1b0872134699e23133ff","null","null","<p style=""font-size: 60px; font-family: BACS"">DdckCMdP</p>","","","","","","","","",""
"html-keyboard-response","103","300157","0.0-10.0-0.14","614dd6473c74b217ad73cc9c","650c16f0f2faf8d7a0d14c09","651c1b0872134699e23133ff","null","null","<p style=""font-size: 60px; font-family: BACS"">cRElDlRE</p>","","","","","","","","",""
"html-keyboard-response","104","301170","0.0-10.0-0.15","614dd6473c74b217ad73cc9c","650c16f0f2faf8d7a0d14c09","651c1b0872134699e23133ff","null","null","<p style=""font-size: 60px; font-family: BACS"">COtBDdmRb</p>","","","","","","","","",""
"html-keyboard-response","105","302185","0.0-10.0-0.16","614dd6473c74b217ad73cc9c","650c16f0f2faf8d7a0d14c09","651c1b0872134699e23133ff","null","null","<p style=""font-size: 60px; font-family: BACS"">OAmGrUdvY</p>","","","","","","","","",""
"html-keyboard-response","106","303200","0.0-10.0-0.17","614dd6473c74b217ad73cc9c","650c16f0f2faf8d7a0d14c09","651c1b0872134699e23133ff","null","null","<p style=""font-size: 60px; font-family: BACS"">DdckAPEM</p>","","","","","","","","",""
"html-keyboard-response","107","304201","0.0-10.0-0.18","614dd6473c74b217ad73cc9c","650c16f0f2faf8d7a0d14c09","651c1b0872134699e23133ff","null","null","<p style=""font-size: 60px; font-family: BACS"">AmaclZckv</p>","","","","","","","","",""
"html-keyboard-response","108","305217","0.0-10.0-0.19","614dd6473c74b217ad73cc9c","650c16f0f2faf8d7a0d14c09","651c1b0872134699e23133ff","null","null","<p style=""font-size: 60px; font-family: BACS"">UmNJUZu</p>","","","","","","","","",""
"html-keyboard-response","109","306233","0.0-10.0-0.20","614dd6473c74b217ad73cc9c","650c16f0f2faf8d7a0d14c09","651c1b0872134699e23133ff","null","null","<p style=""font-size: 60px; font-family: BACS"">RlAKcAPEM</p>","","","","","","","","",""
"html-keyboard-response","110","307247","0.0-10.0-0.21","614dd6473c74b217ad73cc9c","650c16f0f2faf8d7a0d14c09","651c1b0872134699e23133ff","null","null","<p style=""font-size: 60px; font-family: BACS"">AmaclUZu</p>","","","","","","","","",""
"html-keyboard-response","111","308248","0.0-10.0-0.22","614dd6473c74b217ad73cc9c","650c16f0f2faf8d7a0d14c09","651c1b0872134699e23133ff","null","null","<p style=""font-size: 60px; font-family: BACS"">kDRKcKEdl</p>","","","","","","","","",""
"html-keyboard-response","112","309250","0.0-10.0-0.23","614dd6473c74b217ad73cc9c","650c16f0f2faf8d7a0d14c09","651c1b0872134699e23133ff","null","null","<p style=""font-size: 60px; font-family: BACS"">bRABtAPEM</p>","","","","","","","","",""
"html-keyboard-response","113","310263","0.0-10.0-0.24","614dd6473c74b217ad73cc9c","650c16f0f2faf8d7a0d14c09","651c1b0872134699e23133ff","null","null","<p style=""font-size: 60px; font-family: BACS"">LcNUJUdvY</p>","","","","","","","","",""
"html-keyboard-response","114","311279","0.0-10.0-0.25","614dd6473c74b217ad73cc9c","650c16f0f2faf8d7a0d14c09","651c1b0872134699e23133ff","null","null","<p style=""font-size: 60px; font-family: BACS"">khmhAPEM</p>","","","","","","","","",""
"html-keyboard-response","115","312294","0.0-10.0-0.26","614dd6473c74b217ad73cc9c","650c16f0f2faf8d7a0d14c09","651c1b0872134699e23133ff","null","null","<p style=""font-size: 60px; font-family: BACS"">RlAKclRE</p>","","","","","","","","",""
"html-keyboard-response","116","313310","0.0-10.0-0.27","614dd6473c74b217ad73cc9c","650c16f0f2faf8d7a0d14c09","651c1b0872134699e23133ff","null","null","<p style=""font-size: 60px; font-family: BACS"">UmNJZckv</p>","","","","","","","","",""
"html-keyboard-response","117","314325","0.0-10.0-0.28","614dd6473c74b217ad73cc9c","650c16f0f2faf8d7a0d14c09","651c1b0872134699e23133ff","null","null","<p style=""font-size: 60px; font-family: BACS"">bRABtlRE</p>","","","","","","","","",""
"html-keyboard-response","118","315341","0.0-10.0-0.29","614dd6473c74b217ad73cc9c","650c16f0f2faf8d7a0d14c09","651c1b0872134699e23133ff","null","null","<p style=""font-size: 60px; font-family: BACS"">OmtlDdmRb</p>","","","","","","","","",""
"html-keyboard-response","119","316357","0.0-10.0-0.30","614dd6473c74b217ad73cc9c","650c16f0f2faf8d7a0d14c09","651c1b0872134699e23133ff","null","null","<p style=""font-size: 60px; font-family: BACS"">ukcYkam</p>","","","","","","","","",""
"html-keyboard-response","120","317373","0.0-10.0-0.31","614dd6473c74b217ad73cc9c","650c16f0f2faf8d7a0d14c09","651c1b0872134699e23133ff","null","null","<p style=""font-size: 60px; font-family: BACS"">khmhKEdl</p>","","","","","","","","",""
"html-keyboard-response","121","318388","0.0-10.0-0.32","614dd6473c74b217ad73cc9c","650c16f0f2faf8d7a0d14c09","651c1b0872134699e23133ff","null","null","<p style=""font-size: 60px; font-family: BACS"">kNuavUdm</p>","","","","","","","","",""
"html-keyboard-response","122","319403","0.0-10.0-0.33","614dd6473c74b217ad73cc9c","650c16f0f2faf8d7a0d14c09","651c1b0872134699e23133ff","null","null","<p style=""font-size: 60px; font-family: BACS"">JdOAYkam</p>","","","","","","","","",""
"html-keyboard-response","123","320420","0.0-10.0-0.34","614dd6473c74b217ad73cc9c","650c16f0f2faf8d7a0d14c09","651c1b0872134699e23133ff","null","null","<p style=""font-size: 60px; font-family: BACS"">DdckKEdl</p>","","","","","","","","",""
"html-keyboard-response","124","321435","0.0-10.0-0.35","614dd6473c74b217ad73cc9c","650c16f0f2faf8d7a0d14c09","651c1b0872134699e23133ff","null","null","<p style=""font-size: 60px; font-family: BACS"">UmNJkam</p>","","","","","","","","",""
"html-keyboard-response","125","322451","0.0-10.0-0.36","614dd6473c74b217ad73cc9c","650c16f0f2faf8d7a0d14c09","651c1b0872134699e23133ff","null","null","<p style=""font-size: 60px; font-family: BACS"">JdOAYUdvY</p>","","","","","","","","",""
"html-keyboard-response","126","323463","0.0-10.0-0.37","614dd6473c74b217ad73cc9c","650c16f0f2faf8d7a0d14c09","651c1b0872134699e23133ff","null","null","<p style=""font-size: 60px; font-family: BACS"">hChYCMdP</p>","","","","","","","","",""
"html-keyboard-response","127","324466","0.0-10.0-0.38","614dd6473c74b217ad73cc9c","650c16f0f2faf8d7a0d14c09","651c1b0872134699e23133ff","null","null","<p style=""font-size: 60px; font-family: BACS"">uQkrdZckv</p>","","","","","","","","",""
"html-keyboard-response","128","325472","0.0-10.0-0.39","614dd6473c74b217ad73cc9c","650c16f0f2faf8d7a0d14c09","651c1b0872134699e23133ff","null","null","<p style=""font-size: 60px; font-family: BACS"">OmtlDKEdl</p>","","","","","","","","",""
"html-keyboard-response","129","326482","0.0-10.0-0.40","614dd6473c74b217ad73cc9c","650c16f0f2faf8d7a0d14c09","651c1b0872134699e23133ff","null","null","<p style=""font-size: 60px; font-family: BACS"">OLJblUdvY</p>","","","","","","","","",""
"html-keyboard-response","130","327497","0.0-10.0-0.41","614dd6473c74b217ad73cc9c","650c16f0f2faf8d7a0d14c09","651c1b0872134699e23133ff","null","null","<p style=""font-size: 60px; font-family: BACS"">kDRKclRE</p>","","","","","","","","",""
"html-keyboard-response","131","328512","0.0-10.0-0.42","614dd6473c74b217ad73cc9c","650c16f0f2faf8d7a0d14c09","651c1b0872134699e23133ff","null","null","<p style=""font-size: 60px; font-family: BACS"">OmtlDAPEM</p>","","","","","","","","",""
"html-keyboard-response","132","329528","0.0-10.0-0.43","614dd6473c74b217ad73cc9c","650c16f0f2faf8d7a0d14c09","651c1b0872134699e23133ff","null","null","<p style=""font-size: 60px; font-family: BACS"">kNuaUdvY</p>","","","","","","","","",""
"html-keyboard-response","133","330538","0.0-10.0-0.44","614dd6473c74b217ad73cc9c","650c16f0f2faf8d7a0d14c09","651c1b0872134699e23133ff","null","null","<p style=""font-size: 60px; font-family: BACS"">khmhCMdP</p>","","","","","","","","",""
"html-keyboard-response","134","331544","0.0-10.0-0.45","614dd6473c74b217ad73cc9c","650c16f0f2faf8d7a0d14c09","651c1b0872134699e23133ff","null","null","<p style=""font-size: 60px; font-family: BACS"">LcNUJZckv</p>","","","","","","","","",""
"html-keyboard-response","135","332553","0.0-10.0-0.46","614dd6473c74b217ad73cc9c","650c16f0f2faf8d7a0d14c09","651c1b0872134699e23133ff","null","null","<p style=""font-size: 60px; font-family: BACS"">hChYAPEM</p>","","","","","","","","",""
"html-keyboard-response","136","333559","0.0-10.0-0.47","614dd6473c74b217ad73cc9c","650c16f0f2faf8d7a0d14c09","651c1b0872134699e23133ff","null","null","<p style=""font-size: 60px; font-family: BACS"">YNrAmUdvY</p>","","","","","","","","",""
"html-keyboard-response","137","334574","0.0-10.0-0.48","614dd6473c74b217ad73cc9c","650c16f0f2faf8d7a0d14c09","651c1b0872134699e23133ff","null","null","<p style=""font-size: 60px; font-family: BACS"">AmaclvUdm</p>","","","","","","","","",""
"html-keyboard-response","138","335591","0.0-10.0-0.49","614dd6473c74b217ad73cc9c","650c16f0f2faf8d7a0d14c09","651c1b0872134699e23133ff","null","null","<p style=""font-size: 60px; font-family: BACS"">bRABtCMdP</p>","","","","","","","","",""
"html-keyboard-response","139","336606","0.0-10.0-0.50","614dd6473c74b217ad73cc9c","650c16f0f2faf8d7a0d14c09","651c1b0872134699e23133ff","null","null","<p style=""font-size: 60px; font-family: BACS"">JdOAYvUdm</p>","","","","","","","","",""
"html-keyboard-response","140","337617","0.0-10.0-0.51","614dd6473c74b217ad73cc9c","650c16f0f2faf8d7a0d14c09","651c1b0872134699e23133ff","null","null","<p style=""font-size: 60px; font-family: BACS"">ukcYUdvY</p>","","","","","","","","",""
"html-keyboard-response","141","338622","0.0-10.0-0.52","614dd6473c74b217ad73cc9c","650c16f0f2faf8d7a0d14c09","651c1b0872134699e23133ff","null","null","<p style=""font-size: 60px; font-family: BACS"">JdOAYUZu</p>","","","","","","","","",""
"html-keyboard-response","142","339637","0.0-10.0-0.53","614dd6473c74b217ad73cc9c","650c16f0f2faf8d7a0d14c09","651c1b0872134699e23133ff","null","null","<p style=""font-size: 60px; font-family: BACS"">ukcYvUdm</p>","","","","","","","","",""
"html-keyboard-response","143","340653","0.0-10.0-0.54","614dd6473c74b217ad73cc9c","650c16f0f2faf8d7a0d14c09","651c1b0872134699e23133ff","null","null","<p style=""font-size: 60px; font-family: BACS"">cRElDKEdl</p>","","","","","","","","",""
"html-keyboard-response","144","341658","0.0-10.0-0.55","614dd6473c74b217ad73cc9c","650c16f0f2faf8d7a0d14c09","651c1b0872134699e23133ff","null","null","<p style=""font-size: 60px; font-family: BACS"">LcNUJvUdm</p>","","","","","","","","",""
"html-keyboard-response","145","342668","0.0-10.0-0.56","614dd6473c74b217ad73cc9c","650c16f0f2faf8d7a0d14c09","651c1b0872134699e23133ff","null","null","<p style=""font-size: 60px; font-family: BACS"">uQkrdUZu</p>","","","","","","","","",""
"html-keyboard-response","146","343671","0.0-10.0-0.57","614dd6473c74b217ad73cc9c","650c16f0f2faf8d7a0d14c09","651c1b0872134699e23133ff","null","null","<p style=""font-size: 60px; font-family: BACS"">YNrAmkam</p>","","","","","","","","",""
"html-keyboard-response","147","344679","0.0-10.0-0.58","614dd6473c74b217ad73cc9c","650c16f0f2faf8d7a0d14c09","651c1b0872134699e23133ff","null","null","<p style=""font-size: 60px; font-family: BACS"">khmhdmRb</p>","","","","","","","","",""
"html-keyboard-response","148","345692","0.0-10.0-0.59","614dd6473c74b217ad73cc9c","650c16f0f2faf8d7a0d14c09","651c1b0872134699e23133ff","null","null","<p style=""font-size: 60px; font-family: BACS"">YNrAmvUdm</p>","","","","","","","","",""
"html-keyboard-response","149","346701","0.0-10.0-0.60","614dd6473c74b217ad73cc9c","650c16f0f2faf8d7a0d14c09","651c1b0872134699e23133ff","null","null","<p style=""font-size: 60px; font-family: BACS"">uQkrdkam</p>","","","","","","","","",""
"html-keyboard-response","150","347715","0.0-10.0-0.61","614dd6473c74b217ad73cc9c","650c16f0f2faf8d7a0d14c09","651c1b0872134699e23133ff","null","null","<p style=""font-size: 60px; font-family: BACS"">OAmGrZckv</p>","","","","","","","","",""
"html-keyboard-response","151","348731","0.0-10.0-0.62","614dd6473c74b217ad73cc9c","650c16f0f2faf8d7a0d14c09","651c1b0872134699e23133ff","null","null","<p style=""font-size: 60px; font-family: BACS"">cRElDdmRb</p>","","","","","","","","",""
"html-keyboard-response","152","349747","0.0-10.0-0.63","614dd6473c74b217ad73cc9c","650c16f0f2faf8d7a0d14c09","651c1b0872134699e23133ff","null","null","<p style=""font-size: 60px; font-family: BACS"">OtlRKEdl</p>","","","","","","","","",""
"html-keyboard-response","153","350763","0.0-10.0-0.64","614dd6473c74b217ad73cc9c","650c16f0f2faf8d7a0d14c09","651c1b0872134699e23133ff","null","null","<p style=""font-size: 60px; font-family: BACS"">OmtlDlRE</p>","","","","","","","","",""
"html-keyboard-response","154","351777","0.0-10.0-0.65","614dd6473c74b217ad73cc9c","650c16f0f2faf8d7a0d14c09","651c1b0872134699e23133ff","null","null","<p style=""font-size: 60px; font-family: BACS"">YNrAmZckv</p>","","","","","","","","",""
"html-keyboard-response","155","352778","0.0-10.0-0.66","614dd6473c74b217ad73cc9c","650c16f0f2faf8d7a0d14c09","651c1b0872134699e23133ff","null","null","<p style=""font-size: 60px; font-family: BACS"">ukcYUZu</p>","","","","","","","","",""
"html-keyboard-response","156","353793","0.0-10.0-0.67","614dd6473c74b217ad73cc9c","650c16f0f2faf8d7a0d14c09","651c1b0872134699e23133ff","null","null","<p style=""font-size: 60px; font-family: BACS"">OLJblZckv</p>","","","","","","","","",""
"html-keyboard-response","157","354809","0.0-10.0-0.68","614dd6473c74b217ad73cc9c","650c16f0f2faf8d7a0d14c09","651c1b0872134699e23133ff","null","null","<p style=""font-size: 60px; font-family: BACS"">kDRKcAPEM</p>","","","","","","","","",""
"html-keyboard-response","158","355812","0.0-10.0-0.69","614dd6473c74b217ad73cc9c","650c16f0f2faf8d7a0d14c09","651c1b0872134699e23133ff","null","null","<p style=""font-size: 60px; font-family: BACS"">RlAKcCMdP</p>","","","","","","","","",""
"html-keyboard-response","159","356824","0.0-10.0-0.70","614dd6473c74b217ad73cc9c","650c16f0f2faf8d7a0d14c09","651c1b0872134699e23133ff","null","null","<p style=""font-size: 60px; font-family: BACS"">OtlRlRE</p>","","","","","","","","",""
"html-keyboard-response","160","357830","0.0-10.0-0.71","614dd6473c74b217ad73cc9c","650c16f0f2faf8d7a0d14c09","651c1b0872134699e23133ff","null","null","<p style=""font-size: 60px; font-family: BACS"">OAmGrvUdm</p>","","","","","","","","",""
"html-keyboard-response","161","358834","0.0-10.0-0.72","614dd6473c74b217ad73cc9c","650c16f0f2faf8d7a0d14c09","651c1b0872134699e23133ff","null","null","<p style=""font-size: 60px; font-family: BACS"">bRABtKEdl</p>","","","","","","","","",""
"html-keyboard-response","162","359841","0.0-10.0-0.73","614dd6473c74b217ad73cc9c","650c16f0f2faf8d7a0d14c09","651c1b0872134699e23133ff","null","null","<p style=""font-size: 60px; font-family: BACS"">DdckdmRb</p>","","","","","","","","",""
"html-keyboard-response","163","360856","0.0-10.0-0.74","614dd6473c74b217ad73cc9c","650c16f0f2faf8d7a0d14c09","651c1b0872134699e23133ff","null","null","<p style=""font-size: 60px; font-family: BACS"">COtBDlRE</p>","","","","","","","","",""
"html-keyboard-response","164","361871","0.0-10.0-0.75","614dd6473c74b217ad73cc9c","650c16f0f2faf8d7a0d14c09","651c1b0872134699e23133ff","null","null","<p style=""font-size: 60px; font-family: BACS"">kNuaUZu</p>","","","","","","","","",""
"html-keyboard-response","165","362872","0.0-10.0-0.76","614dd6473c74b217ad73cc9c","650c16f0f2faf8d7a0d14c09","651c1b0872134699e23133ff","null","null","<p style=""font-size: 60px; font-family: BACS"">COtBDCMdP</p>","","","","","","","","",""
"html-keyboard-response","166","363887","0.0-10.0-0.77","614dd6473c74b217ad73cc9c","650c16f0f2faf8d7a0d14c09","651c1b0872134699e23133ff","null","null","<p style=""font-size: 60px; font-family: BACS"">uQkrdUdvY</p>","","","","","","","","",""
"html-keyboard-response","167","364902","0.0-10.0-0.78","614dd6473c74b217ad73cc9c","650c16f0f2faf8d7a0d14c09","651c1b0872134699e23133ff","null","null","<p style=""font-size: 60px; font-family: BACS"">kNuaZckv</p>","","","","","","","","",""
"html-keyboard-response","168","365903","0.0-10.0-0.79","614dd6473c74b217ad73cc9c","650c16f0f2faf8d7a0d14c09","651c1b0872134699e23133ff","null","null","<p style=""font-size: 60px; font-family: BACS"">hChYlRE</p>","","","","","","","","",""
"html-keyboard-response","169","372453","0.0-11.0","614dd6473c74b217ad73cc9c","650c16f0f2faf8d7a0d14c09","651c1b0872134699e23133ff","6549"," ","<p>Great, you've seen the second block of words. You may now take a short break.</p>
      <p>Press the spacebar when you're ready to continue.</p>","","","","","","","","",""
"html-keyboard-response","170","373464","0.0-12.0-0.0","614dd6473c74b217ad73cc9c","650c16f0f2faf8d7a0d14c09","651c1b0872134699e23133ff","null","null","<p style=""font-size: 60px; font-family: BACS"">COtBDKEdl</p>","","","","","","","","",""
"html-keyboard-response","171","374480","0.0-12.0-0.1","614dd6473c74b217ad73cc9c","650c16f0f2faf8d7a0d14c09","651c1b0872134699e23133ff","null","null","<p style=""font-size: 60px; font-family: BACS"">AmaclUZu</p>","","","","","","","","",""
"html-keyboard-response","172","375496","0.0-12.0-0.2","614dd6473c74b217ad73cc9c","650c16f0f2faf8d7a0d14c09","651c1b0872134699e23133ff","null","null","<p style=""font-size: 60px; font-family: BACS"">bRABtKEdl</p>","","","","","","","","",""
"html-keyboard-response","173","376499","0.0-12.0-0.3","614dd6473c74b217ad73cc9c","650c16f0f2faf8d7a0d14c09","651c1b0872134699e23133ff","null","null","<p style=""font-size: 60px; font-family: BACS"">YNrAmkam</p>","","","","","","","","",""
"html-keyboard-response","174","377512","0.0-12.0-0.4","614dd6473c74b217ad73cc9c","650c16f0f2faf8d7a0d14c09","651c1b0872134699e23133ff","null","null","<p style=""font-size: 60px; font-family: BACS"">khmhAPEM</p>","","","","","","","","",""
"html-keyboard-response","175","378528","0.0-12.0-0.5","614dd6473c74b217ad73cc9c","650c16f0f2faf8d7a0d14c09","651c1b0872134699e23133ff","null","null","<p style=""font-size: 60px; font-family: BACS"">DdckKEdl</p>","","","","","","","","",""
"html-keyboard-response","176","379543","0.0-12.0-0.6","614dd6473c74b217ad73cc9c","650c16f0f2faf8d7a0d14c09","651c1b0872134699e23133ff","null","null","<p style=""font-size: 60px; font-family: BACS"">ukcYvUdm</p>","","","","","","","","",""
"html-keyboard-response","177","380559","0.0-12.0-0.7","614dd6473c74b217ad73cc9c","650c16f0f2faf8d7a0d14c09","651c1b0872134699e23133ff","null","null","<p style=""font-size: 60px; font-family: BACS"">Amaclkam</p>","","","","","","","","",""
"html-keyboard-response","178","381575","0.0-12.0-0.8","614dd6473c74b217ad73cc9c","650c16f0f2faf8d7a0d14c09","651c1b0872134699e23133ff","null","null","<p style=""font-size: 60px; font-family: BACS"">UmNJUZu</p>","","","","","","","","",""
"html-keyboard-response","179","382583","0.0-12.0-0.9","614dd6473c74b217ad73cc9c","650c16f0f2faf8d7a0d14c09","651c1b0872134699e23133ff","null","null","<p style=""font-size: 60px; font-family: BACS"">LcNUJZckv</p>","","","","","","","","",""
"html-keyboard-response","180","383598","0.0-12.0-0.10","614dd6473c74b217ad73cc9c","650c16f0f2faf8d7a0d14c09","651c1b0872134699e23133ff","null","null","<p style=""font-size: 60px; font-family: BACS"">JdOAYUdvY</p>","","","","","","","","",""
"html-keyboard-response","181","384599","0.0-12.0-0.11","614dd6473c74b217ad73cc9c","650c16f0f2faf8d7a0d14c09","651c1b0872134699e23133ff","null","null","<p style=""font-size: 60px; font-family: BACS"">bRABtAPEM</p>","","","","","","","","",""
"html-keyboard-response","182","385608","0.0-12.0-0.12","614dd6473c74b217ad73cc9c","650c16f0f2faf8d7a0d14c09","651c1b0872134699e23133ff","null","null","<p style=""font-size: 60px; font-family: BACS"">JdOAYkam</p>","","","","","","","","",""
"html-keyboard-response","183","386622","0.0-12.0-0.13","614dd6473c74b217ad73cc9c","650c16f0f2faf8d7a0d14c09","651c1b0872134699e23133ff","null","null","<p style=""font-size: 60px; font-family: BACS"">OmtlDlRE</p>","","","","","","","","",""
"html-keyboard-response","184","387637","0.0-12.0-0.14","614dd6473c74b217ad73cc9c","650c16f0f2faf8d7a0d14c09","651c1b0872134699e23133ff","null","null","<p style=""font-size: 60px; font-family: BACS"">UmNJZckv</p>","","","","","","","","",""
"html-keyboard-response","185","388638","0.0-12.0-0.15","614dd6473c74b217ad73cc9c","650c16f0f2faf8d7a0d14c09","651c1b0872134699e23133ff","null","null","<p style=""font-size: 60px; font-family: BACS"">OAmGrvUdm</p>","","","","","","","","",""
"html-keyboard-response","186","389649","0.0-12.0-0.16","614dd6473c74b217ad73cc9c","650c16f0f2faf8d7a0d14c09","651c1b0872134699e23133ff","null","null","<p style=""font-size: 60px; font-family: BACS"">DdckAPEM</p>","","","","","","","","",""
"html-keyboard-response","187","390653","0.0-12.0-0.17","614dd6473c74b217ad73cc9c","650c16f0f2faf8d7a0d14c09","651c1b0872134699e23133ff","null","null","<p style=""font-size: 60px; font-family: BACS"">bRABtlRE</p>","","","","","","","","",""
"html-keyboard-response","188","391668","0.0-12.0-0.18","614dd6473c74b217ad73cc9c","650c16f0f2faf8d7a0d14c09","651c1b0872134699e23133ff","null","null","<p style=""font-size: 60px; font-family: BACS"">OtlRdmRb</p>","","","","","","","","",""
"html-keyboard-response","189","392685","0.0-12.0-0.19","614dd6473c74b217ad73cc9c","650c16f0f2faf8d7a0d14c09","651c1b0872134699e23133ff","null","null","<p style=""font-size: 60px; font-family: BACS"">khmhCMdP</p>","","","","","","","","",""
"html-keyboard-response","190","393700","0.0-12.0-0.20","614dd6473c74b217ad73cc9c","650c16f0f2faf8d7a0d14c09","651c1b0872134699e23133ff","null","null","<p style=""font-size: 60px; font-family: BACS"">JdOAYUZu</p>","","","","","","","","",""
"html-keyboard-response","191","394716","0.0-12.0-0.21","614dd6473c74b217ad73cc9c","650c16f0f2faf8d7a0d14c09","651c1b0872134699e23133ff","null","null","<p style=""font-size: 60px; font-family: BACS"">cRElDKEdl</p>","","","","","","","","",""
"html-keyboard-response","192","395731","0.0-12.0-0.22","614dd6473c74b217ad73cc9c","650c16f0f2faf8d7a0d14c09","651c1b0872134699e23133ff","null","null","<p style=""font-size: 60px; font-family: BACS"">OAmGrUZu</p>","","","","","","","","",""
"html-keyboard-response","193","396732","0.0-12.0-0.23","614dd6473c74b217ad73cc9c","650c16f0f2faf8d7a0d14c09","651c1b0872134699e23133ff","null","null","<p style=""font-size: 60px; font-family: BACS"">LcNUJkam</p>","","","","","","","","",""
"html-keyboard-response","194","397746","0.0-12.0-0.24","614dd6473c74b217ad73cc9c","650c16f0f2faf8d7a0d14c09","651c1b0872134699e23133ff","null","null","<p style=""font-size: 60px; font-family: BACS"">OLJblUZu</p>","","","","","","","","",""
"html-keyboard-response","195","398762","0.0-12.0-0.25","614dd6473c74b217ad73cc9c","650c16f0f2faf8d7a0d14c09","651c1b0872134699e23133ff","null","null","<p style=""font-size: 60px; font-family: BACS"">kNuavUdm</p>","","","","","","","","",""
"html-keyboard-response","196","399769","0.0-12.0-0.26","614dd6473c74b217ad73cc9c","650c16f0f2faf8d7a0d14c09","651c1b0872134699e23133ff","null","null","<p style=""font-size: 60px; font-family: BACS"">kDRKcKEdl</p>","","","","","","","","",""
"html-keyboard-response","197","400778","0.0-12.0-0.27","614dd6473c74b217ad73cc9c","650c16f0f2faf8d7a0d14c09","651c1b0872134699e23133ff","null","null","<p style=""font-size: 60px; font-family: BACS"">OAmGrZckv</p>","","","","","","","","",""
"html-keyboard-response","198","401794","0.0-12.0-0.28","614dd6473c74b217ad73cc9c","650c16f0f2faf8d7a0d14c09","651c1b0872134699e23133ff","null","null","<p style=""font-size: 60px; font-family: BACS"">hChYAPEM</p>","","","","","","","","",""
"html-keyboard-response","199","402803","0.0-12.0-0.29","614dd6473c74b217ad73cc9c","650c16f0f2faf8d7a0d14c09","651c1b0872134699e23133ff","null","null","<p style=""font-size: 60px; font-family: BACS"">UmNJkam</p>","","","","","","","","",""
"html-keyboard-response","200","403810","0.0-12.0-0.30","614dd6473c74b217ad73cc9c","650c16f0f2faf8d7a0d14c09","651c1b0872134699e23133ff","null","null","<p style=""font-size: 60px; font-family: BACS"">COtBDdmRb</p>","","","","","","","","",""
"html-keyboard-response","201","404825","0.0-12.0-0.31","614dd6473c74b217ad73cc9c","650c16f0f2faf8d7a0d14c09","651c1b0872134699e23133ff","null","null","<p style=""font-size: 60px; font-family: BACS"">OmtlDAPEM</p>","","","","","","","","",""
"html-keyboard-response","202","405840","0.0-12.0-0.32","614dd6473c74b217ad73cc9c","650c16f0f2faf8d7a0d14c09","651c1b0872134699e23133ff","null","null","<p style=""font-size: 60px; font-family: BACS"">cRElDdmRb</p>","","","","","","","","",""
"html-keyboard-response","203","406854","0.0-12.0-0.33","614dd6473c74b217ad73cc9c","650c16f0f2faf8d7a0d14c09","651c1b0872134699e23133ff","null","null","<p style=""font-size: 60px; font-family: BACS"">kNuaUZu</p>","","","","","","","","",""
"html-keyboard-response","204","407857","0.0-12.0-0.34","614dd6473c74b217ad73cc9c","650c16f0f2faf8d7a0d14c09","651c1b0872134699e23133ff","null","null","<p style=""font-size: 60px; font-family: BACS"">YNrAmUdvY</p>","","","","","","","","",""
"html-keyboard-response","205","408872","0.0-12.0-0.35","614dd6473c74b217ad73cc9c","650c16f0f2faf8d7a0d14c09","651c1b0872134699e23133ff","null","null","<p style=""font-size: 60px; font-family: BACS"">RlAKcdmRb</p>","","","","","","","","",""
"html-keyboard-response","206","409886","0.0-12.0-0.36","614dd6473c74b217ad73cc9c","650c16f0f2faf8d7a0d14c09","651c1b0872134699e23133ff","null","null","<p style=""font-size: 60px; font-family: BACS"">uQkrdUdvY</p>","","","","","","","","",""
"html-keyboard-response","207","410887","0.0-12.0-0.37","614dd6473c74b217ad73cc9c","650c16f0f2faf8d7a0d14c09","651c1b0872134699e23133ff","null","null","<p style=""font-size: 60px; font-family: BACS"">OtlRAPEM</p>","","","","","","","","",""
"html-keyboard-response","208","411903","0.0-12.0-0.38","614dd6473c74b217ad73cc9c","650c16f0f2faf8d7a0d14c09","651c1b0872134699e23133ff","null","null","<p style=""font-size: 60px; font-family: BACS"">cRElDCMdP</p>","","","","","","","","",""
"html-keyboard-response","209","412918","0.0-12.0-0.39","614dd6473c74b217ad73cc9c","650c16f0f2faf8d7a0d14c09","651c1b0872134699e23133ff","null","null","<p style=""font-size: 60px; font-family: BACS"">OLJblkam</p>","","","","","","","","",""
"html-keyboard-response","210","413920","0.0-12.0-0.40","614dd6473c74b217ad73cc9c","650c16f0f2faf8d7a0d14c09","651c1b0872134699e23133ff","null","null","<p style=""font-size: 60px; font-family: BACS"">RlAKclRE</p>","","","","","","","","",""
"html-keyboard-response","211","414921","0.0-12.0-0.41","614dd6473c74b217ad73cc9c","650c16f0f2faf8d7a0d14c09","651c1b0872134699e23133ff","null","null","<p style=""font-size: 60px; font-family: BACS"">OmtlDKEdl</p>","","","","","","","","",""
"html-keyboard-response","212","415922","0.0-12.0-0.42","614dd6473c74b217ad73cc9c","650c16f0f2faf8d7a0d14c09","651c1b0872134699e23133ff","null","null","<p style=""font-size: 60px; font-family: BACS"">uQkrdkam</p>","","","","","","","","",""
"html-keyboard-response","213","416934","0.0-12.0-0.43","614dd6473c74b217ad73cc9c","650c16f0f2faf8d7a0d14c09","651c1b0872134699e23133ff","null","null","<p style=""font-size: 60px; font-family: BACS"">OLJblUdvY</p>","","","","","","","","",""
"html-keyboard-response","214","417950","0.0-12.0-0.44","614dd6473c74b217ad73cc9c","650c16f0f2faf8d7a0d14c09","651c1b0872134699e23133ff","null","null","<p style=""font-size: 60px; font-family: BACS"">uQkrdUZu</p>","","","","","","","","",""
"html-keyboard-response","215","418962","0.0-12.0-0.45","614dd6473c74b217ad73cc9c","650c16f0f2faf8d7a0d14c09","651c1b0872134699e23133ff","null","null","<p style=""font-size: 60px; font-family: BACS"">kDRKclRE</p>","","","","","","","","",""
"html-keyboard-response","216","419966","0.0-12.0-0.46","614dd6473c74b217ad73cc9c","650c16f0f2faf8d7a0d14c09","651c1b0872134699e23133ff","null","null","<p style=""font-size: 60px; font-family: BACS"">bRABtCMdP</p>","","","","","","","","",""
"html-keyboard-response","217","420981","0.0-12.0-0.47","614dd6473c74b217ad73cc9c","650c16f0f2faf8d7a0d14c09","651c1b0872134699e23133ff","null","null","<p style=""font-size: 60px; font-family: BACS"">kNuaZckv</p>","","","","","","","","",""
"html-keyboard-response","218","421997","0.0-12.0-0.48","614dd6473c74b217ad73cc9c","650c16f0f2faf8d7a0d14c09","651c1b0872134699e23133ff","null","null","<p style=""font-size: 60px; font-family: BACS"">YNrAmvUdm</p>","","","","","","","","",""
"html-keyboard-response","219","423010","0.0-12.0-0.49","614dd6473c74b217ad73cc9c","650c16f0f2faf8d7a0d14c09","651c1b0872134699e23133ff","null","null","<p style=""font-size: 60px; font-family: BACS"">kDRKcCMdP</p>","","","","","","","","",""
"html-keyboard-response","220","424013","0.0-12.0-0.50","614dd6473c74b217ad73cc9c","650c16f0f2faf8d7a0d14c09","651c1b0872134699e23133ff","null","null","<p style=""font-size: 60px; font-family: BACS"">khmhKEdl</p>","","","","","","","","",""
"html-keyboard-response","221","425027","0.0-12.0-0.51","614dd6473c74b217ad73cc9c","650c16f0f2faf8d7a0d14c09","651c1b0872134699e23133ff","null","null","<p style=""font-size: 60px; font-family: BACS"">OmtlDdmRb</p>","","","","","","","","",""
"html-keyboard-response","222","426043","0.0-12.0-0.52","614dd6473c74b217ad73cc9c","650c16f0f2faf8d7a0d14c09","651c1b0872134699e23133ff","null","null","<p style=""font-size: 60px; font-family: BACS"">COtBDlRE</p>","","","","","","","","",""
"html-keyboard-response","223","427051","0.0-12.0-0.53","614dd6473c74b217ad73cc9c","650c16f0f2faf8d7a0d14c09","651c1b0872134699e23133ff","null","null","<p style=""font-size: 60px; font-family: BACS"">ukcYUdvY</p>","","","","","","","","",""
"html-keyboard-response","224","428059","0.0-12.0-0.54","614dd6473c74b217ad73cc9c","650c16f0f2faf8d7a0d14c09","651c1b0872134699e23133ff","null","null","<p style=""font-size: 60px; font-family: BACS"">DdckdmRb</p>","","","","","","","","",""
"html-keyboard-response","225","429074","0.0-12.0-0.55","614dd6473c74b217ad73cc9c","650c16f0f2faf8d7a0d14c09","651c1b0872134699e23133ff","null","null","<p style=""font-size: 60px; font-family: BACS"">ukcYUZu</p>","","","","","","","","",""
"html-keyboard-response","226","430090","0.0-12.0-0.56","614dd6473c74b217ad73cc9c","650c16f0f2faf8d7a0d14c09","651c1b0872134699e23133ff","null","null","<p style=""font-size: 60px; font-family: BACS"">OAmGrUdvY</p>","","","","","","","","",""
"html-keyboard-response","227","431093","0.0-12.0-0.57","614dd6473c74b217ad73cc9c","650c16f0f2faf8d7a0d14c09","651c1b0872134699e23133ff","null","null","<p style=""font-size: 60px; font-family: BACS"">DdckCMdP</p>","","","","","","","","",""
"html-keyboard-response","228","432105","0.0-12.0-0.58","614dd6473c74b217ad73cc9c","650c16f0f2faf8d7a0d14c09","651c1b0872134699e23133ff","null","null","<p style=""font-size: 60px; font-family: BACS"">OLJblZckv</p>","","","","","","","","",""
"html-keyboard-response","229","433122","0.0-12.0-0.59","614dd6473c74b217ad73cc9c","650c16f0f2faf8d7a0d14c09","651c1b0872134699e23133ff","null","null","<p style=""font-size: 60px; font-family: BACS"">kNuaUdvY</p>","","","","","","","","",""
"html-keyboard-response","230","434137","0.0-12.0-0.60","614dd6473c74b217ad73cc9c","650c16f0f2faf8d7a0d14c09","651c1b0872134699e23133ff","null","null","<p style=""font-size: 60px; font-family: BACS"">ukcYkam</p>","","","","","","","","",""
"html-keyboard-response","231","435143","0.0-12.0-0.61","614dd6473c74b217ad73cc9c","650c16f0f2faf8d7a0d14c09","651c1b0872134699e23133ff","null","null","<p style=""font-size: 60px; font-family: BACS"">kDRKcAPEM</p>","","","","","","","","",""
"html-keyboard-response","232","436153","0.0-12.0-0.62","614dd6473c74b217ad73cc9c","650c16f0f2faf8d7a0d14c09","651c1b0872134699e23133ff","null","null","<p style=""font-size: 60px; font-family: BACS"">hChYCMdP</p>","","","","","","","","",""
"html-keyboard-response","233","437168","0.0-12.0-0.63","614dd6473c74b217ad73cc9c","650c16f0f2faf8d7a0d14c09","651c1b0872134699e23133ff","null","null","<p style=""font-size: 60px; font-family: BACS"">cRElDlRE</p>","","","","","","","","",""
"html-keyboard-response","234","438176","0.0-12.0-0.64","614dd6473c74b217ad73cc9c","650c16f0f2faf8d7a0d14c09","651c1b0872134699e23133ff","null","null","<p style=""font-size: 60px; font-family: BACS"">YNrAmZckv</p>","","","","","","","","",""
"html-keyboard-response","235","439184","0.0-12.0-0.65","614dd6473c74b217ad73cc9c","650c16f0f2faf8d7a0d14c09","651c1b0872134699e23133ff","null","null","<p style=""font-size: 60px; font-family: BACS"">COtBDCMdP</p>","","","","","","","","",""
"html-keyboard-response","236","440193","0.0-12.0-0.66","614dd6473c74b217ad73cc9c","650c16f0f2faf8d7a0d14c09","651c1b0872134699e23133ff","null","null","<p style=""font-size: 60px; font-family: BACS"">RlAKcAPEM</p>","","","","","","","","",""
"html-keyboard-response","237","441209","0.0-12.0-0.67","614dd6473c74b217ad73cc9c","650c16f0f2faf8d7a0d14c09","651c1b0872134699e23133ff","null","null","<p style=""font-size: 60px; font-family: BACS"">OtlRKEdl</p>","","","","","","","","",""
"html-keyboard-response","238","442215","0.0-12.0-0.68","614dd6473c74b217ad73cc9c","650c16f0f2faf8d7a0d14c09","651c1b0872134699e23133ff","null","null","<p style=""font-size: 60px; font-family: BACS"">hChYlRE</p>","","","","","","","","",""
"html-keyboard-response","239","443232","0.0-12.0-0.69","614dd6473c74b217ad73cc9c","650c16f0f2faf8d7a0d14c09","651c1b0872134699e23133ff","null","null","<p style=""font-size: 60px; font-family: BACS"">JdOAYvUdm</p>","","","","","","","","",""
"html-keyboard-response","240","444247","0.0-12.0-0.70","614dd6473c74b217ad73cc9c","650c16f0f2faf8d7a0d14c09","651c1b0872134699e23133ff","null","null","<p style=""font-size: 60px; font-family: BACS"">khmhdmRb</p>","","","","","","","","",""
"html-keyboard-response","241","445262","0.0-12.0-0.71","614dd6473c74b217ad73cc9c","650c16f0f2faf8d7a0d14c09","651c1b0872134699e23133ff","null","null","<p style=""font-size: 60px; font-family: BACS"">RlAKcCMdP</p>","","","","","","","","",""
"html-keyboard-response","242","446278","0.0-12.0-0.72","614dd6473c74b217ad73cc9c","650c16f0f2faf8d7a0d14c09","651c1b0872134699e23133ff","null","null","<p style=""font-size: 60px; font-family: BACS"">UmNJvUdm</p>","","","","","","","","",""
"html-keyboard-response","243","447294","0.0-12.0-0.73","614dd6473c74b217ad73cc9c","650c16f0f2faf8d7a0d14c09","651c1b0872134699e23133ff","null","null","<p style=""font-size: 60px; font-family: BACS"">hChYdmRb</p>","","","","","","","","",""
"html-keyboard-response","244","448310","0.0-12.0-0.74","614dd6473c74b217ad73cc9c","650c16f0f2faf8d7a0d14c09","651c1b0872134699e23133ff","null","null","<p style=""font-size: 60px; font-family: BACS"">uQkrdZckv</p>","","","","","","","","",""
"html-keyboard-response","245","449326","0.0-12.0-0.75","614dd6473c74b217ad73cc9c","650c16f0f2faf8d7a0d14c09","651c1b0872134699e23133ff","null","null","<p style=""font-size: 60px; font-family: BACS"">OtlRlRE</p>","","","","","","","","",""
"html-keyboard-response","246","450330","0.0-12.0-0.76","614dd6473c74b217ad73cc9c","650c16f0f2faf8d7a0d14c09","651c1b0872134699e23133ff","null","null","<p style=""font-size: 60px; font-family: BACS"">LcNUJvUdm</p>","","","","","","","","",""
"html-keyboard-response","247","451341","0.0-12.0-0.77","614dd6473c74b217ad73cc9c","650c16f0f2faf8d7a0d14c09","651c1b0872134699e23133ff","null","null","<p style=""font-size: 60px; font-family: BACS"">AmaclZckv</p>","","","","","","","","",""
"html-keyboard-response","248","452357","0.0-12.0-0.78","614dd6473c74b217ad73cc9c","650c16f0f2faf8d7a0d14c09","651c1b0872134699e23133ff","null","null","<p style=""font-size: 60px; font-family: BACS"">LcNUJUdvY</p>","","","","","","","","",""
"html-keyboard-response","249","453357","0.0-12.0-0.79","614dd6473c74b217ad73cc9c","650c16f0f2faf8d7a0d14c09","651c1b0872134699e23133ff","null","null","<p style=""font-size: 60px; font-family: BACS"">AmaclvUdm</p>","","","","","","","","",""
"html-keyboard-response","250","458175","0.0-13.0","614dd6473c74b217ad73cc9c","650c16f0f2faf8d7a0d14c09","651c1b0872134699e23133ff","4818"," ","<p>Great, you've seen the third block of words. You may now take a short break.</p>
      <p>Press the spacebar when you're ready to continue.</p>","","","","","","","","",""
"html-keyboard-response","251","459185","0.0-14.0-0.0","614dd6473c74b217ad73cc9c","650c16f0f2faf8d7a0d14c09","651c1b0872134699e23133ff","null","null","<p style=""font-size: 60px; font-family: BACS"">OmtlDAPEM</p>","","","","","","","","",""
"html-keyboard-response","252","460200","0.0-14.0-0.1","614dd6473c74b217ad73cc9c","650c16f0f2faf8d7a0d14c09","651c1b0872134699e23133ff","null","null","<p style=""font-size: 60px; font-family: BACS"">UmNJUZu</p>","","","","","","","","",""
"html-keyboard-response","253","461202","0.0-14.0-0.2","614dd6473c74b217ad73cc9c","650c16f0f2faf8d7a0d14c09","651c1b0872134699e23133ff","null","null","<p style=""font-size: 60px; font-family: BACS"">RlAKcCMdP</p>","","","","","","","","",""
"html-keyboard-response","254","462216","0.0-14.0-0.3","614dd6473c74b217ad73cc9c","650c16f0f2faf8d7a0d14c09","651c1b0872134699e23133ff","null","null","<p style=""font-size: 60px; font-family: BACS"">kNuaZckv</p>","","","","","","","","",""
"html-keyboard-response","255","463232","0.0-14.0-0.4","614dd6473c74b217ad73cc9c","650c16f0f2faf8d7a0d14c09","651c1b0872134699e23133ff","null","null","<p style=""font-size: 60px; font-family: BACS"">bRABtCMdP</p>","","","","","","","","",""
"html-keyboard-response","256","464247","0.0-14.0-0.5","614dd6473c74b217ad73cc9c","650c16f0f2faf8d7a0d14c09","651c1b0872134699e23133ff","null","null","<p style=""font-size: 60px; font-family: BACS"">AmaclUZu</p>","","","","","","","","",""
"html-keyboard-response","257","465262","0.0-14.0-0.6","614dd6473c74b217ad73cc9c","650c16f0f2faf8d7a0d14c09","651c1b0872134699e23133ff","null","null","<p style=""font-size: 60px; font-family: BACS"">uQkrdZckv</p>","","","","","","","","",""
"html-keyboard-response","258","466267","0.0-14.0-0.7","614dd6473c74b217ad73cc9c","650c16f0f2faf8d7a0d14c09","651c1b0872134699e23133ff","null","null","<p style=""font-size: 60px; font-family: BACS"">COtBDdmRb</p>","","","","","","","","",""
"html-keyboard-response","259","467278","0.0-14.0-0.8","614dd6473c74b217ad73cc9c","650c16f0f2faf8d7a0d14c09","651c1b0872134699e23133ff","null","null","<p style=""font-size: 60px; font-family: BACS"">uQkrdkam</p>","","","","","","","","",""
"html-keyboard-response","260","468295","0.0-14.0-0.9","614dd6473c74b217ad73cc9c","650c16f0f2faf8d7a0d14c09","651c1b0872134699e23133ff","null","null","<p style=""font-size: 60px; font-family: BACS"">OLJblZckv</p>","","","","","","","","",""
"html-keyboard-response","261","469310","0.0-14.0-0.10","614dd6473c74b217ad73cc9c","650c16f0f2faf8d7a0d14c09","651c1b0872134699e23133ff","null","null","<p style=""font-size: 60px; font-family: BACS"">kDRKcKEdl</p>","","","","","","","","",""
"html-keyboard-response","262","470325","0.0-14.0-0.11","614dd6473c74b217ad73cc9c","650c16f0f2faf8d7a0d14c09","651c1b0872134699e23133ff","null","null","<p style=""font-size: 60px; font-family: BACS"">uQkrdUdvY</p>","","","","","","","","",""
"html-keyboard-response","263","471333","0.0-14.0-0.12","614dd6473c74b217ad73cc9c","650c16f0f2faf8d7a0d14c09","651c1b0872134699e23133ff","null","null","<p style=""font-size: 60px; font-family: BACS"">RlAKclRE</p>","","","","","","","","",""
"html-keyboard-response","264","472342","0.0-14.0-0.13","614dd6473c74b217ad73cc9c","650c16f0f2faf8d7a0d14c09","651c1b0872134699e23133ff","null","null","<p style=""font-size: 60px; font-family: BACS"">ukcYkam</p>","","","","","","","","",""
"html-keyboard-response","265","473356","0.0-14.0-0.14","614dd6473c74b217ad73cc9c","650c16f0f2faf8d7a0d14c09","651c1b0872134699e23133ff","null","null","<p style=""font-size: 60px; font-family: BACS"">LcNUJZckv</p>","","","","","","","","",""
"html-keyboard-response","266","474367","0.0-14.0-0.15","614dd6473c74b217ad73cc9c","650c16f0f2faf8d7a0d14c09","651c1b0872134699e23133ff","null","null","<p style=""font-size: 60px; font-family: BACS"">kDRKclRE</p>","","","","","","","","",""
"html-keyboard-response","267","475388","0.0-14.0-0.16","614dd6473c74b217ad73cc9c","650c16f0f2faf8d7a0d14c09","651c1b0872134699e23133ff","null","null","<p style=""font-size: 60px; font-family: BACS"">OtlRdmRb</p>","","","","","","","","",""
"html-keyboard-response","268","476405","0.0-14.0-0.17","614dd6473c74b217ad73cc9c","650c16f0f2faf8d7a0d14c09","651c1b0872134699e23133ff","null","null","<p style=""font-size: 60px; font-family: BACS"">kDRKcCMdP</p>","","","","","","","","",""
"html-keyboard-response","269","477419","0.0-14.0-0.18","614dd6473c74b217ad73cc9c","650c16f0f2faf8d7a0d14c09","651c1b0872134699e23133ff","null","null","<p style=""font-size: 60px; font-family: BACS"">khmhKEdl</p>","","","","","","","","",""
"html-keyboard-response","270","478435","0.0-14.0-0.19","614dd6473c74b217ad73cc9c","650c16f0f2faf8d7a0d14c09","651c1b0872134699e23133ff","null","null","<p style=""font-size: 60px; font-family: BACS"">DdckdmRb</p>","","","","","","","","",""
"html-keyboard-response","271","479450","0.0-14.0-0.20","614dd6473c74b217ad73cc9c","650c16f0f2faf8d7a0d14c09","651c1b0872134699e23133ff","null","null","<p style=""font-size: 60px; font-family: BACS"">RlAKcAPEM</p>","","","","","","","","",""
"html-keyboard-response","272","480466","0.0-14.0-0.21","614dd6473c74b217ad73cc9c","650c16f0f2faf8d7a0d14c09","651c1b0872134699e23133ff","null","null","<p style=""font-size: 60px; font-family: BACS"">OLJblUdvY</p>","","","","","","","","",""
"html-keyboard-response","273","481469","0.0-14.0-0.22","614dd6473c74b217ad73cc9c","650c16f0f2faf8d7a0d14c09","651c1b0872134699e23133ff","null","null","<p style=""font-size: 60px; font-family: BACS"">khmhCMdP</p>","","","","","","","","",""
"html-keyboard-response","274","482482","0.0-14.0-0.23","614dd6473c74b217ad73cc9c","650c16f0f2faf8d7a0d14c09","651c1b0872134699e23133ff","null","null","<p style=""font-size: 60px; font-family: BACS"">kNuavUdm</p>","","","","","","","","",""
"html-keyboard-response","275","483488","0.0-14.0-0.24","614dd6473c74b217ad73cc9c","650c16f0f2faf8d7a0d14c09","651c1b0872134699e23133ff","null","null","<p style=""font-size: 60px; font-family: BACS"">OAmGrUdvY</p>","","","","","","","","",""
"html-keyboard-response","276","484498","0.0-14.0-0.25","614dd6473c74b217ad73cc9c","650c16f0f2faf8d7a0d14c09","651c1b0872134699e23133ff","null","null","<p style=""font-size: 60px; font-family: BACS"">UmNJkam</p>","","","","","","","","",""
"html-keyboard-response","277","485503","0.0-14.0-0.26","614dd6473c74b217ad73cc9c","650c16f0f2faf8d7a0d14c09","651c1b0872134699e23133ff","null","null","<p style=""font-size: 60px; font-family: BACS"">LcNUJvUdm</p>","","","","","","","","",""
"html-keyboard-response","278","486518","0.0-14.0-0.27","614dd6473c74b217ad73cc9c","650c16f0f2faf8d7a0d14c09","651c1b0872134699e23133ff","null","null","<p style=""font-size: 60px; font-family: BACS"">cRElDlRE</p>","","","","","","","","",""
"html-keyboard-response","279","487530","0.0-14.0-0.28","614dd6473c74b217ad73cc9c","650c16f0f2faf8d7a0d14c09","651c1b0872134699e23133ff","null","null","<p style=""font-size: 60px; font-family: BACS"">ukcYvUdm</p>","","","","","","","","",""
"html-keyboard-response","280","488537","0.0-14.0-0.29","614dd6473c74b217ad73cc9c","650c16f0f2faf8d7a0d14c09","651c1b0872134699e23133ff","null","null","<p style=""font-size: 60px; font-family: BACS"">JdOAYUdvY</p>","","","","","","","","",""
"html-keyboard-response","281","489544","0.0-14.0-0.30","614dd6473c74b217ad73cc9c","650c16f0f2faf8d7a0d14c09","651c1b0872134699e23133ff","null","null","<p style=""font-size: 60px; font-family: BACS"">hChYAPEM</p>","","","","","","","","",""
"html-keyboard-response","282","490553","0.0-14.0-0.31","614dd6473c74b217ad73cc9c","650c16f0f2faf8d7a0d14c09","651c1b0872134699e23133ff","null","null","<p style=""font-size: 60px; font-family: BACS"">COtBDCMdP</p>","","","","","","","","",""
"html-keyboard-response","283","491559","0.0-14.0-0.32","614dd6473c74b217ad73cc9c","650c16f0f2faf8d7a0d14c09","651c1b0872134699e23133ff","null","null","<p style=""font-size: 60px; font-family: BACS"">bRABtlRE</p>","","","","","","","","",""
"html-keyboard-response","284","492571","0.0-14.0-0.33","614dd6473c74b217ad73cc9c","650c16f0f2faf8d7a0d14c09","651c1b0872134699e23133ff","null","null","<p style=""font-size: 60px; font-family: BACS"">ukcYUdvY</p>","","","","","","","","",""
"html-keyboard-response","285","493572","0.0-14.0-0.34","614dd6473c74b217ad73cc9c","650c16f0f2faf8d7a0d14c09","651c1b0872134699e23133ff","null","null","<p style=""font-size: 60px; font-family: BACS"">LcNUJkam</p>","","","","","","","","",""
"html-keyboard-response","286","494575","0.0-14.0-0.35","614dd6473c74b217ad73cc9c","650c16f0f2faf8d7a0d14c09","651c1b0872134699e23133ff","null","null","<p style=""font-size: 60px; font-family: BACS"">uQkrdUZu</p>","","","","","","","","",""
"html-keyboard-response","287","495591","0.0-14.0-0.36","614dd6473c74b217ad73cc9c","650c16f0f2faf8d7a0d14c09","651c1b0872134699e23133ff","null","null","<p style=""font-size: 60px; font-family: BACS"">UmNJvUdm</p>","","","","","","","","",""
"html-keyboard-response","288","496606","0.0-14.0-0.37","614dd6473c74b217ad73cc9c","650c16f0f2faf8d7a0d14c09","651c1b0872134699e23133ff","null","null","<p style=""font-size: 60px; font-family: BACS"">JdOAYUZu</p>","","","","","","","","",""
"html-keyboard-response","289","497608","0.0-14.0-0.38","614dd6473c74b217ad73cc9c","650c16f0f2faf8d7a0d14c09","651c1b0872134699e23133ff","null","null","<p style=""font-size: 60px; font-family: BACS"">cRElDKEdl</p>","","","","","","","","",""
"html-keyboard-response","290","498623","0.0-14.0-0.39","614dd6473c74b217ad73cc9c","650c16f0f2faf8d7a0d14c09","651c1b0872134699e23133ff","null","null","<p style=""font-size: 60px; font-family: BACS"">OmtlDdmRb</p>","","","","","","","","",""
"html-keyboard-response","291","499638","0.0-14.0-0.40","614dd6473c74b217ad73cc9c","650c16f0f2faf8d7a0d14c09","651c1b0872134699e23133ff","null","null","<p style=""font-size: 60px; font-family: BACS"">cRElDCMdP</p>","","","","","","","","",""
"html-keyboard-response","292","500654","0.0-14.0-0.41","614dd6473c74b217ad73cc9c","650c16f0f2faf8d7a0d14c09","651c1b0872134699e23133ff","null","null","<p style=""font-size: 60px; font-family: BACS"">UmNJZckv</p>","","","","","","","","",""
"html-keyboard-response","293","501669","0.0-14.0-0.42","614dd6473c74b217ad73cc9c","650c16f0f2faf8d7a0d14c09","651c1b0872134699e23133ff","null","null","<p style=""font-size: 60px; font-family: BACS"">kDRKcAPEM</p>","","","","","","","","",""
"html-keyboard-response","294","502671","0.0-14.0-0.43","614dd6473c74b217ad73cc9c","650c16f0f2faf8d7a0d14c09","651c1b0872134699e23133ff","null","null","<p style=""font-size: 60px; font-family: BACS"">YNrAmvUdm</p>","","","","","","","","",""
"html-keyboard-response","295","503678","0.0-14.0-0.44","614dd6473c74b217ad73cc9c","650c16f0f2faf8d7a0d14c09","651c1b0872134699e23133ff","null","null","<p style=""font-size: 60px; font-family: BACS"">DdckCMdP</p>","","","","","","","","",""
"html-keyboard-response","296","504685","0.0-14.0-0.45","614dd6473c74b217ad73cc9c","650c16f0f2faf8d7a0d14c09","651c1b0872134699e23133ff","null","null","<p style=""font-size: 60px; font-family: BACS"">OmtlDlRE</p>","","","","","","","","",""
"html-keyboard-response","297","505701","0.0-14.0-0.46","614dd6473c74b217ad73cc9c","650c16f0f2faf8d7a0d14c09","651c1b0872134699e23133ff","null","null","<p style=""font-size: 60px; font-family: BACS"">cRElDdmRb</p>","","","","","","","","",""
"html-keyboard-response","298","506716","0.0-14.0-0.47","614dd6473c74b217ad73cc9c","650c16f0f2faf8d7a0d14c09","651c1b0872134699e23133ff","null","null","<p style=""font-size: 60px; font-family: BACS"">YNrAmkam</p>","","","","","","","","",""
"html-keyboard-response","299","507720","0.0-14.0-0.48","614dd6473c74b217ad73cc9c","650c16f0f2faf8d7a0d14c09","651c1b0872134699e23133ff","null","null","<p style=""font-size: 60px; font-family: BACS"">kNuaUdvY</p>","","","","","","","","",""
"html-keyboard-response","300","508732","0.0-14.0-0.49","614dd6473c74b217ad73cc9c","650c16f0f2faf8d7a0d14c09","651c1b0872134699e23133ff","null","null","<p style=""font-size: 60px; font-family: BACS"">JdOAYkam</p>","","","","","","","","",""
"html-keyboard-response","301","509744","0.0-14.0-0.50","614dd6473c74b217ad73cc9c","650c16f0f2faf8d7a0d14c09","651c1b0872134699e23133ff","null","null","<p style=""font-size: 60px; font-family: BACS"">bRABtKEdl</p>","","","","","","","","",""
"html-keyboard-response","302","510747","0.0-14.0-0.51","614dd6473c74b217ad73cc9c","650c16f0f2faf8d7a0d14c09","651c1b0872134699e23133ff","null","null","<p style=""font-size: 60px; font-family: BACS"">AmaclvUdm</p>","","","","","","","","",""
"html-keyboard-response","303","511763","0.0-14.0-0.52","614dd6473c74b217ad73cc9c","650c16f0f2faf8d7a0d14c09","651c1b0872134699e23133ff","null","null","<p style=""font-size: 60px; font-family: BACS"">DdckAPEM</p>","","","","","","","","",""
"html-keyboard-response","304","512779","0.0-14.0-0.53","614dd6473c74b217ad73cc9c","650c16f0f2faf8d7a0d14c09","651c1b0872134699e23133ff","null","null","<p style=""font-size: 60px; font-family: BACS"">AmaclZckv</p>","","","","","","","","",""
"html-keyboard-response","305","513791","0.0-14.0-0.54","614dd6473c74b217ad73cc9c","650c16f0f2faf8d7a0d14c09","651c1b0872134699e23133ff","null","null","<p style=""font-size: 60px; font-family: BACS"">OAmGrUZu</p>","","","","","","","","",""
"html-keyboard-response","306","514793","0.0-14.0-0.55","614dd6473c74b217ad73cc9c","650c16f0f2faf8d7a0d14c09","651c1b0872134699e23133ff","null","null","<p style=""font-size: 60px; font-family: BACS"">COtBDlRE</p>","","","","","","","","",""
"html-keyboard-response","307","515810","0.0-14.0-0.56","614dd6473c74b217ad73cc9c","650c16f0f2faf8d7a0d14c09","651c1b0872134699e23133ff","null","null","<p style=""font-size: 60px; font-family: BACS"">OmtlDKEdl</p>","","","","","","","","",""
"html-keyboard-response","308","516825","0.0-14.0-0.57","614dd6473c74b217ad73cc9c","650c16f0f2faf8d7a0d14c09","651c1b0872134699e23133ff","null","null","<p style=""font-size: 60px; font-family: BACS"">khmhAPEM</p>","","","","","","","","",""
"html-keyboard-response","309","517825","0.0-14.0-0.58","614dd6473c74b217ad73cc9c","650c16f0f2faf8d7a0d14c09","651c1b0872134699e23133ff","null","null","<p style=""font-size: 60px; font-family: BACS"">COtBDKEdl</p>","","","","","","","","",""
"html-keyboard-response","310","518841","0.0-14.0-0.59","614dd6473c74b217ad73cc9c","650c16f0f2faf8d7a0d14c09","651c1b0872134699e23133ff","null","null","<p style=""font-size: 60px; font-family: BACS"">LcNUJUdvY</p>","","","","","","","","",""
"html-keyboard-response","311","519855","0.0-14.0-0.60","614dd6473c74b217ad73cc9c","650c16f0f2faf8d7a0d14c09","651c1b0872134699e23133ff","null","null","<p style=""font-size: 60px; font-family: BACS"">Amaclkam</p>","","","","","","","","",""
"html-keyboard-response","312","520857","0.0-14.0-0.61","614dd6473c74b217ad73cc9c","650c16f0f2faf8d7a0d14c09","651c1b0872134699e23133ff","null","null","<p style=""font-size: 60px; font-family: BACS"">OtlRlRE</p>","","","","","","","","",""
"html-keyboard-response","313","521872","0.0-14.0-0.62","614dd6473c74b217ad73cc9c","650c16f0f2faf8d7a0d14c09","651c1b0872134699e23133ff","null","null","<p style=""font-size: 60px; font-family: BACS"">YNrAmZckv</p>","","","","","","","","",""
"html-keyboard-response","314","522888","0.0-14.0-0.63","614dd6473c74b217ad73cc9c","650c16f0f2faf8d7a0d14c09","651c1b0872134699e23133ff","null","null","<p style=""font-size: 60px; font-family: BACS"">OLJblkam</p>","","","","","","","","",""
"html-keyboard-response","315","523903","0.0-14.0-0.64","614dd6473c74b217ad73cc9c","650c16f0f2faf8d7a0d14c09","651c1b0872134699e23133ff","null","null","<p style=""font-size: 60px; font-family: BACS"">hChYdmRb</p>","","","","","","","","",""
"html-keyboard-response","316","524919","0.0-14.0-0.65","614dd6473c74b217ad73cc9c","650c16f0f2faf8d7a0d14c09","651c1b0872134699e23133ff","null","null","<p style=""font-size: 60px; font-family: BACS"">JdOAYvUdm</p>","","","","","","","","",""
"html-keyboard-response","317","525935","0.0-14.0-0.66","614dd6473c74b217ad73cc9c","650c16f0f2faf8d7a0d14c09","651c1b0872134699e23133ff","null","null","<p style=""font-size: 60px; font-family: BACS"">hChYCMdP</p>","","","","","","","","",""
"html-keyboard-response","318","526950","0.0-14.0-0.67","614dd6473c74b217ad73cc9c","650c16f0f2faf8d7a0d14c09","651c1b0872134699e23133ff","null","null","<p style=""font-size: 60px; font-family: BACS"">YNrAmUdvY</p>","","","","","","","","",""
"html-keyboard-response","319","527960","0.0-14.0-0.68","614dd6473c74b217ad73cc9c","650c16f0f2faf8d7a0d14c09","651c1b0872134699e23133ff","null","null","<p style=""font-size: 60px; font-family: BACS"">kNuaUZu</p>","","","","","","","","",""
"html-keyboard-response","320","528966","0.0-14.0-0.69","614dd6473c74b217ad73cc9c","650c16f0f2faf8d7a0d14c09","651c1b0872134699e23133ff","null","null","<p style=""font-size: 60px; font-family: BACS"">khmhdmRb</p>","","","","","","","","",""
"html-keyboard-response","321","529981","0.0-14.0-0.70","614dd6473c74b217ad73cc9c","650c16f0f2faf8d7a0d14c09","651c1b0872134699e23133ff","null","null","<p style=""font-size: 60px; font-family: BACS"">OtlRAPEM</p>","","","","","","","","",""
"html-keyboard-response","322","530986","0.0-14.0-0.71","614dd6473c74b217ad73cc9c","650c16f0f2faf8d7a0d14c09","651c1b0872134699e23133ff","null","null","<p style=""font-size: 60px; font-family: BACS"">RlAKcdmRb</p>","","","","","","","","",""
"html-keyboard-response","323","531997","0.0-14.0-0.72","614dd6473c74b217ad73cc9c","650c16f0f2faf8d7a0d14c09","651c1b0872134699e23133ff","null","null","<p style=""font-size: 60px; font-family: BACS"">OLJblUZu</p>","","","","","","","","",""
"html-keyboard-response","324","533013","0.0-14.0-0.73","614dd6473c74b217ad73cc9c","650c16f0f2faf8d7a0d14c09","651c1b0872134699e23133ff","null","null","<p style=""font-size: 60px; font-family: BACS"">OAmGrvUdm</p>","","","","","","","","",""
"html-keyboard-response","325","534029","0.0-14.0-0.74","614dd6473c74b217ad73cc9c","650c16f0f2faf8d7a0d14c09","651c1b0872134699e23133ff","null","null","<p style=""font-size: 60px; font-family: BACS"">bRABtAPEM</p>","","","","","","","","",""
"html-keyboard-response","326","535044","0.0-14.0-0.75","614dd6473c74b217ad73cc9c","650c16f0f2faf8d7a0d14c09","651c1b0872134699e23133ff","null","null","<p style=""font-size: 60px; font-family: BACS"">ukcYUZu</p>","","","","","","","","",""
"html-keyboard-response","327","536059","0.0-14.0-0.76","614dd6473c74b217ad73cc9c","650c16f0f2faf8d7a0d14c09","651c1b0872134699e23133ff","null","null","<p style=""font-size: 60px; font-family: BACS"">DdckKEdl</p>","","","","","","","","",""
"html-keyboard-response","328","537076","0.0-14.0-0.77","614dd6473c74b217ad73cc9c","650c16f0f2faf8d7a0d14c09","651c1b0872134699e23133ff","null","null","<p style=""font-size: 60px; font-family: BACS"">OAmGrZckv</p>","","","","","","","","",""
"html-keyboard-response","329","538090","0.0-14.0-0.78","614dd6473c74b217ad73cc9c","650c16f0f2faf8d7a0d14c09","651c1b0872134699e23133ff","null","null","<p style=""font-size: 60px; font-family: BACS"">OtlRKEdl</p>","","","","","","","","",""
"html-keyboard-response","330","539106","0.0-14.0-0.79","614dd6473c74b217ad73cc9c","650c16f0f2faf8d7a0d14c09","651c1b0872134699e23133ff","null","null","<p style=""font-size: 60px; font-family: BACS"">hChYlRE</p>","","","","","","","","",""
"html-keyboard-response","331","545139","0.0-15.0","614dd6473c74b217ad73cc9c","650c16f0f2faf8d7a0d14c09","651c1b0872134699e23133ff","6032"," ","<p>Great, you've seen the fourth block of words. You may now take a short break.</p>
      <p>Press the spacebar when you're ready to continue.</p>","","","","","","","","",""
"html-keyboard-response","332","546154","0.0-16.0-0.0","614dd6473c74b217ad73cc9c","650c16f0f2faf8d7a0d14c09","651c1b0872134699e23133ff","null","null","<p style=""font-size: 60px; font-family: BACS"">OtlRdmRb</p>","","","","","","","","",""
"html-keyboard-response","333","547170","0.0-16.0-0.1","614dd6473c74b217ad73cc9c","650c16f0f2faf8d7a0d14c09","651c1b0872134699e23133ff","null","null","<p style=""font-size: 60px; font-family: BACS"">OtlRdmRb</p>","","","","","","","","",""
"html-keyboard-response","334","548184","0.0-16.0-0.2","614dd6473c74b217ad73cc9c","650c16f0f2faf8d7a0d14c09","651c1b0872134699e23133ff","null","null","<p style=""font-size: 60px; font-family: BACS"">OtlRdmRb</p>","","","","","","","","",""
"html-keyboard-response","335","549200","0.0-16.0-0.3","614dd6473c74b217ad73cc9c","650c16f0f2faf8d7a0d14c09","651c1b0872134699e23133ff","null","null","<p style=""font-size: 60px; font-family: BACS"">OtlRdmRb</p>","","","","","","","","",""
"html-keyboard-response","336","550215","0.0-16.0-0.4","614dd6473c74b217ad73cc9c","650c16f0f2faf8d7a0d14c09","651c1b0872134699e23133ff","null","null","<p style=""font-size: 60px; font-family: BACS"">OtlRdmRb</p>","","","","","","","","",""
"html-keyboard-response","337","551231","0.0-16.0-0.5","614dd6473c74b217ad73cc9c","650c16f0f2faf8d7a0d14c09","651c1b0872134699e23133ff","null","null","<p style=""font-size: 60px; font-family: BACS"">OtlRdmRb</p>","","","","","","","","",""
"html-keyboard-response","338","552247","0.0-16.0-0.6","614dd6473c74b217ad73cc9c","650c16f0f2faf8d7a0d14c09","651c1b0872134699e23133ff","null","null","<p style=""font-size: 60px; font-family: BACS"">OtlRdmRb</p>","","","","","","","","",""
"html-keyboard-response","339","553249","0.0-16.0-0.7","614dd6473c74b217ad73cc9c","650c16f0f2faf8d7a0d14c09","651c1b0872134699e23133ff","null","null","<p style=""font-size: 60px; font-family: BACS"">OtlRdmRb</p>","","","","","","","","",""
"html-keyboard-response","340","554265","0.0-16.0-0.8","614dd6473c74b217ad73cc9c","650c16f0f2faf8d7a0d14c09","651c1b0872134699e23133ff","null","null","<p style=""font-size: 60px; font-family: BACS"">OtlRdmRb</p>","","","","","","","","",""
"html-keyboard-response","341","555267","0.0-16.0-0.9","614dd6473c74b217ad73cc9c","650c16f0f2faf8d7a0d14c09","651c1b0872134699e23133ff","null","null","<p style=""font-size: 60px; font-family: BACS"">OtlRdmRb</p>","","","","","","","","",""
"html-keyboard-response","342","556279","0.0-16.0-0.10","614dd6473c74b217ad73cc9c","650c16f0f2faf8d7a0d14c09","651c1b0872134699e23133ff","null","null","<p style=""font-size: 60px; font-family: BACS"">OtlRdmRb</p>","","","","","","","","",""
"html-keyboard-response","343","557282","0.0-16.0-0.11","614dd6473c74b217ad73cc9c","650c16f0f2faf8d7a0d14c09","651c1b0872134699e23133ff","null","null","<p style=""font-size: 60px; font-family: BACS"">OtlRdmRb</p>","","","","","","","","",""
"html-keyboard-response","344","558284","0.0-16.0-0.12","614dd6473c74b217ad73cc9c","650c16f0f2faf8d7a0d14c09","651c1b0872134699e23133ff","null","null","<p style=""font-size: 60px; font-family: BACS"">OtlRdmRb</p>","","","","","","","","",""
"html-keyboard-response","345","559285","0.0-16.0-0.13","614dd6473c74b217ad73cc9c","650c16f0f2faf8d7a0d14c09","651c1b0872134699e23133ff","null","null","<p style=""font-size: 60px; font-family: BACS"">OtlRdmRb</p>","","","","","","","","",""
"html-keyboard-response","346","560294","0.0-16.0-0.14","614dd6473c74b217ad73cc9c","650c16f0f2faf8d7a0d14c09","651c1b0872134699e23133ff","null","null","<p style=""font-size: 60px; font-family: BACS"">OtlRdmRb</p>","","","","","","","","",""
"html-keyboard-response","347","561310","0.0-16.0-0.15","614dd6473c74b217ad73cc9c","650c16f0f2faf8d7a0d14c09","651c1b0872134699e23133ff","null","null","<p style=""font-size: 60px; font-family: BACS"">OtlRdmRb</p>","","","","","","","","",""
"html-keyboard-response","348","562325","0.0-16.0-0.16","614dd6473c74b217ad73cc9c","650c16f0f2faf8d7a0d14c09","651c1b0872134699e23133ff","null","null","<p style=""font-size: 60px; font-family: BACS"">OtlRdmRb</p>","","","","","","","","",""
"html-keyboard-response","349","563334","0.0-16.0-0.17","614dd6473c74b217ad73cc9c","650c16f0f2faf8d7a0d14c09","651c1b0872134699e23133ff","null","null","<p style=""font-size: 60px; font-family: BACS"">OtlRdmRb</p>","","","","","","","","",""
"html-keyboard-response","350","564341","0.0-16.0-0.18","614dd6473c74b217ad73cc9c","650c16f0f2faf8d7a0d14c09","651c1b0872134699e23133ff","null","null","<p style=""font-size: 60px; font-family: BACS"">OtlRdmRb</p>","","","","","","","","",""
"html-keyboard-response","351","565351","0.0-16.0-0.19","614dd6473c74b217ad73cc9c","650c16f0f2faf8d7a0d14c09","651c1b0872134699e23133ff","null","null","<p style=""font-size: 60px; font-family: BACS"">OtlRdmRb</p>","","","","","","","","",""
"html-keyboard-response","352","566366","0.0-16.0-0.20","614dd6473c74b217ad73cc9c","650c16f0f2faf8d7a0d14c09","651c1b0872134699e23133ff","null","null","<p style=""font-size: 60px; font-family: BACS"">OtlRdmRb</p>","","","","","","","","",""
"html-keyboard-response","353","567368","0.0-16.0-0.21","614dd6473c74b217ad73cc9c","650c16f0f2faf8d7a0d14c09","651c1b0872134699e23133ff","null","null","<p style=""font-size: 60px; font-family: BACS"">OtlRdmRb</p>","","","","","","","","",""
"html-keyboard-response","354","568372","0.0-16.0-0.22","614dd6473c74b217ad73cc9c","650c16f0f2faf8d7a0d14c09","651c1b0872134699e23133ff","null","null","<p style=""font-size: 60px; font-family: BACS"">OtlRdmRb</p>","","","","","","","","",""
"html-keyboard-response","355","569386","0.0-16.0-0.23","614dd6473c74b217ad73cc9c","650c16f0f2faf8d7a0d14c09","651c1b0872134699e23133ff","null","null","<p style=""font-size: 60px; font-family: BACS"">OtlRdmRb</p>","","","","","","","","",""
"html-keyboard-response","356","570388","0.0-16.0-0.24","614dd6473c74b217ad73cc9c","650c16f0f2faf8d7a0d14c09","651c1b0872134699e23133ff","null","null","<p style=""font-size: 60px; font-family: BACS"">OtlRdmRb</p>","","","","","","","","",""
"html-keyboard-response","357","571403","0.0-16.0-0.25","614dd6473c74b217ad73cc9c","650c16f0f2faf8d7a0d14c09","651c1b0872134699e23133ff","null","null","<p style=""font-size: 60px; font-family: BACS"">OtlRdmRb</p>","","","","","","","","",""
"html-keyboard-response","358","572419","0.0-16.0-0.26","614dd6473c74b217ad73cc9c","650c16f0f2faf8d7a0d14c09","651c1b0872134699e23133ff","null","null","<p style=""font-size: 60px; font-family: BACS"">OtlRdmRb</p>","","","","","","","","",""
"html-keyboard-response","359","573435","0.0-16.0-0.27","614dd6473c74b217ad73cc9c","650c16f0f2faf8d7a0d14c09","651c1b0872134699e23133ff","null","null","<p style=""font-size: 60px; font-family: BACS"">OtlRdmRb</p>","","","","","","","","",""
"html-keyboard-response","360","574437","0.0-16.0-0.28","614dd6473c74b217ad73cc9c","650c16f0f2faf8d7a0d14c09","651c1b0872134699e23133ff","null","null","<p style=""font-size: 60px; font-family: BACS"">OtlRdmRb</p>","","","","","","","","",""
"html-keyboard-response","361","575450","0.0-16.0-0.29","614dd6473c74b217ad73cc9c","650c16f0f2faf8d7a0d14c09","651c1b0872134699e23133ff","null","null","<p style=""font-size: 60px; font-family: BACS"">OtlRdmRb</p>","","","","","","","","",""
"html-keyboard-response","362","576466","0.0-16.0-0.30","614dd6473c74b217ad73cc9c","650c16f0f2faf8d7a0d14c09","651c1b0872134699e23133ff","null","null","<p style=""font-size: 60px; font-family: BACS"">OtlRdmRb</p>","","","","","","","","",""
"html-keyboard-response","363","577481","0.0-16.0-0.31","614dd6473c74b217ad73cc9c","650c16f0f2faf8d7a0d14c09","651c1b0872134699e23133ff","null","null","<p style=""font-size: 60px; font-family: BACS"">OtlRdmRb</p>","","","","","","","","",""
"html-keyboard-response","364","578498","0.0-16.0-0.32","614dd6473c74b217ad73cc9c","650c16f0f2faf8d7a0d14c09","651c1b0872134699e23133ff","null","null","<p style=""font-size: 60px; font-family: BACS"">OtlRdmRb</p>","","","","","","","","",""
"html-keyboard-response","365","579529","0.0-16.0-0.33","614dd6473c74b217ad73cc9c","650c16f0f2faf8d7a0d14c09","651c1b0872134699e23133ff","null","null","<p style=""font-size: 60px; font-family: BACS"">OtlRdmRb</p>","","","","","","","","",""
"html-keyboard-response","366","580544","0.0-16.0-0.34","614dd6473c74b217ad73cc9c","650c16f0f2faf8d7a0d14c09","651c1b0872134699e23133ff","null","null","<p style=""font-size: 60px; font-family: BACS"">OtlRdmRb</p>","","","","","","","","",""
"html-keyboard-response","367","581560","0.0-16.0-0.35","614dd6473c74b217ad73cc9c","650c16f0f2faf8d7a0d14c09","651c1b0872134699e23133ff","null","null","<p style=""font-size: 60px; font-family: BACS"">OtlRdmRb</p>","","","","","","","","",""
"html-keyboard-response","368","582571","0.0-16.0-0.36","614dd6473c74b217ad73cc9c","650c16f0f2faf8d7a0d14c09","651c1b0872134699e23133ff","null","null","<p style=""font-size: 60px; font-family: BACS"">OtlRdmRb</p>","","","","","","","","",""
"html-keyboard-response","369","583577","0.0-16.0-0.37","614dd6473c74b217ad73cc9c","650c16f0f2faf8d7a0d14c09","651c1b0872134699e23133ff","null","null","<p style=""font-size: 60px; font-family: BACS"">OtlRdmRb</p>","","","","","","","","",""
"html-keyboard-response","370","584591","0.0-16.0-0.38","614dd6473c74b217ad73cc9c","650c16f0f2faf8d7a0d14c09","651c1b0872134699e23133ff","null","null","<p style=""font-size: 60px; font-family: BACS"">OtlRdmRb</p>","","","","","","","","",""
"html-keyboard-response","371","585606","0.0-16.0-0.39","614dd6473c74b217ad73cc9c","650c16f0f2faf8d7a0d14c09","651c1b0872134699e23133ff","null","null","<p style=""font-size: 60px; font-family: BACS"">OtlRdmRb</p>","","","","","","","","",""
"html-keyboard-response","372","586622","0.0-16.0-0.40","614dd6473c74b217ad73cc9c","650c16f0f2faf8d7a0d14c09","651c1b0872134699e23133ff","null","null","<p style=""font-size: 60px; font-family: BACS"">OtlRdmRb</p>","","","","","","","","",""
"html-keyboard-response","373","587638","0.0-16.0-0.41","614dd6473c74b217ad73cc9c","650c16f0f2faf8d7a0d14c09","651c1b0872134699e23133ff","null","null","<p style=""font-size: 60px; font-family: BACS"">OtlRdmRb</p>","","","","","","","","",""
"html-keyboard-response","374","588653","0.0-16.0-0.42","614dd6473c74b217ad73cc9c","650c16f0f2faf8d7a0d14c09","651c1b0872134699e23133ff","null","null","<p style=""font-size: 60px; font-family: BACS"">OtlRdmRb</p>","","","","","","","","",""
"html-keyboard-response","375","589654","0.0-16.0-0.43","614dd6473c74b217ad73cc9c","650c16f0f2faf8d7a0d14c09","651c1b0872134699e23133ff","null","null","<p style=""font-size: 60px; font-family: BACS"">OtlRdmRb</p>","","","","","","","","",""
"html-keyboard-response","376","590670","0.0-16.0-0.44","614dd6473c74b217ad73cc9c","650c16f0f2faf8d7a0d14c09","651c1b0872134699e23133ff","null","null","<p style=""font-size: 60px; font-family: BACS"">OtlRdmRb</p>","","","","","","","","",""
"html-keyboard-response","377","591685","0.0-16.0-0.45","614dd6473c74b217ad73cc9c","650c16f0f2faf8d7a0d14c09","651c1b0872134699e23133ff","null","null","<p style=""font-size: 60px; font-family: BACS"">OtlRdmRb</p>","","","","","","","","",""
"html-keyboard-response","378","592700","0.0-16.0-0.46","614dd6473c74b217ad73cc9c","650c16f0f2faf8d7a0d14c09","651c1b0872134699e23133ff","null","null","<p style=""font-size: 60px; font-family: BACS"">OtlRdmRb</p>","","","","","","","","",""
"html-keyboard-response","379","593706","0.0-16.0-0.47","614dd6473c74b217ad73cc9c","650c16f0f2faf8d7a0d14c09","651c1b0872134699e23133ff","null","null","<p style=""font-size: 60px; font-family: BACS"">OtlRdmRb</p>","","","","","","","","",""
"html-keyboard-response","380","594717","0.0-16.0-0.48","614dd6473c74b217ad73cc9c","650c16f0f2faf8d7a0d14c09","651c1b0872134699e23133ff","null","null","<p style=""font-size: 60px; font-family: BACS"">OtlRdmRb</p>","","","","","","","","",""
"html-keyboard-response","381","595732","0.0-16.0-0.49","614dd6473c74b217ad73cc9c","650c16f0f2faf8d7a0d14c09","651c1b0872134699e23133ff","null","null","<p style=""font-size: 60px; font-family: BACS"">OtlRdmRb</p>","","","","","","","","",""
"html-keyboard-response","382","596740","0.0-16.0-0.50","614dd6473c74b217ad73cc9c","650c16f0f2faf8d7a0d14c09","651c1b0872134699e23133ff","null","null","<p style=""font-size: 60px; font-family: BACS"">OtlRdmRb</p>","","","","","","","","",""
"html-keyboard-response","383","597748","0.0-16.0-0.51","614dd6473c74b217ad73cc9c","650c16f0f2faf8d7a0d14c09","651c1b0872134699e23133ff","null","null","<p style=""font-size: 60px; font-family: BACS"">OtlRdmRb</p>","","","","","","","","",""
"html-keyboard-response","384","598757","0.0-16.0-0.52","614dd6473c74b217ad73cc9c","650c16f0f2faf8d7a0d14c09","651c1b0872134699e23133ff","null","null","<p style=""font-size: 60px; font-family: BACS"">OtlRdmRb</p>","","","","","","","","",""
"html-keyboard-response","385","599763","0.0-16.0-0.53","614dd6473c74b217ad73cc9c","650c16f0f2faf8d7a0d14c09","651c1b0872134699e23133ff","null","null","<p style=""font-size: 60px; font-family: BACS"">OtlRdmRb</p>","","","","","","","","",""
"html-keyboard-response","386","600774","0.0-16.0-0.54","614dd6473c74b217ad73cc9c","650c16f0f2faf8d7a0d14c09","651c1b0872134699e23133ff","null","null","<p style=""font-size: 60px; font-family: BACS"">OtlRdmRb</p>","","","","","","","","",""
"html-keyboard-response","387","601790","0.0-16.0-0.55","614dd6473c74b217ad73cc9c","650c16f0f2faf8d7a0d14c09","651c1b0872134699e23133ff","null","null","<p style=""font-size: 60px; font-family: BACS"">OtlRdmRb</p>","","","","","","","","",""
"html-keyboard-response","388","602801","0.0-16.0-0.56","614dd6473c74b217ad73cc9c","650c16f0f2faf8d7a0d14c09","651c1b0872134699e23133ff","null","null","<p style=""font-size: 60px; font-family: BACS"">OtlRdmRb</p>","","","","","","","","",""
"html-keyboard-response","389","603809","0.0-16.0-0.57","614dd6473c74b217ad73cc9c","650c16f0f2faf8d7a0d14c09","651c1b0872134699e23133ff","null","null","<p style=""font-size: 60px; font-family: BACS"">OtlRdmRb</p>","","","","","","","","",""
"html-keyboard-response","390","604825","0.0-16.0-0.58","614dd6473c74b217ad73cc9c","650c16f0f2faf8d7a0d14c09","651c1b0872134699e23133ff","null","null","<p style=""font-size: 60px; font-family: BACS"">OtlRdmRb</p>","","","","","","","","",""
"html-keyboard-response","391","605841","0.0-16.0-0.59","614dd6473c74b217ad73cc9c","650c16f0f2faf8d7a0d14c09","651c1b0872134699e23133ff","null","null","<p style=""font-size: 60px; font-family: BACS"">OtlRdmRb</p>","","","","","","","","",""
"html-keyboard-response","392","606842","0.0-16.0-0.60","614dd6473c74b217ad73cc9c","650c16f0f2faf8d7a0d14c09","651c1b0872134699e23133ff","null","null","<p style=""font-size: 60px; font-family: BACS"">OtlRdmRb</p>","","","","","","","","",""
"html-keyboard-response","393","607857","0.0-16.0-0.61","614dd6473c74b217ad73cc9c","650c16f0f2faf8d7a0d14c09","651c1b0872134699e23133ff","null","null","<p style=""font-size: 60px; font-family: BACS"">OtlRdmRb</p>","","","","","","","","",""
"html-keyboard-response","394","608872","0.0-16.0-0.62","614dd6473c74b217ad73cc9c","650c16f0f2faf8d7a0d14c09","651c1b0872134699e23133ff","null","null","<p style=""font-size: 60px; font-family: BACS"">OtlRdmRb</p>","","","","","","","","",""
"html-keyboard-response","395","609882","0.0-16.0-0.63","614dd6473c74b217ad73cc9c","650c16f0f2faf8d7a0d14c09","651c1b0872134699e23133ff","null","null","<p style=""font-size: 60px; font-family: BACS"">OtlRdmRb</p>","","","","","","","","",""
"html-keyboard-response","396","610888","0.0-16.0-0.64","614dd6473c74b217ad73cc9c","650c16f0f2faf8d7a0d14c09","651c1b0872134699e23133ff","null","null","<p style=""font-size: 60px; font-family: BACS"">OtlRdmRb</p>","","","","","","","","",""
"html-keyboard-response","397","611904","0.0-16.0-0.65","614dd6473c74b217ad73cc9c","650c16f0f2faf8d7a0d14c09","651c1b0872134699e23133ff","null","null","<p style=""font-size: 60px; font-family: BACS"">OtlRdmRb</p>","","","","","","","","",""
"html-keyboard-response","398","612935","0.0-16.0-0.66","614dd6473c74b217ad73cc9c","650c16f0f2faf8d7a0d14c09","651c1b0872134699e23133ff","null","null","<p style=""font-size: 60px; font-family: BACS"">OtlRdmRb</p>","","","","","","","","",""
"html-keyboard-response","399","613951","0.0-16.0-0.67","614dd6473c74b217ad73cc9c","650c16f0f2faf8d7a0d14c09","651c1b0872134699e23133ff","null","null","<p style=""font-size: 60px; font-family: BACS"">OtlRdmRb</p>","","","","","","","","",""
