"trial_type","trial_index","time_elapsed","internal_node_id","subject_id","study_id","session_id","rt","response","stimulus","success","item","task","correct_response","correct","target","confound","name"
"pavlovia","0","10973","0.0-0.0","5f11ccbc1a1a2c08b4a99efb","64b003020eef62ee308107cc","64b030f0083ad36903daa977","","","","","","","","","","",""
"survey-html-form","1","21794","0.0-1.0","5f11ccbc1a1a2c08b4a99efb","64b003020eef62ee308107cc","64b030f0083ad36903daa977","10818","{""ID"":""5f11ccbc1a1a2c08b4a99efb""}","","","","","","","","",""
"html-keyboard-response","2","26652","0.0-2.0","5f11ccbc1a1a2c08b4a99efb","64b003020eef62ee308107cc","64b030f0083ad36903daa977","4855"," ","<p style=""font-size: 15px;"">Prima di cominciare, le chiediamo di leggere il modulo di consenso informato e confermare la sua volontà di partecipare all'esperimento.</p>
      <p style=""font-size: 15px;""> La preghiamo di ricordare che questo è un progetto di ricerca e che la sua partecipazione è completamente volontaria. Lei si potra' ritirare in qualunque momento, senza necessariamente dover dare alcuna spiegazione. Lo studio al quale Le si chiede di partecipare ha lo scopo di esaminare come i lettori elaborano le parole scritte. La somministrazione delle prove è individuale. Lei sarà impegnato in una sessione di lavoro della durata media di 10 minuti, e un questionario di 10 minuti. L’ordine delle prove ed il loro svolgimento sono stabiliti in modo tale da evitare un eventuale affaticamento. Tutte le prove saranno precedute da un breve addestramento in modo tale che abbia la possibilità di familiarizzare con il compito. Sono previste alcune pause nel corso dello svolgimento dell’esperimento. Una ricompensa di £4 (£8 per ora) Le verrà consegnata al termine della sessione di testing. Nonostante il testing preveda delle prove cognitive, il presente esperimento non costituisce una prova clinica che permetta la diagnosi di eventuali patologie.</p>
      <p style=""font-size: 15px;"">Tutti i dati raccolti grazie alla partecipazione Sua e di altre persone volontarie saranno custoditi in server sicuri e protetti da password, e non sarà consentito ad alcuna persona non autorizzata di accedervi. Le Sue informazioni personali saranno conservate separatamente dai risultati della presente ricerca, cui saranno associati soltanto attraverso un ID arbitrario. Grazie a questo processo di anonimizzazione dei dati, a nessun ricercatore sarà possibile analizzare i risultati sapendo da quale specifico partecipante essi provengono. Inoltre, questa procedura renderà impossibile la Sua identificazione anche nel momento in cui i risultati della ricerca fossero pubblicati su riviste scientifiche, o presentati a congressi o in qualsiasi altro pubblico consesso. Più in generale, i dati raccolti saranno trattati in accordo con le leggi sulla privacy e in conformità al Decreto Legislativo 30 giugno 2003 n. 196 “Codice in materia di protezione dei dati personali” e al Regolamento Europeo 2016/679 (General Data Protection Regulation - GDPR). Il Responsabile della protezione dei dati (RPD) è l’Avv. Valentina Carollo che può essere contattato ai seguenti indirizzi email: <a href=""mailto:dpo@sissa.it"">dpo@sissa.it</a> oppure <a href=""mailto:rpd@sissa.it"">rpd@sissa.it</a> - PEC: <a href=""mailto:protocollo@pec.sissa.it"">protocollo@pec.sissa.it</a>.</p>
      <p style=""font-size: 15px;""> Prima di esprimere il suo consenso alla partecipazione, Le ricordiamo ancora che in caso Lei abbia bisogno di delucidazioni su qualunque aspetto della procedura sperimentale, il ricercatore è a Sua completa disposizione (<a href=""mailto:aliebelt@sissa.it"">aliebelt@sissa.it</a>, <a href=""mailto:davide.crepaldi@sissa.it"">davide.crepaldi@sissa.it</a>).</p>
      <p style=""font-size: 15px;"">Se vuole scaricare il modulo di consenso informato, clicca qui: <a href=""BASL_modulo_consenso.pdf"" download>modulo di consenso</a>.</p>
      <p style=""font-size: 15px;""> Le chiediamo di premere la barra per continuare al consenso.</p>","","","","","","","",""
"survey-html-form","3","35933","0.0-3.0","5f11ccbc1a1a2c08b4a99efb","64b003020eef62ee308107cc","64b030f0083ad36903daa977","9278","{""consent1"":""YES"",""consent2"":""YES"",""consent3"":""YES"",""consent4"":""YES"",""consent5"":""YES"",""consent6"":""YES""}","","","","","","","","",""
"fullscreen","4","38549","0.0-4.0","5f11ccbc1a1a2c08b4a99efb","64b003020eef62ee308107cc","64b030f0083ad36903daa977","","","","true","","","","","","",""
"html-keyboard-response","5","192945","0.0-5.0","5f11ccbc1a1a2c08b4a99efb","64b003020eef62ee308107cc","64b030f0083ad36903daa977","154396"," ","<p>Benvenuta/o, e grazie mille del tuo tempo!</p>
      <p>In questo esperimento sarai un esperto/un'esperta di linguaggio cui è stato chiesto di dare un'occhiata ad alcuni messaggi che la Terra ha ricevuto dallo spazio. Il tuo compito, in questa prima parte dell'esperimento, sarà di fare molta attenzione alle parole che ti verranno mostrate; più tardi, i leader del mondo ti chiederanno qualche informazione su quello che hai visto. Le parole si susseguiranno abbastanza velocemente; sembra che questi alieni abbiano una certa fretta :-) </p>
      <p>Per favore, chiama lo sperimentatore se ha qualche domanda.</p><p>Premi la barra per continuare.</p>","","","","","","","",""
"html-keyboard-response","6","197061","0.0-6.0","5f11ccbc1a1a2c08b4a99efb","64b003020eef62ee308107cc","64b030f0083ad36903daa977","4113"," ","<p>Ecco un esempio delle parole che vedrai:</p>
      <img src='esempio.png' height='400px'>
      <p>Quando sei pronti per iniziare, premi la barra.</p></div>","","","","","","","",""
"html-keyboard-response","7","198072","0.0-7.0-0.0","5f11ccbc1a1a2c08b4a99efb","64b003020eef62ee308107cc","64b030f0083ad36903daa977","null","null","<p style=""font-size: 60px; font-family: BACS"">GabkrGl</p>","","","","","","","",""
"html-keyboard-response","8","199081","0.0-7.0-0.1","5f11ccbc1a1a2c08b4a99efb","64b003020eef62ee308107cc","64b030f0083ad36903daa977","null","null","<p style=""font-size: 60px; font-family: BACS"">vYLUcbm</p>","","","","","","","",""
"html-keyboard-response","9","200100","0.0-7.0-0.2","5f11ccbc1a1a2c08b4a99efb","64b003020eef62ee308107cc","64b030f0083ad36903daa977","null","null","<p style=""font-size: 60px; font-family: BACS"">BMEMAdPc</p>","","","","","","","",""
"html-keyboard-response","10","201108","0.0-7.0-0.3","5f11ccbc1a1a2c08b4a99efb","64b003020eef62ee308107cc","64b030f0083ad36903daa977","null","null","<p style=""font-size: 60px; font-family: BACS"">PMPtkCKOb</p>","","","","","","","",""
"html-keyboard-response","11","202112","0.0-7.0-0.4","5f11ccbc1a1a2c08b4a99efb","64b003020eef62ee308107cc","64b030f0083ad36903daa977","null","null","<p style=""font-size: 60px; font-family: BACS"">btlckdPc</p>","","","","","","","",""
"html-keyboard-response","12","203115","0.0-7.0-0.5","5f11ccbc1a1a2c08b4a99efb","64b003020eef62ee308107cc","64b030f0083ad36903daa977","null","null","<p style=""font-size: 60px; font-family: BACS"">cuOJbrGl</p>","","","","","","","",""
"html-keyboard-response","13","204121","0.0-7.0-0.6","5f11ccbc1a1a2c08b4a99efb","64b003020eef62ee308107cc","64b030f0083ad36903daa977","null","null","<p style=""font-size: 60px; font-family: BACS"">GJZmNYZu</p>","","","","","","","",""
"html-keyboard-response","14","205131","0.0-7.0-0.7","5f11ccbc1a1a2c08b4a99efb","64b003020eef62ee308107cc","64b030f0083ad36903daa977","null","null","<p style=""font-size: 60px; font-family: BACS"">PMPtkBCAd</p>","","","","","","","",""
"html-keyboard-response","15","206143","0.0-7.0-0.8","5f11ccbc1a1a2c08b4a99efb","64b003020eef62ee308107cc","64b030f0083ad36903daa977","null","null","<p style=""font-size: 60px; font-family: BACS"">lBlEYht</p>","","","","","","","",""
"html-keyboard-response","16","207153","0.0-7.0-0.9","5f11ccbc1a1a2c08b4a99efb","64b003020eef62ee308107cc","64b030f0083ad36903daa977","null","null","<p style=""font-size: 60px; font-family: BACS"">dkLlravu</p>","","","","","","","",""
"html-keyboard-response","17","208157","0.0-7.0-0.10","5f11ccbc1a1a2c08b4a99efb","64b003020eef62ee308107cc","64b030f0083ad36903daa977","null","null","<p style=""font-size: 60px; font-family: BACS"">RKYkBCAd</p>","","","","","","","",""
"html-keyboard-response","18","209174","0.0-7.0-0.11","5f11ccbc1a1a2c08b4a99efb","64b003020eef62ee308107cc","64b030f0083ad36903daa977","null","null","<p style=""font-size: 60px; font-family: BACS"">GabkNYZu</p>","","","","","","","",""
"html-keyboard-response","19","210179","0.0-7.0-0.12","5f11ccbc1a1a2c08b4a99efb","64b003020eef62ee308107cc","64b030f0083ad36903daa977","null","null","<p style=""font-size: 60px; font-family: BACS"">UdlGQcbm</p>","","","","","","","",""
"html-keyboard-response","20","211184","0.0-7.0-0.13","5f11ccbc1a1a2c08b4a99efb","64b003020eef62ee308107cc","64b030f0083ad36903daa977","null","null","<p style=""font-size: 60px; font-family: BACS"">vuJZuNYZu</p>","","","","","","","",""
"html-keyboard-response","21","212201","0.0-7.0-0.14","5f11ccbc1a1a2c08b4a99efb","64b003020eef62ee308107cc","64b030f0083ad36903daa977","null","null","<p style=""font-size: 60px; font-family: BACS"">PMPtkYht</p>","","","","","","","",""
"html-keyboard-response","22","213211","0.0-7.0-0.15","5f11ccbc1a1a2c08b4a99efb","64b003020eef62ee308107cc","64b030f0083ad36903daa977","null","null","<p style=""font-size: 60px; font-family: BACS"">dkLlcbm</p>","","","","","","","",""
"html-keyboard-response","23","214220","0.0-7.0-0.16","5f11ccbc1a1a2c08b4a99efb","64b003020eef62ee308107cc","64b030f0083ad36903daa977","null","null","<p style=""font-size: 60px; font-family: BACS"">AmaclrGl</p>","","","","","","","",""
"html-keyboard-response","24","215229","0.0-7.0-0.17","5f11ccbc1a1a2c08b4a99efb","64b003020eef62ee308107cc","64b030f0083ad36903daa977","null","null","<p style=""font-size: 60px; font-family: BACS"">YOaAbcbm</p>","","","","","","","",""
"html-keyboard-response","25","216235","0.0-7.0-0.18","5f11ccbc1a1a2c08b4a99efb","64b003020eef62ee308107cc","64b030f0083ad36903daa977","null","null","<p style=""font-size: 60px; font-family: BACS"">vYLUrGl</p>","","","","","","","",""
"html-keyboard-response","26","217240","0.0-7.0-0.19","5f11ccbc1a1a2c08b4a99efb","64b003020eef62ee308107cc","64b030f0083ad36903daa977","null","null","<p style=""font-size: 60px; font-family: BACS"">GJZmrZYd</p>","","","","","","","",""
"html-keyboard-response","27","218257","0.0-7.0-0.20","5f11ccbc1a1a2c08b4a99efb","64b003020eef62ee308107cc","64b030f0083ad36903daa977","null","null","<p style=""font-size: 60px; font-family: BACS"">BMEMACKOb</p>","","","","","","","",""
"html-keyboard-response","28","219259","0.0-7.0-0.21","5f11ccbc1a1a2c08b4a99efb","64b003020eef62ee308107cc","64b030f0083ad36903daa977","null","null","<p style=""font-size: 60px; font-family: BACS"">kRCkOBCAd</p>","","","","","","","",""
"html-keyboard-response","29","220273","0.0-7.0-0.22","5f11ccbc1a1a2c08b4a99efb","64b003020eef62ee308107cc","64b030f0083ad36903daa977","null","null","<p style=""font-size: 60px; font-family: BACS"">Amaclravu</p>","","","","","","","",""
"html-keyboard-response","30","221287","0.0-7.0-0.23","5f11ccbc1a1a2c08b4a99efb","64b003020eef62ee308107cc","64b030f0083ad36903daa977","null","null","<p style=""font-size: 60px; font-family: BACS"">lBlEDlDT</p>","","","","","","","",""
"html-keyboard-response","31","222289","0.0-7.0-0.24","5f11ccbc1a1a2c08b4a99efb","64b003020eef62ee308107cc","64b030f0083ad36903daa977","null","null","<p style=""font-size: 60px; font-family: BACS"">KdARCKOb</p>","","","","","","","",""
"html-keyboard-response","32","223305","0.0-7.0-0.25","5f11ccbc1a1a2c08b4a99efb","64b003020eef62ee308107cc","64b030f0083ad36903daa977","null","null","<p style=""font-size: 60px; font-family: BACS"">NAacQrZYd</p>","","","","","","","",""
"html-keyboard-response","33","224309","0.0-7.0-0.26","5f11ccbc1a1a2c08b4a99efb","64b003020eef62ee308107cc","64b030f0083ad36903daa977","null","null","<p style=""font-size: 60px; font-family: BACS"">lBlEdPc</p>","","","","","","","",""
"html-keyboard-response","34","225325","0.0-7.0-0.27","5f11ccbc1a1a2c08b4a99efb","64b003020eef62ee308107cc","64b030f0083ad36903daa977","null","null","<p style=""font-size: 60px; font-family: BACS"">ctktCKOb</p>","","","","","","","",""
"html-keyboard-response","35","226336","0.0-7.0-0.28","5f11ccbc1a1a2c08b4a99efb","64b003020eef62ee308107cc","64b030f0083ad36903daa977","null","null","<p style=""font-size: 60px; font-family: BACS"">KDPABCAd</p>","","","","","","","",""
"html-keyboard-response","36","227352","0.0-7.0-0.29","5f11ccbc1a1a2c08b4a99efb","64b003020eef62ee308107cc","64b030f0083ad36903daa977","null","null","<p style=""font-size: 60px; font-family: BACS"">KdARYht</p>","","","","","","","",""
"html-keyboard-response","37","228369","0.0-7.0-0.30","5f11ccbc1a1a2c08b4a99efb","64b003020eef62ee308107cc","64b030f0083ad36903daa977","null","null","<p style=""font-size: 60px; font-family: BACS"">NAacQcbm</p>","","","","","","","",""
"html-keyboard-response","38","229372","0.0-7.0-0.31","5f11ccbc1a1a2c08b4a99efb","64b003020eef62ee308107cc","64b030f0083ad36903daa977","null","null","<p style=""font-size: 60px; font-family: BACS"">cuOJbravu</p>","","","","","","","",""
"html-keyboard-response","39","230385","0.0-7.0-0.32","5f11ccbc1a1a2c08b4a99efb","64b003020eef62ee308107cc","64b030f0083ad36903daa977","null","null","<p style=""font-size: 60px; font-family: BACS"">UdlGQNYZu</p>","","","","","","","",""
"html-keyboard-response","40","231388","0.0-7.0-0.33","5f11ccbc1a1a2c08b4a99efb","64b003020eef62ee308107cc","64b030f0083ad36903daa977","null","null","<p style=""font-size: 60px; font-family: BACS"">RKYkDlDT</p>","","","","","","","",""
"html-keyboard-response","41","232413","0.0-7.0-0.34","5f11ccbc1a1a2c08b4a99efb","64b003020eef62ee308107cc","64b030f0083ad36903daa977","null","null","<p style=""font-size: 60px; font-family: BACS"">vuJZurGl</p>","","","","","","","",""
"html-keyboard-response","42","233429","0.0-7.0-0.35","5f11ccbc1a1a2c08b4a99efb","64b003020eef62ee308107cc","64b030f0083ad36903daa977","null","null","<p style=""font-size: 60px; font-family: BACS"">kRCkOdPc</p>","","","","","","","",""
"html-keyboard-response","43","234432","0.0-7.0-0.36","5f11ccbc1a1a2c08b4a99efb","64b003020eef62ee308107cc","64b030f0083ad36903daa977","null","null","<p style=""font-size: 60px; font-family: BACS"">RKYkCKOb</p>","","","","","","","",""
"html-keyboard-response","44","235434","0.0-7.0-0.37","5f11ccbc1a1a2c08b4a99efb","64b003020eef62ee308107cc","64b030f0083ad36903daa977","null","null","<p style=""font-size: 60px; font-family: BACS"">ctktDlDT</p>","","","","","","","",""
"html-keyboard-response","45","236436","0.0-7.0-0.38","5f11ccbc1a1a2c08b4a99efb","64b003020eef62ee308107cc","64b030f0083ad36903daa977","null","null","<p style=""font-size: 60px; font-family: BACS"">DmAMEdPc</p>","","","","","","","",""
"html-keyboard-response","46","237462","0.0-7.0-0.39","5f11ccbc1a1a2c08b4a99efb","64b003020eef62ee308107cc","64b030f0083ad36903daa977","null","null","<p style=""font-size: 60px; font-family: BACS"">vuJZurZYd</p>","","","","","","","",""
"html-keyboard-response","47","238468","0.0-7.0-0.40","5f11ccbc1a1a2c08b4a99efb","64b003020eef62ee308107cc","64b030f0083ad36903daa977","null","null","<p style=""font-size: 60px; font-family: BACS"">NAacQrGl</p>","","","","","","","",""
"html-keyboard-response","48","239486","0.0-7.0-0.41","5f11ccbc1a1a2c08b4a99efb","64b003020eef62ee308107cc","64b030f0083ad36903daa977","null","null","<p style=""font-size: 60px; font-family: BACS"">GabkrZYd</p>","","","","","","","",""
"html-keyboard-response","49","240494","0.0-7.0-0.42","5f11ccbc1a1a2c08b4a99efb","64b003020eef62ee308107cc","64b030f0083ad36903daa977","null","null","<p style=""font-size: 60px; font-family: BACS"">YOaAbravu</p>","","","","","","","",""
"html-keyboard-response","50","241510","0.0-7.0-0.43","5f11ccbc1a1a2c08b4a99efb","64b003020eef62ee308107cc","64b030f0083ad36903daa977","null","null","<p style=""font-size: 60px; font-family: BACS"">PMPtkDlDT</p>","","","","","","","",""
"html-keyboard-response","51","242528","0.0-7.0-0.44","5f11ccbc1a1a2c08b4a99efb","64b003020eef62ee308107cc","64b030f0083ad36903daa977","null","null","<p style=""font-size: 60px; font-family: BACS"">YOaAbrGl</p>","","","","","","","",""
"html-keyboard-response","52","243531","0.0-7.0-0.45","5f11ccbc1a1a2c08b4a99efb","64b003020eef62ee308107cc","64b030f0083ad36903daa977","null","null","<p style=""font-size: 60px; font-family: BACS"">AmaclrZYd</p>","","","","","","","",""
"html-keyboard-response","53","244535","0.0-7.0-0.46","5f11ccbc1a1a2c08b4a99efb","64b003020eef62ee308107cc","64b030f0083ad36903daa977","null","null","<p style=""font-size: 60px; font-family: BACS"">KDPADlDT</p>","","","","","","","",""
"html-keyboard-response","54","245547","0.0-7.0-0.47","5f11ccbc1a1a2c08b4a99efb","64b003020eef62ee308107cc","64b030f0083ad36903daa977","null","null","<p style=""font-size: 60px; font-family: BACS"">lBlEBCAd</p>","","","","","","","",""
"html-keyboard-response","55","246560","0.0-7.0-0.48","5f11ccbc1a1a2c08b4a99efb","64b003020eef62ee308107cc","64b030f0083ad36903daa977","null","null","<p style=""font-size: 60px; font-family: BACS"">dkLlNYZu</p>","","","","","","","",""
"html-keyboard-response","56","247564","0.0-7.0-0.49","5f11ccbc1a1a2c08b4a99efb","64b003020eef62ee308107cc","64b030f0083ad36903daa977","null","null","<p style=""font-size: 60px; font-family: BACS"">DmAMECKOb</p>","","","","","","","",""
"html-keyboard-response","57","248571","0.0-7.0-0.50","5f11ccbc1a1a2c08b4a99efb","64b003020eef62ee308107cc","64b030f0083ad36903daa977","null","null","<p style=""font-size: 60px; font-family: BACS"">BMEMABCAd</p>","","","","","","","",""
"html-keyboard-response","58","249588","0.0-7.0-0.51","5f11ccbc1a1a2c08b4a99efb","64b003020eef62ee308107cc","64b030f0083ad36903daa977","null","null","<p style=""font-size: 60px; font-family: BACS"">vYLUrZYd</p>","","","","","","","",""
"html-keyboard-response","59","250602","0.0-7.0-0.52","5f11ccbc1a1a2c08b4a99efb","64b003020eef62ee308107cc","64b030f0083ad36903daa977","null","null","<p style=""font-size: 60px; font-family: BACS"">AmaclNYZu</p>","","","","","","","",""
"html-keyboard-response","60","251610","0.0-7.0-0.53","5f11ccbc1a1a2c08b4a99efb","64b003020eef62ee308107cc","64b030f0083ad36903daa977","null","null","<p style=""font-size: 60px; font-family: BACS"">KdARBCAd</p>","","","","","","","",""
"html-keyboard-response","61","252616","0.0-7.0-0.54","5f11ccbc1a1a2c08b4a99efb","64b003020eef62ee308107cc","64b030f0083ad36903daa977","null","null","<p style=""font-size: 60px; font-family: BACS"">DmAMEYht</p>","","","","","","","",""
"html-keyboard-response","62","253629","0.0-7.0-0.55","5f11ccbc1a1a2c08b4a99efb","64b003020eef62ee308107cc","64b030f0083ad36903daa977","null","null","<p style=""font-size: 60px; font-family: BACS"">GJZmravu</p>","","","","","","","",""
"html-keyboard-response","63","254646","0.0-7.0-0.56","5f11ccbc1a1a2c08b4a99efb","64b003020eef62ee308107cc","64b030f0083ad36903daa977","null","null","<p style=""font-size: 60px; font-family: BACS"">vuJZucbm</p>","","","","","","","",""
"html-keyboard-response","64","255661","0.0-7.0-0.57","5f11ccbc1a1a2c08b4a99efb","64b003020eef62ee308107cc","64b030f0083ad36903daa977","null","null","<p style=""font-size: 60px; font-family: BACS"">NAacQNYZu</p>","","","","","","","",""
"html-keyboard-response","65","256669","0.0-7.0-0.58","5f11ccbc1a1a2c08b4a99efb","64b003020eef62ee308107cc","64b030f0083ad36903daa977","null","null","<p style=""font-size: 60px; font-family: BACS"">YOaAbrZYd</p>","","","","","","","",""
"html-keyboard-response","66","257674","0.0-7.0-0.59","5f11ccbc1a1a2c08b4a99efb","64b003020eef62ee308107cc","64b030f0083ad36903daa977","null","null","<p style=""font-size: 60px; font-family: BACS"">vYLUravu</p>","","","","","","","",""
"html-keyboard-response","67","258693","0.0-7.0-0.60","5f11ccbc1a1a2c08b4a99efb","64b003020eef62ee308107cc","64b030f0083ad36903daa977","null","null","<p style=""font-size: 60px; font-family: BACS"">GJZmcbm</p>","","","","","","","",""
"html-keyboard-response","68","259711","0.0-7.0-0.61","5f11ccbc1a1a2c08b4a99efb","64b003020eef62ee308107cc","64b030f0083ad36903daa977","null","null","<p style=""font-size: 60px; font-family: BACS"">UdlGQrZYd</p>","","","","","","","",""
"html-keyboard-response","69","260716","0.0-7.0-0.62","5f11ccbc1a1a2c08b4a99efb","64b003020eef62ee308107cc","64b030f0083ad36903daa977","null","null","<p style=""font-size: 60px; font-family: BACS"">KDPAYht</p>","","","","","","","",""
"html-keyboard-response","70","261731","0.0-7.0-0.63","5f11ccbc1a1a2c08b4a99efb","64b003020eef62ee308107cc","64b030f0083ad36903daa977","null","null","<p style=""font-size: 60px; font-family: BACS"">Gabkravu</p>","","","","","","","",""
"html-keyboard-response","71","262739","0.0-7.0-0.64","5f11ccbc1a1a2c08b4a99efb","64b003020eef62ee308107cc","64b030f0083ad36903daa977","null","null","<p style=""font-size: 60px; font-family: BACS"">cuOJbNYZu</p>","","","","","","","",""
"html-keyboard-response","72","263755","0.0-7.0-0.65","5f11ccbc1a1a2c08b4a99efb","64b003020eef62ee308107cc","64b030f0083ad36903daa977","null","null","<p style=""font-size: 60px; font-family: BACS"">kRCkODlDT</p>","","","","","","","",""
"html-keyboard-response","73","264767","0.0-7.0-0.66","5f11ccbc1a1a2c08b4a99efb","64b003020eef62ee308107cc","64b030f0083ad36903daa977","null","null","<p style=""font-size: 60px; font-family: BACS"">dkLlrGl</p>","","","","","","","",""
"html-keyboard-response","74","265771","0.0-7.0-0.67","5f11ccbc1a1a2c08b4a99efb","64b003020eef62ee308107cc","64b030f0083ad36903daa977","null","null","<p style=""font-size: 60px; font-family: BACS"">btlckDlDT</p>","","","","","","","",""
"html-keyboard-response","75","266788","0.0-7.0-0.68","5f11ccbc1a1a2c08b4a99efb","64b003020eef62ee308107cc","64b030f0083ad36903daa977","null","null","<p style=""font-size: 60px; font-family: BACS"">ctktdPc</p>","","","","","","","",""
"html-keyboard-response","76","267795","0.0-7.0-0.69","5f11ccbc1a1a2c08b4a99efb","64b003020eef62ee308107cc","64b030f0083ad36903daa977","null","null","<p style=""font-size: 60px; font-family: BACS"">btlckBCAd</p>","","","","","","","",""
"html-keyboard-response","77","268808","0.0-7.0-0.70","5f11ccbc1a1a2c08b4a99efb","64b003020eef62ee308107cc","64b030f0083ad36903daa977","null","null","<p style=""font-size: 60px; font-family: BACS"">RKYkdPc</p>","","","","","","","",""
"html-keyboard-response","78","269822","0.0-7.0-0.71","5f11ccbc1a1a2c08b4a99efb","64b003020eef62ee308107cc","64b030f0083ad36903daa977","null","null","<p style=""font-size: 60px; font-family: BACS"">kRCkOCKOb</p>","","","","","","","",""
"html-keyboard-response","79","270827","0.0-7.0-0.72","5f11ccbc1a1a2c08b4a99efb","64b003020eef62ee308107cc","64b030f0083ad36903daa977","null","null","<p style=""font-size: 60px; font-family: BACS"">BMEMAYht</p>","","","","","","","",""
"html-keyboard-response","80","271837","0.0-7.0-0.73","5f11ccbc1a1a2c08b4a99efb","64b003020eef62ee308107cc","64b030f0083ad36903daa977","null","null","<p style=""font-size: 60px; font-family: BACS"">DmAMEDlDT</p>","","","","","","","",""
"html-keyboard-response","81","272844","0.0-7.0-0.74","5f11ccbc1a1a2c08b4a99efb","64b003020eef62ee308107cc","64b030f0083ad36903daa977","null","null","<p style=""font-size: 60px; font-family: BACS"">ctktYht</p>","","","","","","","",""
"html-keyboard-response","82","273849","0.0-7.0-0.75","5f11ccbc1a1a2c08b4a99efb","64b003020eef62ee308107cc","64b030f0083ad36903daa977","null","null","<p style=""font-size: 60px; font-family: BACS"">KdARdPc</p>","","","","","","","",""
"html-keyboard-response","83","274866","0.0-7.0-0.76","5f11ccbc1a1a2c08b4a99efb","64b003020eef62ee308107cc","64b030f0083ad36903daa977","null","null","<p style=""font-size: 60px; font-family: BACS"">UdlGQravu</p>","","","","","","","",""
"html-keyboard-response","84","275868","0.0-7.0-0.77","5f11ccbc1a1a2c08b4a99efb","64b003020eef62ee308107cc","64b030f0083ad36903daa977","null","null","<p style=""font-size: 60px; font-family: BACS"">btlckYht</p>","","","","","","","",""
"html-keyboard-response","85","276885","0.0-7.0-0.78","5f11ccbc1a1a2c08b4a99efb","64b003020eef62ee308107cc","64b030f0083ad36903daa977","null","null","<p style=""font-size: 60px; font-family: BACS"">KDPACKOb</p>","","","","","","","",""
"html-keyboard-response","86","277890","0.0-7.0-0.79","5f11ccbc1a1a2c08b4a99efb","64b003020eef62ee308107cc","64b030f0083ad36903daa977","null","null","<p style=""font-size: 60px; font-family: BACS"">cuOJbcbm</p>","","","","","","","",""
"html-keyboard-response","87","358084","0.0-8.0","5f11ccbc1a1a2c08b4a99efb","64b003020eef62ee308107cc","64b030f0083ad36903daa977","80191"," ","<p>Ottimo, hai visto il primo blocco di parole. Ora puoi prenderti una piccola pausa.</p>
      <p>Premi la barra quando sei pronta/o per riprendere.</p>","","","","","","","",""
"html-keyboard-response","88","359092","0.0-9.0-0.0","5f11ccbc1a1a2c08b4a99efb","64b003020eef62ee308107cc","64b030f0083ad36903daa977","null","null","<p style=""font-size: 60px; font-family: BACS"">NAacQNYZu</p>","","","","","","","",""
"html-keyboard-response","89","360098","0.0-9.0-0.1","5f11ccbc1a1a2c08b4a99efb","64b003020eef62ee308107cc","64b030f0083ad36903daa977","null","null","<p style=""font-size: 60px; font-family: BACS"">lBlEDlDT</p>","","","","","","","",""
"html-keyboard-response","90","361115","0.0-9.0-0.2","5f11ccbc1a1a2c08b4a99efb","64b003020eef62ee308107cc","64b030f0083ad36903daa977","null","null","<p style=""font-size: 60px; font-family: BACS"">UdlGQravu</p>","","","","","","","",""
"html-keyboard-response","91","362132","0.0-9.0-0.3","5f11ccbc1a1a2c08b4a99efb","64b003020eef62ee308107cc","64b030f0083ad36903daa977","null","null","<p style=""font-size: 60px; font-family: BACS"">PMPtkBCAd</p>","","","","","","","",""
"html-keyboard-response","92","363141","0.0-9.0-0.4","5f11ccbc1a1a2c08b4a99efb","64b003020eef62ee308107cc","64b030f0083ad36903daa977","null","null","<p style=""font-size: 60px; font-family: BACS"">AmaclNYZu</p>","","","","","","","",""
"html-keyboard-response","93","364148","0.0-9.0-0.5","5f11ccbc1a1a2c08b4a99efb","64b003020eef62ee308107cc","64b030f0083ad36903daa977","null","null","<p style=""font-size: 60px; font-family: BACS"">dkLlravu</p>","","","","","","","",""
"html-keyboard-response","94","365163","0.0-9.0-0.6","5f11ccbc1a1a2c08b4a99efb","64b003020eef62ee308107cc","64b030f0083ad36903daa977","null","null","<p style=""font-size: 60px; font-family: BACS"">KdARdPc</p>","","","","","","","",""
"html-keyboard-response","95","366180","0.0-9.0-0.7","5f11ccbc1a1a2c08b4a99efb","64b003020eef62ee308107cc","64b030f0083ad36903daa977","null","null","<p style=""font-size: 60px; font-family: BACS"">btlckDlDT</p>","","","","","","","",""
"html-keyboard-response","96","367197","0.0-9.0-0.8","5f11ccbc1a1a2c08b4a99efb","64b003020eef62ee308107cc","64b030f0083ad36903daa977","null","null","<p style=""font-size: 60px; font-family: BACS"">NAacQcbm</p>","","","","","","","",""
"html-keyboard-response","97","368202","0.0-9.0-0.9","5f11ccbc1a1a2c08b4a99efb","64b003020eef62ee308107cc","64b030f0083ad36903daa977","null","null","<p style=""font-size: 60px; font-family: BACS"">dkLlrGl</p>","","","","","","","",""
"html-keyboard-response","98","369217","0.0-9.0-0.10","5f11ccbc1a1a2c08b4a99efb","64b003020eef62ee308107cc","64b030f0083ad36903daa977","null","null","<p style=""font-size: 60px; font-family: BACS"">vuJZucbm</p>","","","","","","","",""
"html-keyboard-response","99","370222","0.0-9.0-0.11","5f11ccbc1a1a2c08b4a99efb","64b003020eef62ee308107cc","64b030f0083ad36903daa977","null","null","<p style=""font-size: 60px; font-family: BACS"">PMPtkCKOb</p>","","","","","","","",""
"html-keyboard-response","100","371233","0.0-9.0-0.12","5f11ccbc1a1a2c08b4a99efb","64b003020eef62ee308107cc","64b030f0083ad36903daa977","null","null","<p style=""font-size: 60px; font-family: BACS"">DmAMEdPc</p>","","","","","","","",""
"html-keyboard-response","101","372237","0.0-9.0-0.13","5f11ccbc1a1a2c08b4a99efb","64b003020eef62ee308107cc","64b030f0083ad36903daa977","null","null","<p style=""font-size: 60px; font-family: BACS"">cuOJbNYZu</p>","","","","","","","",""
"html-keyboard-response","102","373249","0.0-9.0-0.14","5f11ccbc1a1a2c08b4a99efb","64b003020eef62ee308107cc","64b030f0083ad36903daa977","null","null","<p style=""font-size: 60px; font-family: BACS"">GJZmravu</p>","","","","","","","",""
"html-keyboard-response","103","374262","0.0-9.0-0.15","5f11ccbc1a1a2c08b4a99efb","64b003020eef62ee308107cc","64b030f0083ad36903daa977","null","null","<p style=""font-size: 60px; font-family: BACS"">GabkNYZu</p>","","","","","","","",""
"html-keyboard-response","104","375270","0.0-9.0-0.16","5f11ccbc1a1a2c08b4a99efb","64b003020eef62ee308107cc","64b030f0083ad36903daa977","null","null","<p style=""font-size: 60px; font-family: BACS"">AmaclrGl</p>","","","","","","","",""
"html-keyboard-response","105","376286","0.0-9.0-0.17","5f11ccbc1a1a2c08b4a99efb","64b003020eef62ee308107cc","64b030f0083ad36903daa977","null","null","<p style=""font-size: 60px; font-family: BACS"">KDPADlDT</p>","","","","","","","",""
"html-keyboard-response","106","377289","0.0-9.0-0.18","5f11ccbc1a1a2c08b4a99efb","64b003020eef62ee308107cc","64b030f0083ad36903daa977","null","null","<p style=""font-size: 60px; font-family: BACS"">vuJZurZYd</p>","","","","","","","",""
"html-keyboard-response","107","378307","0.0-9.0-0.19","5f11ccbc1a1a2c08b4a99efb","64b003020eef62ee308107cc","64b030f0083ad36903daa977","null","null","<p style=""font-size: 60px; font-family: BACS"">NAacQrGl</p>","","","","","","","",""
"html-keyboard-response","108","379320","0.0-9.0-0.20","5f11ccbc1a1a2c08b4a99efb","64b003020eef62ee308107cc","64b030f0083ad36903daa977","null","null","<p style=""font-size: 60px; font-family: BACS"">RKYkBCAd</p>","","","","","","","",""
"html-keyboard-response","109","380327","0.0-9.0-0.21","5f11ccbc1a1a2c08b4a99efb","64b003020eef62ee308107cc","64b030f0083ad36903daa977","null","null","<p style=""font-size: 60px; font-family: BACS"">GabkrZYd</p>","","","","","","","",""
"html-keyboard-response","110","381344","0.0-9.0-0.22","5f11ccbc1a1a2c08b4a99efb","64b003020eef62ee308107cc","64b030f0083ad36903daa977","null","null","<p style=""font-size: 60px; font-family: BACS"">KdARCKOb</p>","","","","","","","",""
"html-keyboard-response","111","382349","0.0-9.0-0.23","5f11ccbc1a1a2c08b4a99efb","64b003020eef62ee308107cc","64b030f0083ad36903daa977","null","null","<p style=""font-size: 60px; font-family: BACS"">DmAMEYht</p>","","","","","","","",""
"html-keyboard-response","112","383366","0.0-9.0-0.24","5f11ccbc1a1a2c08b4a99efb","64b003020eef62ee308107cc","64b030f0083ad36903daa977","null","null","<p style=""font-size: 60px; font-family: BACS"">vYLUcbm</p>","","","","","","","",""
"html-keyboard-response","113","384385","0.0-9.0-0.25","5f11ccbc1a1a2c08b4a99efb","64b003020eef62ee308107cc","64b030f0083ad36903daa977","null","null","<p style=""font-size: 60px; font-family: BACS"">YOaAbravu</p>","","","","","","","",""
"html-keyboard-response","114","385399","0.0-9.0-0.26","5f11ccbc1a1a2c08b4a99efb","64b003020eef62ee308107cc","64b030f0083ad36903daa977","null","null","<p style=""font-size: 60px; font-family: BACS"">BMEMABCAd</p>","","","","","","","",""
"html-keyboard-response","115","386416","0.0-9.0-0.27","5f11ccbc1a1a2c08b4a99efb","64b003020eef62ee308107cc","64b030f0083ad36903daa977","null","null","<p style=""font-size: 60px; font-family: BACS"">KdARYht</p>","","","","","","","",""
"html-keyboard-response","116","387425","0.0-9.0-0.28","5f11ccbc1a1a2c08b4a99efb","64b003020eef62ee308107cc","64b030f0083ad36903daa977","null","null","<p style=""font-size: 60px; font-family: BACS"">btlckBCAd</p>","","","","","","","",""
"html-keyboard-response","117","388455","0.0-9.0-0.29","5f11ccbc1a1a2c08b4a99efb","64b003020eef62ee308107cc","64b030f0083ad36903daa977","null","null","<p style=""font-size: 60px; font-family: BACS"">RKYkCKOb</p>","","","","","","","",""
"html-keyboard-response","118","389457","0.0-9.0-0.30","5f11ccbc1a1a2c08b4a99efb","64b003020eef62ee308107cc","64b030f0083ad36903daa977","null","null","<p style=""font-size: 60px; font-family: BACS"">cuOJbravu</p>","","","","","","","",""
"html-keyboard-response","119","390473","0.0-9.0-0.31","5f11ccbc1a1a2c08b4a99efb","64b003020eef62ee308107cc","64b030f0083ad36903daa977","null","null","<p style=""font-size: 60px; font-family: BACS"">btlckYht</p>","","","","","","","",""
"html-keyboard-response","120","391478","0.0-9.0-0.32","5f11ccbc1a1a2c08b4a99efb","64b003020eef62ee308107cc","64b030f0083ad36903daa977","null","null","<p style=""font-size: 60px; font-family: BACS"">vuJZurGl</p>","","","","","","","",""
"html-keyboard-response","121","392493","0.0-9.0-0.33","5f11ccbc1a1a2c08b4a99efb","64b003020eef62ee308107cc","64b030f0083ad36903daa977","null","null","<p style=""font-size: 60px; font-family: BACS"">ctktDlDT</p>","","","","","","","",""
"html-keyboard-response","122","393509","0.0-9.0-0.34","5f11ccbc1a1a2c08b4a99efb","64b003020eef62ee308107cc","64b030f0083ad36903daa977","null","null","<p style=""font-size: 60px; font-family: BACS"">KdARBCAd</p>","","","","","","","",""
"html-keyboard-response","123","394510","0.0-9.0-0.35","5f11ccbc1a1a2c08b4a99efb","64b003020eef62ee308107cc","64b030f0083ad36903daa977","null","null","<p style=""font-size: 60px; font-family: BACS"">vYLUravu</p>","","","","","","","",""
"html-keyboard-response","124","395522","0.0-9.0-0.36","5f11ccbc1a1a2c08b4a99efb","64b003020eef62ee308107cc","64b030f0083ad36903daa977","null","null","<p style=""font-size: 60px; font-family: BACS"">PMPtkYht</p>","","","","","","","",""
"html-keyboard-response","125","396527","0.0-9.0-0.37","5f11ccbc1a1a2c08b4a99efb","64b003020eef62ee308107cc","64b030f0083ad36903daa977","null","null","<p style=""font-size: 60px; font-family: BACS"">lBlEdPc</p>","","","","","","","",""
"html-keyboard-response","126","397545","0.0-9.0-0.38","5f11ccbc1a1a2c08b4a99efb","64b003020eef62ee308107cc","64b030f0083ad36903daa977","null","null","<p style=""font-size: 60px; font-family: BACS"">UdlGQNYZu</p>","","","","","","","",""
"html-keyboard-response","127","398562","0.0-9.0-0.39","5f11ccbc1a1a2c08b4a99efb","64b003020eef62ee308107cc","64b030f0083ad36903daa977","null","null","<p style=""font-size: 60px; font-family: BACS"">YOaAbrZYd</p>","","","","","","","",""
"html-keyboard-response","128","399576","0.0-9.0-0.40","5f11ccbc1a1a2c08b4a99efb","64b003020eef62ee308107cc","64b030f0083ad36903daa977","null","null","<p style=""font-size: 60px; font-family: BACS"">KDPABCAd</p>","","","","","","","",""
"html-keyboard-response","129","400578","0.0-9.0-0.41","5f11ccbc1a1a2c08b4a99efb","64b003020eef62ee308107cc","64b030f0083ad36903daa977","null","null","<p style=""font-size: 60px; font-family: BACS"">vYLUrGl</p>","","","","","","","",""
"html-keyboard-response","130","401594","0.0-9.0-0.42","5f11ccbc1a1a2c08b4a99efb","64b003020eef62ee308107cc","64b030f0083ad36903daa977","null","null","<p style=""font-size: 60px; font-family: BACS"">BMEMACKOb</p>","","","","","","","",""
"html-keyboard-response","131","402608","0.0-9.0-0.43","5f11ccbc1a1a2c08b4a99efb","64b003020eef62ee308107cc","64b030f0083ad36903daa977","null","null","<p style=""font-size: 60px; font-family: BACS"">kRCkODlDT</p>","","","","","","","",""
"html-keyboard-response","132","403615","0.0-9.0-0.44","5f11ccbc1a1a2c08b4a99efb","64b003020eef62ee308107cc","64b030f0083ad36903daa977","null","null","<p style=""font-size: 60px; font-family: BACS"">vYLUrZYd</p>","","","","","","","",""
"html-keyboard-response","133","404621","0.0-9.0-0.45","5f11ccbc1a1a2c08b4a99efb","64b003020eef62ee308107cc","64b030f0083ad36903daa977","null","null","<p style=""font-size: 60px; font-family: BACS"">cuOJbrGl</p>","","","","","","","",""
"html-keyboard-response","134","405631","0.0-9.0-0.46","5f11ccbc1a1a2c08b4a99efb","64b003020eef62ee308107cc","64b030f0083ad36903daa977","null","null","<p style=""font-size: 60px; font-family: BACS"">Amaclravu</p>","","","","","","","",""
"html-keyboard-response","135","406648","0.0-9.0-0.47","5f11ccbc1a1a2c08b4a99efb","64b003020eef62ee308107cc","64b030f0083ad36903daa977","null","null","<p style=""font-size: 60px; font-family: BACS"">DmAMEDlDT</p>","","","","","","","",""
"html-keyboard-response","136","407666","0.0-9.0-0.48","5f11ccbc1a1a2c08b4a99efb","64b003020eef62ee308107cc","64b030f0083ad36903daa977","null","null","<p style=""font-size: 60px; font-family: BACS"">Gabkravu</p>","","","","","","","",""
"html-keyboard-response","137","408681","0.0-9.0-0.49","5f11ccbc1a1a2c08b4a99efb","64b003020eef62ee308107cc","64b030f0083ad36903daa977","null","null","<p style=""font-size: 60px; font-family: BACS"">BMEMAdPc</p>","","","","","","","",""
"html-keyboard-response","138","409698","0.0-9.0-0.50","5f11ccbc1a1a2c08b4a99efb","64b003020eef62ee308107cc","64b030f0083ad36903daa977","null","null","<p style=""font-size: 60px; font-family: BACS"">lBlEYht</p>","","","","","","","",""
"html-keyboard-response","139","410704","0.0-9.0-0.51","5f11ccbc1a1a2c08b4a99efb","64b003020eef62ee308107cc","64b030f0083ad36903daa977","null","null","<p style=""font-size: 60px; font-family: BACS"">NAacQrZYd</p>","","","","","","","",""
"html-keyboard-response","140","411708","0.0-9.0-0.52","5f11ccbc1a1a2c08b4a99efb","64b003020eef62ee308107cc","64b030f0083ad36903daa977","null","null","<p style=""font-size: 60px; font-family: BACS"">PMPtkDlDT</p>","","","","","","","",""
"html-keyboard-response","141","412719","0.0-9.0-0.53","5f11ccbc1a1a2c08b4a99efb","64b003020eef62ee308107cc","64b030f0083ad36903daa977","null","null","<p style=""font-size: 60px; font-family: BACS"">vuJZuNYZu</p>","","","","","","","",""
"html-keyboard-response","142","413729","0.0-9.0-0.54","5f11ccbc1a1a2c08b4a99efb","64b003020eef62ee308107cc","64b030f0083ad36903daa977","null","null","<p style=""font-size: 60px; font-family: BACS"">GabkrGl</p>","","","","","","","",""
"html-keyboard-response","143","414742","0.0-9.0-0.55","5f11ccbc1a1a2c08b4a99efb","64b003020eef62ee308107cc","64b030f0083ad36903daa977","null","null","<p style=""font-size: 60px; font-family: BACS"">kRCkOBCAd</p>","","","","","","","",""
"html-keyboard-response","144","415745","0.0-9.0-0.56","5f11ccbc1a1a2c08b4a99efb","64b003020eef62ee308107cc","64b030f0083ad36903daa977","null","null","<p style=""font-size: 60px; font-family: BACS"">AmaclrZYd</p>","","","","","","","",""
"html-keyboard-response","145","416756","0.0-9.0-0.57","5f11ccbc1a1a2c08b4a99efb","64b003020eef62ee308107cc","64b030f0083ad36903daa977","null","null","<p style=""font-size: 60px; font-family: BACS"">ctktYht</p>","","","","","","","",""
"html-keyboard-response","146","417773","0.0-9.0-0.58","5f11ccbc1a1a2c08b4a99efb","64b003020eef62ee308107cc","64b030f0083ad36903daa977","null","null","<p style=""font-size: 60px; font-family: BACS"">cuOJbcbm</p>","","","","","","","",""
"html-keyboard-response","147","418790","0.0-9.0-0.59","5f11ccbc1a1a2c08b4a99efb","64b003020eef62ee308107cc","64b030f0083ad36903daa977","null","null","<p style=""font-size: 60px; font-family: BACS"">KDPAYht</p>","","","","","","","",""
"html-keyboard-response","148","419807","0.0-9.0-0.60","5f11ccbc1a1a2c08b4a99efb","64b003020eef62ee308107cc","64b030f0083ad36903daa977","null","null","<p style=""font-size: 60px; font-family: BACS"">kRCkOdPc</p>","","","","","","","",""
"html-keyboard-response","149","420822","0.0-9.0-0.61","5f11ccbc1a1a2c08b4a99efb","64b003020eef62ee308107cc","64b030f0083ad36903daa977","null","null","<p style=""font-size: 60px; font-family: BACS"">dkLlNYZu</p>","","","","","","","",""
"html-keyboard-response","150","421841","0.0-9.0-0.62","5f11ccbc1a1a2c08b4a99efb","64b003020eef62ee308107cc","64b030f0083ad36903daa977","null","null","<p style=""font-size: 60px; font-family: BACS"">RKYkdPc</p>","","","","","","","",""
"html-keyboard-response","151","422850","0.0-9.0-0.63","5f11ccbc1a1a2c08b4a99efb","64b003020eef62ee308107cc","64b030f0083ad36903daa977","null","null","<p style=""font-size: 60px; font-family: BACS"">UdlGQcbm</p>","","","","","","","",""
"html-keyboard-response","152","423856","0.0-9.0-0.64","5f11ccbc1a1a2c08b4a99efb","64b003020eef62ee308107cc","64b030f0083ad36903daa977","null","null","<p style=""font-size: 60px; font-family: BACS"">KDPACKOb</p>","","","","","","","",""
"html-keyboard-response","153","424865","0.0-9.0-0.65","5f11ccbc1a1a2c08b4a99efb","64b003020eef62ee308107cc","64b030f0083ad36903daa977","null","null","<p style=""font-size: 60px; font-family: BACS"">dkLlcbm</p>","","","","","","","",""
"html-keyboard-response","154","425872","0.0-9.0-0.66","5f11ccbc1a1a2c08b4a99efb","64b003020eef62ee308107cc","64b030f0083ad36903daa977","null","null","<p style=""font-size: 60px; font-family: BACS"">BMEMAYht</p>","","","","","","","",""
"html-keyboard-response","155","426882","0.0-9.0-0.67","5f11ccbc1a1a2c08b4a99efb","64b003020eef62ee308107cc","64b030f0083ad36903daa977","null","null","<p style=""font-size: 60px; font-family: BACS"">ctktdPc</p>","","","","","","","",""
"html-keyboard-response","156","427892","0.0-9.0-0.68","5f11ccbc1a1a2c08b4a99efb","64b003020eef62ee308107cc","64b030f0083ad36903daa977","null","null","<p style=""font-size: 60px; font-family: BACS"">GJZmcbm</p>","","","","","","","",""
"html-keyboard-response","157","428905","0.0-9.0-0.69","5f11ccbc1a1a2c08b4a99efb","64b003020eef62ee308107cc","64b030f0083ad36903daa977","null","null","<p style=""font-size: 60px; font-family: BACS"">kRCkOCKOb</p>","","","","","","","",""
"html-keyboard-response","158","429911","0.0-9.0-0.70","5f11ccbc1a1a2c08b4a99efb","64b003020eef62ee308107cc","64b030f0083ad36903daa977","null","null","<p style=""font-size: 60px; font-family: BACS"">YOaAbrGl</p>","","","","","","","",""
"html-keyboard-response","159","430932","0.0-9.0-0.71","5f11ccbc1a1a2c08b4a99efb","64b003020eef62ee308107cc","64b030f0083ad36903daa977","null","null","<p style=""font-size: 60px; font-family: BACS"">DmAMECKOb</p>","","","","","","","",""
"html-keyboard-response","160","431936","0.0-9.0-0.72","5f11ccbc1a1a2c08b4a99efb","64b003020eef62ee308107cc","64b030f0083ad36903daa977","null","null","<p style=""font-size: 60px; font-family: BACS"">RKYkDlDT</p>","","","","","","","",""
"html-keyboard-response","161","432938","0.0-9.0-0.73","5f11ccbc1a1a2c08b4a99efb","64b003020eef62ee308107cc","64b030f0083ad36903daa977","null","null","<p style=""font-size: 60px; font-family: BACS"">GJZmrZYd</p>","","","","","","","",""
"html-keyboard-response","162","433943","0.0-9.0-0.74","5f11ccbc1a1a2c08b4a99efb","64b003020eef62ee308107cc","64b030f0083ad36903daa977","null","null","<p style=""font-size: 60px; font-family: BACS"">lBlEBCAd</p>","","","","","","","",""
"html-keyboard-response","163","434959","0.0-9.0-0.75","5f11ccbc1a1a2c08b4a99efb","64b003020eef62ee308107cc","64b030f0083ad36903daa977","null","null","<p style=""font-size: 60px; font-family: BACS"">GJZmNYZu</p>","","","","","","","",""
"html-keyboard-response","164","435980","0.0-9.0-0.76","5f11ccbc1a1a2c08b4a99efb","64b003020eef62ee308107cc","64b030f0083ad36903daa977","null","null","<p style=""font-size: 60px; font-family: BACS"">UdlGQrZYd</p>","","","","","","","",""
"html-keyboard-response","165","436988","0.0-9.0-0.77","5f11ccbc1a1a2c08b4a99efb","64b003020eef62ee308107cc","64b030f0083ad36903daa977","null","null","<p style=""font-size: 60px; font-family: BACS"">btlckdPc</p>","","","","","","","",""
"html-keyboard-response","166","438002","0.0-9.0-0.78","5f11ccbc1a1a2c08b4a99efb","64b003020eef62ee308107cc","64b030f0083ad36903daa977","null","null","<p style=""font-size: 60px; font-family: BACS"">YOaAbcbm</p>","","","","","","","",""
"html-keyboard-response","167","439005","0.0-9.0-0.79","5f11ccbc1a1a2c08b4a99efb","64b003020eef62ee308107cc","64b030f0083ad36903daa977","null","null","<p style=""font-size: 60px; font-family: BACS"">ctktCKOb</p>","","","","","","","",""
"html-keyboard-response","168","453637","0.0-10.0","5f11ccbc1a1a2c08b4a99efb","64b003020eef62ee308107cc","64b030f0083ad36903daa977","14631"," ","<p>Ottimo, hai visto il secondo blocco di parole. Ora puoi prenderti una piccola pausa.</p>
      <p>Premi la barra quando sei pronta/o per riprendere.</p>","","","","","","","",""
"html-keyboard-response","169","454660","0.0-11.0-0.0","5f11ccbc1a1a2c08b4a99efb","64b003020eef62ee308107cc","64b030f0083ad36903daa977","null","null","<p style=""font-size: 60px; font-family: BACS"">btlckBCAd</p>","","","","","","","",""
"html-keyboard-response","170","455675","0.0-11.0-0.1","5f11ccbc1a1a2c08b4a99efb","64b003020eef62ee308107cc","64b030f0083ad36903daa977","null","null","<p style=""font-size: 60px; font-family: BACS"">lBlEDlDT</p>","","","","","","","",""
"html-keyboard-response","171","456683","0.0-11.0-0.2","5f11ccbc1a1a2c08b4a99efb","64b003020eef62ee308107cc","64b030f0083ad36903daa977","null","null","<p style=""font-size: 60px; font-family: BACS"">BMEMAdPc</p>","","","","","","","",""
"html-keyboard-response","172","457693","0.0-11.0-0.3","5f11ccbc1a1a2c08b4a99efb","64b003020eef62ee308107cc","64b030f0083ad36903daa977","null","null","<p style=""font-size: 60px; font-family: BACS"">kRCkOBCAd</p>","","","","","","","",""
"html-keyboard-response","173","458702","0.0-11.0-0.4","5f11ccbc1a1a2c08b4a99efb","64b003020eef62ee308107cc","64b030f0083ad36903daa977","null","null","<p style=""font-size: 60px; font-family: BACS"">NAacQcbm</p>","","","","","","","",""
"html-keyboard-response","174","459708","0.0-11.0-0.5","5f11ccbc1a1a2c08b4a99efb","64b003020eef62ee308107cc","64b030f0083ad36903daa977","null","null","<p style=""font-size: 60px; font-family: BACS"">vYLUrGl</p>","","","","","","","",""
"html-keyboard-response","175","460715","0.0-11.0-0.6","5f11ccbc1a1a2c08b4a99efb","64b003020eef62ee308107cc","64b030f0083ad36903daa977","null","null","<p style=""font-size: 60px; font-family: BACS"">NAacQrZYd</p>","","","","","","","",""
"html-keyboard-response","176","461741","0.0-11.0-0.7","5f11ccbc1a1a2c08b4a99efb","64b003020eef62ee308107cc","64b030f0083ad36903daa977","null","null","<p style=""font-size: 60px; font-family: BACS"">AmaclrGl</p>","","","","","","","",""
"html-keyboard-response","177","462749","0.0-11.0-0.8","5f11ccbc1a1a2c08b4a99efb","64b003020eef62ee308107cc","64b030f0083ad36903daa977","null","null","<p style=""font-size: 60px; font-family: BACS"">GJZmravu</p>","","","","","","","",""
"html-keyboard-response","178","463762","0.0-11.0-0.9","5f11ccbc1a1a2c08b4a99efb","64b003020eef62ee308107cc","64b030f0083ad36903daa977","null","null","<p style=""font-size: 60px; font-family: BACS"">RKYkDlDT</p>","","","","","","","",""
"html-keyboard-response","179","464778","0.0-11.0-0.10","5f11ccbc1a1a2c08b4a99efb","64b003020eef62ee308107cc","64b030f0083ad36903daa977","null","null","<p style=""font-size: 60px; font-family: BACS"">dkLlrGl</p>","","","","","","","",""
"html-keyboard-response","180","465793","0.0-11.0-0.11","5f11ccbc1a1a2c08b4a99efb","64b003020eef62ee308107cc","64b030f0083ad36903daa977","null","null","<p style=""font-size: 60px; font-family: BACS"">lBlEYht</p>","","","","","","","",""
"html-keyboard-response","181","466809","0.0-11.0-0.12","5f11ccbc1a1a2c08b4a99efb","64b003020eef62ee308107cc","64b030f0083ad36903daa977","null","null","<p style=""font-size: 60px; font-family: BACS"">btlckdPc</p>","","","","","","","",""
"html-keyboard-response","182","467813","0.0-11.0-0.13","5f11ccbc1a1a2c08b4a99efb","64b003020eef62ee308107cc","64b030f0083ad36903daa977","null","null","<p style=""font-size: 60px; font-family: BACS"">dkLlcbm</p>","","","","","","","",""
"html-keyboard-response","183","468822","0.0-11.0-0.14","5f11ccbc1a1a2c08b4a99efb","64b003020eef62ee308107cc","64b030f0083ad36903daa977","null","null","<p style=""font-size: 60px; font-family: BACS"">BMEMABCAd</p>","","","","","","","",""
"html-keyboard-response","184","469832","0.0-11.0-0.15","5f11ccbc1a1a2c08b4a99efb","64b003020eef62ee308107cc","64b030f0083ad36903daa977","null","null","<p style=""font-size: 60px; font-family: BACS"">vuJZucbm</p>","","","","","","","",""
"html-keyboard-response","185","471089","0.0-11.0-0.16","5f11ccbc1a1a2c08b4a99efb","64b003020eef62ee308107cc","64b030f0083ad36903daa977","null","null","<p style=""font-size: 60px; font-family: BACS"">cuOJbrGl</p>","","","","","","","",""
"html-keyboard-response","186","472097","0.0-11.0-0.17","5f11ccbc1a1a2c08b4a99efb","64b003020eef62ee308107cc","64b030f0083ad36903daa977","null","null","<p style=""font-size: 60px; font-family: BACS"">GJZmcbm</p>","","","","","","","",""
"html-keyboard-response","187","473120","0.0-11.0-0.18","5f11ccbc1a1a2c08b4a99efb","64b003020eef62ee308107cc","64b030f0083ad36903daa977","null","null","<p style=""font-size: 60px; font-family: BACS"">KdARCKOb</p>","","","","","","","",""
"html-keyboard-response","188","474136","0.0-11.0-0.19","5f11ccbc1a1a2c08b4a99efb","64b003020eef62ee308107cc","64b030f0083ad36903daa977","null","null","<p style=""font-size: 60px; font-family: BACS"">GabkrGl</p>","","","","","","","",""
"html-keyboard-response","189","475153","0.0-11.0-0.20","5f11ccbc1a1a2c08b4a99efb","64b003020eef62ee308107cc","64b030f0083ad36903daa977","null","null","<p style=""font-size: 60px; font-family: BACS"">YOaAbcbm</p>","","","","","","","",""
"html-keyboard-response","190","476170","0.0-11.0-0.21","5f11ccbc1a1a2c08b4a99efb","64b003020eef62ee308107cc","64b030f0083ad36903daa977","null","null","<p style=""font-size: 60px; font-family: BACS"">Gabkravu</p>","","","","","","","",""
"html-keyboard-response","191","477192","0.0-11.0-0.22","5f11ccbc1a1a2c08b4a99efb","64b003020eef62ee308107cc","64b030f0083ad36903daa977","null","null","<p style=""font-size: 60px; font-family: BACS"">kRCkOdPc</p>","","","","","","","",""
"html-keyboard-response","192","478202","0.0-11.0-0.23","5f11ccbc1a1a2c08b4a99efb","64b003020eef62ee308107cc","64b030f0083ad36903daa977","null","null","<p style=""font-size: 60px; font-family: BACS"">YOaAbravu</p>","","","","","","","",""
"html-keyboard-response","193","479213","0.0-11.0-0.24","5f11ccbc1a1a2c08b4a99efb","64b003020eef62ee308107cc","64b030f0083ad36903daa977","null","null","<p style=""font-size: 60px; font-family: BACS"">lBlEBCAd</p>","","","","","","","",""
"html-keyboard-response","194","480219","0.0-11.0-0.25","5f11ccbc1a1a2c08b4a99efb","64b003020eef62ee308107cc","64b030f0083ad36903daa977","null","null","<p style=""font-size: 60px; font-family: BACS"">kRCkODlDT</p>","","","","","","","",""
"html-keyboard-response","195","481230","0.0-11.0-0.26","5f11ccbc1a1a2c08b4a99efb","64b003020eef62ee308107cc","64b030f0083ad36903daa977","null","null","<p style=""font-size: 60px; font-family: BACS"">RKYkBCAd</p>","","","","","","","",""
"html-keyboard-response","196","482236","0.0-11.0-0.27","5f11ccbc1a1a2c08b4a99efb","64b003020eef62ee308107cc","64b030f0083ad36903daa977","null","null","<p style=""font-size: 60px; font-family: BACS"">vYLUcbm</p>","","","","","","","",""
"html-keyboard-response","197","483252","0.0-11.0-0.28","5f11ccbc1a1a2c08b4a99efb","64b003020eef62ee308107cc","64b030f0083ad36903daa977","null","null","<p style=""font-size: 60px; font-family: BACS"">vuJZurZYd</p>","","","","","","","",""
"html-keyboard-response","198","484257","0.0-11.0-0.29","5f11ccbc1a1a2c08b4a99efb","64b003020eef62ee308107cc","64b030f0083ad36903daa977","null","null","<p style=""font-size: 60px; font-family: BACS"">cuOJbNYZu</p>","","","","","","","",""
"html-keyboard-response","199","485273","0.0-11.0-0.30","5f11ccbc1a1a2c08b4a99efb","64b003020eef62ee308107cc","64b030f0083ad36903daa977","null","null","<p style=""font-size: 60px; font-family: BACS"">KDPABCAd</p>","","","","","","","",""
"html-keyboard-response","200","486281","0.0-11.0-0.31","5f11ccbc1a1a2c08b4a99efb","64b003020eef62ee308107cc","64b030f0083ad36903daa977","null","null","<p style=""font-size: 60px; font-family: BACS"">vYLUrZYd</p>","","","","","","","",""
"html-keyboard-response","201","487284","0.0-11.0-0.32","5f11ccbc1a1a2c08b4a99efb","64b003020eef62ee308107cc","64b030f0083ad36903daa977","null","null","<p style=""font-size: 60px; font-family: BACS"">dkLlNYZu</p>","","","","","","","",""
"html-keyboard-response","202","488300","0.0-11.0-0.33","5f11ccbc1a1a2c08b4a99efb","64b003020eef62ee308107cc","64b030f0083ad36903daa977","null","null","<p style=""font-size: 60px; font-family: BACS"">YOaAbrGl</p>","","","","","","","",""
"html-keyboard-response","203","489308","0.0-11.0-0.34","5f11ccbc1a1a2c08b4a99efb","64b003020eef62ee308107cc","64b030f0083ad36903daa977","null","null","<p style=""font-size: 60px; font-family: BACS"">ctktDlDT</p>","","","","","","","",""
"html-keyboard-response","204","490323","0.0-11.0-0.35","5f11ccbc1a1a2c08b4a99efb","64b003020eef62ee308107cc","64b030f0083ad36903daa977","null","null","<p style=""font-size: 60px; font-family: BACS"">DmAMECKOb</p>","","","","","","","",""
"html-keyboard-response","205","491339","0.0-11.0-0.36","5f11ccbc1a1a2c08b4a99efb","64b003020eef62ee308107cc","64b030f0083ad36903daa977","null","null","<p style=""font-size: 60px; font-family: BACS"">dkLlravu</p>","","","","","","","",""
"html-keyboard-response","206","492354","0.0-11.0-0.37","5f11ccbc1a1a2c08b4a99efb","64b003020eef62ee308107cc","64b030f0083ad36903daa977","null","null","<p style=""font-size: 60px; font-family: BACS"">ctktYht</p>","","","","","","","",""
"html-keyboard-response","207","493366","0.0-11.0-0.38","5f11ccbc1a1a2c08b4a99efb","64b003020eef62ee308107cc","64b030f0083ad36903daa977","null","null","<p style=""font-size: 60px; font-family: BACS"">RKYkCKOb</p>","","","","","","","",""
"html-keyboard-response","208","494382","0.0-11.0-0.39","5f11ccbc1a1a2c08b4a99efb","64b003020eef62ee308107cc","64b030f0083ad36903daa977","null","null","<p style=""font-size: 60px; font-family: BACS"">Amaclravu</p>","","","","","","","",""
"html-keyboard-response","209","495401","0.0-11.0-0.40","5f11ccbc1a1a2c08b4a99efb","64b003020eef62ee308107cc","64b030f0083ad36903daa977","null","null","<p style=""font-size: 60px; font-family: BACS"">KdARdPc</p>","","","","","","","",""
"html-keyboard-response","210","496412","0.0-11.0-0.41","5f11ccbc1a1a2c08b4a99efb","64b003020eef62ee308107cc","64b030f0083ad36903daa977","null","null","<p style=""font-size: 60px; font-family: BACS"">AmaclrZYd</p>","","","","","","","",""
"html-keyboard-response","211","497424","0.0-11.0-0.42","5f11ccbc1a1a2c08b4a99efb","64b003020eef62ee308107cc","64b030f0083ad36903daa977","null","null","<p style=""font-size: 60px; font-family: BACS"">ctktCKOb</p>","","","","","","","",""
"html-keyboard-response","212","498426","0.0-11.0-0.43","5f11ccbc1a1a2c08b4a99efb","64b003020eef62ee308107cc","64b030f0083ad36903daa977","null","null","<p style=""font-size: 60px; font-family: BACS"">PMPtkBCAd</p>","","","","","","","",""
"html-keyboard-response","213","499442","0.0-11.0-0.44","5f11ccbc1a1a2c08b4a99efb","64b003020eef62ee308107cc","64b030f0083ad36903daa977","null","null","<p style=""font-size: 60px; font-family: BACS"">KDPAYht</p>","","","","","","","",""
"html-keyboard-response","214","500457","0.0-11.0-0.45","5f11ccbc1a1a2c08b4a99efb","64b003020eef62ee308107cc","64b030f0083ad36903daa977","null","null","<p style=""font-size: 60px; font-family: BACS"">cuOJbcbm</p>","","","","","","","",""
"html-keyboard-response","215","501465","0.0-11.0-0.46","5f11ccbc1a1a2c08b4a99efb","64b003020eef62ee308107cc","64b030f0083ad36903daa977","null","null","<p style=""font-size: 60px; font-family: BACS"">UdlGQNYZu</p>","","","","","","","",""
"html-keyboard-response","216","502472","0.0-11.0-0.47","5f11ccbc1a1a2c08b4a99efb","64b003020eef62ee308107cc","64b030f0083ad36903daa977","null","null","<p style=""font-size: 60px; font-family: BACS"">KDPADlDT</p>","","","","","","","",""
"html-keyboard-response","217","503489","0.0-11.0-0.48","5f11ccbc1a1a2c08b4a99efb","64b003020eef62ee308107cc","64b030f0083ad36903daa977","null","null","<p style=""font-size: 60px; font-family: BACS"">GabkNYZu</p>","","","","","","","",""
"html-keyboard-response","218","504506","0.0-11.0-0.49","5f11ccbc1a1a2c08b4a99efb","64b003020eef62ee308107cc","64b030f0083ad36903daa977","null","null","<p style=""font-size: 60px; font-family: BACS"">kRCkOCKOb</p>","","","","","","","",""
"html-keyboard-response","219","505520","0.0-11.0-0.50","5f11ccbc1a1a2c08b4a99efb","64b003020eef62ee308107cc","64b030f0083ad36903daa977","null","null","<p style=""font-size: 60px; font-family: BACS"">PMPtkYht</p>","","","","","","","",""
"html-keyboard-response","220","506536","0.0-11.0-0.51","5f11ccbc1a1a2c08b4a99efb","64b003020eef62ee308107cc","64b030f0083ad36903daa977","null","null","<p style=""font-size: 60px; font-family: BACS"">NAacQrGl</p>","","","","","","","",""
"html-keyboard-response","221","507542","0.0-11.0-0.52","5f11ccbc1a1a2c08b4a99efb","64b003020eef62ee308107cc","64b030f0083ad36903daa977","null","null","<p style=""font-size: 60px; font-family: BACS"">KdARYht</p>","","","","","","","",""
"html-keyboard-response","222","508562","0.0-11.0-0.53","5f11ccbc1a1a2c08b4a99efb","64b003020eef62ee308107cc","64b030f0083ad36903daa977","null","null","<p style=""font-size: 60px; font-family: BACS"">vYLUravu</p>","","","","","","","",""
"html-keyboard-response","223","509570","0.0-11.0-0.54","5f11ccbc1a1a2c08b4a99efb","64b003020eef62ee308107cc","64b030f0083ad36903daa977","null","null","<p style=""font-size: 60px; font-family: BACS"">YOaAbrZYd</p>","","","","","","","",""
"html-keyboard-response","224","510588","0.0-11.0-0.55","5f11ccbc1a1a2c08b4a99efb","64b003020eef62ee308107cc","64b030f0083ad36903daa977","null","null","<p style=""font-size: 60px; font-family: BACS"">KdARBCAd</p>","","","","","","","",""
"html-keyboard-response","225","511602","0.0-11.0-0.56","5f11ccbc1a1a2c08b4a99efb","64b003020eef62ee308107cc","64b030f0083ad36903daa977","null","null","<p style=""font-size: 60px; font-family: BACS"">PMPtkDlDT</p>","","","","","","","",""
"html-keyboard-response","226","512611","0.0-11.0-0.57","5f11ccbc1a1a2c08b4a99efb","64b003020eef62ee308107cc","64b030f0083ad36903daa977","null","null","<p style=""font-size: 60px; font-family: BACS"">UdlGQcbm</p>","","","","","","","",""
"html-keyboard-response","227","513627","0.0-11.0-0.58","5f11ccbc1a1a2c08b4a99efb","64b003020eef62ee308107cc","64b030f0083ad36903daa977","null","null","<p style=""font-size: 60px; font-family: BACS"">ctktdPc</p>","","","","","","","",""
"html-keyboard-response","228","514645","0.0-11.0-0.59","5f11ccbc1a1a2c08b4a99efb","64b003020eef62ee308107cc","64b030f0083ad36903daa977","null","null","<p style=""font-size: 60px; font-family: BACS"">PMPtkCKOb</p>","","","","","","","",""
"html-keyboard-response","229","515653","0.0-11.0-0.60","5f11ccbc1a1a2c08b4a99efb","64b003020eef62ee308107cc","64b030f0083ad36903daa977","null","null","<p style=""font-size: 60px; font-family: BACS"">AmaclNYZu</p>","","","","","","","",""
"html-keyboard-response","230","516669","0.0-11.0-0.61","5f11ccbc1a1a2c08b4a99efb","64b003020eef62ee308107cc","64b030f0083ad36903daa977","null","null","<p style=""font-size: 60px; font-family: BACS"">BMEMAYht</p>","","","","","","","",""
"html-keyboard-response","231","517676","0.0-11.0-0.62","5f11ccbc1a1a2c08b4a99efb","64b003020eef62ee308107cc","64b030f0083ad36903daa977","null","null","<p style=""font-size: 60px; font-family: BACS"">GJZmrZYd</p>","","","","","","","",""
"html-keyboard-response","232","518693","0.0-11.0-0.63","5f11ccbc1a1a2c08b4a99efb","64b003020eef62ee308107cc","64b030f0083ad36903daa977","null","null","<p style=""font-size: 60px; font-family: BACS"">DmAMEYht</p>","","","","","","","",""
"html-keyboard-response","233","519699","0.0-11.0-0.64","5f11ccbc1a1a2c08b4a99efb","64b003020eef62ee308107cc","64b030f0083ad36903daa977","null","null","<p style=""font-size: 60px; font-family: BACS"">GJZmNYZu</p>","","","","","","","",""
"html-keyboard-response","234","520716","0.0-11.0-0.65","5f11ccbc1a1a2c08b4a99efb","64b003020eef62ee308107cc","64b030f0083ad36903daa977","null","null","<p style=""font-size: 60px; font-family: BACS"">UdlGQrZYd</p>","","","","","","","",""
"html-keyboard-response","235","521735","0.0-11.0-0.66","5f11ccbc1a1a2c08b4a99efb","64b003020eef62ee308107cc","64b030f0083ad36903daa977","null","null","<p style=""font-size: 60px; font-family: BACS"">DmAMEDlDT</p>","","","","","","","",""
"html-keyboard-response","236","522744","0.0-11.0-0.67","5f11ccbc1a1a2c08b4a99efb","64b003020eef62ee308107cc","64b030f0083ad36903daa977","null","null","<p style=""font-size: 60px; font-family: BACS"">RKYkdPc</p>","","","","","","","",""
"html-keyboard-response","237","524089","0.0-11.0-0.68","5f11ccbc1a1a2c08b4a99efb","64b003020eef62ee308107cc","64b030f0083ad36903daa977","null","null","<p style=""font-size: 60px; font-family: BACS"">GabkrZYd</p>","","","","","","","",""
"html-keyboard-response","238","525092","0.0-11.0-0.69","5f11ccbc1a1a2c08b4a99efb","64b003020eef62ee308107cc","64b030f0083ad36903daa977","null","null","<p style=""font-size: 60px; font-family: BACS"">KDPACKOb</p>","","","","","","","",""
"html-keyboard-response","239","526107","0.0-11.0-0.70","5f11ccbc1a1a2c08b4a99efb","64b003020eef62ee308107cc","64b030f0083ad36903daa977","null","null","<p style=""font-size: 60px; font-family: BACS"">lBlEdPc</p>","","","","","","","",""
"html-keyboard-response","240","528092","0.0-11.0-0.71","5f11ccbc1a1a2c08b4a99efb","64b003020eef62ee308107cc","64b030f0083ad36903daa977","null","null","<p style=""font-size: 60px; font-family: BACS"">vuJZuNYZu</p>","","","","","","","",""
"html-keyboard-response","241","529093","0.0-11.0-0.72","5f11ccbc1a1a2c08b4a99efb","64b003020eef62ee308107cc","64b030f0083ad36903daa977","null","null","<p style=""font-size: 60px; font-family: BACS"">BMEMACKOb</p>","","","","","","","",""
"html-keyboard-response","242","530107","0.0-11.0-0.73","5f11ccbc1a1a2c08b4a99efb","64b003020eef62ee308107cc","64b030f0083ad36903daa977","null","null","<p style=""font-size: 60px; font-family: BACS"">NAacQNYZu</p>","","","","","","","",""
"html-keyboard-response","243","531118","0.0-11.0-0.74","5f11ccbc1a1a2c08b4a99efb","64b003020eef62ee308107cc","64b030f0083ad36903daa977","null","null","<p style=""font-size: 60px; font-family: BACS"">cuOJbravu</p>","","","","","","","",""
"html-keyboard-response","244","532121","0.0-11.0-0.75","5f11ccbc1a1a2c08b4a99efb","64b003020eef62ee308107cc","64b030f0083ad36903daa977","null","null","<p style=""font-size: 60px; font-family: BACS"">btlckYht</p>","","","","","","","",""
"html-keyboard-response","245","533133","0.0-11.0-0.76","5f11ccbc1a1a2c08b4a99efb","64b003020eef62ee308107cc","64b030f0083ad36903daa977","null","null","<p style=""font-size: 60px; font-family: BACS"">DmAMEdPc</p>","","","","","","","",""
"html-keyboard-response","246","534156","0.0-11.0-0.77","5f11ccbc1a1a2c08b4a99efb","64b003020eef62ee308107cc","64b030f0083ad36903daa977","null","null","<p style=""font-size: 60px; font-family: BACS"">vuJZurGl</p>","","","","","","","",""
"html-keyboard-response","247","535164","0.0-11.0-0.78","5f11ccbc1a1a2c08b4a99efb","64b003020eef62ee308107cc","64b030f0083ad36903daa977","null","null","<p style=""font-size: 60px; font-family: BACS"">btlckDlDT</p>","","","","","","","",""
"html-keyboard-response","248","536167","0.0-11.0-0.79","5f11ccbc1a1a2c08b4a99efb","64b003020eef62ee308107cc","64b030f0083ad36903daa977","null","null","<p style=""font-size: 60px; font-family: BACS"">UdlGQravu</p>","","","","","","","",""
"html-keyboard-response","249","779043","0.0-12.0","5f11ccbc1a1a2c08b4a99efb","64b003020eef62ee308107cc","64b030f0083ad36903daa977","242876"," ","<p>Ottimo, hai visto il terzo blocco di parole. Ora puoi prenderti una piccola pausa.</p>
      <p>Premi la barra quando sei pronta/o per riprendere.</p>","","","","","","","",""
"html-keyboard-response","250","780048","0.0-13.0-0.0","5f11ccbc1a1a2c08b4a99efb","64b003020eef62ee308107cc","64b030f0083ad36903daa977","null","null","<p style=""font-size: 60px; font-family: BACS"">kRCkOdPc</p>","","","","","","","",""
"html-keyboard-response","251","781051","0.0-13.0-0.1","5f11ccbc1a1a2c08b4a99efb","64b003020eef62ee308107cc","64b030f0083ad36903daa977","null","null","<p style=""font-size: 60px; font-family: BACS"">DmAMEDlDT</p>","","","","","","","",""
"html-keyboard-response","252","782075","0.0-13.0-0.2","5f11ccbc1a1a2c08b4a99efb","64b003020eef62ee308107cc","64b030f0083ad36903daa977","null","null","<p style=""font-size: 60px; font-family: BACS"">vuJZucbm</p>","","","","","","","",""
"html-keyboard-response","253","784089","0.0-13.0-0.3","5f11ccbc1a1a2c08b4a99efb","64b003020eef62ee308107cc","64b030f0083ad36903daa977","null","null","<p style=""font-size: 60px; font-family: BACS"">KDPADlDT</p>","","","","","","","",""
"html-keyboard-response","254","785112","0.0-13.0-0.4","5f11ccbc1a1a2c08b4a99efb","64b003020eef62ee308107cc","64b030f0083ad36903daa977","null","null","<p style=""font-size: 60px; font-family: BACS"">lBlEYht</p>","","","","","","","",""
"html-keyboard-response","255","787102","0.0-13.0-0.5","5f11ccbc1a1a2c08b4a99efb","64b003020eef62ee308107cc","64b030f0083ad36903daa977","null","null","<p style=""font-size: 60px; font-family: BACS"">vYLUravu</p>","","","","","","","",""
"html-keyboard-response","256","789086","0.0-13.0-0.6","5f11ccbc1a1a2c08b4a99efb","64b003020eef62ee308107cc","64b030f0083ad36903daa977","null","null","<p style=""font-size: 60px; font-family: BACS"">PMPtkCKOb</p>","","","","","","","",""
"html-keyboard-response","257","790098","0.0-13.0-0.7","5f11ccbc1a1a2c08b4a99efb","64b003020eef62ee308107cc","64b030f0083ad36903daa977","null","null","<p style=""font-size: 60px; font-family: BACS"">UdlGQcbm</p>","","","","","","","",""
"html-keyboard-response","258","792092","0.0-13.0-0.8","5f11ccbc1a1a2c08b4a99efb","64b003020eef62ee308107cc","64b030f0083ad36903daa977","null","null","<p style=""font-size: 60px; font-family: BACS"">KDPAYht</p>","","","","","","","",""
"html-keyboard-response","259","793109","0.0-13.0-0.9","5f11ccbc1a1a2c08b4a99efb","64b003020eef62ee308107cc","64b030f0083ad36903daa977","null","null","<p style=""font-size: 60px; font-family: BACS"">kRCkODlDT</p>","","","","","","","",""
"html-keyboard-response","260","795091","0.0-13.0-0.10","5f11ccbc1a1a2c08b4a99efb","64b003020eef62ee308107cc","64b030f0083ad36903daa977","null","null","<p style=""font-size: 60px; font-family: BACS"">UdlGQNYZu</p>","","","","","","","",""
"html-keyboard-response","261","796106","0.0-13.0-0.11","5f11ccbc1a1a2c08b4a99efb","64b003020eef62ee308107cc","64b030f0083ad36903daa977","null","null","<p style=""font-size: 60px; font-family: BACS"">RKYkBCAd</p>","","","","","","","",""
"html-keyboard-response","262","798091","0.0-13.0-0.12","5f11ccbc1a1a2c08b4a99efb","64b003020eef62ee308107cc","64b030f0083ad36903daa977","null","null","<p style=""font-size: 60px; font-family: BACS"">cuOJbNYZu</p>","","","","","","","",""
"html-keyboard-response","263","799107","0.0-13.0-0.13","5f11ccbc1a1a2c08b4a99efb","64b003020eef62ee308107cc","64b030f0083ad36903daa977","null","null","<p style=""font-size: 60px; font-family: BACS"">lBlEdPc</p>","","","","","","","",""
"html-keyboard-response","264","801094","0.0-13.0-0.14","5f11ccbc1a1a2c08b4a99efb","64b003020eef62ee308107cc","64b030f0083ad36903daa977","null","null","<p style=""font-size: 60px; font-family: BACS"">KdARYht</p>","","","","","","","",""
"html-keyboard-response","265","803091","0.0-13.0-0.15","5f11ccbc1a1a2c08b4a99efb","64b003020eef62ee308107cc","64b030f0083ad36903daa977","null","null","<p style=""font-size: 60px; font-family: BACS"">GabkNYZu</p>","","","","","","","",""
"html-keyboard-response","266","804106","0.0-13.0-0.16","5f11ccbc1a1a2c08b4a99efb","64b003020eef62ee308107cc","64b030f0083ad36903daa977","null","null","<p style=""font-size: 60px; font-family: BACS"">vYLUcbm</p>","","","","","","","",""
"html-keyboard-response","267","805123","0.0-13.0-0.17","5f11ccbc1a1a2c08b4a99efb","64b003020eef62ee308107cc","64b030f0083ad36903daa977","null","null","<p style=""font-size: 60px; font-family: BACS"">KDPACKOb</p>","","","","","","","",""
"html-keyboard-response","268","806136","0.0-13.0-0.18","5f11ccbc1a1a2c08b4a99efb","64b003020eef62ee308107cc","64b030f0083ad36903daa977","null","null","<p style=""font-size: 60px; font-family: BACS"">lBlEDlDT</p>","","","","","","","",""
"html-keyboard-response","269","807149","0.0-13.0-0.19","5f11ccbc1a1a2c08b4a99efb","64b003020eef62ee308107cc","64b030f0083ad36903daa977","null","null","<p style=""font-size: 60px; font-family: BACS"">cuOJbcbm</p>","","","","","","","",""
"html-keyboard-response","270","808155","0.0-13.0-0.20","5f11ccbc1a1a2c08b4a99efb","64b003020eef62ee308107cc","64b030f0083ad36903daa977","null","null","<p style=""font-size: 60px; font-family: BACS"">btlckdPc</p>","","","","","","","",""
"html-keyboard-response","271","809171","0.0-13.0-0.21","5f11ccbc1a1a2c08b4a99efb","64b003020eef62ee308107cc","64b030f0083ad36903daa977","null","null","<p style=""font-size: 60px; font-family: BACS"">YOaAbrGl</p>","","","","","","","",""
"html-keyboard-response","272","810187","0.0-13.0-0.22","5f11ccbc1a1a2c08b4a99efb","64b003020eef62ee308107cc","64b030f0083ad36903daa977","null","null","<p style=""font-size: 60px; font-family: BACS"">btlckYht</p>","","","","","","","",""
"html-keyboard-response","273","812088","0.0-13.0-0.23","5f11ccbc1a1a2c08b4a99efb","64b003020eef62ee308107cc","64b030f0083ad36903daa977","null","null","<p style=""font-size: 60px; font-family: BACS"">AmaclrGl</p>","","","","","","","",""
"html-keyboard-response","274","813104","0.0-13.0-0.24","5f11ccbc1a1a2c08b4a99efb","64b003020eef62ee308107cc","64b030f0083ad36903daa977","null","null","<p style=""font-size: 60px; font-family: BACS"">cuOJbravu</p>","","","","","","","",""
"html-keyboard-response","275","815087","0.0-13.0-0.25","5f11ccbc1a1a2c08b4a99efb","64b003020eef62ee308107cc","64b030f0083ad36903daa977","null","null","<p style=""font-size: 60px; font-family: BACS"">PMPtkBCAd</p>","","","","","","","",""
"html-keyboard-response","276","816103","0.0-13.0-0.26","5f11ccbc1a1a2c08b4a99efb","64b003020eef62ee308107cc","64b030f0083ad36903daa977","null","null","<p style=""font-size: 60px; font-family: BACS"">BMEMACKOb</p>","","","","","","","",""
"html-keyboard-response","277","818086","0.0-13.0-0.27","5f11ccbc1a1a2c08b4a99efb","64b003020eef62ee308107cc","64b030f0083ad36903daa977","null","null","<p style=""font-size: 60px; font-family: BACS"">ctktdPc</p>","","","","","","","",""
"html-keyboard-response","278","819103","0.0-13.0-0.28","5f11ccbc1a1a2c08b4a99efb","64b003020eef62ee308107cc","64b030f0083ad36903daa977","null","null","<p style=""font-size: 60px; font-family: BACS"">PMPtkDlDT</p>","","","","","","","",""
"html-keyboard-response","279","821086","0.0-13.0-0.29","5f11ccbc1a1a2c08b4a99efb","64b003020eef62ee308107cc","64b030f0083ad36903daa977","null","null","<p style=""font-size: 60px; font-family: BACS"">NAacQrZYd</p>","","","","","","","",""
"html-keyboard-response","280","822102","0.0-13.0-0.30","5f11ccbc1a1a2c08b4a99efb","64b003020eef62ee308107cc","64b030f0083ad36903daa977","null","null","<p style=""font-size: 60px; font-family: BACS"">GJZmNYZu</p>","","","","","","","",""
"html-keyboard-response","281","824085","0.0-13.0-0.31","5f11ccbc1a1a2c08b4a99efb","64b003020eef62ee308107cc","64b030f0083ad36903daa977","null","null","<p style=""font-size: 60px; font-family: BACS"">dkLlcbm</p>","","","","","","","",""
"html-keyboard-response","282","825101","0.0-13.0-0.32","5f11ccbc1a1a2c08b4a99efb","64b003020eef62ee308107cc","64b030f0083ad36903daa977","null","null","<p style=""font-size: 60px; font-family: BACS"">cuOJbrGl</p>","","","","","","","",""
"html-keyboard-response","283","827100","0.0-13.0-0.33","5f11ccbc1a1a2c08b4a99efb","64b003020eef62ee308107cc","64b030f0083ad36903daa977","null","null","<p style=""font-size: 60px; font-family: BACS"">btlckDlDT</p>","","","","","","","",""
"html-keyboard-response","284","828117","0.0-13.0-0.34","5f11ccbc1a1a2c08b4a99efb","64b003020eef62ee308107cc","64b030f0083ad36903daa977","null","null","<p style=""font-size: 60px; font-family: BACS"">YOaAbravu</p>","","","","","","","",""
"html-keyboard-response","285","830100","0.0-13.0-0.35","5f11ccbc1a1a2c08b4a99efb","64b003020eef62ee308107cc","64b030f0083ad36903daa977","null","null","<p style=""font-size: 60px; font-family: BACS"">BMEMABCAd</p>","","","","","","","",""
"html-keyboard-response","286","832099","0.0-13.0-0.36","5f11ccbc1a1a2c08b4a99efb","64b003020eef62ee308107cc","64b030f0083ad36903daa977","null","null","<p style=""font-size: 60px; font-family: BACS"">GJZmcbm</p>","","","","","","","",""
"html-keyboard-response","287","833951","0.0-13.0-0.37","5f11ccbc1a1a2c08b4a99efb","64b003020eef62ee308107cc","64b030f0083ad36903daa977","null","null","<p style=""font-size: 60px; font-family: BACS"">vYLUrGl</p>","","","","","","","",""
"html-keyboard-response","288","834956","0.0-13.0-0.38","5f11ccbc1a1a2c08b4a99efb","64b003020eef62ee308107cc","64b030f0083ad36903daa977","null","null","<p style=""font-size: 60px; font-family: BACS"">NAacQNYZu</p>","","","","","","","",""
"html-keyboard-response","289","836093","0.0-13.0-0.39","5f11ccbc1a1a2c08b4a99efb","64b003020eef62ee308107cc","64b030f0083ad36903daa977","null","null","<p style=""font-size: 60px; font-family: BACS"">dkLlravu</p>","","","","","","","",""
"html-keyboard-response","290","837102","0.0-13.0-0.40","5f11ccbc1a1a2c08b4a99efb","64b003020eef62ee308107cc","64b030f0083ad36903daa977","null","null","<p style=""font-size: 60px; font-family: BACS"">GabkrZYd</p>","","","","","","","",""
"html-keyboard-response","291","839097","0.0-13.0-0.41","5f11ccbc1a1a2c08b4a99efb","64b003020eef62ee308107cc","64b030f0083ad36903daa977","null","null","<p style=""font-size: 60px; font-family: BACS"">NAacQcbm</p>","","","","","","","",""
"html-keyboard-response","292","840101","0.0-13.0-0.42","5f11ccbc1a1a2c08b4a99efb","64b003020eef62ee308107cc","64b030f0083ad36903daa977","null","null","<p style=""font-size: 60px; font-family: BACS"">vuJZurGl</p>","","","","","","","",""
"html-keyboard-response","293","842091","0.0-13.0-0.43","5f11ccbc1a1a2c08b4a99efb","64b003020eef62ee308107cc","64b030f0083ad36903daa977","null","null","<p style=""font-size: 60px; font-family: BACS"">DmAMEYht</p>","","","","","","","",""
"html-keyboard-response","294","843099","0.0-13.0-0.44","5f11ccbc1a1a2c08b4a99efb","64b003020eef62ee308107cc","64b030f0083ad36903daa977","null","null","<p style=""font-size: 60px; font-family: BACS"">KdARBCAd</p>","","","","","","","",""
"html-keyboard-response","295","844103","0.0-13.0-0.45","5f11ccbc1a1a2c08b4a99efb","64b003020eef62ee308107cc","64b030f0083ad36903daa977","null","null","<p style=""font-size: 60px; font-family: BACS"">NAacQrGl</p>","","","","","","","",""
"html-keyboard-response","296","845107","0.0-13.0-0.46","5f11ccbc1a1a2c08b4a99efb","64b003020eef62ee308107cc","64b030f0083ad36903daa977","null","null","<p style=""font-size: 60px; font-family: BACS"">DmAMECKOb</p>","","","","","","","",""
"html-keyboard-response","297","846115","0.0-13.0-0.47","5f11ccbc1a1a2c08b4a99efb","64b003020eef62ee308107cc","64b030f0083ad36903daa977","null","null","<p style=""font-size: 60px; font-family: BACS"">KdARdPc</p>","","","","","","","",""
"html-keyboard-response","298","848086","0.0-13.0-0.48","5f11ccbc1a1a2c08b4a99efb","64b003020eef62ee308107cc","64b030f0083ad36903daa977","null","null","<p style=""font-size: 60px; font-family: BACS"">ctktYht</p>","","","","","","","",""
"html-keyboard-response","299","849094","0.0-13.0-0.49","5f11ccbc1a1a2c08b4a99efb","64b003020eef62ee308107cc","64b030f0083ad36903daa977","null","null","<p style=""font-size: 60px; font-family: BACS"">YOaAbcbm</p>","","","","","","","",""
"html-keyboard-response","300","850102","0.0-13.0-0.50","5f11ccbc1a1a2c08b4a99efb","64b003020eef62ee308107cc","64b030f0083ad36903daa977","null","null","<p style=""font-size: 60px; font-family: BACS"">kRCkOCKOb</p>","","","","","","","",""
"html-keyboard-response","301","852094","0.0-13.0-0.51","5f11ccbc1a1a2c08b4a99efb","64b003020eef62ee308107cc","64b030f0083ad36903daa977","null","null","<p style=""font-size: 60px; font-family: BACS"">DmAMEdPc</p>","","","","","","","",""
"html-keyboard-response","302","853110","0.0-13.0-0.52","5f11ccbc1a1a2c08b4a99efb","64b003020eef62ee308107cc","64b030f0083ad36903daa977","null","null","<p style=""font-size: 60px; font-family: BACS"">PMPtkYht</p>","","","","","","","",""
"html-keyboard-response","303","855087","0.0-13.0-0.53","5f11ccbc1a1a2c08b4a99efb","64b003020eef62ee308107cc","64b030f0083ad36903daa977","null","null","<p style=""font-size: 60px; font-family: BACS"">Amaclravu</p>","","","","","","","",""
"html-keyboard-response","304","856094","0.0-13.0-0.54","5f11ccbc1a1a2c08b4a99efb","64b003020eef62ee308107cc","64b030f0083ad36903daa977","null","null","<p style=""font-size: 60px; font-family: BACS"">btlckBCAd</p>","","","","","","","",""
"html-keyboard-response","305","857110","0.0-13.0-0.55","5f11ccbc1a1a2c08b4a99efb","64b003020eef62ee308107cc","64b030f0083ad36903daa977","null","null","<p style=""font-size: 60px; font-family: BACS"">UdlGQrZYd</p>","","","","","","","",""
"html-keyboard-response","306","859093","0.0-13.0-0.56","5f11ccbc1a1a2c08b4a99efb","64b003020eef62ee308107cc","64b030f0083ad36903daa977","null","null","<p style=""font-size: 60px; font-family: BACS"">ctktDlDT</p>","","","","","","","",""
"html-keyboard-response","307","860109","0.0-13.0-0.57","5f11ccbc1a1a2c08b4a99efb","64b003020eef62ee308107cc","64b030f0083ad36903daa977","null","null","<p style=""font-size: 60px; font-family: BACS"">GJZmravu</p>","","","","","","","",""
"html-keyboard-response","308","862084","0.0-13.0-0.58","5f11ccbc1a1a2c08b4a99efb","64b003020eef62ee308107cc","64b030f0083ad36903daa977","null","null","<p style=""font-size: 60px; font-family: BACS"">BMEMAdPc</p>","","","","","","","",""
"html-keyboard-response","309","863086","0.0-13.0-0.59","5f11ccbc1a1a2c08b4a99efb","64b003020eef62ee308107cc","64b030f0083ad36903daa977","null","null","<p style=""font-size: 60px; font-family: BACS"">RKYkCKOb</p>","","","","","","","",""
"html-keyboard-response","310","864091","0.0-13.0-0.60","5f11ccbc1a1a2c08b4a99efb","64b003020eef62ee308107cc","64b030f0083ad36903daa977","null","null","<p style=""font-size: 60px; font-family: BACS"">vYLUrZYd</p>","","","","","","","",""
"html-keyboard-response","311","865114","0.0-13.0-0.61","5f11ccbc1a1a2c08b4a99efb","64b003020eef62ee308107cc","64b030f0083ad36903daa977","null","null","<p style=""font-size: 60px; font-family: BACS"">kRCkOBCAd</p>","","","","","","","",""
"html-keyboard-response","312","866119","0.0-13.0-0.62","5f11ccbc1a1a2c08b4a99efb","64b003020eef62ee308107cc","64b030f0083ad36903daa977","null","null","<p style=""font-size: 60px; font-family: BACS"">AmaclrZYd</p>","","","","","","","",""
"html-keyboard-response","313","868087","0.0-13.0-0.63","5f11ccbc1a1a2c08b4a99efb","64b003020eef62ee308107cc","64b030f0083ad36903daa977","null","null","<p style=""font-size: 60px; font-family: BACS"">dkLlrGl</p>","","","","","","","",""
"html-keyboard-response","314","869094","0.0-13.0-0.64","5f11ccbc1a1a2c08b4a99efb","64b003020eef62ee308107cc","64b030f0083ad36903daa977","null","null","<p style=""font-size: 60px; font-family: BACS"">Gabkravu</p>","","","","","","","",""
"html-keyboard-response","315","870876","0.0-13.0-0.65","5f11ccbc1a1a2c08b4a99efb","64b003020eef62ee308107cc","64b030f0083ad36903daa977","null","null","<p style=""font-size: 60px; font-family: BACS"">RKYkDlDT</p>","","","","","","","",""
"html-keyboard-response","316","871885","0.0-13.0-0.66","5f11ccbc1a1a2c08b4a99efb","64b003020eef62ee308107cc","64b030f0083ad36903daa977","null","null","<p style=""font-size: 60px; font-family: BACS"">UdlGQravu</p>","","","","","","","",""
"html-keyboard-response","317","872900","0.0-13.0-0.67","5f11ccbc1a1a2c08b4a99efb","64b003020eef62ee308107cc","64b030f0083ad36903daa977","null","null","<p style=""font-size: 60px; font-family: BACS"">dkLlNYZu</p>","","","","","","","",""
"html-keyboard-response","318","873912","0.0-13.0-0.68","5f11ccbc1a1a2c08b4a99efb","64b003020eef62ee308107cc","64b030f0083ad36903daa977","null","null","<p style=""font-size: 60px; font-family: BACS"">YOaAbrZYd</p>","","","","","","","",""
"html-keyboard-response","319","874915","0.0-13.0-0.69","5f11ccbc1a1a2c08b4a99efb","64b003020eef62ee308107cc","64b030f0083ad36903daa977","null","null","<p style=""font-size: 60px; font-family: BACS"">RKYkdPc</p>","","","","","","","",""
"html-keyboard-response","320","875929","0.0-13.0-0.70","5f11ccbc1a1a2c08b4a99efb","64b003020eef62ee308107cc","64b030f0083ad36903daa977","null","null","<p style=""font-size: 60px; font-family: BACS"">BMEMAYht</p>","","","","","","","",""
"html-keyboard-response","321","876938","0.0-13.0-0.71","5f11ccbc1a1a2c08b4a99efb","64b003020eef62ee308107cc","64b030f0083ad36903daa977","null","null","<p style=""font-size: 60px; font-family: BACS"">KDPABCAd</p>","","","","","","","",""
"html-keyboard-response","322","877944","0.0-13.0-0.72","5f11ccbc1a1a2c08b4a99efb","64b003020eef62ee308107cc","64b030f0083ad36903daa977","null","null","<p style=""font-size: 60px; font-family: BACS"">GabkrGl</p>","","","","","","","",""
"html-keyboard-response","323","878962","0.0-13.0-0.73","5f11ccbc1a1a2c08b4a99efb","64b003020eef62ee308107cc","64b030f0083ad36903daa977","null","null","<p style=""font-size: 60px; font-family: BACS"">lBlEBCAd</p>","","","","","","","",""
"html-keyboard-response","324","879971","0.0-13.0-0.74","5f11ccbc1a1a2c08b4a99efb","64b003020eef62ee308107cc","64b030f0083ad36903daa977","null","null","<p style=""font-size: 60px; font-family: BACS"">vuJZuNYZu</p>","","","","","","","",""
"html-keyboard-response","325","880992","0.0-13.0-0.75","5f11ccbc1a1a2c08b4a99efb","64b003020eef62ee308107cc","64b030f0083ad36903daa977","null","null","<p style=""font-size: 60px; font-family: BACS"">ctktCKOb</p>","","","","","","","",""
"html-keyboard-response","326","882003","0.0-13.0-0.76","5f11ccbc1a1a2c08b4a99efb","64b003020eef62ee308107cc","64b030f0083ad36903daa977","null","null","<p style=""font-size: 60px; font-family: BACS"">vuJZurZYd</p>","","","","","","","",""
"html-keyboard-response","327","883010","0.0-13.0-0.77","5f11ccbc1a1a2c08b4a99efb","64b003020eef62ee308107cc","64b030f0083ad36903daa977","null","null","<p style=""font-size: 60px; font-family: BACS"">AmaclNYZu</p>","","","","","","","",""
"html-keyboard-response","328","884027","0.0-13.0-0.78","5f11ccbc1a1a2c08b4a99efb","64b003020eef62ee308107cc","64b030f0083ad36903daa977","null","null","<p style=""font-size: 60px; font-family: BACS"">GJZmrZYd</p>","","","","","","","",""
"html-keyboard-response","329","885047","0.0-13.0-0.79","5f11ccbc1a1a2c08b4a99efb","64b003020eef62ee308107cc","64b030f0083ad36903daa977","null","null","<p style=""font-size: 60px; font-family: BACS"">KdARCKOb</p>","","","","","","","",""
"html-keyboard-response","330","944516","0.0-14.0","5f11ccbc1a1a2c08b4a99efb","64b003020eef62ee308107cc","64b030f0083ad36903daa977","59468"," ","<p>Ottimo, hai visto il quarto blocco di parole. Ora puoi prenderti una piccola pausa.</p>
      <p>Premi la barra quando sei pronta/o per riprendere.</p>","","","","","","","",""
"html-keyboard-response","331","945521","0.0-15.0-0.0","5f11ccbc1a1a2c08b4a99efb","64b003020eef62ee308107cc","64b030f0083ad36903daa977","null","null","<p style=""font-size: 60px; font-family: BACS"">cuOJbcbm</p>","","","","","","","",""
"html-keyboard-response","332","946527","0.0-15.0-0.1","5f11ccbc1a1a2c08b4a99efb","64b003020eef62ee308107cc","64b030f0083ad36903daa977","null","null","<p style=""font-size: 60px; font-family: BACS"">cuOJbcbm</p>","","","","","","","",""
"html-keyboard-response","333","947531","0.0-15.0-0.2","5f11ccbc1a1a2c08b4a99efb","64b003020eef62ee308107cc","64b030f0083ad36903daa977","null","null","<p style=""font-size: 60px; font-family: BACS"">cuOJbcbm</p>","","","","","","","",""
"html-keyboard-response","334","949088","0.0-15.0-0.3","5f11ccbc1a1a2c08b4a99efb","64b003020eef62ee308107cc","64b030f0083ad36903daa977","null","null","<p style=""font-size: 60px; font-family: BACS"">cuOJbcbm</p>","","","","","","","",""
"html-keyboard-response","335","950097","0.0-15.0-0.4","5f11ccbc1a1a2c08b4a99efb","64b003020eef62ee308107cc","64b030f0083ad36903daa977","null","null","<p style=""font-size: 60px; font-family: BACS"">cuOJbcbm</p>","","","","","","","",""
"html-keyboard-response","336","952087","0.0-15.0-0.5","5f11ccbc1a1a2c08b4a99efb","64b003020eef62ee308107cc","64b030f0083ad36903daa977","null","null","<p style=""font-size: 60px; font-family: BACS"">cuOJbcbm</p>","","","","","","","",""
"html-keyboard-response","337","953109","0.0-15.0-0.6","5f11ccbc1a1a2c08b4a99efb","64b003020eef62ee308107cc","64b030f0083ad36903daa977","null","null","<p style=""font-size: 60px; font-family: BACS"">cuOJbcbm</p>","","","","","","","",""
"html-keyboard-response","338","955087","0.0-15.0-0.7","5f11ccbc1a1a2c08b4a99efb","64b003020eef62ee308107cc","64b030f0083ad36903daa977","null","null","<p style=""font-size: 60px; font-family: BACS"">cuOJbcbm</p>","","","","","","","",""
"html-keyboard-response","339","956109","0.0-15.0-0.8","5f11ccbc1a1a2c08b4a99efb","64b003020eef62ee308107cc","64b030f0083ad36903daa977","null","null","<p style=""font-size: 60px; font-family: BACS"">cuOJbcbm</p>","","","","","","","",""
"html-keyboard-response","340","958085","0.0-15.0-0.9","5f11ccbc1a1a2c08b4a99efb","64b003020eef62ee308107cc","64b030f0083ad36903daa977","null","null","<p style=""font-size: 60px; font-family: BACS"">cuOJbcbm</p>","","","","","","","",""
"html-keyboard-response","341","959096","0.0-15.0-0.10","5f11ccbc1a1a2c08b4a99efb","64b003020eef62ee308107cc","64b030f0083ad36903daa977","null","null","<p style=""font-size: 60px; font-family: BACS"">cuOJbcbm</p>","","","","","","","",""
"html-keyboard-response","342","961085","0.0-15.0-0.11","5f11ccbc1a1a2c08b4a99efb","64b003020eef62ee308107cc","64b030f0083ad36903daa977","null","null","<p style=""font-size: 60px; font-family: BACS"">cuOJbcbm</p>","","","","","","","",""
"html-keyboard-response","343","962101","0.0-15.0-0.12","5f11ccbc1a1a2c08b4a99efb","64b003020eef62ee308107cc","64b030f0083ad36903daa977","null","null","<p style=""font-size: 60px; font-family: BACS"">cuOJbcbm</p>","","","","","","","",""
"html-keyboard-response","344","964097","0.0-15.0-0.13","5f11ccbc1a1a2c08b4a99efb","64b003020eef62ee308107cc","64b030f0083ad36903daa977","null","null","<p style=""font-size: 60px; font-family: BACS"">cuOJbcbm</p>","","","","","","","",""
"html-keyboard-response","345","965100","0.0-15.0-0.14","5f11ccbc1a1a2c08b4a99efb","64b003020eef62ee308107cc","64b030f0083ad36903daa977","null","null","<p style=""font-size: 60px; font-family: BACS"">cuOJbcbm</p>","","","","","","","",""
"html-keyboard-response","346","967100","0.0-15.0-0.15","5f11ccbc1a1a2c08b4a99efb","64b003020eef62ee308107cc","64b030f0083ad36903daa977","null","null","<p style=""font-size: 60px; font-family: BACS"">cuOJbcbm</p>","","","","","","","",""
"html-keyboard-response","347","968117","0.0-15.0-0.16","5f11ccbc1a1a2c08b4a99efb","64b003020eef62ee308107cc","64b030f0083ad36903daa977","null","null","<p style=""font-size: 60px; font-family: BACS"">cuOJbcbm</p>","","","","","","","",""
"html-keyboard-response","348","970099","0.0-15.0-0.17","5f11ccbc1a1a2c08b4a99efb","64b003020eef62ee308107cc","64b030f0083ad36903daa977","null","null","<p style=""font-size: 60px; font-family: BACS"">cuOJbcbm</p>","","","","","","","",""
"html-keyboard-response","349","971121","0.0-15.0-0.18","5f11ccbc1a1a2c08b4a99efb","64b003020eef62ee308107cc","64b030f0083ad36903daa977","null","null","<p style=""font-size: 60px; font-family: BACS"">cuOJbcbm</p>","","","","","","","",""
"html-keyboard-response","350","973098","0.0-15.0-0.19","5f11ccbc1a1a2c08b4a99efb","64b003020eef62ee308107cc","64b030f0083ad36903daa977","null","null","<p style=""font-size: 60px; font-family: BACS"">cuOJbcbm</p>","","","","","","","",""
"html-keyboard-response","351","974119","0.0-15.0-0.20","5f11ccbc1a1a2c08b4a99efb","64b003020eef62ee308107cc","64b030f0083ad36903daa977","null","null","<p style=""font-size: 60px; font-family: BACS"">cuOJbcbm</p>","","","","","","","",""
"html-keyboard-response","352","976098","0.0-15.0-0.21","5f11ccbc1a1a2c08b4a99efb","64b003020eef62ee308107cc","64b030f0083ad36903daa977","null","null","<p style=""font-size: 60px; font-family: BACS"">cuOJbcbm</p>","","","","","","","",""
"html-keyboard-response","353","977099","0.0-15.0-0.22","5f11ccbc1a1a2c08b4a99efb","64b003020eef62ee308107cc","64b030f0083ad36903daa977","null","null","<p style=""font-size: 60px; font-family: BACS"">cuOJbcbm</p>","","","","","","","",""
"html-keyboard-response","354","979094","0.0-15.0-0.23","5f11ccbc1a1a2c08b4a99efb","64b003020eef62ee308107cc","64b030f0083ad36903daa977","null","null","<p style=""font-size: 60px; font-family: BACS"">cuOJbcbm</p>","","","","","","","",""
"html-keyboard-response","355","980096","0.0-15.0-0.24","5f11ccbc1a1a2c08b4a99efb","64b003020eef62ee308107cc","64b030f0083ad36903daa977","null","null","<p style=""font-size: 60px; font-family: BACS"">cuOJbcbm</p>","","","","","","","",""
"html-keyboard-response","356","981112","0.0-15.0-0.25","5f11ccbc1a1a2c08b4a99efb","64b003020eef62ee308107cc","64b030f0083ad36903daa977","null","null","<p style=""font-size: 60px; font-family: BACS"">cuOJbcbm</p>","","","","","","","",""
"html-keyboard-response","357","983096","0.0-15.0-0.26","5f11ccbc1a1a2c08b4a99efb","64b003020eef62ee308107cc","64b030f0083ad36903daa977","null","null","<p style=""font-size: 60px; font-family: BACS"">cuOJbcbm</p>","","","","","","","",""
"html-keyboard-response","358","984112","0.0-15.0-0.27","5f11ccbc1a1a2c08b4a99efb","64b003020eef62ee308107cc","64b030f0083ad36903daa977","null","null","<p style=""font-size: 60px; font-family: BACS"">cuOJbcbm</p>","","","","","","","",""
"html-keyboard-response","359","986096","0.0-15.0-0.28","5f11ccbc1a1a2c08b4a99efb","64b003020eef62ee308107cc","64b030f0083ad36903daa977","null","null","<p style=""font-size: 60px; font-family: BACS"">cuOJbcbm</p>","","","","","","","",""
"html-keyboard-response","360","987118","0.0-15.0-0.29","5f11ccbc1a1a2c08b4a99efb","64b003020eef62ee308107cc","64b030f0083ad36903daa977","null","null","<p style=""font-size: 60px; font-family: BACS"">cuOJbcbm</p>","","","","","","","",""
"html-keyboard-response","361","989095","0.0-15.0-0.30","5f11ccbc1a1a2c08b4a99efb","64b003020eef62ee308107cc","64b030f0083ad36903daa977","null","null","<p style=""font-size: 60px; font-family: BACS"">cuOJbcbm</p>","","","","","","","",""
"html-keyboard-response","362","991090","0.0-15.0-0.31","5f11ccbc1a1a2c08b4a99efb","64b003020eef62ee308107cc","64b030f0083ad36903daa977","null","null","<p style=""font-size: 60px; font-family: BACS"">cuOJbcbm</p>","","","","","","","",""
"html-keyboard-response","363","992094","0.0-15.0-0.32","5f11ccbc1a1a2c08b4a99efb","64b003020eef62ee308107cc","64b030f0083ad36903daa977","null","null","<p style=""font-size: 60px; font-family: BACS"">cuOJbcbm</p>","","","","","","","",""
"html-keyboard-response","364","993695","0.0-15.0-0.33","5f11ccbc1a1a2c08b4a99efb","64b003020eef62ee308107cc","64b030f0083ad36903daa977","null","null","<p style=""font-size: 60px; font-family: BACS"">cuOJbcbm</p>","","","","","","","",""
"html-keyboard-response","365","994699","0.0-15.0-0.34","5f11ccbc1a1a2c08b4a99efb","64b003020eef62ee308107cc","64b030f0083ad36903daa977","null","null","<p style=""font-size: 60px; font-family: BACS"">cuOJbcbm</p>","","","","","","","",""
"html-keyboard-response","366","995715","0.0-15.0-0.35","5f11ccbc1a1a2c08b4a99efb","64b003020eef62ee308107cc","64b030f0083ad36903daa977","null","null","<p style=""font-size: 60px; font-family: BACS"">cuOJbcbm</p>","","","","","","","",""
"html-keyboard-response","367","996718","0.0-15.0-0.36","5f11ccbc1a1a2c08b4a99efb","64b003020eef62ee308107cc","64b030f0083ad36903daa977","null","null","<p style=""font-size: 60px; font-family: BACS"">cuOJbcbm</p>","","","","","","","",""
"html-keyboard-response","368","997726","0.0-15.0-0.37","5f11ccbc1a1a2c08b4a99efb","64b003020eef62ee308107cc","64b030f0083ad36903daa977","null","null","<p style=""font-size: 60px; font-family: BACS"">cuOJbcbm</p>","","","","","","","",""
"html-keyboard-response","369","998732","0.0-15.0-0.38","5f11ccbc1a1a2c08b4a99efb","64b003020eef62ee308107cc","64b030f0083ad36903daa977","null","null","<p style=""font-size: 60px; font-family: BACS"">cuOJbcbm</p>","","","","","","","",""
"html-keyboard-response","370","999757","0.0-15.0-0.39","5f11ccbc1a1a2c08b4a99efb","64b003020eef62ee308107cc","64b030f0083ad36903daa977","null","null","<p style=""font-size: 60px; font-family: BACS"">cuOJbcbm</p>","","","","","","","",""
"html-keyboard-response","371","1000768","0.0-15.0-0.40","5f11ccbc1a1a2c08b4a99efb","64b003020eef62ee308107cc","64b030f0083ad36903daa977","null","null","<p style=""font-size: 60px; font-family: BACS"">cuOJbcbm</p>","","","","","","","",""
"html-keyboard-response","372","1001782","0.0-15.0-0.41","5f11ccbc1a1a2c08b4a99efb","64b003020eef62ee308107cc","64b030f0083ad36903daa977","null","null","<p style=""font-size: 60px; font-family: BACS"">cuOJbcbm</p>","","","","","","","",""
"html-keyboard-response","373","1002808","0.0-15.0-0.42","5f11ccbc1a1a2c08b4a99efb","64b003020eef62ee308107cc","64b030f0083ad36903daa977","null","null","<p style=""font-size: 60px; font-family: BACS"">cuOJbcbm</p>","","","","","","","",""
"html-keyboard-response","374","1003817","0.0-15.0-0.43","5f11ccbc1a1a2c08b4a99efb","64b003020eef62ee308107cc","64b030f0083ad36903daa977","null","null","<p style=""font-size: 60px; font-family: BACS"">cuOJbcbm</p>","","","","","","","",""
"html-keyboard-response","375","1004829","0.0-15.0-0.44","5f11ccbc1a1a2c08b4a99efb","64b003020eef62ee308107cc","64b030f0083ad36903daa977","null","null","<p style=""font-size: 60px; font-family: BACS"">cuOJbcbm</p>","","","","","","","",""
"html-keyboard-response","376","1005832","0.0-15.0-0.45","5f11ccbc1a1a2c08b4a99efb","64b003020eef62ee308107cc","64b030f0083ad36903daa977","null","null","<p style=""font-size: 60px; font-family: BACS"">cuOJbcbm</p>","","","","","","","",""
"html-keyboard-response","377","1006847","0.0-15.0-0.46","5f11ccbc1a1a2c08b4a99efb","64b003020eef62ee308107cc","64b030f0083ad36903daa977","null","null","<p style=""font-size: 60px; font-family: BACS"">cuOJbcbm</p>","","","","","","","",""
"html-keyboard-response","378","1007860","0.0-15.0-0.47","5f11ccbc1a1a2c08b4a99efb","64b003020eef62ee308107cc","64b030f0083ad36903daa977","null","null","<p style=""font-size: 60px; font-family: BACS"">cuOJbcbm</p>","","","","","","","",""
"html-keyboard-response","379","1008877","0.0-15.0-0.48","5f11ccbc1a1a2c08b4a99efb","64b003020eef62ee308107cc","64b030f0083ad36903daa977","null","null","<p style=""font-size: 60px; font-family: BACS"">cuOJbcbm</p>","","","","","","","",""
"html-keyboard-response","380","1009880","0.0-15.0-0.49","5f11ccbc1a1a2c08b4a99efb","64b003020eef62ee308107cc","64b030f0083ad36903daa977","null","null","<p style=""font-size: 60px; font-family: BACS"">cuOJbcbm</p>","","","","","","","",""
"html-keyboard-response","381","1010897","0.0-15.0-0.50","5f11ccbc1a1a2c08b4a99efb","64b003020eef62ee308107cc","64b030f0083ad36903daa977","null","null","<p style=""font-size: 60px; font-family: BACS"">cuOJbcbm</p>","","","","","","","",""
"html-keyboard-response","382","1011913","0.0-15.0-0.51","5f11ccbc1a1a2c08b4a99efb","64b003020eef62ee308107cc","64b030f0083ad36903daa977","null","null","<p style=""font-size: 60px; font-family: BACS"">cuOJbcbm</p>","","","","","","","",""
"html-keyboard-response","383","1012932","0.0-15.0-0.52","5f11ccbc1a1a2c08b4a99efb","64b003020eef62ee308107cc","64b030f0083ad36903daa977","null","null","<p style=""font-size: 60px; font-family: BACS"">cuOJbcbm</p>","","","","","","","",""
"html-keyboard-response","384","1013939","0.0-15.0-0.53","5f11ccbc1a1a2c08b4a99efb","64b003020eef62ee308107cc","64b030f0083ad36903daa977","null","null","<p style=""font-size: 60px; font-family: BACS"">cuOJbcbm</p>","","","","","","","",""
"html-keyboard-response","385","1014955","0.0-15.0-0.54","5f11ccbc1a1a2c08b4a99efb","64b003020eef62ee308107cc","64b030f0083ad36903daa977","null","null","<p style=""font-size: 60px; font-family: BACS"">cuOJbcbm</p>","","","","","","","",""
"html-keyboard-response","386","1015960","0.0-15.0-0.55","5f11ccbc1a1a2c08b4a99efb","64b003020eef62ee308107cc","64b030f0083ad36903daa977","null","null","<p style=""font-size: 60px; font-family: BACS"">cuOJbcbm</p>","","","","","","","",""
"html-keyboard-response","387","1016979","0.0-15.0-0.56","5f11ccbc1a1a2c08b4a99efb","64b003020eef62ee308107cc","64b030f0083ad36903daa977","null","null","<p style=""font-size: 60px; font-family: BACS"">cuOJbcbm</p>","","","","","","","",""
"html-keyboard-response","388","1017994","0.0-15.0-0.57","5f11ccbc1a1a2c08b4a99efb","64b003020eef62ee308107cc","64b030f0083ad36903daa977","null","null","<p style=""font-size: 60px; font-family: BACS"">cuOJbcbm</p>","","","","","","","",""
"html-keyboard-response","389","1019010","0.0-15.0-0.58","5f11ccbc1a1a2c08b4a99efb","64b003020eef62ee308107cc","64b030f0083ad36903daa977","null","null","<p style=""font-size: 60px; font-family: BACS"">cuOJbcbm</p>","","","","","","","",""
"html-keyboard-response","390","1020013","0.0-15.0-0.59","5f11ccbc1a1a2c08b4a99efb","64b003020eef62ee308107cc","64b030f0083ad36903daa977","null","null","<p style=""font-size: 60px; font-family: BACS"">cuOJbcbm</p>","","","","","","","",""
"html-keyboard-response","391","1021021","0.0-15.0-0.60","5f11ccbc1a1a2c08b4a99efb","64b003020eef62ee308107cc","64b030f0083ad36903daa977","null","null","<p style=""font-size: 60px; font-family: BACS"">cuOJbcbm</p>","","","","","","","",""
"html-keyboard-response","392","1022030","0.0-15.0-0.61","5f11ccbc1a1a2c08b4a99efb","64b003020eef62ee308107cc","64b030f0083ad36903daa977","null","null","<p style=""font-size: 60px; font-family: BACS"">cuOJbcbm</p>","","","","","","","",""
"html-keyboard-response","393","1023032","0.0-15.0-0.62","5f11ccbc1a1a2c08b4a99efb","64b003020eef62ee308107cc","64b030f0083ad36903daa977","null","null","<p style=""font-size: 60px; font-family: BACS"">cuOJbcbm</p>","","","","","","","",""
"html-keyboard-response","394","1024037","0.0-15.0-0.63","5f11ccbc1a1a2c08b4a99efb","64b003020eef62ee308107cc","64b030f0083ad36903daa977","null","null","<p style=""font-size: 60px; font-family: BACS"">cuOJbcbm</p>","","","","","","","",""
"html-keyboard-response","395","1025042","0.0-15.0-0.64","5f11ccbc1a1a2c08b4a99efb","64b003020eef62ee308107cc","64b030f0083ad36903daa977","null","null","<p style=""font-size: 60px; font-family: BACS"">cuOJbcbm</p>","","","","","","","",""
"html-keyboard-response","396","1026057","0.0-15.0-0.65","5f11ccbc1a1a2c08b4a99efb","64b003020eef62ee308107cc","64b030f0083ad36903daa977","null","null","<p style=""font-size: 60px; font-family: BACS"">cuOJbcbm</p>","","","","","","","",""
"html-keyboard-response","397","1027069","0.0-15.0-0.66","5f11ccbc1a1a2c08b4a99efb","64b003020eef62ee308107cc","64b030f0083ad36903daa977","null","null","<p style=""font-size: 60px; font-family: BACS"">cuOJbcbm</p>","","","","","","","",""
"html-keyboard-response","398","1028080","0.0-15.0-0.67","5f11ccbc1a1a2c08b4a99efb","64b003020eef62ee308107cc","64b030f0083ad36903daa977","null","null","<p style=""font-size: 60px; font-family: BACS"">cuOJbcbm</p>","","","","","","","",""
"html-keyboard-response","399","1029097","0.0-15.0-0.68","5f11ccbc1a1a2c08b4a99efb","64b003020eef62ee308107cc","64b030f0083ad36903daa977","null","null","<p style=""font-size: 60px; font-family: BACS"">cuOJbcbm</p>","","","","","","","",""
"html-keyboard-response","400","1030110","0.0-15.0-0.69","5f11ccbc1a1a2c08b4a99efb","64b003020eef62ee308107cc","64b030f0083ad36903daa977","null","null","<p style=""font-size: 60px; font-family: BACS"">cuOJbcbm</p>","","","","","","","",""
"html-keyboard-response","401","1032094","0.0-15.0-0.70","5f11ccbc1a1a2c08b4a99efb","64b003020eef62ee308107cc","64b030f0083ad36903daa977","null","null","<p style=""font-size: 60px; font-family: BACS"">cuOJbcbm</p>","","","","","","","",""
