"trial_type","trial_index","time_elapsed","internal_node_id","subject_id","study_id","session_id","rt","response","stimulus","success","item","task","correct_response","testing_condition","correct","target","confound","name"
"pavlovia","0","680","0.0-0.0","60bb62cbaccd206e3502516e","64e77d7b61f440b60e28659d","64eca324d1d8b49d120b1974","","","","","","","","","","","",""
"survey-html-form","1","7191","0.0-1.0","60bb62cbaccd206e3502516e","64e77d7b61f440b60e28659d","64eca324d1d8b49d120b1974","6509","{""ID"":""60bb62cbaccd206e3502516e""}","","","","","","","","","",""
"html-keyboard-response","2","26012","0.0-2.0","60bb62cbaccd206e3502516e","64e77d7b61f440b60e28659d","64eca324d1d8b49d120b1974","18819"," ","<p style=""font-size: 15px;"">Before beginning, we ask that you read the consent information and confirm your agreement to participate in the experiment.</p>
      <p style=""font-size: 15px;""> We ask that you remember that this is a research project and that your participation is entirely voluntary. You can stop your participation at any time, without needing to provide any explanation. The study we're asking you to participate in aims at examining how readers process written words. You will be engaged in a session of apprximately 20 minutes, followed by a brief questionnaire. You will have the opportunity to take a few breaks during the experiment. You will be paid £4 for your participation, corresponding to a rate of £8/hour. While this experiment looks at cognitive faculties, this experiment doesn't constitute clinical proof of eventual pathologies.</p>
      <p style=""font-size: 15px;"">All of the information collected thanks to yours and others' participation will be held in a secure password-protected server, and will not be shared with anyone not authorised to view it. Your personal information will be kept with an arbitrary participant ID. Thanks to this data anonymity process, any researcher analysing the data won't be able to track the information back to a specific participant. Therefore, this process will make identifying you impossibile, even when results from the study will be published in scientific reviews, presented at congresses, or at any other public forum. More generally, the collected data will be treated in accordance with the laws on privacy and conformity to the Legislative Degree n. 196 ""Code regarding the protection of personal data"" of the 30th of June 2003 and to the European Regulation 2016/670 (General Data Protection Regulation - GDPR). The Data Protection Officer is Avv. Valentina Carollo, who can be contacted at the following email addresses: <a href=""mailto:dpo@sissa.it"">dpo@sissa.it</a> or <a href=""mailto:rpd@sissa.it"">rpd@sissa.it</a> - PEC: <a href=""mailto:protocollo@pec.sissa.it"">protocollo@pec.sissa.it</a>.</p>
      <p style=""font-size: 15px;""> Before expressing your consent to participate, we would like to remind you again that in case you need explanations on any aspect of the experimental procedure, the researcher is at your disposition (<a href=""mailto:aliebelt@sissa.it"">aliebelt@sissa.it</a>, <a href=""mailto:davide.crepaldi@sissa.it"">davide.crepaldi@sissa.it</a>).</p>
      <p style=""font-size: 15px;"">If you would like to download the informed consent form, you can do so here: <a href=""BASL-Informed_Consent.pdf"" download>informed consent form</a>.</p>
      <p style=""font-size: 15px;"">We ask that you press the spacebar to proceed to the consent section.</p>","","","","","","","","",""
"survey-html-form","3","34848","0.0-3.0","60bb62cbaccd206e3502516e","64e77d7b61f440b60e28659d","64eca324d1d8b49d120b1974","8834","{""consent1"":""YES"",""consent2"":""YES"",""consent3"":""YES"",""consent4"":""YES"",""consent5"":""YES"",""consent6"":""YES""}","","","","","","","","","",""
"fullscreen","4","45661","0.0-4.0","60bb62cbaccd206e3502516e","64e77d7b61f440b60e28659d","64eca324d1d8b49d120b1974","","","","true","","","","","","","",""
"html-keyboard-response","5","56675","0.0-5.0","60bb62cbaccd206e3502516e","64e77d7b61f440b60e28659d","64eca324d1d8b49d120b1974","11012"," ","<p>Welcome, and thank you very much for your time!</p>
      <p>In this experiment, you'll be a language expert who's been asked to take a look at words that Earth has received in its first communication with aliens. Your task, in this first part of the experiment, is to pay close attention to the words you'll be shown; later, world leaders will ask you questions on what you saw. The words will be shown to you quite quickly; it seems that the aliens were in a hurry :-)</p>
      <p>Press the spacebar to continue.<p>","","","","","","","","",""
"html-keyboard-response","6","66145","0.0-6.0","60bb62cbaccd206e3502516e","64e77d7b61f440b60e28659d","64eca324d1d8b49d120b1974","9468"," ","<p>Here is an example of the words you'll see:</p>
      <img src='esempio.png' height='400px'>
      <p>When you're ready to begin, press the spacebar.</p></div>","","","","","","","","",""
"html-keyboard-response","7","67150","0.0-7.0-0.0","60bb62cbaccd206e3502516e","64e77d7b61f440b60e28659d","64eca324d1d8b49d120b1974","null","null","<p style=""font-size: 60px; font-family: BACS"">RtRhmCd</p>","","","","","","","","",""
"html-keyboard-response","8","68153","0.0-7.0-0.1","60bb62cbaccd206e3502516e","64e77d7b61f440b60e28659d","64eca324d1d8b49d120b1974","null","null","<p style=""font-size: 60px; font-family: BACS"">mBmlACkbd</p>","","","","","","","","",""
"html-keyboard-response","9","69157","0.0-7.0-0.2","60bb62cbaccd206e3502516e","64e77d7b61f440b60e28659d","64eca324d1d8b49d120b1974","null","null","<p style=""font-size: 60px; font-family: BACS"">BOCRMdPc</p>","","","","","","","","",""
"html-keyboard-response","10","70161","0.0-7.0-0.3","60bb62cbaccd206e3502516e","64e77d7b61f440b60e28659d","64eca324d1d8b49d120b1974","null","null","<p style=""font-size: 60px; font-family: BACS"">NkUAYaum</p>","","","","","","","","",""
"html-keyboard-response","11","71167","0.0-7.0-0.4","60bb62cbaccd206e3502516e","64e77d7b61f440b60e28659d","64eca324d1d8b49d120b1974","null","null","<p style=""font-size: 60px; font-family: BACS"">adkrYZUZ</p>","","","","","","","","",""
"html-keyboard-response","12","72169","0.0-7.0-0.5","60bb62cbaccd206e3502516e","64e77d7b61f440b60e28659d","64eca324d1d8b49d120b1974","null","null","<p style=""font-size: 60px; font-family: BACS"">YdudNYZu</p>","","","","","","","","",""
"html-keyboard-response","13","73173","0.0-7.0-0.6","60bb62cbaccd206e3502516e","64e77d7b61f440b60e28659d","64eca324d1d8b49d120b1974","null","null","<p style=""font-size: 60px; font-family: BACS"">OEPkmCd</p>","","","","","","","","",""
"html-keyboard-response","14","74180","0.0-7.0-0.7","60bb62cbaccd206e3502516e","64e77d7b61f440b60e28659d","64eca324d1d8b49d120b1974","null","null","<p style=""font-size: 60px; font-family: BACS"">GQrcYZUZ</p>","","","","","","","","",""
"html-keyboard-response","15","75188","0.0-7.0-0.8","60bb62cbaccd206e3502516e","64e77d7b61f440b60e28659d","64eca324d1d8b49d120b1974","null","null","<p style=""font-size: 60px; font-family: BACS"">dRhtmCd</p>","","","","","","","","",""
"html-keyboard-response","16","76197","0.0-7.0-0.9","60bb62cbaccd206e3502516e","64e77d7b61f440b60e28659d","64eca324d1d8b49d120b1974","null","null","<p style=""font-size: 60px; font-family: BACS"">MlthKOYC</p>","","","","","","","","",""
"html-keyboard-response","17","77209","0.0-7.0-0.10","60bb62cbaccd206e3502516e","64e77d7b61f440b60e28659d","64eca324d1d8b49d120b1974","null","null","<p style=""font-size: 60px; font-family: BACS"">BOCRMCkbd</p>","","","","","","","","",""
"html-keyboard-response","18","78214","0.0-7.0-0.11","60bb62cbaccd206e3502516e","64e77d7b61f440b60e28659d","64eca324d1d8b49d120b1974","null","null","<p style=""font-size: 60px; font-family: BACS"">RtRhdPc</p>","","","","","","","","",""
"html-keyboard-response","19","79225","0.0-7.0-0.12","60bb62cbaccd206e3502516e","64e77d7b61f440b60e28659d","64eca324d1d8b49d120b1974","null","null","<p style=""font-size: 60px; font-family: BACS"">TdTDKOYC</p>","","","","","","","","",""
"html-keyboard-response","20","80232","0.0-7.0-0.13","60bb62cbaccd206e3502516e","64e77d7b61f440b60e28659d","64eca324d1d8b49d120b1974","null","null","<p style=""font-size: 60px; font-family: BACS"">mrOduZc</p>","","","","","","","","",""
"html-keyboard-response","21","81241","0.0-7.0-0.14","60bb62cbaccd206e3502516e","64e77d7b61f440b60e28659d","64eca324d1d8b49d120b1974","null","null","<p style=""font-size: 60px; font-family: BACS"">BATOcmCd</p>","","","","","","","","",""
"html-keyboard-response","22","82249","0.0-7.0-0.15","60bb62cbaccd206e3502516e","64e77d7b61f440b60e28659d","64eca324d1d8b49d120b1974","null","null","<p style=""font-size: 60px; font-family: BACS"">adkruZc</p>","","","","","","","","",""
"html-keyboard-response","23","83257","0.0-7.0-0.16","60bb62cbaccd206e3502516e","64e77d7b61f440b60e28659d","64eca324d1d8b49d120b1974","null","null","<p style=""font-size: 60px; font-family: BACS"">bGuOYaum</p>","","","","","","","","",""
"html-keyboard-response","24","84266","0.0-7.0-0.17","60bb62cbaccd206e3502516e","64e77d7b61f440b60e28659d","64eca324d1d8b49d120b1974","null","null","<p style=""font-size: 60px; font-family: BACS"">NkUAuUY</p>","","","","","","","","",""
"html-keyboard-response","25","85270","0.0-7.0-0.18","60bb62cbaccd206e3502516e","64e77d7b61f440b60e28659d","64eca324d1d8b49d120b1974","null","null","<p style=""font-size: 60px; font-family: BACS"">mBmlAKOYC</p>","","","","","","","","",""
"html-keyboard-response","26","86281","0.0-7.0-0.19","60bb62cbaccd206e3502516e","64e77d7b61f440b60e28659d","64eca324d1d8b49d120b1974","null","null","<p style=""font-size: 60px; font-family: BACS"">ObZbAYaum</p>","","","","","","","","",""
"html-keyboard-response","27","87288","0.0-7.0-0.20","60bb62cbaccd206e3502516e","64e77d7b61f440b60e28659d","64eca324d1d8b49d120b1974","null","null","<p style=""font-size: 60px; font-family: BACS"">TdTDdPc</p>","","","","","","","","",""
"html-keyboard-response","28","88298","0.0-7.0-0.21","60bb62cbaccd206e3502516e","64e77d7b61f440b60e28659d","64eca324d1d8b49d120b1974","null","null","<p style=""font-size: 60px; font-family: BACS"">BOCRMKEdl</p>","","","","","","","","",""
"html-keyboard-response","29","89305","0.0-7.0-0.22","60bb62cbaccd206e3502516e","64e77d7b61f440b60e28659d","64eca324d1d8b49d120b1974","null","null","<p style=""font-size: 60px; font-family: BACS"">kdaAJuZc</p>","","","","","","","","",""
"html-keyboard-response","30","90313","0.0-7.0-0.23","60bb62cbaccd206e3502516e","64e77d7b61f440b60e28659d","64eca324d1d8b49d120b1974","null","null","<p style=""font-size: 60px; font-family: BACS"">OEPkCkbd</p>","","","","","","","","",""
"html-keyboard-response","31","91319","0.0-7.0-0.24","60bb62cbaccd206e3502516e","64e77d7b61f440b60e28659d","64eca324d1d8b49d120b1974","null","null","<p style=""font-size: 60px; font-family: BACS"">OLJblNYZu</p>","","","","","","","","",""
"html-keyboard-response","32","92330","0.0-7.0-0.25","60bb62cbaccd206e3502516e","64e77d7b61f440b60e28659d","64eca324d1d8b49d120b1974","null","null","<p style=""font-size: 60px; font-family: BACS"">MlthdPc</p>","","","","","","","","",""
"html-keyboard-response","33","93336","0.0-7.0-0.26","60bb62cbaccd206e3502516e","64e77d7b61f440b60e28659d","64eca324d1d8b49d120b1974","null","null","<p style=""font-size: 60px; font-family: BACS"">GQrcuZc</p>","","","","","","","","",""
"html-keyboard-response","34","94346","0.0-7.0-0.27","60bb62cbaccd206e3502516e","64e77d7b61f440b60e28659d","64eca324d1d8b49d120b1974","null","null","<p style=""font-size: 60px; font-family: BACS"">NkUANYZu</p>","","","","","","","","",""
"html-keyboard-response","35","95354","0.0-7.0-0.28","60bb62cbaccd206e3502516e","64e77d7b61f440b60e28659d","64eca324d1d8b49d120b1974","null","null","<p style=""font-size: 60px; font-family: BACS"">MlthKEdl</p>","","","","","","","","",""
"html-keyboard-response","36","96361","0.0-7.0-0.29","60bb62cbaccd206e3502516e","64e77d7b61f440b60e28659d","64eca324d1d8b49d120b1974","null","null","<p style=""font-size: 60px; font-family: BACS"">NkUAuZc</p>","","","","","","","","",""
"html-keyboard-response","37","97370","0.0-7.0-0.30","60bb62cbaccd206e3502516e","64e77d7b61f440b60e28659d","64eca324d1d8b49d120b1974","null","null","<p style=""font-size: 60px; font-family: BACS"">BATOcKEdl</p>","","","","","","","","",""
"html-keyboard-response","38","98374","0.0-7.0-0.31","60bb62cbaccd206e3502516e","64e77d7b61f440b60e28659d","64eca324d1d8b49d120b1974","null","null","<p style=""font-size: 60px; font-family: BACS"">bGuONYZu</p>","","","","","","","","",""
"html-keyboard-response","39","99386","0.0-7.0-0.32","60bb62cbaccd206e3502516e","64e77d7b61f440b60e28659d","64eca324d1d8b49d120b1974","null","null","<p style=""font-size: 60px; font-family: BACS"">mBmlAmCd</p>","","","","","","","","",""
"html-keyboard-response","40","100392","0.0-7.0-0.33","60bb62cbaccd206e3502516e","64e77d7b61f440b60e28659d","64eca324d1d8b49d120b1974","null","null","<p style=""font-size: 60px; font-family: BACS"">GQrcYaum</p>","","","","","","","","",""
"html-keyboard-response","41","101402","0.0-7.0-0.34","60bb62cbaccd206e3502516e","64e77d7b61f440b60e28659d","64eca324d1d8b49d120b1974","null","null","<p style=""font-size: 60px; font-family: BACS"">MlthmCd</p>","","","","","","","","",""
"html-keyboard-response","42","102410","0.0-7.0-0.35","60bb62cbaccd206e3502516e","64e77d7b61f440b60e28659d","64eca324d1d8b49d120b1974","null","null","<p style=""font-size: 60px; font-family: BACS"">adkruUY</p>","","","","","","","","",""
"html-keyboard-response","43","103417","0.0-7.0-0.36","60bb62cbaccd206e3502516e","64e77d7b61f440b60e28659d","64eca324d1d8b49d120b1974","null","null","<p style=""font-size: 60px; font-family: BACS"">BATOcdPc</p>","","","","","","","","",""
"html-keyboard-response","44","104421","0.0-7.0-0.37","60bb62cbaccd206e3502516e","64e77d7b61f440b60e28659d","64eca324d1d8b49d120b1974","null","null","<p style=""font-size: 60px; font-family: BACS"">OEPkKEdl</p>","","","","","","","","",""
"html-keyboard-response","45","105432","0.0-7.0-0.38","60bb62cbaccd206e3502516e","64e77d7b61f440b60e28659d","64eca324d1d8b49d120b1974","null","null","<p style=""font-size: 60px; font-family: BACS"">dRhtCkbd</p>","","","","","","","","",""
"html-keyboard-response","46","106441","0.0-7.0-0.39","60bb62cbaccd206e3502516e","64e77d7b61f440b60e28659d","64eca324d1d8b49d120b1974","null","null","<p style=""font-size: 60px; font-family: BACS"">mBmlAdPc</p>","","","","","","","","",""
"html-keyboard-response","47","107446","0.0-7.0-0.40","60bb62cbaccd206e3502516e","64e77d7b61f440b60e28659d","64eca324d1d8b49d120b1974","null","null","<p style=""font-size: 60px; font-family: BACS"">GQrcuUY</p>","","","","","","","","",""
"html-keyboard-response","48","108454","0.0-7.0-0.41","60bb62cbaccd206e3502516e","64e77d7b61f440b60e28659d","64eca324d1d8b49d120b1974","null","null","<p style=""font-size: 60px; font-family: BACS"">ObZbANYZu</p>","","","","","","","","",""
"html-keyboard-response","49","109466","0.0-7.0-0.42","60bb62cbaccd206e3502516e","64e77d7b61f440b60e28659d","64eca324d1d8b49d120b1974","null","null","<p style=""font-size: 60px; font-family: BACS"">OLJbluUY</p>","","","","","","","","",""
"html-keyboard-response","50","110473","0.0-7.0-0.43","60bb62cbaccd206e3502516e","64e77d7b61f440b60e28659d","64eca324d1d8b49d120b1974","null","null","<p style=""font-size: 60px; font-family: BACS"">KMOcKEdl</p>","","","","","","","","",""
"html-keyboard-response","51","111478","0.0-7.0-0.44","60bb62cbaccd206e3502516e","64e77d7b61f440b60e28659d","64eca324d1d8b49d120b1974","null","null","<p style=""font-size: 60px; font-family: BACS"">BOCRMmCd</p>","","","","","","","","",""
"html-keyboard-response","52","112487","0.0-7.0-0.45","60bb62cbaccd206e3502516e","64e77d7b61f440b60e28659d","64eca324d1d8b49d120b1974","null","null","<p style=""font-size: 60px; font-family: BACS"">kGlUYaum</p>","","","","","","","","",""
"html-keyboard-response","53","113498","0.0-7.0-0.46","60bb62cbaccd206e3502516e","64e77d7b61f440b60e28659d","64eca324d1d8b49d120b1974","null","null","<p style=""font-size: 60px; font-family: BACS"">kdaAJYZUZ</p>","","","","","","","","",""
"html-keyboard-response","54","114504","0.0-7.0-0.47","60bb62cbaccd206e3502516e","64e77d7b61f440b60e28659d","64eca324d1d8b49d120b1974","null","null","<p style=""font-size: 60px; font-family: BACS"">dYdACkbd</p>","","","","","","","","",""
"html-keyboard-response","55","115511","0.0-7.0-0.48","60bb62cbaccd206e3502516e","64e77d7b61f440b60e28659d","64eca324d1d8b49d120b1974","null","null","<p style=""font-size: 60px; font-family: BACS"">TdTDKEdl</p>","","","","","","","","",""
"html-keyboard-response","56","116522","0.0-7.0-0.49","60bb62cbaccd206e3502516e","64e77d7b61f440b60e28659d","64eca324d1d8b49d120b1974","null","null","<p style=""font-size: 60px; font-family: BACS"">YdudYaum</p>","","","","","","","","",""
"html-keyboard-response","57","117529","0.0-7.0-0.50","60bb62cbaccd206e3502516e","64e77d7b61f440b60e28659d","64eca324d1d8b49d120b1974","null","null","<p style=""font-size: 60px; font-family: BACS"">RtRhKEdl</p>","","","","","","","","",""
"html-keyboard-response","58","118539","0.0-7.0-0.51","60bb62cbaccd206e3502516e","64e77d7b61f440b60e28659d","64eca324d1d8b49d120b1974","null","null","<p style=""font-size: 60px; font-family: BACS"">adkrYaum</p>","","","","","","","","",""
"html-keyboard-response","59","119546","0.0-7.0-0.52","60bb62cbaccd206e3502516e","64e77d7b61f440b60e28659d","64eca324d1d8b49d120b1974","null","null","<p style=""font-size: 60px; font-family: BACS"">KMOcKOYC</p>","","","","","","","","",""
"html-keyboard-response","60","120554","0.0-7.0-0.53","60bb62cbaccd206e3502516e","64e77d7b61f440b60e28659d","64eca324d1d8b49d120b1974","null","null","<p style=""font-size: 60px; font-family: BACS"">kdaAJYaum</p>","","","","","","","","",""
"html-keyboard-response","61","121561","0.0-7.0-0.54","60bb62cbaccd206e3502516e","64e77d7b61f440b60e28659d","64eca324d1d8b49d120b1974","null","null","<p style=""font-size: 60px; font-family: BACS"">dRhtKOYC</p>","","","","","","","","",""
"html-keyboard-response","62","122570","0.0-7.0-0.55","60bb62cbaccd206e3502516e","64e77d7b61f440b60e28659d","64eca324d1d8b49d120b1974","null","null","<p style=""font-size: 60px; font-family: BACS"">BATOcCkbd</p>","","","","","","","","",""
"html-keyboard-response","63","123577","0.0-7.0-0.56","60bb62cbaccd206e3502516e","64e77d7b61f440b60e28659d","64eca324d1d8b49d120b1974","null","null","<p style=""font-size: 60px; font-family: BACS"">YduduUY</p>","","","","","","","","",""
"html-keyboard-response","64","124583","0.0-7.0-0.57","60bb62cbaccd206e3502516e","64e77d7b61f440b60e28659d","64eca324d1d8b49d120b1974","null","null","<p style=""font-size: 60px; font-family: BACS"">kGlUNYZu</p>","","","","","","","","",""
"html-keyboard-response","65","125593","0.0-7.0-0.58","60bb62cbaccd206e3502516e","64e77d7b61f440b60e28659d","64eca324d1d8b49d120b1974","null","null","<p style=""font-size: 60px; font-family: BACS"">RtRhKOYC</p>","","","","","","","","",""
"html-keyboard-response","66","126603","0.0-7.0-0.59","60bb62cbaccd206e3502516e","64e77d7b61f440b60e28659d","64eca324d1d8b49d120b1974","null","null","<p style=""font-size: 60px; font-family: BACS"">mrOduUY</p>","","","","","","","","",""
"html-keyboard-response","67","127609","0.0-7.0-0.60","60bb62cbaccd206e3502516e","64e77d7b61f440b60e28659d","64eca324d1d8b49d120b1974","null","null","<p style=""font-size: 60px; font-family: BACS"">dYdAmCd</p>","","","","","","","","",""
"html-keyboard-response","68","128619","0.0-7.0-0.61","60bb62cbaccd206e3502516e","64e77d7b61f440b60e28659d","64eca324d1d8b49d120b1974","null","null","<p style=""font-size: 60px; font-family: BACS"">kdaAJNYZu</p>","","","","","","","","",""
"html-keyboard-response","69","129626","0.0-7.0-0.62","60bb62cbaccd206e3502516e","64e77d7b61f440b60e28659d","64eca324d1d8b49d120b1974","null","null","<p style=""font-size: 60px; font-family: BACS"">bGuOuUY</p>","","","","","","","","",""
"html-keyboard-response","70","130635","0.0-7.0-0.63","60bb62cbaccd206e3502516e","64e77d7b61f440b60e28659d","64eca324d1d8b49d120b1974","null","null","<p style=""font-size: 60px; font-family: BACS"">YdudYZUZ</p>","","","","","","","","",""
"html-keyboard-response","71","131638","0.0-7.0-0.64","60bb62cbaccd206e3502516e","64e77d7b61f440b60e28659d","64eca324d1d8b49d120b1974","null","null","<p style=""font-size: 60px; font-family: BACS"">dYdAdPc</p>","","","","","","","","",""
"html-keyboard-response","72","132650","0.0-7.0-0.65","60bb62cbaccd206e3502516e","64e77d7b61f440b60e28659d","64eca324d1d8b49d120b1974","null","null","<p style=""font-size: 60px; font-family: BACS"">kGlUYZUZ</p>","","","","","","","","",""
"html-keyboard-response","73","133659","0.0-7.0-0.66","60bb62cbaccd206e3502516e","64e77d7b61f440b60e28659d","64eca324d1d8b49d120b1974","null","null","<p style=""font-size: 60px; font-family: BACS"">TdTDCkbd</p>","","","","","","","","",""
"html-keyboard-response","74","134667","0.0-7.0-0.67","60bb62cbaccd206e3502516e","64e77d7b61f440b60e28659d","64eca324d1d8b49d120b1974","null","null","<p style=""font-size: 60px; font-family: BACS"">OLJbluZc</p>","","","","","","","","",""
"html-keyboard-response","75","135671","0.0-7.0-0.68","60bb62cbaccd206e3502516e","64e77d7b61f440b60e28659d","64eca324d1d8b49d120b1974","null","null","<p style=""font-size: 60px; font-family: BACS"">OEPkKOYC</p>","","","","","","","","",""
"html-keyboard-response","76","136683","0.0-7.0-0.69","60bb62cbaccd206e3502516e","64e77d7b61f440b60e28659d","64eca324d1d8b49d120b1974","null","null","<p style=""font-size: 60px; font-family: BACS"">kGlUuZc</p>","","","","","","","","",""
"html-keyboard-response","77","137691","0.0-7.0-0.70","60bb62cbaccd206e3502516e","64e77d7b61f440b60e28659d","64eca324d1d8b49d120b1974","null","null","<p style=""font-size: 60px; font-family: BACS"">ObZbAYZUZ</p>","","","","","","","","",""
"html-keyboard-response","78","138695","0.0-7.0-0.71","60bb62cbaccd206e3502516e","64e77d7b61f440b60e28659d","64eca324d1d8b49d120b1974","null","null","<p style=""font-size: 60px; font-family: BACS"">KMOcdPc</p>","","","","","","","","",""
"html-keyboard-response","79","139707","0.0-7.0-0.72","60bb62cbaccd206e3502516e","64e77d7b61f440b60e28659d","64eca324d1d8b49d120b1974","null","null","<p style=""font-size: 60px; font-family: BACS"">mrOdNYZu</p>","","","","","","","","",""
"html-keyboard-response","80","140715","0.0-7.0-0.73","60bb62cbaccd206e3502516e","64e77d7b61f440b60e28659d","64eca324d1d8b49d120b1974","null","null","<p style=""font-size: 60px; font-family: BACS"">KMOcCkbd</p>","","","","","","","","",""
"html-keyboard-response","81","141723","0.0-7.0-0.74","60bb62cbaccd206e3502516e","64e77d7b61f440b60e28659d","64eca324d1d8b49d120b1974","null","null","<p style=""font-size: 60px; font-family: BACS"">ObZbAuUY</p>","","","","","","","","",""
"html-keyboard-response","82","142731","0.0-7.0-0.75","60bb62cbaccd206e3502516e","64e77d7b61f440b60e28659d","64eca324d1d8b49d120b1974","null","null","<p style=""font-size: 60px; font-family: BACS"">bGuOuZc</p>","","","","","","","","",""
"html-keyboard-response","83","143739","0.0-7.0-0.76","60bb62cbaccd206e3502516e","64e77d7b61f440b60e28659d","64eca324d1d8b49d120b1974","null","null","<p style=""font-size: 60px; font-family: BACS"">dYdAKOYC</p>","","","","","","","","",""
"html-keyboard-response","84","144747","0.0-7.0-0.77","60bb62cbaccd206e3502516e","64e77d7b61f440b60e28659d","64eca324d1d8b49d120b1974","null","null","<p style=""font-size: 60px; font-family: BACS"">OLJblYZUZ</p>","","","","","","","","",""
"html-keyboard-response","85","145755","0.0-7.0-0.78","60bb62cbaccd206e3502516e","64e77d7b61f440b60e28659d","64eca324d1d8b49d120b1974","null","null","<p style=""font-size: 60px; font-family: BACS"">dRhtKEdl</p>","","","","","","","","",""
"html-keyboard-response","86","146762","0.0-7.0-0.79","60bb62cbaccd206e3502516e","64e77d7b61f440b60e28659d","64eca324d1d8b49d120b1974","null","null","<p style=""font-size: 60px; font-family: BACS"">mrOdYZUZ</p>","","","","","","","","",""
"html-keyboard-response","87","152070","0.0-8.0","60bb62cbaccd206e3502516e","64e77d7b61f440b60e28659d","64eca324d1d8b49d120b1974","5307"," ","<p>Great, you've seen the first block of words. You may now take a short break.</p>
      <p>Press the spacebar when you're ready to continue.</p>","","","","","","","","",""
"html-keyboard-response","88","153080","0.0-9.0-0.0","60bb62cbaccd206e3502516e","64e77d7b61f440b60e28659d","64eca324d1d8b49d120b1974","null","null","<p style=""font-size: 60px; font-family: BACS"">mrOdYZUZ</p>","","","","","","","","",""
"html-keyboard-response","89","154091","0.0-9.0-0.1","60bb62cbaccd206e3502516e","64e77d7b61f440b60e28659d","64eca324d1d8b49d120b1974","null","null","<p style=""font-size: 60px; font-family: BACS"">BOCRMKEdl</p>","","","","","","","","",""
"html-keyboard-response","90","155099","0.0-9.0-0.2","60bb62cbaccd206e3502516e","64e77d7b61f440b60e28659d","64eca324d1d8b49d120b1974","null","null","<p style=""font-size: 60px; font-family: BACS"">ObZbAYZUZ</p>","","","","","","","","",""
"html-keyboard-response","91","156107","0.0-9.0-0.3","60bb62cbaccd206e3502516e","64e77d7b61f440b60e28659d","64eca324d1d8b49d120b1974","null","null","<p style=""font-size: 60px; font-family: BACS"">kGlUYaum</p>","","","","","","","","",""
"html-keyboard-response","92","157115","0.0-9.0-0.4","60bb62cbaccd206e3502516e","64e77d7b61f440b60e28659d","64eca324d1d8b49d120b1974","null","null","<p style=""font-size: 60px; font-family: BACS"">kdaAJuZc</p>","","","","","","","","",""
"html-keyboard-response","93","158122","0.0-9.0-0.5","60bb62cbaccd206e3502516e","64e77d7b61f440b60e28659d","64eca324d1d8b49d120b1974","null","null","<p style=""font-size: 60px; font-family: BACS"">BOCRMdPc</p>","","","","","","","","",""
"html-keyboard-response","94","159132","0.0-9.0-0.6","60bb62cbaccd206e3502516e","64e77d7b61f440b60e28659d","64eca324d1d8b49d120b1974","null","null","<p style=""font-size: 60px; font-family: BACS"">NkUAYaum</p>","","","","","","","","",""
"html-keyboard-response","95","160138","0.0-9.0-0.7","60bb62cbaccd206e3502516e","64e77d7b61f440b60e28659d","64eca324d1d8b49d120b1974","null","null","<p style=""font-size: 60px; font-family: BACS"">BATOcCkbd</p>","","","","","","","","",""
"html-keyboard-response","96","161148","0.0-9.0-0.8","60bb62cbaccd206e3502516e","64e77d7b61f440b60e28659d","64eca324d1d8b49d120b1974","null","null","<p style=""font-size: 60px; font-family: BACS"">adkruZc</p>","","","","","","","","",""
"html-keyboard-response","97","162154","0.0-9.0-0.9","60bb62cbaccd206e3502516e","64e77d7b61f440b60e28659d","64eca324d1d8b49d120b1974","null","null","<p style=""font-size: 60px; font-family: BACS"">RtRhKEdl</p>","","","","","","","","",""
"html-keyboard-response","98","163164","0.0-9.0-0.10","60bb62cbaccd206e3502516e","64e77d7b61f440b60e28659d","64eca324d1d8b49d120b1974","null","null","<p style=""font-size: 60px; font-family: BACS"">adkrYZUZ</p>","","","","","","","","",""
"html-keyboard-response","99","164170","0.0-9.0-0.11","60bb62cbaccd206e3502516e","64e77d7b61f440b60e28659d","64eca324d1d8b49d120b1974","null","null","<p style=""font-size: 60px; font-family: BACS"">dRhtCkbd</p>","","","","","","","","",""
"html-keyboard-response","100","165180","0.0-9.0-0.12","60bb62cbaccd206e3502516e","64e77d7b61f440b60e28659d","64eca324d1d8b49d120b1974","null","null","<p style=""font-size: 60px; font-family: BACS"">GQrcYZUZ</p>","","","","","","","","",""
"html-keyboard-response","101","166186","0.0-9.0-0.13","60bb62cbaccd206e3502516e","64e77d7b61f440b60e28659d","64eca324d1d8b49d120b1974","null","null","<p style=""font-size: 60px; font-family: BACS"">bGuOuUY</p>","","","","","","","","",""
"html-keyboard-response","102","167196","0.0-9.0-0.14","60bb62cbaccd206e3502516e","64e77d7b61f440b60e28659d","64eca324d1d8b49d120b1974","null","null","<p style=""font-size: 60px; font-family: BACS"">ObZbANYZu</p>","","","","","","","","",""
"html-keyboard-response","103","168204","0.0-9.0-0.15","60bb62cbaccd206e3502516e","64e77d7b61f440b60e28659d","64eca324d1d8b49d120b1974","null","null","<p style=""font-size: 60px; font-family: BACS"">dRhtmCd</p>","","","","","","","","",""
"html-keyboard-response","104","169211","0.0-9.0-0.16","60bb62cbaccd206e3502516e","64e77d7b61f440b60e28659d","64eca324d1d8b49d120b1974","null","null","<p style=""font-size: 60px; font-family: BACS"">ObZbAYaum</p>","","","","","","","","",""
"html-keyboard-response","105","170220","0.0-9.0-0.17","60bb62cbaccd206e3502516e","64e77d7b61f440b60e28659d","64eca324d1d8b49d120b1974","null","null","<p style=""font-size: 60px; font-family: BACS"">KMOcKEdl</p>","","","","","","","","",""
"html-keyboard-response","106","171227","0.0-9.0-0.18","60bb62cbaccd206e3502516e","64e77d7b61f440b60e28659d","64eca324d1d8b49d120b1974","null","null","<p style=""font-size: 60px; font-family: BACS"">bGuONYZu</p>","","","","","","","","",""
"html-keyboard-response","107","172235","0.0-9.0-0.19","60bb62cbaccd206e3502516e","64e77d7b61f440b60e28659d","64eca324d1d8b49d120b1974","null","null","<p style=""font-size: 60px; font-family: BACS"">kGlUuZc</p>","","","","","","","","",""
"html-keyboard-response","108","173242","0.0-9.0-0.20","60bb62cbaccd206e3502516e","64e77d7b61f440b60e28659d","64eca324d1d8b49d120b1974","null","null","<p style=""font-size: 60px; font-family: BACS"">OEPkmCd</p>","","","","","","","","",""
"html-keyboard-response","109","174253","0.0-9.0-0.21","60bb62cbaccd206e3502516e","64e77d7b61f440b60e28659d","64eca324d1d8b49d120b1974","null","null","<p style=""font-size: 60px; font-family: BACS"">YdudYaum</p>","","","","","","","","",""
"html-keyboard-response","110","175259","0.0-9.0-0.22","60bb62cbaccd206e3502516e","64e77d7b61f440b60e28659d","64eca324d1d8b49d120b1974","null","null","<p style=""font-size: 60px; font-family: BACS"">TdTDKEdl</p>","","","","","","","","",""
"html-keyboard-response","111","176268","0.0-9.0-0.23","60bb62cbaccd206e3502516e","64e77d7b61f440b60e28659d","64eca324d1d8b49d120b1974","null","null","<p style=""font-size: 60px; font-family: BACS"">kdaAJNYZu</p>","","","","","","","","",""
"html-keyboard-response","112","177276","0.0-9.0-0.24","60bb62cbaccd206e3502516e","64e77d7b61f440b60e28659d","64eca324d1d8b49d120b1974","null","null","<p style=""font-size: 60px; font-family: BACS"">YdudYZUZ</p>","","","","","","","","",""
"html-keyboard-response","113","178283","0.0-9.0-0.25","60bb62cbaccd206e3502516e","64e77d7b61f440b60e28659d","64eca324d1d8b49d120b1974","null","null","<p style=""font-size: 60px; font-family: BACS"">GQrcuZc</p>","","","","","","","","",""
"html-keyboard-response","114","179292","0.0-9.0-0.26","60bb62cbaccd206e3502516e","64e77d7b61f440b60e28659d","64eca324d1d8b49d120b1974","null","null","<p style=""font-size: 60px; font-family: BACS"">MlthdPc</p>","","","","","","","","",""
"html-keyboard-response","115","180300","0.0-9.0-0.27","60bb62cbaccd206e3502516e","64e77d7b61f440b60e28659d","64eca324d1d8b49d120b1974","null","null","<p style=""font-size: 60px; font-family: BACS"">dYdAmCd</p>","","","","","","","","",""
"html-keyboard-response","116","181307","0.0-9.0-0.28","60bb62cbaccd206e3502516e","64e77d7b61f440b60e28659d","64eca324d1d8b49d120b1974","null","null","<p style=""font-size: 60px; font-family: BACS"">mrOdNYZu</p>","","","","","","","","",""
"html-keyboard-response","117","182315","0.0-9.0-0.29","60bb62cbaccd206e3502516e","64e77d7b61f440b60e28659d","64eca324d1d8b49d120b1974","null","null","<p style=""font-size: 60px; font-family: BACS"">kdaAJYaum</p>","","","","","","","","",""
"html-keyboard-response","118","183323","0.0-9.0-0.30","60bb62cbaccd206e3502516e","64e77d7b61f440b60e28659d","64eca324d1d8b49d120b1974","null","null","<p style=""font-size: 60px; font-family: BACS"">KMOcdPc</p>","","","","","","","","",""
"html-keyboard-response","119","184332","0.0-9.0-0.31","60bb62cbaccd206e3502516e","64e77d7b61f440b60e28659d","64eca324d1d8b49d120b1974","null","null","<p style=""font-size: 60px; font-family: BACS"">mrOduUY</p>","","","","","","","","",""
"html-keyboard-response","120","185336","0.0-9.0-0.32","60bb62cbaccd206e3502516e","64e77d7b61f440b60e28659d","64eca324d1d8b49d120b1974","null","null","<p style=""font-size: 60px; font-family: BACS"">RtRhKOYC</p>","","","","","","","","",""
"html-keyboard-response","121","186347","0.0-9.0-0.33","60bb62cbaccd206e3502516e","64e77d7b61f440b60e28659d","64eca324d1d8b49d120b1974","null","null","<p style=""font-size: 60px; font-family: BACS"">BATOcdPc</p>","","","","","","","","",""
"html-keyboard-response","122","187356","0.0-9.0-0.34","60bb62cbaccd206e3502516e","64e77d7b61f440b60e28659d","64eca324d1d8b49d120b1974","null","null","<p style=""font-size: 60px; font-family: BACS"">kGlUYZUZ</p>","","","","","","","","",""
"html-keyboard-response","123","188363","0.0-9.0-0.35","60bb62cbaccd206e3502516e","64e77d7b61f440b60e28659d","64eca324d1d8b49d120b1974","null","null","<p style=""font-size: 60px; font-family: BACS"">OLJbluUY</p>","","","","","","","","",""
"html-keyboard-response","124","189372","0.0-9.0-0.36","60bb62cbaccd206e3502516e","64e77d7b61f440b60e28659d","64eca324d1d8b49d120b1974","null","null","<p style=""font-size: 60px; font-family: BACS"">RtRhdPc</p>","","","","","","","","",""
"html-keyboard-response","125","190380","0.0-9.0-0.37","60bb62cbaccd206e3502516e","64e77d7b61f440b60e28659d","64eca324d1d8b49d120b1974","null","null","<p style=""font-size: 60px; font-family: BACS"">adkrYaum</p>","","","","","","","","",""
"html-keyboard-response","126","191387","0.0-9.0-0.38","60bb62cbaccd206e3502516e","64e77d7b61f440b60e28659d","64eca324d1d8b49d120b1974","null","null","<p style=""font-size: 60px; font-family: BACS"">OLJblNYZu</p>","","","","","","","","",""
"html-keyboard-response","127","192397","0.0-9.0-0.39","60bb62cbaccd206e3502516e","64e77d7b61f440b60e28659d","64eca324d1d8b49d120b1974","null","null","<p style=""font-size: 60px; font-family: BACS"">TdTDKOYC</p>","","","","","","","","",""
"html-keyboard-response","128","193405","0.0-9.0-0.40","60bb62cbaccd206e3502516e","64e77d7b61f440b60e28659d","64eca324d1d8b49d120b1974","null","null","<p style=""font-size: 60px; font-family: BACS"">OEPkCkbd</p>","","","","","","","","",""
"html-keyboard-response","129","194409","0.0-9.0-0.41","60bb62cbaccd206e3502516e","64e77d7b61f440b60e28659d","64eca324d1d8b49d120b1974","null","null","<p style=""font-size: 60px; font-family: BACS"">YduduUY</p>","","","","","","","","",""
"html-keyboard-response","130","195421","0.0-9.0-0.42","60bb62cbaccd206e3502516e","64e77d7b61f440b60e28659d","64eca324d1d8b49d120b1974","null","null","<p style=""font-size: 60px; font-family: BACS"">NkUAuZc</p>","","","","","","","","",""
"html-keyboard-response","131","196428","0.0-9.0-0.43","60bb62cbaccd206e3502516e","64e77d7b61f440b60e28659d","64eca324d1d8b49d120b1974","null","null","<p style=""font-size: 60px; font-family: BACS"">BOCRMCkbd</p>","","","","","","","","",""
"html-keyboard-response","132","197436","0.0-9.0-0.44","60bb62cbaccd206e3502516e","64e77d7b61f440b60e28659d","64eca324d1d8b49d120b1974","null","null","<p style=""font-size: 60px; font-family: BACS"">KMOcKOYC</p>","","","","","","","","",""
"html-keyboard-response","133","198441","0.0-9.0-0.45","60bb62cbaccd206e3502516e","64e77d7b61f440b60e28659d","64eca324d1d8b49d120b1974","null","null","<p style=""font-size: 60px; font-family: BACS"">GQrcYaum</p>","","","","","","","","",""
"html-keyboard-response","134","199451","0.0-9.0-0.46","60bb62cbaccd206e3502516e","64e77d7b61f440b60e28659d","64eca324d1d8b49d120b1974","null","null","<p style=""font-size: 60px; font-family: BACS"">TdTDdPc</p>","","","","","","","","",""
"html-keyboard-response","135","200458","0.0-9.0-0.47","60bb62cbaccd206e3502516e","64e77d7b61f440b60e28659d","64eca324d1d8b49d120b1974","null","null","<p style=""font-size: 60px; font-family: BACS"">GQrcuUY</p>","","","","","","","","",""
"html-keyboard-response","136","201468","0.0-9.0-0.48","60bb62cbaccd206e3502516e","64e77d7b61f440b60e28659d","64eca324d1d8b49d120b1974","null","null","<p style=""font-size: 60px; font-family: BACS"">mBmlAdPc</p>","","","","","","","","",""
"html-keyboard-response","137","202477","0.0-9.0-0.49","60bb62cbaccd206e3502516e","64e77d7b61f440b60e28659d","64eca324d1d8b49d120b1974","null","null","<p style=""font-size: 60px; font-family: BACS"">OLJblYZUZ</p>","","","","","","","","",""
"html-keyboard-response","138","203485","0.0-9.0-0.50","60bb62cbaccd206e3502516e","64e77d7b61f440b60e28659d","64eca324d1d8b49d120b1974","null","null","<p style=""font-size: 60px; font-family: BACS"">mBmlAmCd</p>","","","","","","","","",""
"html-keyboard-response","139","204493","0.0-9.0-0.51","60bb62cbaccd206e3502516e","64e77d7b61f440b60e28659d","64eca324d1d8b49d120b1974","null","null","<p style=""font-size: 60px; font-family: BACS"">YdudNYZu</p>","","","","","","","","",""
"html-keyboard-response","140","205500","0.0-9.0-0.52","60bb62cbaccd206e3502516e","64e77d7b61f440b60e28659d","64eca324d1d8b49d120b1974","null","null","<p style=""font-size: 60px; font-family: BACS"">dYdAKOYC</p>","","","","","","","","",""
"html-keyboard-response","141","206509","0.0-9.0-0.53","60bb62cbaccd206e3502516e","64e77d7b61f440b60e28659d","64eca324d1d8b49d120b1974","null","null","<p style=""font-size: 60px; font-family: BACS"">BOCRMmCd</p>","","","","","","","","",""
"html-keyboard-response","142","207517","0.0-9.0-0.54","60bb62cbaccd206e3502516e","64e77d7b61f440b60e28659d","64eca324d1d8b49d120b1974","null","null","<p style=""font-size: 60px; font-family: BACS"">dRhtKOYC</p>","","","","","","","","",""
"html-keyboard-response","143","208523","0.0-9.0-0.55","60bb62cbaccd206e3502516e","64e77d7b61f440b60e28659d","64eca324d1d8b49d120b1974","null","null","<p style=""font-size: 60px; font-family: BACS"">RtRhmCd</p>","","","","","","","","",""
"html-keyboard-response","144","209533","0.0-9.0-0.56","60bb62cbaccd206e3502516e","64e77d7b61f440b60e28659d","64eca324d1d8b49d120b1974","null","null","<p style=""font-size: 60px; font-family: BACS"">OLJbluZc</p>","","","","","","","","",""
"html-keyboard-response","145","210541","0.0-9.0-0.57","60bb62cbaccd206e3502516e","64e77d7b61f440b60e28659d","64eca324d1d8b49d120b1974","null","null","<p style=""font-size: 60px; font-family: BACS"">KMOcCkbd</p>","","","","","","","","",""
"html-keyboard-response","146","211548","0.0-9.0-0.58","60bb62cbaccd206e3502516e","64e77d7b61f440b60e28659d","64eca324d1d8b49d120b1974","null","null","<p style=""font-size: 60px; font-family: BACS"">NkUANYZu</p>","","","","","","","","",""
"html-keyboard-response","147","212555","0.0-9.0-0.59","60bb62cbaccd206e3502516e","64e77d7b61f440b60e28659d","64eca324d1d8b49d120b1974","null","null","<p style=""font-size: 60px; font-family: BACS"">MlthKEdl</p>","","","","","","","","",""
"html-keyboard-response","148","213564","0.0-9.0-0.60","60bb62cbaccd206e3502516e","64e77d7b61f440b60e28659d","64eca324d1d8b49d120b1974","null","null","<p style=""font-size: 60px; font-family: BACS"">OEPkKOYC</p>","","","","","","","","",""
"html-keyboard-response","149","214573","0.0-9.0-0.61","60bb62cbaccd206e3502516e","64e77d7b61f440b60e28659d","64eca324d1d8b49d120b1974","null","null","<p style=""font-size: 60px; font-family: BACS"">mBmlACkbd</p>","","","","","","","","",""
"html-keyboard-response","150","215577","0.0-9.0-0.62","60bb62cbaccd206e3502516e","64e77d7b61f440b60e28659d","64eca324d1d8b49d120b1974","null","null","<p style=""font-size: 60px; font-family: BACS"">dYdAdPc</p>","","","","","","","","",""
"html-keyboard-response","151","216588","0.0-9.0-0.63","60bb62cbaccd206e3502516e","64e77d7b61f440b60e28659d","64eca324d1d8b49d120b1974","null","null","<p style=""font-size: 60px; font-family: BACS"">NkUAuUY</p>","","","","","","","","",""
"html-keyboard-response","152","217597","0.0-9.0-0.64","60bb62cbaccd206e3502516e","64e77d7b61f440b60e28659d","64eca324d1d8b49d120b1974","null","null","<p style=""font-size: 60px; font-family: BACS"">BATOcmCd</p>","","","","","","","","",""
"html-keyboard-response","153","218604","0.0-9.0-0.65","60bb62cbaccd206e3502516e","64e77d7b61f440b60e28659d","64eca324d1d8b49d120b1974","null","null","<p style=""font-size: 60px; font-family: BACS"">bGuOYaum</p>","","","","","","","","",""
"html-keyboard-response","154","219613","0.0-9.0-0.66","60bb62cbaccd206e3502516e","64e77d7b61f440b60e28659d","64eca324d1d8b49d120b1974","null","null","<p style=""font-size: 60px; font-family: BACS"">ObZbAuUY</p>","","","","","","","","",""
"html-keyboard-response","155","220621","0.0-9.0-0.67","60bb62cbaccd206e3502516e","64e77d7b61f440b60e28659d","64eca324d1d8b49d120b1974","null","null","<p style=""font-size: 60px; font-family: BACS"">TdTDCkbd</p>","","","","","","","","",""
"html-keyboard-response","156","221628","0.0-9.0-0.68","60bb62cbaccd206e3502516e","64e77d7b61f440b60e28659d","64eca324d1d8b49d120b1974","null","null","<p style=""font-size: 60px; font-family: BACS"">OEPkKEdl</p>","","","","","","","","",""
"html-keyboard-response","157","222637","0.0-9.0-0.69","60bb62cbaccd206e3502516e","64e77d7b61f440b60e28659d","64eca324d1d8b49d120b1974","null","null","<p style=""font-size: 60px; font-family: BACS"">adkruUY</p>","","","","","","","","",""
"html-keyboard-response","158","223644","0.0-9.0-0.70","60bb62cbaccd206e3502516e","64e77d7b61f440b60e28659d","64eca324d1d8b49d120b1974","null","null","<p style=""font-size: 60px; font-family: BACS"">dYdACkbd</p>","","","","","","","","",""
"html-keyboard-response","159","224652","0.0-9.0-0.71","60bb62cbaccd206e3502516e","64e77d7b61f440b60e28659d","64eca324d1d8b49d120b1974","null","null","<p style=""font-size: 60px; font-family: BACS"">MlthmCd</p>","","","","","","","","",""
"html-keyboard-response","160","225661","0.0-9.0-0.72","60bb62cbaccd206e3502516e","64e77d7b61f440b60e28659d","64eca324d1d8b49d120b1974","null","null","<p style=""font-size: 60px; font-family: BACS"">bGuOuZc</p>","","","","","","","","",""
"html-keyboard-response","161","226669","0.0-9.0-0.73","60bb62cbaccd206e3502516e","64e77d7b61f440b60e28659d","64eca324d1d8b49d120b1974","null","null","<p style=""font-size: 60px; font-family: BACS"">dRhtKEdl</p>","","","","","","","","",""
"html-keyboard-response","162","227676","0.0-9.0-0.74","60bb62cbaccd206e3502516e","64e77d7b61f440b60e28659d","64eca324d1d8b49d120b1974","null","null","<p style=""font-size: 60px; font-family: BACS"">mBmlAKOYC</p>","","","","","","","","",""
"html-keyboard-response","163","228686","0.0-9.0-0.75","60bb62cbaccd206e3502516e","64e77d7b61f440b60e28659d","64eca324d1d8b49d120b1974","null","null","<p style=""font-size: 60px; font-family: BACS"">kdaAJYZUZ</p>","","","","","","","","",""
"html-keyboard-response","164","229694","0.0-9.0-0.76","60bb62cbaccd206e3502516e","64e77d7b61f440b60e28659d","64eca324d1d8b49d120b1974","null","null","<p style=""font-size: 60px; font-family: BACS"">mrOduZc</p>","","","","","","","","",""
"html-keyboard-response","165","230700","0.0-9.0-0.77","60bb62cbaccd206e3502516e","64e77d7b61f440b60e28659d","64eca324d1d8b49d120b1974","null","null","<p style=""font-size: 60px; font-family: BACS"">BATOcKEdl</p>","","","","","","","","",""
"html-keyboard-response","166","231710","0.0-9.0-0.78","60bb62cbaccd206e3502516e","64e77d7b61f440b60e28659d","64eca324d1d8b49d120b1974","null","null","<p style=""font-size: 60px; font-family: BACS"">kGlUNYZu</p>","","","","","","","","",""
"html-keyboard-response","167","232714","0.0-9.0-0.79","60bb62cbaccd206e3502516e","64e77d7b61f440b60e28659d","64eca324d1d8b49d120b1974","null","null","<p style=""font-size: 60px; font-family: BACS"">MlthKOYC</p>","","","","","","","","",""
"html-keyboard-response","168","235451","0.0-10.0","60bb62cbaccd206e3502516e","64e77d7b61f440b60e28659d","64eca324d1d8b49d120b1974","2737"," ","<p>Great, you've seen the second block of words. You may now take a short break.</p>
      <p>Press the spacebar when you're ready to continue.</p>","","","","","","","","",""
"html-keyboard-response","169","236458","0.0-11.0-0.0","60bb62cbaccd206e3502516e","64e77d7b61f440b60e28659d","64eca324d1d8b49d120b1974","null","null","<p style=""font-size: 60px; font-family: BACS"">kGlUYaum</p>","","","","","","","","",""
"html-keyboard-response","170","237470","0.0-11.0-0.1","60bb62cbaccd206e3502516e","64e77d7b61f440b60e28659d","64eca324d1d8b49d120b1974","null","null","<p style=""font-size: 60px; font-family: BACS"">dYdAdPc</p>","","","","","","","","",""
"html-keyboard-response","171","238474","0.0-11.0-0.2","60bb62cbaccd206e3502516e","64e77d7b61f440b60e28659d","64eca324d1d8b49d120b1974","null","null","<p style=""font-size: 60px; font-family: BACS"">mBmlACkbd</p>","","","","","","","","",""
"html-keyboard-response","172","239486","0.0-11.0-0.3","60bb62cbaccd206e3502516e","64e77d7b61f440b60e28659d","64eca324d1d8b49d120b1974","null","null","<p style=""font-size: 60px; font-family: BACS"">YdudYaum</p>","","","","","","","","",""
"html-keyboard-response","173","240490","0.0-11.0-0.4","60bb62cbaccd206e3502516e","64e77d7b61f440b60e28659d","64eca324d1d8b49d120b1974","null","null","<p style=""font-size: 60px; font-family: BACS"">RtRhKOYC</p>","","","","","","","","",""
"html-keyboard-response","174","241498","0.0-11.0-0.5","60bb62cbaccd206e3502516e","64e77d7b61f440b60e28659d","64eca324d1d8b49d120b1974","null","null","<p style=""font-size: 60px; font-family: BACS"">NkUAuUY</p>","","","","","","","","",""
"html-keyboard-response","175","242510","0.0-11.0-0.6","60bb62cbaccd206e3502516e","64e77d7b61f440b60e28659d","64eca324d1d8b49d120b1974","null","null","<p style=""font-size: 60px; font-family: BACS"">RtRhmCd</p>","","","","","","","","",""
"html-keyboard-response","176","243514","0.0-11.0-0.7","60bb62cbaccd206e3502516e","64e77d7b61f440b60e28659d","64eca324d1d8b49d120b1974","null","null","<p style=""font-size: 60px; font-family: BACS"">KMOcCkbd</p>","","","","","","","","",""
"html-keyboard-response","177","244526","0.0-11.0-0.8","60bb62cbaccd206e3502516e","64e77d7b61f440b60e28659d","64eca324d1d8b49d120b1974","null","null","<p style=""font-size: 60px; font-family: BACS"">OEPkmCd</p>","","","","","","","","",""
"html-keyboard-response","178","245530","0.0-11.0-0.9","60bb62cbaccd206e3502516e","64e77d7b61f440b60e28659d","64eca324d1d8b49d120b1974","null","null","<p style=""font-size: 60px; font-family: BACS"">RtRhdPc</p>","","","","","","","","",""
"html-keyboard-response","179","246541","0.0-11.0-0.10","60bb62cbaccd206e3502516e","64e77d7b61f440b60e28659d","64eca324d1d8b49d120b1974","null","null","<p style=""font-size: 60px; font-family: BACS"">mBmlAKOYC</p>","","","","","","","","",""
"html-keyboard-response","180","247551","0.0-11.0-0.11","60bb62cbaccd206e3502516e","64e77d7b61f440b60e28659d","64eca324d1d8b49d120b1974","null","null","<p style=""font-size: 60px; font-family: BACS"">ObZbAYZUZ</p>","","","","","","","","",""
"html-keyboard-response","181","248553","0.0-11.0-0.12","60bb62cbaccd206e3502516e","64e77d7b61f440b60e28659d","64eca324d1d8b49d120b1974","null","null","<p style=""font-size: 60px; font-family: BACS"">TdTDKOYC</p>","","","","","","","","",""
"html-keyboard-response","182","249566","0.0-11.0-0.13","60bb62cbaccd206e3502516e","64e77d7b61f440b60e28659d","64eca324d1d8b49d120b1974","null","null","<p style=""font-size: 60px; font-family: BACS"">GQrcuUY</p>","","","","","","","","",""
"html-keyboard-response","183","250570","0.0-11.0-0.14","60bb62cbaccd206e3502516e","64e77d7b61f440b60e28659d","64eca324d1d8b49d120b1974","null","null","<p style=""font-size: 60px; font-family: BACS"">dRhtmCd</p>","","","","","","","","",""
"html-keyboard-response","184","251581","0.0-11.0-0.15","60bb62cbaccd206e3502516e","64e77d7b61f440b60e28659d","64eca324d1d8b49d120b1974","null","null","<p style=""font-size: 60px; font-family: BACS"">RtRhKEdl</p>","","","","","","","","",""
"html-keyboard-response","185","252590","0.0-11.0-0.16","60bb62cbaccd206e3502516e","64e77d7b61f440b60e28659d","64eca324d1d8b49d120b1974","null","null","<p style=""font-size: 60px; font-family: BACS"">GQrcYZUZ</p>","","","","","","","","",""
"html-keyboard-response","186","253594","0.0-11.0-0.17","60bb62cbaccd206e3502516e","64e77d7b61f440b60e28659d","64eca324d1d8b49d120b1974","null","null","<p style=""font-size: 60px; font-family: BACS"">kGlUNYZu</p>","","","","","","","","",""
"html-keyboard-response","187","254605","0.0-11.0-0.18","60bb62cbaccd206e3502516e","64e77d7b61f440b60e28659d","64eca324d1d8b49d120b1974","null","null","<p style=""font-size: 60px; font-family: BACS"">dRhtCkbd</p>","","","","","","","","",""
"html-keyboard-response","188","255614","0.0-11.0-0.19","60bb62cbaccd206e3502516e","64e77d7b61f440b60e28659d","64eca324d1d8b49d120b1974","null","null","<p style=""font-size: 60px; font-family: BACS"">YdudNYZu</p>","","","","","","","","",""
"html-keyboard-response","189","256620","0.0-11.0-0.20","60bb62cbaccd206e3502516e","64e77d7b61f440b60e28659d","64eca324d1d8b49d120b1974","null","null","<p style=""font-size: 60px; font-family: BACS"">dYdAKOYC</p>","","","","","","","","",""
"html-keyboard-response","190","257631","0.0-11.0-0.21","60bb62cbaccd206e3502516e","64e77d7b61f440b60e28659d","64eca324d1d8b49d120b1974","null","null","<p style=""font-size: 60px; font-family: BACS"">BOCRMmCd</p>","","","","","","","","",""
"html-keyboard-response","191","258635","0.0-11.0-0.22","60bb62cbaccd206e3502516e","64e77d7b61f440b60e28659d","64eca324d1d8b49d120b1974","null","null","<p style=""font-size: 60px; font-family: BACS"">kdaAJNYZu</p>","","","","","","","","",""
"html-keyboard-response","192","259647","0.0-11.0-0.23","60bb62cbaccd206e3502516e","64e77d7b61f440b60e28659d","64eca324d1d8b49d120b1974","null","null","<p style=""font-size: 60px; font-family: BACS"">YduduUY</p>","","","","","","","","",""
"html-keyboard-response","193","260651","0.0-11.0-0.24","60bb62cbaccd206e3502516e","64e77d7b61f440b60e28659d","64eca324d1d8b49d120b1974","null","null","<p style=""font-size: 60px; font-family: BACS"">mBmlAmCd</p>","","","","","","","","",""
"html-keyboard-response","194","261658","0.0-11.0-0.25","60bb62cbaccd206e3502516e","64e77d7b61f440b60e28659d","64eca324d1d8b49d120b1974","null","null","<p style=""font-size: 60px; font-family: BACS"">mrOdNYZu</p>","","","","","","","","",""
"html-keyboard-response","195","262671","0.0-11.0-0.26","60bb62cbaccd206e3502516e","64e77d7b61f440b60e28659d","64eca324d1d8b49d120b1974","null","null","<p style=""font-size: 60px; font-family: BACS"">kdaAJuZc</p>","","","","","","","","",""
"html-keyboard-response","196","263675","0.0-11.0-0.27","60bb62cbaccd206e3502516e","64e77d7b61f440b60e28659d","64eca324d1d8b49d120b1974","null","null","<p style=""font-size: 60px; font-family: BACS"">OLJblYZUZ</p>","","","","","","","","",""
"html-keyboard-response","197","264686","0.0-11.0-0.28","60bb62cbaccd206e3502516e","64e77d7b61f440b60e28659d","64eca324d1d8b49d120b1974","null","null","<p style=""font-size: 60px; font-family: BACS"">KMOcdPc</p>","","","","","","","","",""
"html-keyboard-response","198","265695","0.0-11.0-0.29","60bb62cbaccd206e3502516e","64e77d7b61f440b60e28659d","64eca324d1d8b49d120b1974","null","null","<p style=""font-size: 60px; font-family: BACS"">BATOcKEdl</p>","","","","","","","","",""
"html-keyboard-response","199","266699","0.0-11.0-0.30","60bb62cbaccd206e3502516e","64e77d7b61f440b60e28659d","64eca324d1d8b49d120b1974","null","null","<p style=""font-size: 60px; font-family: BACS"">ObZbAYaum</p>","","","","","","","","",""
"html-keyboard-response","200","267707","0.0-11.0-0.31","60bb62cbaccd206e3502516e","64e77d7b61f440b60e28659d","64eca324d1d8b49d120b1974","null","null","<p style=""font-size: 60px; font-family: BACS"">OEPkKEdl</p>","","","","","","","","",""
"html-keyboard-response","201","268719","0.0-11.0-0.32","60bb62cbaccd206e3502516e","64e77d7b61f440b60e28659d","64eca324d1d8b49d120b1974","null","null","<p style=""font-size: 60px; font-family: BACS"">GQrcYaum</p>","","","","","","","","",""
"html-keyboard-response","202","269723","0.0-11.0-0.33","60bb62cbaccd206e3502516e","64e77d7b61f440b60e28659d","64eca324d1d8b49d120b1974","null","null","<p style=""font-size: 60px; font-family: BACS"">adkrYZUZ</p>","","","","","","","","",""
"html-keyboard-response","203","270735","0.0-11.0-0.34","60bb62cbaccd206e3502516e","64e77d7b61f440b60e28659d","64eca324d1d8b49d120b1974","null","null","<p style=""font-size: 60px; font-family: BACS"">OLJblNYZu</p>","","","","","","","","",""
"html-keyboard-response","204","271740","0.0-11.0-0.35","60bb62cbaccd206e3502516e","64e77d7b61f440b60e28659d","64eca324d1d8b49d120b1974","null","null","<p style=""font-size: 60px; font-family: BACS"">kGlUYZUZ</p>","","","","","","","","",""
"html-keyboard-response","205","272751","0.0-11.0-0.36","60bb62cbaccd206e3502516e","64e77d7b61f440b60e28659d","64eca324d1d8b49d120b1974","null","null","<p style=""font-size: 60px; font-family: BACS"">BATOcmCd</p>","","","","","","","","",""
"html-keyboard-response","206","273755","0.0-11.0-0.37","60bb62cbaccd206e3502516e","64e77d7b61f440b60e28659d","64eca324d1d8b49d120b1974","null","null","<p style=""font-size: 60px; font-family: BACS"">OEPkKOYC</p>","","","","","","","","",""
"html-keyboard-response","207","274768","0.0-11.0-0.38","60bb62cbaccd206e3502516e","64e77d7b61f440b60e28659d","64eca324d1d8b49d120b1974","null","null","<p style=""font-size: 60px; font-family: BACS"">ObZbAuUY</p>","","","","","","","","",""
"html-keyboard-response","208","275776","0.0-11.0-0.39","60bb62cbaccd206e3502516e","64e77d7b61f440b60e28659d","64eca324d1d8b49d120b1974","null","null","<p style=""font-size: 60px; font-family: BACS"">NkUAYaum</p>","","","","","","","","",""
"html-keyboard-response","209","276780","0.0-11.0-0.40","60bb62cbaccd206e3502516e","64e77d7b61f440b60e28659d","64eca324d1d8b49d120b1974","null","null","<p style=""font-size: 60px; font-family: BACS"">bGuOuUY</p>","","","","","","","","",""
"html-keyboard-response","210","277790","0.0-11.0-0.41","60bb62cbaccd206e3502516e","64e77d7b61f440b60e28659d","64eca324d1d8b49d120b1974","null","null","<p style=""font-size: 60px; font-family: BACS"">KMOcKEdl</p>","","","","","","","","",""
"html-keyboard-response","211","278799","0.0-11.0-0.42","60bb62cbaccd206e3502516e","64e77d7b61f440b60e28659d","64eca324d1d8b49d120b1974","null","null","<p style=""font-size: 60px; font-family: BACS"">MlthdPc</p>","","","","","","","","",""
"html-keyboard-response","212","279803","0.0-11.0-0.43","60bb62cbaccd206e3502516e","64e77d7b61f440b60e28659d","64eca324d1d8b49d120b1974","null","null","<p style=""font-size: 60px; font-family: BACS"">OLJbluZc</p>","","","","","","","","",""
"html-keyboard-response","213","280815","0.0-11.0-0.44","60bb62cbaccd206e3502516e","64e77d7b61f440b60e28659d","64eca324d1d8b49d120b1974","null","null","<p style=""font-size: 60px; font-family: BACS"">KMOcKOYC</p>","","","","","","","","",""
"html-keyboard-response","214","281819","0.0-11.0-0.45","60bb62cbaccd206e3502516e","64e77d7b61f440b60e28659d","64eca324d1d8b49d120b1974","null","null","<p style=""font-size: 60px; font-family: BACS"">OLJbluUY</p>","","","","","","","","",""
"html-keyboard-response","215","282831","0.0-11.0-0.46","60bb62cbaccd206e3502516e","64e77d7b61f440b60e28659d","64eca324d1d8b49d120b1974","null","null","<p style=""font-size: 60px; font-family: BACS"">bGuOuZc</p>","","","","","","","","",""
"html-keyboard-response","216","283835","0.0-11.0-0.47","60bb62cbaccd206e3502516e","64e77d7b61f440b60e28659d","64eca324d1d8b49d120b1974","null","null","<p style=""font-size: 60px; font-family: BACS"">OEPkCkbd</p>","","","","","","","","",""
"html-keyboard-response","217","284848","0.0-11.0-0.48","60bb62cbaccd206e3502516e","64e77d7b61f440b60e28659d","64eca324d1d8b49d120b1974","null","null","<p style=""font-size: 60px; font-family: BACS"">bGuONYZu</p>","","","","","","","","",""
"html-keyboard-response","218","285852","0.0-11.0-0.49","60bb62cbaccd206e3502516e","64e77d7b61f440b60e28659d","64eca324d1d8b49d120b1974","null","null","<p style=""font-size: 60px; font-family: BACS"">BATOcCkbd</p>","","","","","","","","",""
"html-keyboard-response","219","286864","0.0-11.0-0.50","60bb62cbaccd206e3502516e","64e77d7b61f440b60e28659d","64eca324d1d8b49d120b1974","null","null","<p style=""font-size: 60px; font-family: BACS"">mrOduZc</p>","","","","","","","","",""
"html-keyboard-response","220","287868","0.0-11.0-0.51","60bb62cbaccd206e3502516e","64e77d7b61f440b60e28659d","64eca324d1d8b49d120b1974","null","null","<p style=""font-size: 60px; font-family: BACS"">dYdAmCd</p>","","","","","","","","",""
"html-keyboard-response","221","288880","0.0-11.0-0.52","60bb62cbaccd206e3502516e","64e77d7b61f440b60e28659d","64eca324d1d8b49d120b1974","null","null","<p style=""font-size: 60px; font-family: BACS"">TdTDCkbd</p>","","","","","","","","",""
"html-keyboard-response","222","289884","0.0-11.0-0.53","60bb62cbaccd206e3502516e","64e77d7b61f440b60e28659d","64eca324d1d8b49d120b1974","null","null","<p style=""font-size: 60px; font-family: BACS"">BOCRMdPc</p>","","","","","","","","",""
"html-keyboard-response","223","290896","0.0-11.0-0.54","60bb62cbaccd206e3502516e","64e77d7b61f440b60e28659d","64eca324d1d8b49d120b1974","null","null","<p style=""font-size: 60px; font-family: BACS"">MlthmCd</p>","","","","","","","","",""
"html-keyboard-response","224","291900","0.0-11.0-0.55","60bb62cbaccd206e3502516e","64e77d7b61f440b60e28659d","64eca324d1d8b49d120b1974","null","null","<p style=""font-size: 60px; font-family: BACS"">BATOcdPc</p>","","","","","","","","",""
"html-keyboard-response","225","292907","0.0-11.0-0.56","60bb62cbaccd206e3502516e","64e77d7b61f440b60e28659d","64eca324d1d8b49d120b1974","null","null","<p style=""font-size: 60px; font-family: BACS"">dRhtKOYC</p>","","","","","","","","",""
"html-keyboard-response","226","293915","0.0-11.0-0.57","60bb62cbaccd206e3502516e","64e77d7b61f440b60e28659d","64eca324d1d8b49d120b1974","null","null","<p style=""font-size: 60px; font-family: BACS"">mrOduUY</p>","","","","","","","","",""
"html-keyboard-response","227","294928","0.0-11.0-0.58","60bb62cbaccd206e3502516e","64e77d7b61f440b60e28659d","64eca324d1d8b49d120b1974","null","null","<p style=""font-size: 60px; font-family: BACS"">ObZbANYZu</p>","","","","","","","","",""
"html-keyboard-response","228","295932","0.0-11.0-0.59","60bb62cbaccd206e3502516e","64e77d7b61f440b60e28659d","64eca324d1d8b49d120b1974","null","null","<p style=""font-size: 60px; font-family: BACS"">MlthKEdl</p>","","","","","","","","",""
"html-keyboard-response","229","296944","0.0-11.0-0.60","60bb62cbaccd206e3502516e","64e77d7b61f440b60e28659d","64eca324d1d8b49d120b1974","null","null","<p style=""font-size: 60px; font-family: BACS"">adkrYaum</p>","","","","","","","","",""
"html-keyboard-response","230","297948","0.0-11.0-0.61","60bb62cbaccd206e3502516e","64e77d7b61f440b60e28659d","64eca324d1d8b49d120b1974","null","null","<p style=""font-size: 60px; font-family: BACS"">NkUANYZu</p>","","","","","","","","",""
"html-keyboard-response","231","298961","0.0-11.0-0.62","60bb62cbaccd206e3502516e","64e77d7b61f440b60e28659d","64eca324d1d8b49d120b1974","null","null","<p style=""font-size: 60px; font-family: BACS"">kdaAJYZUZ</p>","","","","","","","","",""
"html-keyboard-response","232","299964","0.0-11.0-0.63","60bb62cbaccd206e3502516e","64e77d7b61f440b60e28659d","64eca324d1d8b49d120b1974","null","null","<p style=""font-size: 60px; font-family: BACS"">dRhtKEdl</p>","","","","","","","","",""
"html-keyboard-response","233","300976","0.0-11.0-0.64","60bb62cbaccd206e3502516e","64e77d7b61f440b60e28659d","64eca324d1d8b49d120b1974","null","null","<p style=""font-size: 60px; font-family: BACS"">MlthKOYC</p>","","","","","","","","",""
"html-keyboard-response","234","301980","0.0-11.0-0.65","60bb62cbaccd206e3502516e","64e77d7b61f440b60e28659d","64eca324d1d8b49d120b1974","null","null","<p style=""font-size: 60px; font-family: BACS"">GQrcuZc</p>","","","","","","","","",""
"html-keyboard-response","235","302992","0.0-11.0-0.66","60bb62cbaccd206e3502516e","64e77d7b61f440b60e28659d","64eca324d1d8b49d120b1974","null","null","<p style=""font-size: 60px; font-family: BACS"">adkruUY</p>","","","","","","","","",""
"html-keyboard-response","236","303999","0.0-11.0-0.67","60bb62cbaccd206e3502516e","64e77d7b61f440b60e28659d","64eca324d1d8b49d120b1974","null","null","<p style=""font-size: 60px; font-family: BACS"">mBmlAdPc</p>","","","","","","","","",""
"html-keyboard-response","237","305008","0.0-11.0-0.68","60bb62cbaccd206e3502516e","64e77d7b61f440b60e28659d","64eca324d1d8b49d120b1974","null","null","<p style=""font-size: 60px; font-family: BACS"">kGlUuZc</p>","","","","","","","","",""
"html-keyboard-response","238","306012","0.0-11.0-0.69","60bb62cbaccd206e3502516e","64e77d7b61f440b60e28659d","64eca324d1d8b49d120b1974","null","null","<p style=""font-size: 60px; font-family: BACS"">TdTDdPc</p>","","","","","","","","",""
"html-keyboard-response","239","307020","0.0-11.0-0.70","60bb62cbaccd206e3502516e","64e77d7b61f440b60e28659d","64eca324d1d8b49d120b1974","null","null","<p style=""font-size: 60px; font-family: BACS"">kdaAJYaum</p>","","","","","","","","",""
"html-keyboard-response","240","308032","0.0-11.0-0.71","60bb62cbaccd206e3502516e","64e77d7b61f440b60e28659d","64eca324d1d8b49d120b1974","null","null","<p style=""font-size: 60px; font-family: BACS"">adkruZc</p>","","","","","","","","",""
"html-keyboard-response","241","309036","0.0-11.0-0.72","60bb62cbaccd206e3502516e","64e77d7b61f440b60e28659d","64eca324d1d8b49d120b1974","null","null","<p style=""font-size: 60px; font-family: BACS"">YdudYZUZ</p>","","","","","","","","",""
"html-keyboard-response","242","310049","0.0-11.0-0.73","60bb62cbaccd206e3502516e","64e77d7b61f440b60e28659d","64eca324d1d8b49d120b1974","null","null","<p style=""font-size: 60px; font-family: BACS"">dYdACkbd</p>","","","","","","","","",""
"html-keyboard-response","243","311053","0.0-11.0-0.74","60bb62cbaccd206e3502516e","64e77d7b61f440b60e28659d","64eca324d1d8b49d120b1974","null","null","<p style=""font-size: 60px; font-family: BACS"">TdTDKEdl</p>","","","","","","","","",""
"html-keyboard-response","244","312064","0.0-11.0-0.75","60bb62cbaccd206e3502516e","64e77d7b61f440b60e28659d","64eca324d1d8b49d120b1974","null","null","<p style=""font-size: 60px; font-family: BACS"">BOCRMCkbd</p>","","","","","","","","",""
"html-keyboard-response","245","313068","0.0-11.0-0.76","60bb62cbaccd206e3502516e","64e77d7b61f440b60e28659d","64eca324d1d8b49d120b1974","null","null","<p style=""font-size: 60px; font-family: BACS"">bGuOYaum</p>","","","","","","","","",""
"html-keyboard-response","246","314080","0.0-11.0-0.77","60bb62cbaccd206e3502516e","64e77d7b61f440b60e28659d","64eca324d1d8b49d120b1974","null","null","<p style=""font-size: 60px; font-family: BACS"">mrOdYZUZ</p>","","","","","","","","",""
"html-keyboard-response","247","315084","0.0-11.0-0.78","60bb62cbaccd206e3502516e","64e77d7b61f440b60e28659d","64eca324d1d8b49d120b1974","null","null","<p style=""font-size: 60px; font-family: BACS"">NkUAuZc</p>","","","","","","","","",""
"html-keyboard-response","248","316092","0.0-11.0-0.79","60bb62cbaccd206e3502516e","64e77d7b61f440b60e28659d","64eca324d1d8b49d120b1974","null","null","<p style=""font-size: 60px; font-family: BACS"">BOCRMKEdl</p>","","","","","","","","",""
"html-keyboard-response","249","319242","0.0-12.0","60bb62cbaccd206e3502516e","64e77d7b61f440b60e28659d","64eca324d1d8b49d120b1974","3150"," ","<p>Great, you've seen the third block of words. You may now take a short break.</p>
      <p>Press the spacebar when you're ready to continue.</p>","","","","","","","","",""
"html-keyboard-response","250","320248","0.0-13.0-0.0","60bb62cbaccd206e3502516e","64e77d7b61f440b60e28659d","64eca324d1d8b49d120b1974","null","null","<p style=""font-size: 60px; font-family: BACS"">OLJbluUY</p>","","","","","","","","",""
"html-keyboard-response","251","321256","0.0-13.0-0.1","60bb62cbaccd206e3502516e","64e77d7b61f440b60e28659d","64eca324d1d8b49d120b1974","null","null","<p style=""font-size: 60px; font-family: BACS"">bGuONYZu</p>","","","","","","","","",""
"html-keyboard-response","252","322260","0.0-13.0-0.2","60bb62cbaccd206e3502516e","64e77d7b61f440b60e28659d","64eca324d1d8b49d120b1974","null","null","<p style=""font-size: 60px; font-family: BACS"">dRhtmCd</p>","","","","","","","","",""
"html-keyboard-response","253","323268","0.0-13.0-0.3","60bb62cbaccd206e3502516e","64e77d7b61f440b60e28659d","64eca324d1d8b49d120b1974","null","null","<p style=""font-size: 60px; font-family: BACS"">bGuOuUY</p>","","","","","","","","",""
"html-keyboard-response","254","324280","0.0-13.0-0.4","60bb62cbaccd206e3502516e","64e77d7b61f440b60e28659d","64eca324d1d8b49d120b1974","null","null","<p style=""font-size: 60px; font-family: BACS"">ObZbAYZUZ</p>","","","","","","","","",""
"html-keyboard-response","255","325284","0.0-13.0-0.5","60bb62cbaccd206e3502516e","64e77d7b61f440b60e28659d","64eca324d1d8b49d120b1974","null","null","<p style=""font-size: 60px; font-family: BACS"">dYdACkbd</p>","","","","","","","","",""
"html-keyboard-response","256","326296","0.0-13.0-0.6","60bb62cbaccd206e3502516e","64e77d7b61f440b60e28659d","64eca324d1d8b49d120b1974","null","null","<p style=""font-size: 60px; font-family: BACS"">mBmlAdPc</p>","","","","","","","","",""
"html-keyboard-response","257","327300","0.0-13.0-0.7","60bb62cbaccd206e3502516e","64e77d7b61f440b60e28659d","64eca324d1d8b49d120b1974","null","null","<p style=""font-size: 60px; font-family: BACS"">MlthKEdl</p>","","","","","","","","",""
"html-keyboard-response","258","328313","0.0-13.0-0.8","60bb62cbaccd206e3502516e","64e77d7b61f440b60e28659d","64eca324d1d8b49d120b1974","null","null","<p style=""font-size: 60px; font-family: BACS"">BOCRMdPc</p>","","","","","","","","",""
"html-keyboard-response","259","329316","0.0-13.0-0.9","60bb62cbaccd206e3502516e","64e77d7b61f440b60e28659d","64eca324d1d8b49d120b1974","null","null","<p style=""font-size: 60px; font-family: BACS"">RtRhKOYC</p>","","","","","","","","",""
"html-keyboard-response","260","330329","0.0-13.0-0.10","60bb62cbaccd206e3502516e","64e77d7b61f440b60e28659d","64eca324d1d8b49d120b1974","null","null","<p style=""font-size: 60px; font-family: BACS"">TdTDKEdl</p>","","","","","","","","",""
"html-keyboard-response","261","331333","0.0-13.0-0.11","60bb62cbaccd206e3502516e","64e77d7b61f440b60e28659d","64eca324d1d8b49d120b1974","null","null","<p style=""font-size: 60px; font-family: BACS"">mBmlACkbd</p>","","","","","","","","",""
"html-keyboard-response","262","332345","0.0-13.0-0.12","60bb62cbaccd206e3502516e","64e77d7b61f440b60e28659d","64eca324d1d8b49d120b1974","null","null","<p style=""font-size: 60px; font-family: BACS"">adkrYZUZ</p>","","","","","","","","",""
"html-keyboard-response","263","333349","0.0-13.0-0.13","60bb62cbaccd206e3502516e","64e77d7b61f440b60e28659d","64eca324d1d8b49d120b1974","null","null","<p style=""font-size: 60px; font-family: BACS"">OLJbluZc</p>","","","","","","","","",""
"html-keyboard-response","264","334360","0.0-13.0-0.14","60bb62cbaccd206e3502516e","64e77d7b61f440b60e28659d","64eca324d1d8b49d120b1974","null","null","<p style=""font-size: 60px; font-family: BACS"">bGuOYaum</p>","","","","","","","","",""
"html-keyboard-response","265","335364","0.0-13.0-0.15","60bb62cbaccd206e3502516e","64e77d7b61f440b60e28659d","64eca324d1d8b49d120b1974","null","null","<p style=""font-size: 60px; font-family: BACS"">dRhtKOYC</p>","","","","","","","","",""
"html-keyboard-response","266","336377","0.0-13.0-0.16","60bb62cbaccd206e3502516e","64e77d7b61f440b60e28659d","64eca324d1d8b49d120b1974","null","null","<p style=""font-size: 60px; font-family: BACS"">NkUAuZc</p>","","","","","","","","",""
"html-keyboard-response","267","337381","0.0-13.0-0.17","60bb62cbaccd206e3502516e","64e77d7b61f440b60e28659d","64eca324d1d8b49d120b1974","null","null","<p style=""font-size: 60px; font-family: BACS"">MlthKOYC</p>","","","","","","","","",""
"html-keyboard-response","268","338393","0.0-13.0-0.18","60bb62cbaccd206e3502516e","64e77d7b61f440b60e28659d","64eca324d1d8b49d120b1974","null","null","<p style=""font-size: 60px; font-family: BACS"">BATOcCkbd</p>","","","","","","","","",""
"html-keyboard-response","269","339398","0.0-13.0-0.19","60bb62cbaccd206e3502516e","64e77d7b61f440b60e28659d","64eca324d1d8b49d120b1974","null","null","<p style=""font-size: 60px; font-family: BACS"">GQrcYaum</p>","","","","","","","","",""
"html-keyboard-response","270","340405","0.0-13.0-0.20","60bb62cbaccd206e3502516e","64e77d7b61f440b60e28659d","64eca324d1d8b49d120b1974","null","null","<p style=""font-size: 60px; font-family: BACS"">ObZbANYZu</p>","","","","","","","","",""
"html-keyboard-response","271","341417","0.0-13.0-0.21","60bb62cbaccd206e3502516e","64e77d7b61f440b60e28659d","64eca324d1d8b49d120b1974","null","null","<p style=""font-size: 60px; font-family: BACS"">OEPkKOYC</p>","","","","","","","","",""
"html-keyboard-response","272","342421","0.0-13.0-0.22","60bb62cbaccd206e3502516e","64e77d7b61f440b60e28659d","64eca324d1d8b49d120b1974","null","null","<p style=""font-size: 60px; font-family: BACS"">YduduUY</p>","","","","","","","","",""
"html-keyboard-response","273","343433","0.0-13.0-0.23","60bb62cbaccd206e3502516e","64e77d7b61f440b60e28659d","64eca324d1d8b49d120b1974","null","null","<p style=""font-size: 60px; font-family: BACS"">mrOduZc</p>","","","","","","","","",""
"html-keyboard-response","274","344439","0.0-13.0-0.24","60bb62cbaccd206e3502516e","64e77d7b61f440b60e28659d","64eca324d1d8b49d120b1974","null","null","<p style=""font-size: 60px; font-family: BACS"">BOCRMCkbd</p>","","","","","","","","",""
"html-keyboard-response","275","345448","0.0-13.0-0.25","60bb62cbaccd206e3502516e","64e77d7b61f440b60e28659d","64eca324d1d8b49d120b1974","null","null","<p style=""font-size: 60px; font-family: BACS"">GQrcuZc</p>","","","","","","","","",""
"html-keyboard-response","276","346457","0.0-13.0-0.26","60bb62cbaccd206e3502516e","64e77d7b61f440b60e28659d","64eca324d1d8b49d120b1974","null","null","<p style=""font-size: 60px; font-family: BACS"">dYdAmCd</p>","","","","","","","","",""
"html-keyboard-response","277","347461","0.0-13.0-0.27","60bb62cbaccd206e3502516e","64e77d7b61f440b60e28659d","64eca324d1d8b49d120b1974","null","null","<p style=""font-size: 60px; font-family: BACS"">dRhtCkbd</p>","","","","","","","","",""
"html-keyboard-response","278","348473","0.0-13.0-0.28","60bb62cbaccd206e3502516e","64e77d7b61f440b60e28659d","64eca324d1d8b49d120b1974","null","null","<p style=""font-size: 60px; font-family: BACS"">KMOcdPc</p>","","","","","","","","",""
"html-keyboard-response","279","349477","0.0-13.0-0.29","60bb62cbaccd206e3502516e","64e77d7b61f440b60e28659d","64eca324d1d8b49d120b1974","null","null","<p style=""font-size: 60px; font-family: BACS"">kGlUYaum</p>","","","","","","","","",""
"html-keyboard-response","280","350489","0.0-13.0-0.30","60bb62cbaccd206e3502516e","64e77d7b61f440b60e28659d","64eca324d1d8b49d120b1974","null","null","<p style=""font-size: 60px; font-family: BACS"">TdTDKOYC</p>","","","","","","","","",""
"html-keyboard-response","281","351494","0.0-13.0-0.31","60bb62cbaccd206e3502516e","64e77d7b61f440b60e28659d","64eca324d1d8b49d120b1974","null","null","<p style=""font-size: 60px; font-family: BACS"">KMOcCkbd</p>","","","","","","","","",""
"html-keyboard-response","282","352505","0.0-13.0-0.32","60bb62cbaccd206e3502516e","64e77d7b61f440b60e28659d","64eca324d1d8b49d120b1974","null","null","<p style=""font-size: 60px; font-family: BACS"">dYdAdPc</p>","","","","","","","","",""
"html-keyboard-response","283","353509","0.0-13.0-0.33","60bb62cbaccd206e3502516e","64e77d7b61f440b60e28659d","64eca324d1d8b49d120b1974","null","null","<p style=""font-size: 60px; font-family: BACS"">kdaAJNYZu</p>","","","","","","","","",""
"html-keyboard-response","284","354521","0.0-13.0-0.34","60bb62cbaccd206e3502516e","64e77d7b61f440b60e28659d","64eca324d1d8b49d120b1974","null","null","<p style=""font-size: 60px; font-family: BACS"">YdudYZUZ</p>","","","","","","","","",""
"html-keyboard-response","285","355525","0.0-13.0-0.35","60bb62cbaccd206e3502516e","64e77d7b61f440b60e28659d","64eca324d1d8b49d120b1974","null","null","<p style=""font-size: 60px; font-family: BACS"">kdaAJuZc</p>","","","","","","","","",""
"html-keyboard-response","286","356537","0.0-13.0-0.36","60bb62cbaccd206e3502516e","64e77d7b61f440b60e28659d","64eca324d1d8b49d120b1974","null","null","<p style=""font-size: 60px; font-family: BACS"">kGlUNYZu</p>","","","","","","","","",""
"html-keyboard-response","287","357543","0.0-13.0-0.37","60bb62cbaccd206e3502516e","64e77d7b61f440b60e28659d","64eca324d1d8b49d120b1974","null","null","<p style=""font-size: 60px; font-family: BACS"">RtRhKEdl</p>","","","","","","","","",""
"html-keyboard-response","288","358553","0.0-13.0-0.38","60bb62cbaccd206e3502516e","64e77d7b61f440b60e28659d","64eca324d1d8b49d120b1974","null","null","<p style=""font-size: 60px; font-family: BACS"">kGlUuZc</p>","","","","","","","","",""
"html-keyboard-response","289","359557","0.0-13.0-0.39","60bb62cbaccd206e3502516e","64e77d7b61f440b60e28659d","64eca324d1d8b49d120b1974","null","null","<p style=""font-size: 60px; font-family: BACS"">RtRhdPc</p>","","","","","","","","",""
"html-keyboard-response","290","360569","0.0-13.0-0.40","60bb62cbaccd206e3502516e","64e77d7b61f440b60e28659d","64eca324d1d8b49d120b1974","null","null","<p style=""font-size: 60px; font-family: BACS"">bGuOuZc</p>","","","","","","","","",""
"html-keyboard-response","291","361574","0.0-13.0-0.41","60bb62cbaccd206e3502516e","64e77d7b61f440b60e28659d","64eca324d1d8b49d120b1974","null","null","<p style=""font-size: 60px; font-family: BACS"">TdTDdPc</p>","","","","","","","","",""
"html-keyboard-response","292","362586","0.0-13.0-0.42","60bb62cbaccd206e3502516e","64e77d7b61f440b60e28659d","64eca324d1d8b49d120b1974","null","null","<p style=""font-size: 60px; font-family: BACS"">OEPkKEdl</p>","","","","","","","","",""
"html-keyboard-response","293","363589","0.0-13.0-0.43","60bb62cbaccd206e3502516e","64e77d7b61f440b60e28659d","64eca324d1d8b49d120b1974","null","null","<p style=""font-size: 60px; font-family: BACS"">GQrcYZUZ</p>","","","","","","","","",""
"html-keyboard-response","294","364602","0.0-13.0-0.44","60bb62cbaccd206e3502516e","64e77d7b61f440b60e28659d","64eca324d1d8b49d120b1974","null","null","<p style=""font-size: 60px; font-family: BACS"">OEPkmCd</p>","","","","","","","","",""
"html-keyboard-response","295","365605","0.0-13.0-0.45","60bb62cbaccd206e3502516e","64e77d7b61f440b60e28659d","64eca324d1d8b49d120b1974","null","null","<p style=""font-size: 60px; font-family: BACS"">kGlUYZUZ</p>","","","","","","","","",""
"html-keyboard-response","296","366614","0.0-13.0-0.46","60bb62cbaccd206e3502516e","64e77d7b61f440b60e28659d","64eca324d1d8b49d120b1974","null","null","<p style=""font-size: 60px; font-family: BACS"">KMOcKOYC</p>","","","","","","","","",""
"html-keyboard-response","297","367626","0.0-13.0-0.47","60bb62cbaccd206e3502516e","64e77d7b61f440b60e28659d","64eca324d1d8b49d120b1974","null","null","<p style=""font-size: 60px; font-family: BACS"">BATOcdPc</p>","","","","","","","","",""
"html-keyboard-response","298","368634","0.0-13.0-0.48","60bb62cbaccd206e3502516e","64e77d7b61f440b60e28659d","64eca324d1d8b49d120b1974","null","null","<p style=""font-size: 60px; font-family: BACS"">mBmlAmCd</p>","","","","","","","","",""
"html-keyboard-response","299","369639","0.0-13.0-0.49","60bb62cbaccd206e3502516e","64e77d7b61f440b60e28659d","64eca324d1d8b49d120b1974","null","null","<p style=""font-size: 60px; font-family: BACS"">OLJblNYZu</p>","","","","","","","","",""
"html-keyboard-response","300","370650","0.0-13.0-0.50","60bb62cbaccd206e3502516e","64e77d7b61f440b60e28659d","64eca324d1d8b49d120b1974","null","null","<p style=""font-size: 60px; font-family: BACS"">mrOduUY</p>","","","","","","","","",""
"html-keyboard-response","301","371657","0.0-13.0-0.51","60bb62cbaccd206e3502516e","64e77d7b61f440b60e28659d","64eca324d1d8b49d120b1974","null","null","<p style=""font-size: 60px; font-family: BACS"">kdaAJYZUZ</p>","","","","","","","","",""
"html-keyboard-response","302","372662","0.0-13.0-0.52","60bb62cbaccd206e3502516e","64e77d7b61f440b60e28659d","64eca324d1d8b49d120b1974","null","null","<p style=""font-size: 60px; font-family: BACS"">dYdAKOYC</p>","","","","","","","","",""
"html-keyboard-response","303","373674","0.0-13.0-0.53","60bb62cbaccd206e3502516e","64e77d7b61f440b60e28659d","64eca324d1d8b49d120b1974","null","null","<p style=""font-size: 60px; font-family: BACS"">MlthmCd</p>","","","","","","","","",""
"html-keyboard-response","304","374680","0.0-13.0-0.54","60bb62cbaccd206e3502516e","64e77d7b61f440b60e28659d","64eca324d1d8b49d120b1974","null","null","<p style=""font-size: 60px; font-family: BACS"">OEPkCkbd</p>","","","","","","","","",""
"html-keyboard-response","305","375690","0.0-13.0-0.55","60bb62cbaccd206e3502516e","64e77d7b61f440b60e28659d","64eca324d1d8b49d120b1974","null","null","<p style=""font-size: 60px; font-family: BACS"">ObZbAYaum</p>","","","","","","","","",""
"html-keyboard-response","306","376697","0.0-13.0-0.56","60bb62cbaccd206e3502516e","64e77d7b61f440b60e28659d","64eca324d1d8b49d120b1974","null","null","<p style=""font-size: 60px; font-family: BACS"">KMOcKEdl</p>","","","","","","","","",""
"html-keyboard-response","307","377707","0.0-13.0-0.57","60bb62cbaccd206e3502516e","64e77d7b61f440b60e28659d","64eca324d1d8b49d120b1974","null","null","<p style=""font-size: 60px; font-family: BACS"">GQrcuUY</p>","","","","","","","","",""
"html-keyboard-response","308","378710","0.0-13.0-0.58","60bb62cbaccd206e3502516e","64e77d7b61f440b60e28659d","64eca324d1d8b49d120b1974","null","null","<p style=""font-size: 60px; font-family: BACS"">mrOdYZUZ</p>","","","","","","","","",""
"html-keyboard-response","309","379718","0.0-13.0-0.59","60bb62cbaccd206e3502516e","64e77d7b61f440b60e28659d","64eca324d1d8b49d120b1974","null","null","<p style=""font-size: 60px; font-family: BACS"">TdTDCkbd</p>","","","","","","","","",""
"html-keyboard-response","310","380730","0.0-13.0-0.60","60bb62cbaccd206e3502516e","64e77d7b61f440b60e28659d","64eca324d1d8b49d120b1974","null","null","<p style=""font-size: 60px; font-family: BACS"">adkruUY</p>","","","","","","","","",""
"html-keyboard-response","311","381734","0.0-13.0-0.61","60bb62cbaccd206e3502516e","64e77d7b61f440b60e28659d","64eca324d1d8b49d120b1974","null","null","<p style=""font-size: 60px; font-family: BACS"">BOCRMKEdl</p>","","","","","","","","",""
"html-keyboard-response","312","382746","0.0-13.0-0.62","60bb62cbaccd206e3502516e","64e77d7b61f440b60e28659d","64eca324d1d8b49d120b1974","null","null","<p style=""font-size: 60px; font-family: BACS"">kdaAJYaum</p>","","","","","","","","",""
"html-keyboard-response","313","383750","0.0-13.0-0.63","60bb62cbaccd206e3502516e","64e77d7b61f440b60e28659d","64eca324d1d8b49d120b1974","null","null","<p style=""font-size: 60px; font-family: BACS"">mrOdNYZu</p>","","","","","","","","",""
"html-keyboard-response","314","384762","0.0-13.0-0.64","60bb62cbaccd206e3502516e","64e77d7b61f440b60e28659d","64eca324d1d8b49d120b1974","null","null","<p style=""font-size: 60px; font-family: BACS"">mBmlAKOYC</p>","","","","","","","","",""
"html-keyboard-response","315","385769","0.0-13.0-0.65","60bb62cbaccd206e3502516e","64e77d7b61f440b60e28659d","64eca324d1d8b49d120b1974","null","null","<p style=""font-size: 60px; font-family: BACS"">NkUAuUY</p>","","","","","","","","",""
"html-keyboard-response","316","386777","0.0-13.0-0.66","60bb62cbaccd206e3502516e","64e77d7b61f440b60e28659d","64eca324d1d8b49d120b1974","null","null","<p style=""font-size: 60px; font-family: BACS"">MlthdPc</p>","","","","","","","","",""
"html-keyboard-response","317","387787","0.0-13.0-0.67","60bb62cbaccd206e3502516e","64e77d7b61f440b60e28659d","64eca324d1d8b49d120b1974","null","null","<p style=""font-size: 60px; font-family: BACS"">NkUAYaum</p>","","","","","","","","",""
"html-keyboard-response","318","388792","0.0-13.0-0.68","60bb62cbaccd206e3502516e","64e77d7b61f440b60e28659d","64eca324d1d8b49d120b1974","null","null","<p style=""font-size: 60px; font-family: BACS"">RtRhmCd</p>","","","","","","","","",""
"html-keyboard-response","319","389803","0.0-13.0-0.69","60bb62cbaccd206e3502516e","64e77d7b61f440b60e28659d","64eca324d1d8b49d120b1974","null","null","<p style=""font-size: 60px; font-family: BACS"">adkruZc</p>","","","","","","","","",""
"html-keyboard-response","320","390807","0.0-13.0-0.70","60bb62cbaccd206e3502516e","64e77d7b61f440b60e28659d","64eca324d1d8b49d120b1974","null","null","<p style=""font-size: 60px; font-family: BACS"">BATOcKEdl</p>","","","","","","","","",""
"html-keyboard-response","321","391818","0.0-13.0-0.71","60bb62cbaccd206e3502516e","64e77d7b61f440b60e28659d","64eca324d1d8b49d120b1974","null","null","<p style=""font-size: 60px; font-family: BACS"">OLJblYZUZ</p>","","","","","","","","",""
"html-keyboard-response","322","392822","0.0-13.0-0.72","60bb62cbaccd206e3502516e","64e77d7b61f440b60e28659d","64eca324d1d8b49d120b1974","null","null","<p style=""font-size: 60px; font-family: BACS"">BATOcmCd</p>","","","","","","","","",""
"html-keyboard-response","323","393835","0.0-13.0-0.73","60bb62cbaccd206e3502516e","64e77d7b61f440b60e28659d","64eca324d1d8b49d120b1974","null","null","<p style=""font-size: 60px; font-family: BACS"">YdudYaum</p>","","","","","","","","",""
"html-keyboard-response","324","394839","0.0-13.0-0.74","60bb62cbaccd206e3502516e","64e77d7b61f440b60e28659d","64eca324d1d8b49d120b1974","null","null","<p style=""font-size: 60px; font-family: BACS"">dRhtKEdl</p>","","","","","","","","",""
"html-keyboard-response","325","395851","0.0-13.0-0.75","60bb62cbaccd206e3502516e","64e77d7b61f440b60e28659d","64eca324d1d8b49d120b1974","null","null","<p style=""font-size: 60px; font-family: BACS"">adkrYaum</p>","","","","","","","","",""
"html-keyboard-response","326","396854","0.0-13.0-0.76","60bb62cbaccd206e3502516e","64e77d7b61f440b60e28659d","64eca324d1d8b49d120b1974","null","null","<p style=""font-size: 60px; font-family: BACS"">ObZbAuUY</p>","","","","","","","","",""
"html-keyboard-response","327","397867","0.0-13.0-0.77","60bb62cbaccd206e3502516e","64e77d7b61f440b60e28659d","64eca324d1d8b49d120b1974","null","null","<p style=""font-size: 60px; font-family: BACS"">YdudNYZu</p>","","","","","","","","",""
"html-keyboard-response","328","398873","0.0-13.0-0.78","60bb62cbaccd206e3502516e","64e77d7b61f440b60e28659d","64eca324d1d8b49d120b1974","null","null","<p style=""font-size: 60px; font-family: BACS"">BOCRMmCd</p>","","","","","","","","",""
"html-keyboard-response","329","399883","0.0-13.0-0.79","60bb62cbaccd206e3502516e","64e77d7b61f440b60e28659d","64eca324d1d8b49d120b1974","null","null","<p style=""font-size: 60px; font-family: BACS"">NkUANYZu</p>","","","","","","","","",""
"html-keyboard-response","330","402862","0.0-14.0","60bb62cbaccd206e3502516e","64e77d7b61f440b60e28659d","64eca324d1d8b49d120b1974","2979"," ","<p>Great, you've seen the fourth block of words. You may now take a short break.</p>
      <p>Press the spacebar when you're ready to continue.</p>","","","","","","","","",""
"html-keyboard-response","331","403876","0.0-15.0-0.0","60bb62cbaccd206e3502516e","64e77d7b61f440b60e28659d","64eca324d1d8b49d120b1974","null","null","<p style=""font-size: 60px; font-family: BACS"">mrOdYZUZ</p>","","","","","","","","",""
"html-keyboard-response","332","404882","0.0-15.0-0.1","60bb62cbaccd206e3502516e","64e77d7b61f440b60e28659d","64eca324d1d8b49d120b1974","null","null","<p style=""font-size: 60px; font-family: BACS"">mrOdYZUZ</p>","","","","","","","","",""
"html-keyboard-response","333","405891","0.0-15.0-0.2","60bb62cbaccd206e3502516e","64e77d7b61f440b60e28659d","64eca324d1d8b49d120b1974","null","null","<p style=""font-size: 60px; font-family: BACS"">mrOdYZUZ</p>","","","","","","","","",""
"html-keyboard-response","334","406895","0.0-15.0-0.3","60bb62cbaccd206e3502516e","64e77d7b61f440b60e28659d","64eca324d1d8b49d120b1974","null","null","<p style=""font-size: 60px; font-family: BACS"">mrOdYZUZ</p>","","","","","","","","",""
"html-keyboard-response","335","407907","0.0-15.0-0.4","60bb62cbaccd206e3502516e","64e77d7b61f440b60e28659d","64eca324d1d8b49d120b1974","null","null","<p style=""font-size: 60px; font-family: BACS"">mrOdYZUZ</p>","","","","","","","","",""
"html-keyboard-response","336","408915","0.0-15.0-0.5","60bb62cbaccd206e3502516e","64e77d7b61f440b60e28659d","64eca324d1d8b49d120b1974","null","null","<p style=""font-size: 60px; font-family: BACS"">mrOdYZUZ</p>","","","","","","","","",""
"html-keyboard-response","337","409919","0.0-15.0-0.6","60bb62cbaccd206e3502516e","64e77d7b61f440b60e28659d","64eca324d1d8b49d120b1974","null","null","<p style=""font-size: 60px; font-family: BACS"">mrOdYZUZ</p>","","","","","","","","",""
"html-keyboard-response","338","410931","0.0-15.0-0.7","60bb62cbaccd206e3502516e","64e77d7b61f440b60e28659d","64eca324d1d8b49d120b1974","null","null","<p style=""font-size: 60px; font-family: BACS"">mrOdYZUZ</p>","","","","","","","","",""
"html-keyboard-response","339","411935","0.0-15.0-0.8","60bb62cbaccd206e3502516e","64e77d7b61f440b60e28659d","64eca324d1d8b49d120b1974","null","null","<p style=""font-size: 60px; font-family: BACS"">mrOdYZUZ</p>","","","","","","","","",""
"html-keyboard-response","340","412947","0.0-15.0-0.9","60bb62cbaccd206e3502516e","64e77d7b61f440b60e28659d","64eca324d1d8b49d120b1974","null","null","<p style=""font-size: 60px; font-family: BACS"">mrOdYZUZ</p>","","","","","","","","",""
"html-keyboard-response","341","413951","0.0-15.0-0.10","60bb62cbaccd206e3502516e","64e77d7b61f440b60e28659d","64eca324d1d8b49d120b1974","null","null","<p style=""font-size: 60px; font-family: BACS"">mrOdYZUZ</p>","","","","","","","","",""
"html-keyboard-response","342","414962","0.0-15.0-0.11","60bb62cbaccd206e3502516e","64e77d7b61f440b60e28659d","64eca324d1d8b49d120b1974","null","null","<p style=""font-size: 60px; font-family: BACS"">mrOdYZUZ</p>","","","","","","","","",""
"html-keyboard-response","343","415972","0.0-15.0-0.12","60bb62cbaccd206e3502516e","64e77d7b61f440b60e28659d","64eca324d1d8b49d120b1974","null","null","<p style=""font-size: 60px; font-family: BACS"">mrOdYZUZ</p>","","","","","","","","",""
"html-keyboard-response","344","416976","0.0-15.0-0.13","60bb62cbaccd206e3502516e","64e77d7b61f440b60e28659d","64eca324d1d8b49d120b1974","null","null","<p style=""font-size: 60px; font-family: BACS"">mrOdYZUZ</p>","","","","","","","","",""
"html-keyboard-response","345","417983","0.0-15.0-0.14","60bb62cbaccd206e3502516e","64e77d7b61f440b60e28659d","64eca324d1d8b49d120b1974","null","null","<p style=""font-size: 60px; font-family: BACS"">mrOdYZUZ</p>","","","","","","","","",""
"html-keyboard-response","346","418996","0.0-15.0-0.15","60bb62cbaccd206e3502516e","64e77d7b61f440b60e28659d","64eca324d1d8b49d120b1974","null","null","<p style=""font-size: 60px; font-family: BACS"">mrOdYZUZ</p>","","","","","","","","",""
"html-keyboard-response","347","420000","0.0-15.0-0.16","60bb62cbaccd206e3502516e","64e77d7b61f440b60e28659d","64eca324d1d8b49d120b1974","null","null","<p style=""font-size: 60px; font-family: BACS"">mrOdYZUZ</p>","","","","","","","","",""
"html-keyboard-response","348","421012","0.0-15.0-0.17","60bb62cbaccd206e3502516e","64e77d7b61f440b60e28659d","64eca324d1d8b49d120b1974","null","null","<p style=""font-size: 60px; font-family: BACS"">mrOdYZUZ</p>","","","","","","","","",""
"html-keyboard-response","349","422018","0.0-15.0-0.18","60bb62cbaccd206e3502516e","64e77d7b61f440b60e28659d","64eca324d1d8b49d120b1974","null","null","<p style=""font-size: 60px; font-family: BACS"">mrOdYZUZ</p>","","","","","","","","",""
"html-keyboard-response","350","423028","0.0-15.0-0.19","60bb62cbaccd206e3502516e","64e77d7b61f440b60e28659d","64eca324d1d8b49d120b1974","null","null","<p style=""font-size: 60px; font-family: BACS"">mrOdYZUZ</p>","","","","","","","","",""
"html-keyboard-response","351","424032","0.0-15.0-0.20","60bb62cbaccd206e3502516e","64e77d7b61f440b60e28659d","64eca324d1d8b49d120b1974","null","null","<p style=""font-size: 60px; font-family: BACS"">mrOdYZUZ</p>","","","","","","","","",""
"html-keyboard-response","352","425044","0.0-15.0-0.21","60bb62cbaccd206e3502516e","64e77d7b61f440b60e28659d","64eca324d1d8b49d120b1974","null","null","<p style=""font-size: 60px; font-family: BACS"">mrOdYZUZ</p>","","","","","","","","",""
"html-keyboard-response","353","426048","0.0-15.0-0.22","60bb62cbaccd206e3502516e","64e77d7b61f440b60e28659d","64eca324d1d8b49d120b1974","null","null","<p style=""font-size: 60px; font-family: BACS"">mrOdYZUZ</p>","","","","","","","","",""
"html-keyboard-response","354","427060","0.0-15.0-0.23","60bb62cbaccd206e3502516e","64e77d7b61f440b60e28659d","64eca324d1d8b49d120b1974","null","null","<p style=""font-size: 60px; font-family: BACS"">mrOdYZUZ</p>","","","","","","","","",""
"html-keyboard-response","355","428066","0.0-15.0-0.24","60bb62cbaccd206e3502516e","64e77d7b61f440b60e28659d","64eca324d1d8b49d120b1974","null","null","<p style=""font-size: 60px; font-family: BACS"">mrOdYZUZ</p>","","","","","","","","",""
"html-keyboard-response","356","429076","0.0-15.0-0.25","60bb62cbaccd206e3502516e","64e77d7b61f440b60e28659d","64eca324d1d8b49d120b1974","null","null","<p style=""font-size: 60px; font-family: BACS"">mrOdYZUZ</p>","","","","","","","","",""
"html-keyboard-response","357","430080","0.0-15.0-0.26","60bb62cbaccd206e3502516e","64e77d7b61f440b60e28659d","64eca324d1d8b49d120b1974","null","null","<p style=""font-size: 60px; font-family: BACS"">mrOdYZUZ</p>","","","","","","","","",""
"html-keyboard-response","358","431088","0.0-15.0-0.27","60bb62cbaccd206e3502516e","64e77d7b61f440b60e28659d","64eca324d1d8b49d120b1974","null","null","<p style=""font-size: 60px; font-family: BACS"">mrOdYZUZ</p>","","","","","","","","",""
"html-keyboard-response","359","432100","0.0-15.0-0.28","60bb62cbaccd206e3502516e","64e77d7b61f440b60e28659d","64eca324d1d8b49d120b1974","null","null","<p style=""font-size: 60px; font-family: BACS"">mrOdYZUZ</p>","","","","","","","","",""
"html-keyboard-response","360","433104","0.0-15.0-0.29","60bb62cbaccd206e3502516e","64e77d7b61f440b60e28659d","64eca324d1d8b49d120b1974","null","null","<p style=""font-size: 60px; font-family: BACS"">mrOdYZUZ</p>","","","","","","","","",""
"html-keyboard-response","361","434116","0.0-15.0-0.30","60bb62cbaccd206e3502516e","64e77d7b61f440b60e28659d","64eca324d1d8b49d120b1974","null","null","<p style=""font-size: 60px; font-family: BACS"">mrOdYZUZ</p>","","","","","","","","",""
"html-keyboard-response","362","435124","0.0-15.0-0.31","60bb62cbaccd206e3502516e","64e77d7b61f440b60e28659d","64eca324d1d8b49d120b1974","null","null","<p style=""font-size: 60px; font-family: BACS"">mrOdYZUZ</p>","","","","","","","","",""
"html-keyboard-response","363","436129","0.0-15.0-0.32","60bb62cbaccd206e3502516e","64e77d7b61f440b60e28659d","64eca324d1d8b49d120b1974","null","null","<p style=""font-size: 60px; font-family: BACS"">mrOdYZUZ</p>","","","","","","","","",""
"html-keyboard-response","364","437140","0.0-15.0-0.33","60bb62cbaccd206e3502516e","64e77d7b61f440b60e28659d","64eca324d1d8b49d120b1974","null","null","<p style=""font-size: 60px; font-family: BACS"">mrOdYZUZ</p>","","","","","","","","",""
"html-keyboard-response","365","438144","0.0-15.0-0.34","60bb62cbaccd206e3502516e","64e77d7b61f440b60e28659d","64eca324d1d8b49d120b1974","null","null","<p style=""font-size: 60px; font-family: BACS"">mrOdYZUZ</p>","","","","","","","","",""
"html-keyboard-response","366","439157","0.0-15.0-0.35","60bb62cbaccd206e3502516e","64e77d7b61f440b60e28659d","64eca324d1d8b49d120b1974","null","null","<p style=""font-size: 60px; font-family: BACS"">mrOdYZUZ</p>","","","","","","","","",""
"html-keyboard-response","367","440161","0.0-15.0-0.36","60bb62cbaccd206e3502516e","64e77d7b61f440b60e28659d","64eca324d1d8b49d120b1974","null","null","<p style=""font-size: 60px; font-family: BACS"">mrOdYZUZ</p>","","","","","","","","",""
"html-keyboard-response","368","441168","0.0-15.0-0.37","60bb62cbaccd206e3502516e","64e77d7b61f440b60e28659d","64eca324d1d8b49d120b1974","null","null","<p style=""font-size: 60px; font-family: BACS"">mrOdYZUZ</p>","","","","","","","","",""
"html-keyboard-response","369","442177","0.0-15.0-0.38","60bb62cbaccd206e3502516e","64e77d7b61f440b60e28659d","64eca324d1d8b49d120b1974","null","null","<p style=""font-size: 60px; font-family: BACS"">mrOdYZUZ</p>","","","","","","","","",""
"html-keyboard-response","370","443189","0.0-15.0-0.39","60bb62cbaccd206e3502516e","64e77d7b61f440b60e28659d","64eca324d1d8b49d120b1974","null","null","<p style=""font-size: 60px; font-family: BACS"">mrOdYZUZ</p>","","","","","","","","",""
"html-keyboard-response","371","444193","0.0-15.0-0.40","60bb62cbaccd206e3502516e","64e77d7b61f440b60e28659d","64eca324d1d8b49d120b1974","null","null","<p style=""font-size: 60px; font-family: BACS"">mrOdYZUZ</p>","","","","","","","","",""
"html-keyboard-response","372","445204","0.0-15.0-0.41","60bb62cbaccd206e3502516e","64e77d7b61f440b60e28659d","64eca324d1d8b49d120b1974","null","null","<p style=""font-size: 60px; font-family: BACS"">mrOdYZUZ</p>","","","","","","","","",""
"html-keyboard-response","373","446208","0.0-15.0-0.42","60bb62cbaccd206e3502516e","64e77d7b61f440b60e28659d","64eca324d1d8b49d120b1974","null","null","<p style=""font-size: 60px; font-family: BACS"">mrOdYZUZ</p>","","","","","","","","",""
"html-keyboard-response","374","447220","0.0-15.0-0.43","60bb62cbaccd206e3502516e","64e77d7b61f440b60e28659d","64eca324d1d8b49d120b1974","null","null","<p style=""font-size: 60px; font-family: BACS"">mrOdYZUZ</p>","","","","","","","","",""
"html-keyboard-response","375","448224","0.0-15.0-0.44","60bb62cbaccd206e3502516e","64e77d7b61f440b60e28659d","64eca324d1d8b49d120b1974","null","null","<p style=""font-size: 60px; font-family: BACS"">mrOdYZUZ</p>","","","","","","","","",""
"html-keyboard-response","376","449234","0.0-15.0-0.45","60bb62cbaccd206e3502516e","64e77d7b61f440b60e28659d","64eca324d1d8b49d120b1974","null","null","<p style=""font-size: 60px; font-family: BACS"">mrOdYZUZ</p>","","","","","","","","",""
"html-keyboard-response","377","450245","0.0-15.0-0.46","60bb62cbaccd206e3502516e","64e77d7b61f440b60e28659d","64eca324d1d8b49d120b1974","null","null","<p style=""font-size: 60px; font-family: BACS"">mrOdYZUZ</p>","","","","","","","","",""
"html-keyboard-response","378","451249","0.0-15.0-0.47","60bb62cbaccd206e3502516e","64e77d7b61f440b60e28659d","64eca324d1d8b49d120b1974","null","null","<p style=""font-size: 60px; font-family: BACS"">mrOdYZUZ</p>","","","","","","","","",""
"html-keyboard-response","379","452261","0.0-15.0-0.48","60bb62cbaccd206e3502516e","64e77d7b61f440b60e28659d","64eca324d1d8b49d120b1974","null","null","<p style=""font-size: 60px; font-family: BACS"">mrOdYZUZ</p>","","","","","","","","",""
"html-keyboard-response","380","453265","0.0-15.0-0.49","60bb62cbaccd206e3502516e","64e77d7b61f440b60e28659d","64eca324d1d8b49d120b1974","null","null","<p style=""font-size: 60px; font-family: BACS"">mrOdYZUZ</p>","","","","","","","","",""
"html-keyboard-response","381","454272","0.0-15.0-0.50","60bb62cbaccd206e3502516e","64e77d7b61f440b60e28659d","64eca324d1d8b49d120b1974","null","null","<p style=""font-size: 60px; font-family: BACS"">mrOdYZUZ</p>","","","","","","","","",""
"html-keyboard-response","382","455285","0.0-15.0-0.51","60bb62cbaccd206e3502516e","64e77d7b61f440b60e28659d","64eca324d1d8b49d120b1974","null","null","<p style=""font-size: 60px; font-family: BACS"">mrOdYZUZ</p>","","","","","","","","",""
"html-keyboard-response","383","456289","0.0-15.0-0.52","60bb62cbaccd206e3502516e","64e77d7b61f440b60e28659d","64eca324d1d8b49d120b1974","null","null","<p style=""font-size: 60px; font-family: BACS"">mrOdYZUZ</p>","","","","","","","","",""
"html-keyboard-response","384","457301","0.0-15.0-0.53","60bb62cbaccd206e3502516e","64e77d7b61f440b60e28659d","64eca324d1d8b49d120b1974","null","null","<p style=""font-size: 60px; font-family: BACS"">mrOdYZUZ</p>","","","","","","","","",""
"html-keyboard-response","385","458305","0.0-15.0-0.54","60bb62cbaccd206e3502516e","64e77d7b61f440b60e28659d","64eca324d1d8b49d120b1974","null","null","<p style=""font-size: 60px; font-family: BACS"">mrOdYZUZ</p>","","","","","","","","",""
"html-keyboard-response","386","459317","0.0-15.0-0.55","60bb62cbaccd206e3502516e","64e77d7b61f440b60e28659d","64eca324d1d8b49d120b1974","null","null","<p style=""font-size: 60px; font-family: BACS"">mrOdYZUZ</p>","","","","","","","","",""
"html-keyboard-response","387","460321","0.0-15.0-0.56","60bb62cbaccd206e3502516e","64e77d7b61f440b60e28659d","64eca324d1d8b49d120b1974","null","null","<p style=""font-size: 60px; font-family: BACS"">mrOdYZUZ</p>","","","","","","","","",""
"html-keyboard-response","388","461333","0.0-15.0-0.57","60bb62cbaccd206e3502516e","64e77d7b61f440b60e28659d","64eca324d1d8b49d120b1974","null","null","<p style=""font-size: 60px; font-family: BACS"">mrOdYZUZ</p>","","","","","","","","",""
"html-keyboard-response","389","462338","0.0-15.0-0.58","60bb62cbaccd206e3502516e","64e77d7b61f440b60e28659d","64eca324d1d8b49d120b1974","null","null","<p style=""font-size: 60px; font-family: BACS"">mrOdYZUZ</p>","","","","","","","","",""
"html-keyboard-response","390","463349","0.0-15.0-0.59","60bb62cbaccd206e3502516e","64e77d7b61f440b60e28659d","64eca324d1d8b49d120b1974","null","null","<p style=""font-size: 60px; font-family: BACS"">mrOdYZUZ</p>","","","","","","","","",""
"html-keyboard-response","391","464356","0.0-15.0-0.60","60bb62cbaccd206e3502516e","64e77d7b61f440b60e28659d","64eca324d1d8b49d120b1974","null","null","<p style=""font-size: 60px; font-family: BACS"">mrOdYZUZ</p>","","","","","","","","",""
"html-keyboard-response","392","465364","0.0-15.0-0.61","60bb62cbaccd206e3502516e","64e77d7b61f440b60e28659d","64eca324d1d8b49d120b1974","null","null","<p style=""font-size: 60px; font-family: BACS"">mrOdYZUZ</p>","","","","","","","","",""
"html-keyboard-response","393","466368","0.0-15.0-0.62","60bb62cbaccd206e3502516e","64e77d7b61f440b60e28659d","64eca324d1d8b49d120b1974","null","null","<p style=""font-size: 60px; font-family: BACS"">mrOdYZUZ</p>","","","","","","","","",""
"html-keyboard-response","394","467377","0.0-15.0-0.63","60bb62cbaccd206e3502516e","64e77d7b61f440b60e28659d","64eca324d1d8b49d120b1974","null","null","<p style=""font-size: 60px; font-family: BACS"">mrOdYZUZ</p>","","","","","","","","",""
"html-keyboard-response","395","468388","0.0-15.0-0.64","60bb62cbaccd206e3502516e","64e77d7b61f440b60e28659d","64eca324d1d8b49d120b1974","null","null","<p style=""font-size: 60px; font-family: BACS"">mrOdYZUZ</p>","","","","","","","","",""
"html-keyboard-response","396","469392","0.0-15.0-0.65","60bb62cbaccd206e3502516e","64e77d7b61f440b60e28659d","64eca324d1d8b49d120b1974","null","null","<p style=""font-size: 60px; font-family: BACS"">mrOdYZUZ</p>","","","","","","","","",""
"html-keyboard-response","397","470405","0.0-15.0-0.66","60bb62cbaccd206e3502516e","64e77d7b61f440b60e28659d","64eca324d1d8b49d120b1974","null","null","<p style=""font-size: 60px; font-family: BACS"">mrOdYZUZ</p>","","","","","","","","",""
"html-keyboard-response","398","471409","0.0-15.0-0.67","60bb62cbaccd206e3502516e","64e77d7b61f440b60e28659d","64eca324d1d8b49d120b1974","null","null","<p style=""font-size: 60px; font-family: BACS"">mrOdYZUZ</p>","","","","","","","","",""
"html-keyboard-response","399","472422","0.0-15.0-0.68","60bb62cbaccd206e3502516e","64e77d7b61f440b60e28659d","64eca324d1d8b49d120b1974","null","null","<p style=""font-size: 60px; font-family: BACS"">mrOdYZUZ</p>","","","","","","","","",""
"html-keyboard-response","400","473425","0.0-15.0-0.69","60bb62cbaccd206e3502516e","64e77d7b61f440b60e28659d","64eca324d1d8b49d120b1974","null","null","<p style=""font-size: 60px; font-family: BACS"">mrOdYZUZ</p>","","","","","","","","",""
