"trial_type","trial_index","time_elapsed","internal_node_id","subject_id","study_id","session_id","rt","response","stimulus","success","item","task","correct_response","testing_condition","correct","target","confound","name"
"pavlovia","0","1219","0.0-0.0","5e8c57d9b4483e012006e7aa","650c16f0f2faf8d7a0d14c09","651c1ceae4b2f23064397f19","","","","","","","","","","","",""
"survey-html-form","1","7482","0.0-1.0","5e8c57d9b4483e012006e7aa","650c16f0f2faf8d7a0d14c09","651c1ceae4b2f23064397f19","6260","{""ID"":""5e8c57d9b4483e012006e7aa""}","","","","","","","","","",""
"html-keyboard-response","2","13024","0.0-2.0","5e8c57d9b4483e012006e7aa","650c16f0f2faf8d7a0d14c09","651c1ceae4b2f23064397f19","5540"," ","<p style=""font-size: 15px;"">Before beginning, we ask that you read the consent information and confirm your agreement to participate in the experiment.</p>
      <p style=""font-size: 15px;""> We ask that you remember that this is a research project and that your participation is entirely voluntary. You can stop your participation at any time, without needing to provide any explanation. The study we're asking you to participate in aims at examining how readers process written words. You will be engaged in a session of apprximately 20 minutes, followed by a brief questionnaire. You will have the opportunity to take a few breaks during the experiment. You will be paid £4 for your participation, corresponding to a rate of £8/hour. While this experiment looks at cognitive faculties, this experiment doesn't constitute clinical proof of eventual pathologies.</p>
      <p style=""font-size: 15px;"">All of the information collected thanks to yours and others' participation will be held in a secure password-protected server, and will not be shared with anyone not authorised to view it. Your personal information will be kept with an arbitrary participant ID. Thanks to this data anonymity process, any researcher analysing the data won't be able to track the information back to a specific participant. Therefore, this process will make identifying you impossibile, even when results from the study will be published in scientific reviews, presented at congresses, or at any other public forum. More generally, the collected data will be treated in accordance with the laws on privacy and conformity to the Legislative Degree n. 196 ""Code regarding the protection of personal data"" of the 30th of June 2003 and to the European Regulation 2016/670 (General Data Protection Regulation - GDPR). The Data Protection Officer is Avv. Valentina Carollo, who can be contacted at the following email addresses: <a href=""mailto:dpo@sissa.it"">dpo@sissa.it</a> or <a href=""mailto:rpd@sissa.it"">rpd@sissa.it</a> - PEC: <a href=""mailto:protocollo@pec.sissa.it"">protocollo@pec.sissa.it</a>.</p>
      <p style=""font-size: 15px;""> Before expressing your consent to participate, we would like to remind you again that in case you need explanations on any aspect of the experimental procedure, the researcher is at your disposition (<a href=""mailto:aliebelt@sissa.it"">aliebelt@sissa.it</a>, <a href=""mailto:davide.crepaldi@sissa.it"">davide.crepaldi@sissa.it</a>).</p>
      <p style=""font-size: 15px;"">If you would like to download the informed consent form, you can do so here: <a href=""BASL-Informed_Consent.pdf"" download>informed consent form</a>.</p>
      <p style=""font-size: 15px;"">We ask that you press the spacebar to proceed to the consent section.</p>","","","","","","","","",""
"survey-html-form","3","29315","0.0-3.0","5e8c57d9b4483e012006e7aa","650c16f0f2faf8d7a0d14c09","651c1ceae4b2f23064397f19","16289","{""consent1"":""YES"",""consent2"":""YES"",""consent3"":""YES"",""consent4"":""YES"",""consent5"":""YES"",""consent6"":""YES""}","","","","","","","","","",""
"fullscreen","4","33510","0.0-4.0","5e8c57d9b4483e012006e7aa","650c16f0f2faf8d7a0d14c09","651c1ceae4b2f23064397f19","","","","true","","","","","","","",""
"html-keyboard-response","5","48156","0.0-5.0","5e8c57d9b4483e012006e7aa","650c16f0f2faf8d7a0d14c09","651c1ceae4b2f23064397f19","14645"," ","<p>Welcome, and thank you very much for your time!</p>
      <p>In this experiment, you'll be a language expert who's been asked to take a look at words that Earth has received in its first communication with aliens. Your task, in this first part of the experiment, is to pay close attention to the words you'll be shown; later, world leaders will ask you questions on what you saw. The words will be shown to you quite quickly; it seems that the aliens were in a hurry :-)</p>
      <p>Press the spacebar to continue.<p>","","","","","","","","",""
"html-keyboard-response","6","48212","0.0-6.0","5e8c57d9b4483e012006e7aa","650c16f0f2faf8d7a0d14c09","651c1ceae4b2f23064397f19","null","null","<p style=""font-size: 120px; font-family: BACS""> </p>","","","","","","","","",""
"html-keyboard-response","7","52574","0.0-7.0","5e8c57d9b4483e012006e7aa","650c16f0f2faf8d7a0d14c09","651c1ceae4b2f23064397f19","4360"," ","<p>Here is an example of the words you'll see:</p>
      <img src='esempio.png' height='400px'>
      <p>When you're ready to begin, press the spacebar.</p></div>","","","","","","","","",""
"html-keyboard-response","8","53577","0.0-8.0-0.0","5e8c57d9b4483e012006e7aa","650c16f0f2faf8d7a0d14c09","651c1ceae4b2f23064397f19","null","null","<p style=""font-size: 60px; font-family: BACS"">JuamlJZr</p>","","","","","","","","",""
"html-keyboard-response","9","54585","0.0-8.0-0.1","5e8c57d9b4483e012006e7aa","650c16f0f2faf8d7a0d14c09","651c1ceae4b2f23064397f19","null","null","<p style=""font-size: 60px; font-family: BACS"">rcmuvbadk</p>","","","","","","","","",""
"html-keyboard-response","10","55593","0.0-8.0-0.2","5e8c57d9b4483e012006e7aa","650c16f0f2faf8d7a0d14c09","651c1ceae4b2f23064397f19","null","null","<p style=""font-size: 60px; font-family: BACS"">tDPRkTmc</p>","","","","","","","","",""
"html-keyboard-response","11","56605","0.0-8.0-0.3","5e8c57d9b4483e012006e7aa","650c16f0f2faf8d7a0d14c09","651c1ceae4b2f23064397f19","null","null","<p style=""font-size: 60px; font-family: BACS"">UdlGQJUNa</p>","","","","","","","","",""
"html-keyboard-response","12","57608","0.0-8.0-0.4","5e8c57d9b4483e012006e7aa","650c16f0f2faf8d7a0d14c09","651c1ceae4b2f23064397f19","null","null","<p style=""font-size: 60px; font-family: BACS"">rcmuvLUOk</p>","","","","","","","","",""
"html-keyboard-response","13","58621","0.0-8.0-0.5","5e8c57d9b4483e012006e7aa","650c16f0f2faf8d7a0d14c09","651c1ceae4b2f23064397f19","null","null","<p style=""font-size: 60px; font-family: BACS"">lRCBdmRb</p>","","","","","","","","",""
"html-keyboard-response","14","59627","0.0-8.0-0.6","5e8c57d9b4483e012006e7aa","650c16f0f2faf8d7a0d14c09","651c1ceae4b2f23064397f19","null","null","<p style=""font-size: 60px; font-family: BACS"">UdumdJUNa</p>","","","","","","","","",""
"html-keyboard-response","15","60635","0.0-8.0-0.7","5e8c57d9b4483e012006e7aa","650c16f0f2faf8d7a0d14c09","651c1ceae4b2f23064397f19","null","null","<p style=""font-size: 60px; font-family: BACS"">NJZlJZr</p>","","","","","","","","",""
"html-keyboard-response","16","61643","0.0-8.0-0.8","5e8c57d9b4483e012006e7aa","650c16f0f2faf8d7a0d14c09","651c1ceae4b2f23064397f19","null","null","<p style=""font-size: 60px; font-family: BACS"">mBbKTmc</p>","","","","","","","","",""
"html-keyboard-response","17","62653","0.0-8.0-0.9","5e8c57d9b4483e012006e7aa","650c16f0f2faf8d7a0d14c09","651c1ceae4b2f23064397f19","null","null","<p style=""font-size: 60px; font-family: BACS"">JuamlJUNa</p>","","","","","","","","",""
"html-keyboard-response","18","63660","0.0-8.0-0.10","5e8c57d9b4483e012006e7aa","650c16f0f2faf8d7a0d14c09","651c1ceae4b2f23064397f19","null","null","<p style=""font-size: 60px; font-family: BACS"">LdQvLUOk</p>","","","","","","","","",""
"html-keyboard-response","19","64666","0.0-8.0-0.11","5e8c57d9b4483e012006e7aa","650c16f0f2faf8d7a0d14c09","651c1ceae4b2f23064397f19","null","null","<p style=""font-size: 60px; font-family: BACS"">tDPRkMCkm</p>","","","","","","","","",""
"html-keyboard-response","20","65677","0.0-8.0-0.12","5e8c57d9b4483e012006e7aa","650c16f0f2faf8d7a0d14c09","651c1ceae4b2f23064397f19","null","null","<p style=""font-size: 60px; font-family: BACS"">hlbtbTbk</p>","","","","","","","","",""
"html-keyboard-response","21","66685","0.0-8.0-0.13","5e8c57d9b4483e012006e7aa","650c16f0f2faf8d7a0d14c09","651c1ceae4b2f23064397f19","null","null","<p style=""font-size: 60px; font-family: BACS"">LdQvbadk</p>","","","","","","","","",""
"html-keyboard-response","22","67689","0.0-8.0-0.14","5e8c57d9b4483e012006e7aa","650c16f0f2faf8d7a0d14c09","651c1ceae4b2f23064397f19","null","null","<p style=""font-size: 60px; font-family: BACS"">hlbtbOPE</p>","","","","","","","","",""
"html-keyboard-response","23","68694","0.0-8.0-0.15","5e8c57d9b4483e012006e7aa","650c16f0f2faf8d7a0d14c09","651c1ceae4b2f23064397f19","null","null","<p style=""font-size: 60px; font-family: BACS"">tDPRkdmRb</p>","","","","","","","","",""
"html-keyboard-response","24","69701","0.0-8.0-0.16","5e8c57d9b4483e012006e7aa","650c16f0f2faf8d7a0d14c09","651c1ceae4b2f23064397f19","null","null","<p style=""font-size: 60px; font-family: BACS"">udkmravu</p>","","","","","","","","",""
"html-keyboard-response","25","70707","0.0-8.0-0.17","5e8c57d9b4483e012006e7aa","650c16f0f2faf8d7a0d14c09","651c1ceae4b2f23064397f19","null","null","<p style=""font-size: 60px; font-family: BACS"">DOchlMCkm</p>","","","","","","","","",""
"html-keyboard-response","26","71711","0.0-8.0-0.18","5e8c57d9b4483e012006e7aa","650c16f0f2faf8d7a0d14c09","651c1ceae4b2f23064397f19","null","null","<p style=""font-size: 60px; font-family: BACS"">UdumdLUOk</p>","","","","","","","","",""
"html-keyboard-response","27","72723","0.0-8.0-0.19","5e8c57d9b4483e012006e7aa","650c16f0f2faf8d7a0d14c09","651c1ceae4b2f23064397f19","null","null","<p style=""font-size: 60px; font-family: BACS"">CDEmYTbk</p>","","","","","","","","",""
"html-keyboard-response","28","73726","0.0-8.0-0.20","5e8c57d9b4483e012006e7aa","650c16f0f2faf8d7a0d14c09","651c1ceae4b2f23064397f19","null","null","<p style=""font-size: 60px; font-family: BACS"">hlbtbdmRb</p>","","","","","","","","",""
"html-keyboard-response","29","74741","0.0-8.0-0.21","5e8c57d9b4483e012006e7aa","650c16f0f2faf8d7a0d14c09","651c1ceae4b2f23064397f19","null","null","<p style=""font-size: 60px; font-family: BACS"">BdtACTmc</p>","","","","","","","","",""
"html-keyboard-response","30","75744","0.0-8.0-0.22","5e8c57d9b4483e012006e7aa","650c16f0f2faf8d7a0d14c09","651c1ceae4b2f23064397f19","null","null","<p style=""font-size: 60px; font-family: BACS"">UdlGQJZr</p>","","","","","","","","",""
"html-keyboard-response","31","76755","0.0-8.0-0.23","5e8c57d9b4483e012006e7aa","650c16f0f2faf8d7a0d14c09","651c1ceae4b2f23064397f19","null","null","<p style=""font-size: 60px; font-family: BACS"">PEkhAOPE</p>","","","","","","","","",""
"html-keyboard-response","32","77760","0.0-8.0-0.24","5e8c57d9b4483e012006e7aa","650c16f0f2faf8d7a0d14c09","651c1ceae4b2f23064397f19","null","null","<p style=""font-size: 60px; font-family: BACS"">rcmuvJZr</p>","","","","","","","","",""
"html-keyboard-response","33","78770","0.0-8.0-0.25","5e8c57d9b4483e012006e7aa","650c16f0f2faf8d7a0d14c09","651c1ceae4b2f23064397f19","null","null","<p style=""font-size: 60px; font-family: BACS"">NJZlravu</p>","","","","","","","","",""
"html-keyboard-response","34","79778","0.0-8.0-0.26","5e8c57d9b4483e012006e7aa","650c16f0f2faf8d7a0d14c09","651c1ceae4b2f23064397f19","null","null","<p style=""font-size: 60px; font-family: BACS"">tDPRkOPE</p>","","","","","","","","",""
"html-keyboard-response","35","80785","0.0-8.0-0.27","5e8c57d9b4483e012006e7aa","650c16f0f2faf8d7a0d14c09","651c1ceae4b2f23064397f19","null","null","<p style=""font-size: 60px; font-family: BACS"">PEkhATbk</p>","","","","","","","","",""
"html-keyboard-response","36","81793","0.0-8.0-0.28","5e8c57d9b4483e012006e7aa","650c16f0f2faf8d7a0d14c09","651c1ceae4b2f23064397f19","null","null","<p style=""font-size: 60px; font-family: BACS"">DOchlTmc</p>","","","","","","","","",""
"html-keyboard-response","37","82802","0.0-8.0-0.29","5e8c57d9b4483e012006e7aa","650c16f0f2faf8d7a0d14c09","651c1ceae4b2f23064397f19","null","null","<p style=""font-size: 60px; font-family: BACS"">UdlGQravu</p>","","","","","","","","",""
"html-keyboard-response","38","83811","0.0-8.0-0.30","5e8c57d9b4483e012006e7aa","650c16f0f2faf8d7a0d14c09","651c1ceae4b2f23064397f19","null","null","<p style=""font-size: 60px; font-family: BACS"">hlbtbTmc</p>","","","","","","","","",""
"html-keyboard-response","39","84820","0.0-8.0-0.31","5e8c57d9b4483e012006e7aa","650c16f0f2faf8d7a0d14c09","651c1ceae4b2f23064397f19","null","null","<p style=""font-size: 60px; font-family: BACS"">NJZlLUOk</p>","","","","","","","","",""
"html-keyboard-response","40","85827","0.0-8.0-0.32","5e8c57d9b4483e012006e7aa","650c16f0f2faf8d7a0d14c09","651c1ceae4b2f23064397f19","null","null","<p style=""font-size: 60px; font-family: BACS"">dKRDMCkm</p>","","","","","","","","",""
"html-keyboard-response","41","86835","0.0-8.0-0.33","5e8c57d9b4483e012006e7aa","650c16f0f2faf8d7a0d14c09","651c1ceae4b2f23064397f19","null","null","<p style=""font-size: 60px; font-family: BACS"">COTKOPE</p>","","","","","","","","",""
"html-keyboard-response","42","87842","0.0-8.0-0.34","5e8c57d9b4483e012006e7aa","650c16f0f2faf8d7a0d14c09","651c1ceae4b2f23064397f19","null","null","<p style=""font-size: 60px; font-family: BACS"">CDEmYdmRb</p>","","","","","","","","",""
"html-keyboard-response","43","88844","0.0-8.0-0.35","5e8c57d9b4483e012006e7aa","650c16f0f2faf8d7a0d14c09","651c1ceae4b2f23064397f19","null","null","<p style=""font-size: 60px; font-family: BACS"">mBbKOPE</p>","","","","","","","","",""
"html-keyboard-response","44","89852","0.0-8.0-0.36","5e8c57d9b4483e012006e7aa","650c16f0f2faf8d7a0d14c09","651c1ceae4b2f23064397f19","null","null","<p style=""font-size: 60px; font-family: BACS"">lRCBMCkm</p>","","","","","","","","",""
"html-keyboard-response","45","90860","0.0-8.0-0.37","5e8c57d9b4483e012006e7aa","650c16f0f2faf8d7a0d14c09","651c1ceae4b2f23064397f19","null","null","<p style=""font-size: 60px; font-family: BACS"">udkmLUOk</p>","","","","","","","","",""
"html-keyboard-response","46","91866","0.0-8.0-0.38","5e8c57d9b4483e012006e7aa","650c16f0f2faf8d7a0d14c09","651c1ceae4b2f23064397f19","null","null","<p style=""font-size: 60px; font-family: BACS"">lRCBTbk</p>","","","","","","","","",""
"html-keyboard-response","47","92876","0.0-8.0-0.39","5e8c57d9b4483e012006e7aa","650c16f0f2faf8d7a0d14c09","651c1ceae4b2f23064397f19","null","null","<p style=""font-size: 60px; font-family: BACS"">YNrAmLUOk</p>","","","","","","","","",""
"html-keyboard-response","48","93880","0.0-8.0-0.40","5e8c57d9b4483e012006e7aa","650c16f0f2faf8d7a0d14c09","651c1ceae4b2f23064397f19","null","null","<p style=""font-size: 60px; font-family: BACS"">mBbKMCkm</p>","","","","","","","","",""
"html-keyboard-response","49","94892","0.0-8.0-0.41","5e8c57d9b4483e012006e7aa","650c16f0f2faf8d7a0d14c09","651c1ceae4b2f23064397f19","null","null","<p style=""font-size: 60px; font-family: BACS"">lRCBOPE</p>","","","","","","","","",""
"html-keyboard-response","50","95894","0.0-8.0-0.42","5e8c57d9b4483e012006e7aa","650c16f0f2faf8d7a0d14c09","651c1ceae4b2f23064397f19","null","null","<p style=""font-size: 60px; font-family: BACS"">mBbKTbk</p>","","","","","","","","",""
"html-keyboard-response","51","96908","0.0-8.0-0.43","5e8c57d9b4483e012006e7aa","650c16f0f2faf8d7a0d14c09","651c1ceae4b2f23064397f19","null","null","<p style=""font-size: 60px; font-family: BACS"">rcmuvravu</p>","","","","","","","","",""
"html-keyboard-response","52","97910","0.0-8.0-0.44","5e8c57d9b4483e012006e7aa","650c16f0f2faf8d7a0d14c09","651c1ceae4b2f23064397f19","null","null","<p style=""font-size: 60px; font-family: BACS"">YNrAmJZr</p>","","","","","","","","",""
"html-keyboard-response","53","98921","0.0-8.0-0.45","5e8c57d9b4483e012006e7aa","650c16f0f2faf8d7a0d14c09","651c1ceae4b2f23064397f19","null","null","<p style=""font-size: 60px; font-family: BACS"">Juamlravu</p>","","","","","","","","",""
"html-keyboard-response","54","99924","0.0-8.0-0.46","5e8c57d9b4483e012006e7aa","650c16f0f2faf8d7a0d14c09","651c1ceae4b2f23064397f19","null","null","<p style=""font-size: 60px; font-family: BACS"">COTKMCkm</p>","","","","","","","","",""
"html-keyboard-response","55","100928","0.0-8.0-0.47","5e8c57d9b4483e012006e7aa","650c16f0f2faf8d7a0d14c09","651c1ceae4b2f23064397f19","null","null","<p style=""font-size: 60px; font-family: BACS"">udkmJUNa</p>","","","","","","","","",""
"html-keyboard-response","56","101937","0.0-8.0-0.48","5e8c57d9b4483e012006e7aa","650c16f0f2faf8d7a0d14c09","651c1ceae4b2f23064397f19","null","null","<p style=""font-size: 60px; font-family: BACS"">COTKTmc</p>","","","","","","","","",""
"html-keyboard-response","57","102942","0.0-8.0-0.49","5e8c57d9b4483e012006e7aa","650c16f0f2faf8d7a0d14c09","651c1ceae4b2f23064397f19","null","null","<p style=""font-size: 60px; font-family: BACS"">BdtACMCkm</p>","","","","","","","","",""
"html-keyboard-response","58","103956","0.0-8.0-0.50","5e8c57d9b4483e012006e7aa","650c16f0f2faf8d7a0d14c09","651c1ceae4b2f23064397f19","null","null","<p style=""font-size: 60px; font-family: BACS"">PEkhATmc</p>","","","","","","","","",""
"html-keyboard-response","59","104961","0.0-8.0-0.51","5e8c57d9b4483e012006e7aa","650c16f0f2faf8d7a0d14c09","651c1ceae4b2f23064397f19","null","null","<p style=""font-size: 60px; font-family: BACS"">COTKTbk</p>","","","","","","","","",""
"html-keyboard-response","60","105972","0.0-8.0-0.52","5e8c57d9b4483e012006e7aa","650c16f0f2faf8d7a0d14c09","651c1ceae4b2f23064397f19","null","null","<p style=""font-size: 60px; font-family: BACS"">lkAkJUNa</p>","","","","","","","","",""
"html-keyboard-response","61","106976","0.0-8.0-0.53","5e8c57d9b4483e012006e7aa","650c16f0f2faf8d7a0d14c09","651c1ceae4b2f23064397f19","null","null","<p style=""font-size: 60px; font-family: BACS"">Juamlbadk</p>","","","","","","","","",""
"html-keyboard-response","62","107984","0.0-8.0-0.54","5e8c57d9b4483e012006e7aa","650c16f0f2faf8d7a0d14c09","651c1ceae4b2f23064397f19","null","null","<p style=""font-size: 60px; font-family: BACS"">kLvdNJUNa</p>","","","","","","","","",""
"html-keyboard-response","63","108994","0.0-8.0-0.55","5e8c57d9b4483e012006e7aa","650c16f0f2faf8d7a0d14c09","651c1ceae4b2f23064397f19","null","null","<p style=""font-size: 60px; font-family: BACS"">YNrAmravu</p>","","","","","","","","",""
"html-keyboard-response","64","110003","0.0-8.0-0.56","5e8c57d9b4483e012006e7aa","650c16f0f2faf8d7a0d14c09","651c1ceae4b2f23064397f19","null","null","<p style=""font-size: 60px; font-family: BACS"">DOchlOPE</p>","","","","","","","","",""
"html-keyboard-response","65","111009","0.0-8.0-0.57","5e8c57d9b4483e012006e7aa","650c16f0f2faf8d7a0d14c09","651c1ceae4b2f23064397f19","null","null","<p style=""font-size: 60px; font-family: BACS"">kLvdNLUOk</p>","","","","","","","","",""
"html-keyboard-response","66","112019","0.0-8.0-0.58","5e8c57d9b4483e012006e7aa","650c16f0f2faf8d7a0d14c09","651c1ceae4b2f23064397f19","null","null","<p style=""font-size: 60px; font-family: BACS"">dKRDdmRb</p>","","","","","","","","",""
"html-keyboard-response","67","113027","0.0-8.0-0.59","5e8c57d9b4483e012006e7aa","650c16f0f2faf8d7a0d14c09","651c1ceae4b2f23064397f19","null","null","<p style=""font-size: 60px; font-family: BACS"">kLvdNbadk</p>","","","","","","","","",""
"html-keyboard-response","68","114035","0.0-8.0-0.60","5e8c57d9b4483e012006e7aa","650c16f0f2faf8d7a0d14c09","651c1ceae4b2f23064397f19","null","null","<p style=""font-size: 60px; font-family: BACS"">PEkhAdmRb</p>","","","","","","","","",""
"html-keyboard-response","69","115042","0.0-8.0-0.61","5e8c57d9b4483e012006e7aa","650c16f0f2faf8d7a0d14c09","651c1ceae4b2f23064397f19","null","null","<p style=""font-size: 60px; font-family: BACS"">Udumdravu</p>","","","","","","","","",""
"html-keyboard-response","70","116044","0.0-8.0-0.62","5e8c57d9b4483e012006e7aa","650c16f0f2faf8d7a0d14c09","651c1ceae4b2f23064397f19","null","null","<p style=""font-size: 60px; font-family: BACS"">udkmbadk</p>","","","","","","","","",""
"html-keyboard-response","71","117051","0.0-8.0-0.63","5e8c57d9b4483e012006e7aa","650c16f0f2faf8d7a0d14c09","651c1ceae4b2f23064397f19","null","null","<p style=""font-size: 60px; font-family: BACS"">lkAkLUOk</p>","","","","","","","","",""
"html-keyboard-response","72","118059","0.0-8.0-0.64","5e8c57d9b4483e012006e7aa","650c16f0f2faf8d7a0d14c09","651c1ceae4b2f23064397f19","null","null","<p style=""font-size: 60px; font-family: BACS"">dKRDTbk</p>","","","","","","","","",""
"html-keyboard-response","73","119067","0.0-8.0-0.65","5e8c57d9b4483e012006e7aa","650c16f0f2faf8d7a0d14c09","651c1ceae4b2f23064397f19","null","null","<p style=""font-size: 60px; font-family: BACS"">BdtACdmRb</p>","","","","","","","","",""
"html-keyboard-response","74","120074","0.0-8.0-0.66","5e8c57d9b4483e012006e7aa","650c16f0f2faf8d7a0d14c09","651c1ceae4b2f23064397f19","null","null","<p style=""font-size: 60px; font-family: BACS"">YNrAmJUNa</p>","","","","","","","","",""
"html-keyboard-response","75","121077","0.0-8.0-0.67","5e8c57d9b4483e012006e7aa","650c16f0f2faf8d7a0d14c09","651c1ceae4b2f23064397f19","null","null","<p style=""font-size: 60px; font-family: BACS"">CDEmYMCkm</p>","","","","","","","","",""
"html-keyboard-response","76","122083","0.0-8.0-0.68","5e8c57d9b4483e012006e7aa","650c16f0f2faf8d7a0d14c09","651c1ceae4b2f23064397f19","null","null","<p style=""font-size: 60px; font-family: BACS"">LdQvJUNa</p>","","","","","","","","",""
"html-keyboard-response","77","123090","0.0-8.0-0.69","5e8c57d9b4483e012006e7aa","650c16f0f2faf8d7a0d14c09","651c1ceae4b2f23064397f19","null","null","<p style=""font-size: 60px; font-family: BACS"">dKRDTmc</p>","","","","","","","","",""
"html-keyboard-response","78","124093","0.0-8.0-0.70","5e8c57d9b4483e012006e7aa","650c16f0f2faf8d7a0d14c09","651c1ceae4b2f23064397f19","null","null","<p style=""font-size: 60px; font-family: BACS"">UdumdJZr</p>","","","","","","","","",""
"html-keyboard-response","79","125096","0.0-8.0-0.71","5e8c57d9b4483e012006e7aa","650c16f0f2faf8d7a0d14c09","651c1ceae4b2f23064397f19","null","null","<p style=""font-size: 60px; font-family: BACS"">CDEmYOPE</p>","","","","","","","","",""
"html-keyboard-response","80","126106","0.0-8.0-0.72","5e8c57d9b4483e012006e7aa","650c16f0f2faf8d7a0d14c09","651c1ceae4b2f23064397f19","null","null","<p style=""font-size: 60px; font-family: BACS"">lkAkJZr</p>","","","","","","","","",""
"html-keyboard-response","81","127110","0.0-8.0-0.73","5e8c57d9b4483e012006e7aa","650c16f0f2faf8d7a0d14c09","651c1ceae4b2f23064397f19","null","null","<p style=""font-size: 60px; font-family: BACS"">DOchldmRb</p>","","","","","","","","",""
"html-keyboard-response","82","128121","0.0-8.0-0.74","5e8c57d9b4483e012006e7aa","650c16f0f2faf8d7a0d14c09","651c1ceae4b2f23064397f19","null","null","<p style=""font-size: 60px; font-family: BACS"">LdQvravu</p>","","","","","","","","",""
"html-keyboard-response","83","129127","0.0-8.0-0.75","5e8c57d9b4483e012006e7aa","650c16f0f2faf8d7a0d14c09","651c1ceae4b2f23064397f19","null","null","<p style=""font-size: 60px; font-family: BACS"">NJZlbadk</p>","","","","","","","","",""
"html-keyboard-response","84","130139","0.0-8.0-0.76","5e8c57d9b4483e012006e7aa","650c16f0f2faf8d7a0d14c09","651c1ceae4b2f23064397f19","null","null","<p style=""font-size: 60px; font-family: BACS"">BdtACTbk</p>","","","","","","","","",""
"html-keyboard-response","85","131143","0.0-8.0-0.77","5e8c57d9b4483e012006e7aa","650c16f0f2faf8d7a0d14c09","651c1ceae4b2f23064397f19","null","null","<p style=""font-size: 60px; font-family: BACS"">lkAkbadk</p>","","","","","","","","",""
"html-keyboard-response","86","132152","0.0-8.0-0.78","5e8c57d9b4483e012006e7aa","650c16f0f2faf8d7a0d14c09","651c1ceae4b2f23064397f19","null","null","<p style=""font-size: 60px; font-family: BACS"">kLvdNJZr</p>","","","","","","","","",""
"html-keyboard-response","87","133159","0.0-8.0-0.79","5e8c57d9b4483e012006e7aa","650c16f0f2faf8d7a0d14c09","651c1ceae4b2f23064397f19","null","null","<p style=""font-size: 60px; font-family: BACS"">UdlGQbadk</p>","","","","","","","","",""
"html-keyboard-response","88","136333","0.0-9.0","5e8c57d9b4483e012006e7aa","650c16f0f2faf8d7a0d14c09","651c1ceae4b2f23064397f19","3173"," ","<p>Great, you've seen the first block of words. You may now take a short break.</p>
      <p>Press the spacebar when you're ready to continue.</p>","","","","","","","","",""
"html-keyboard-response","89","137340","0.0-10.0-0.0","5e8c57d9b4483e012006e7aa","650c16f0f2faf8d7a0d14c09","651c1ceae4b2f23064397f19","null","null","<p style=""font-size: 60px; font-family: BACS"">JuamlJZr</p>","","","","","","","","",""
"html-keyboard-response","90","138345","0.0-10.0-0.1","5e8c57d9b4483e012006e7aa","650c16f0f2faf8d7a0d14c09","651c1ceae4b2f23064397f19","null","null","<p style=""font-size: 60px; font-family: BACS"">hlbtbOPE</p>","","","","","","","","",""
"html-keyboard-response","91","139356","0.0-10.0-0.2","5e8c57d9b4483e012006e7aa","650c16f0f2faf8d7a0d14c09","651c1ceae4b2f23064397f19","null","null","<p style=""font-size: 60px; font-family: BACS"">kLvdNJUNa</p>","","","","","","","","",""
"html-keyboard-response","92","140360","0.0-10.0-0.3","5e8c57d9b4483e012006e7aa","650c16f0f2faf8d7a0d14c09","651c1ceae4b2f23064397f19","null","null","<p style=""font-size: 60px; font-family: BACS"">udkmravu</p>","","","","","","","","",""
"html-keyboard-response","93","141372","0.0-10.0-0.4","5e8c57d9b4483e012006e7aa","650c16f0f2faf8d7a0d14c09","651c1ceae4b2f23064397f19","null","null","<p style=""font-size: 60px; font-family: BACS"">LdQvbadk</p>","","","","","","","","",""
"html-keyboard-response","94","142377","0.0-10.0-0.5","5e8c57d9b4483e012006e7aa","650c16f0f2faf8d7a0d14c09","651c1ceae4b2f23064397f19","null","null","<p style=""font-size: 60px; font-family: BACS"">DOchldmRb</p>","","","","","","","","",""
"html-keyboard-response","95","143379","0.0-10.0-0.6","5e8c57d9b4483e012006e7aa","650c16f0f2faf8d7a0d14c09","651c1ceae4b2f23064397f19","null","null","<p style=""font-size: 60px; font-family: BACS"">NJZlLUOk</p>","","","","","","","","",""
"html-keyboard-response","96","144388","0.0-10.0-0.7","5e8c57d9b4483e012006e7aa","650c16f0f2faf8d7a0d14c09","651c1ceae4b2f23064397f19","null","null","<p style=""font-size: 60px; font-family: BACS"">BdtACTbk</p>","","","","","","","","",""
"html-keyboard-response","97","145392","0.0-10.0-0.8","5e8c57d9b4483e012006e7aa","650c16f0f2faf8d7a0d14c09","651c1ceae4b2f23064397f19","null","null","<p style=""font-size: 60px; font-family: BACS"">LdQvJUNa</p>","","","","","","","","",""
"html-keyboard-response","98","146394","0.0-10.0-0.9","5e8c57d9b4483e012006e7aa","650c16f0f2faf8d7a0d14c09","651c1ceae4b2f23064397f19","null","null","<p style=""font-size: 60px; font-family: BACS"">hlbtbTbk</p>","","","","","","","","",""
"html-keyboard-response","99","147404","0.0-10.0-0.10","5e8c57d9b4483e012006e7aa","650c16f0f2faf8d7a0d14c09","651c1ceae4b2f23064397f19","null","null","<p style=""font-size: 60px; font-family: BACS"">UdumdJZr</p>","","","","","","","","",""
"html-keyboard-response","100","148412","0.0-10.0-0.11","5e8c57d9b4483e012006e7aa","650c16f0f2faf8d7a0d14c09","651c1ceae4b2f23064397f19","null","null","<p style=""font-size: 60px; font-family: BACS"">hlbtbdmRb</p>","","","","","","","","",""
"html-keyboard-response","101","149420","0.0-10.0-0.12","5e8c57d9b4483e012006e7aa","650c16f0f2faf8d7a0d14c09","651c1ceae4b2f23064397f19","null","null","<p style=""font-size: 60px; font-family: BACS"">mBbKMCkm</p>","","","","","","","","",""
"html-keyboard-response","102","150425","0.0-10.0-0.13","5e8c57d9b4483e012006e7aa","650c16f0f2faf8d7a0d14c09","651c1ceae4b2f23064397f19","null","null","<p style=""font-size: 60px; font-family: BACS"">dKRDTmc</p>","","","","","","","","",""
"html-keyboard-response","103","151427","0.0-10.0-0.14","5e8c57d9b4483e012006e7aa","650c16f0f2faf8d7a0d14c09","651c1ceae4b2f23064397f19","null","null","<p style=""font-size: 60px; font-family: BACS"">kLvdNbadk</p>","","","","","","","","",""
"html-keyboard-response","104","152429","0.0-10.0-0.15","5e8c57d9b4483e012006e7aa","650c16f0f2faf8d7a0d14c09","651c1ceae4b2f23064397f19","null","null","<p style=""font-size: 60px; font-family: BACS"">BdtACMCkm</p>","","","","","","","","",""
"html-keyboard-response","105","153436","0.0-10.0-0.16","5e8c57d9b4483e012006e7aa","650c16f0f2faf8d7a0d14c09","651c1ceae4b2f23064397f19","null","null","<p style=""font-size: 60px; font-family: BACS"">NJZlJZr</p>","","","","","","","","",""
"html-keyboard-response","106","154443","0.0-10.0-0.17","5e8c57d9b4483e012006e7aa","650c16f0f2faf8d7a0d14c09","651c1ceae4b2f23064397f19","null","null","<p style=""font-size: 60px; font-family: BACS"">tDPRkdmRb</p>","","","","","","","","",""
"html-keyboard-response","107","155446","0.0-10.0-0.18","5e8c57d9b4483e012006e7aa","650c16f0f2faf8d7a0d14c09","651c1ceae4b2f23064397f19","null","null","<p style=""font-size: 60px; font-family: BACS"">kLvdNLUOk</p>","","","","","","","","",""
"html-keyboard-response","108","156452","0.0-10.0-0.19","5e8c57d9b4483e012006e7aa","650c16f0f2faf8d7a0d14c09","651c1ceae4b2f23064397f19","null","null","<p style=""font-size: 60px; font-family: BACS"">mBbKTbk</p>","","","","","","","","",""
"html-keyboard-response","109","157460","0.0-10.0-0.20","5e8c57d9b4483e012006e7aa","650c16f0f2faf8d7a0d14c09","651c1ceae4b2f23064397f19","null","null","<p style=""font-size: 60px; font-family: BACS"">LdQvLUOk</p>","","","","","","","","",""
"html-keyboard-response","110","158462","0.0-10.0-0.21","5e8c57d9b4483e012006e7aa","650c16f0f2faf8d7a0d14c09","651c1ceae4b2f23064397f19","null","null","<p style=""font-size: 60px; font-family: BACS"">tDPRkOPE</p>","","","","","","","","",""
"html-keyboard-response","111","159476","0.0-10.0-0.22","5e8c57d9b4483e012006e7aa","650c16f0f2faf8d7a0d14c09","651c1ceae4b2f23064397f19","null","null","<p style=""font-size: 60px; font-family: BACS"">UdlGQbadk</p>","","","","","","","","",""
"html-keyboard-response","112","160479","0.0-10.0-0.23","5e8c57d9b4483e012006e7aa","650c16f0f2faf8d7a0d14c09","651c1ceae4b2f23064397f19","null","null","<p style=""font-size: 60px; font-family: BACS"">PEkhAdmRb</p>","","","","","","","","",""
"html-keyboard-response","113","161492","0.0-10.0-0.24","5e8c57d9b4483e012006e7aa","650c16f0f2faf8d7a0d14c09","651c1ceae4b2f23064397f19","null","null","<p style=""font-size: 60px; font-family: BACS"">rcmuvLUOk</p>","","","","","","","","",""
"html-keyboard-response","114","162496","0.0-10.0-0.25","5e8c57d9b4483e012006e7aa","650c16f0f2faf8d7a0d14c09","651c1ceae4b2f23064397f19","null","null","<p style=""font-size: 60px; font-family: BACS"">BdtACTmc</p>","","","","","","","","",""
"html-keyboard-response","115","163504","0.0-10.0-0.26","5e8c57d9b4483e012006e7aa","650c16f0f2faf8d7a0d14c09","651c1ceae4b2f23064397f19","null","null","<p style=""font-size: 60px; font-family: BACS"">dKRDdmRb</p>","","","","","","","","",""
"html-keyboard-response","116","164512","0.0-10.0-0.27","5e8c57d9b4483e012006e7aa","650c16f0f2faf8d7a0d14c09","651c1ceae4b2f23064397f19","null","null","<p style=""font-size: 60px; font-family: BACS"">lRCBOPE</p>","","","","","","","","",""
"html-keyboard-response","117","165524","0.0-10.0-0.28","5e8c57d9b4483e012006e7aa","650c16f0f2faf8d7a0d14c09","651c1ceae4b2f23064397f19","null","null","<p style=""font-size: 60px; font-family: BACS"">UdumdJUNa</p>","","","","","","","","",""
"html-keyboard-response","118","166529","0.0-10.0-0.29","5e8c57d9b4483e012006e7aa","650c16f0f2faf8d7a0d14c09","651c1ceae4b2f23064397f19","null","null","<p style=""font-size: 60px; font-family: BACS"">YNrAmLUOk</p>","","","","","","","","",""
"html-keyboard-response","119","167536","0.0-10.0-0.30","5e8c57d9b4483e012006e7aa","650c16f0f2faf8d7a0d14c09","651c1ceae4b2f23064397f19","null","null","<p style=""font-size: 60px; font-family: BACS"">lkAkJZr</p>","","","","","","","","",""
"html-keyboard-response","120","168543","0.0-10.0-0.31","5e8c57d9b4483e012006e7aa","650c16f0f2faf8d7a0d14c09","651c1ceae4b2f23064397f19","null","null","<p style=""font-size: 60px; font-family: BACS"">Juamlravu</p>","","","","","","","","",""
"html-keyboard-response","121","169546","0.0-10.0-0.32","5e8c57d9b4483e012006e7aa","650c16f0f2faf8d7a0d14c09","651c1ceae4b2f23064397f19","null","null","<p style=""font-size: 60px; font-family: BACS"">DOchlOPE</p>","","","","","","","","",""
"html-keyboard-response","122","170552","0.0-10.0-0.33","5e8c57d9b4483e012006e7aa","650c16f0f2faf8d7a0d14c09","651c1ceae4b2f23064397f19","null","null","<p style=""font-size: 60px; font-family: BACS"">rcmuvbadk</p>","","","","","","","","",""
"html-keyboard-response","123","171562","0.0-10.0-0.34","5e8c57d9b4483e012006e7aa","650c16f0f2faf8d7a0d14c09","651c1ceae4b2f23064397f19","null","null","<p style=""font-size: 60px; font-family: BACS"">Udumdravu</p>","","","","","","","","",""
"html-keyboard-response","124","172572","0.0-10.0-0.35","5e8c57d9b4483e012006e7aa","650c16f0f2faf8d7a0d14c09","651c1ceae4b2f23064397f19","null","null","<p style=""font-size: 60px; font-family: BACS"">CDEmYOPE</p>","","","","","","","","",""
"html-keyboard-response","125","173577","0.0-10.0-0.36","5e8c57d9b4483e012006e7aa","650c16f0f2faf8d7a0d14c09","651c1ceae4b2f23064397f19","null","null","<p style=""font-size: 60px; font-family: BACS"">lRCBMCkm</p>","","","","","","","","",""
"html-keyboard-response","126","174579","0.0-10.0-0.37","5e8c57d9b4483e012006e7aa","650c16f0f2faf8d7a0d14c09","651c1ceae4b2f23064397f19","null","null","<p style=""font-size: 60px; font-family: BACS"">LdQvravu</p>","","","","","","","","",""
"html-keyboard-response","127","175588","0.0-10.0-0.38","5e8c57d9b4483e012006e7aa","650c16f0f2faf8d7a0d14c09","651c1ceae4b2f23064397f19","null","null","<p style=""font-size: 60px; font-family: BACS"">udkmbadk</p>","","","","","","","","",""
"html-keyboard-response","128","176596","0.0-10.0-0.39","5e8c57d9b4483e012006e7aa","650c16f0f2faf8d7a0d14c09","651c1ceae4b2f23064397f19","null","null","<p style=""font-size: 60px; font-family: BACS"">UdlGQJZr</p>","","","","","","","","",""
"html-keyboard-response","129","177604","0.0-10.0-0.40","5e8c57d9b4483e012006e7aa","650c16f0f2faf8d7a0d14c09","651c1ceae4b2f23064397f19","null","null","<p style=""font-size: 60px; font-family: BACS"">lkAkLUOk</p>","","","","","","","","",""
"html-keyboard-response","130","178609","0.0-10.0-0.41","5e8c57d9b4483e012006e7aa","650c16f0f2faf8d7a0d14c09","651c1ceae4b2f23064397f19","null","null","<p style=""font-size: 60px; font-family: BACS"">NJZlravu</p>","","","","","","","","",""
"html-keyboard-response","131","179612","0.0-10.0-0.42","5e8c57d9b4483e012006e7aa","650c16f0f2faf8d7a0d14c09","651c1ceae4b2f23064397f19","null","null","<p style=""font-size: 60px; font-family: BACS"">dKRDTbk</p>","","","","","","","","",""
"html-keyboard-response","132","180620","0.0-10.0-0.43","5e8c57d9b4483e012006e7aa","650c16f0f2faf8d7a0d14c09","651c1ceae4b2f23064397f19","null","null","<p style=""font-size: 60px; font-family: BACS"">UdlGQJUNa</p>","","","","","","","","",""
"html-keyboard-response","133","181628","0.0-10.0-0.44","5e8c57d9b4483e012006e7aa","650c16f0f2faf8d7a0d14c09","651c1ceae4b2f23064397f19","null","null","<p style=""font-size: 60px; font-family: BACS"">BdtACdmRb</p>","","","","","","","","",""
"html-keyboard-response","134","182629","0.0-10.0-0.45","5e8c57d9b4483e012006e7aa","650c16f0f2faf8d7a0d14c09","651c1ceae4b2f23064397f19","null","null","<p style=""font-size: 60px; font-family: BACS"">YNrAmJUNa</p>","","","","","","","","",""
"html-keyboard-response","135","183634","0.0-10.0-0.46","5e8c57d9b4483e012006e7aa","650c16f0f2faf8d7a0d14c09","651c1ceae4b2f23064397f19","null","null","<p style=""font-size: 60px; font-family: BACS"">PEkhATbk</p>","","","","","","","","",""
"html-keyboard-response","136","184643","0.0-10.0-0.47","5e8c57d9b4483e012006e7aa","650c16f0f2faf8d7a0d14c09","651c1ceae4b2f23064397f19","null","null","<p style=""font-size: 60px; font-family: BACS"">kLvdNJZr</p>","","","","","","","","",""
"html-keyboard-response","137","185646","0.0-10.0-0.48","5e8c57d9b4483e012006e7aa","650c16f0f2faf8d7a0d14c09","651c1ceae4b2f23064397f19","null","null","<p style=""font-size: 60px; font-family: BACS"">tDPRkMCkm</p>","","","","","","","","",""
"html-keyboard-response","138","186660","0.0-10.0-0.49","5e8c57d9b4483e012006e7aa","650c16f0f2faf8d7a0d14c09","651c1ceae4b2f23064397f19","null","null","<p style=""font-size: 60px; font-family: BACS"">NJZlbadk</p>","","","","","","","","",""
"html-keyboard-response","139","187663","0.0-10.0-0.50","5e8c57d9b4483e012006e7aa","650c16f0f2faf8d7a0d14c09","651c1ceae4b2f23064397f19","null","null","<p style=""font-size: 60px; font-family: BACS"">udkmLUOk</p>","","","","","","","","",""
"html-keyboard-response","140","188676","0.0-10.0-0.51","5e8c57d9b4483e012006e7aa","650c16f0f2faf8d7a0d14c09","651c1ceae4b2f23064397f19","null","null","<p style=""font-size: 60px; font-family: BACS"">mBbKOPE</p>","","","","","","","","",""
"html-keyboard-response","141","189679","0.0-10.0-0.52","5e8c57d9b4483e012006e7aa","650c16f0f2faf8d7a0d14c09","651c1ceae4b2f23064397f19","null","null","<p style=""font-size: 60px; font-family: BACS"">udkmJUNa</p>","","","","","","","","",""
"html-keyboard-response","142","190689","0.0-10.0-0.53","5e8c57d9b4483e012006e7aa","650c16f0f2faf8d7a0d14c09","651c1ceae4b2f23064397f19","null","null","<p style=""font-size: 60px; font-family: BACS"">DOchlTmc</p>","","","","","","","","",""
"html-keyboard-response","143","191696","0.0-10.0-0.54","5e8c57d9b4483e012006e7aa","650c16f0f2faf8d7a0d14c09","651c1ceae4b2f23064397f19","null","null","<p style=""font-size: 60px; font-family: BACS"">Juamlbadk</p>","","","","","","","","",""
"html-keyboard-response","144","192704","0.0-10.0-0.55","5e8c57d9b4483e012006e7aa","650c16f0f2faf8d7a0d14c09","651c1ceae4b2f23064397f19","null","null","<p style=""font-size: 60px; font-family: BACS"">CDEmYdmRb</p>","","","","","","","","",""
"html-keyboard-response","145","193710","0.0-10.0-0.56","5e8c57d9b4483e012006e7aa","650c16f0f2faf8d7a0d14c09","651c1ceae4b2f23064397f19","null","null","<p style=""font-size: 60px; font-family: BACS"">DOchlMCkm</p>","","","","","","","","",""
"html-keyboard-response","146","194712","0.0-10.0-0.57","5e8c57d9b4483e012006e7aa","650c16f0f2faf8d7a0d14c09","651c1ceae4b2f23064397f19","null","null","<p style=""font-size: 60px; font-family: BACS"">UdlGQravu</p>","","","","","","","","",""
"html-keyboard-response","147","195720","0.0-10.0-0.58","5e8c57d9b4483e012006e7aa","650c16f0f2faf8d7a0d14c09","651c1ceae4b2f23064397f19","null","null","<p style=""font-size: 60px; font-family: BACS"">hlbtbTmc</p>","","","","","","","","",""
"html-keyboard-response","148","196730","0.0-10.0-0.59","5e8c57d9b4483e012006e7aa","650c16f0f2faf8d7a0d14c09","651c1ceae4b2f23064397f19","null","null","<p style=""font-size: 60px; font-family: BACS"">dKRDMCkm</p>","","","","","","","","",""
"html-keyboard-response","149","197740","0.0-10.0-0.60","5e8c57d9b4483e012006e7aa","650c16f0f2faf8d7a0d14c09","651c1ceae4b2f23064397f19","null","null","<p style=""font-size: 60px; font-family: BACS"">lkAkbadk</p>","","","","","","","","",""
"html-keyboard-response","150","198746","0.0-10.0-0.61","5e8c57d9b4483e012006e7aa","650c16f0f2faf8d7a0d14c09","651c1ceae4b2f23064397f19","null","null","<p style=""font-size: 60px; font-family: BACS"">YNrAmravu</p>","","","","","","","","",""
"html-keyboard-response","151","199756","0.0-10.0-0.62","5e8c57d9b4483e012006e7aa","650c16f0f2faf8d7a0d14c09","651c1ceae4b2f23064397f19","null","null","<p style=""font-size: 60px; font-family: BACS"">CDEmYTbk</p>","","","","","","","","",""
"html-keyboard-response","152","200763","0.0-10.0-0.63","5e8c57d9b4483e012006e7aa","650c16f0f2faf8d7a0d14c09","651c1ceae4b2f23064397f19","null","null","<p style=""font-size: 60px; font-family: BACS"">mBbKTmc</p>","","","","","","","","",""
"html-keyboard-response","153","201772","0.0-10.0-0.64","5e8c57d9b4483e012006e7aa","650c16f0f2faf8d7a0d14c09","651c1ceae4b2f23064397f19","null","null","<p style=""font-size: 60px; font-family: BACS"">lkAkJUNa</p>","","","","","","","","",""
"html-keyboard-response","154","202779","0.0-10.0-0.65","5e8c57d9b4483e012006e7aa","650c16f0f2faf8d7a0d14c09","651c1ceae4b2f23064397f19","null","null","<p style=""font-size: 60px; font-family: BACS"">YNrAmJZr</p>","","","","","","","","",""
"html-keyboard-response","155","203785","0.0-10.0-0.66","5e8c57d9b4483e012006e7aa","650c16f0f2faf8d7a0d14c09","651c1ceae4b2f23064397f19","null","null","<p style=""font-size: 60px; font-family: BACS"">CDEmYMCkm</p>","","","","","","","","",""
"html-keyboard-response","156","204795","0.0-10.0-0.67","5e8c57d9b4483e012006e7aa","650c16f0f2faf8d7a0d14c09","651c1ceae4b2f23064397f19","null","null","<p style=""font-size: 60px; font-family: BACS"">PEkhATmc</p>","","","","","","","","",""
"html-keyboard-response","157","205799","0.0-10.0-0.68","5e8c57d9b4483e012006e7aa","650c16f0f2faf8d7a0d14c09","651c1ceae4b2f23064397f19","null","null","<p style=""font-size: 60px; font-family: BACS"">lRCBdmRb</p>","","","","","","","","",""
"html-keyboard-response","158","206810","0.0-10.0-0.69","5e8c57d9b4483e012006e7aa","650c16f0f2faf8d7a0d14c09","651c1ceae4b2f23064397f19","null","null","<p style=""font-size: 60px; font-family: BACS"">COTKMCkm</p>","","","","","","","","",""
"html-keyboard-response","159","207812","0.0-10.0-0.70","5e8c57d9b4483e012006e7aa","650c16f0f2faf8d7a0d14c09","651c1ceae4b2f23064397f19","null","null","<p style=""font-size: 60px; font-family: BACS"">PEkhAOPE</p>","","","","","","","","",""
"html-keyboard-response","160","208813","0.0-10.0-0.71","5e8c57d9b4483e012006e7aa","650c16f0f2faf8d7a0d14c09","651c1ceae4b2f23064397f19","null","null","<p style=""font-size: 60px; font-family: BACS"">rcmuvravu</p>","","","","","","","","",""
"html-keyboard-response","161","209819","0.0-10.0-0.72","5e8c57d9b4483e012006e7aa","650c16f0f2faf8d7a0d14c09","651c1ceae4b2f23064397f19","null","null","<p style=""font-size: 60px; font-family: BACS"">lRCBTbk</p>","","","","","","","","",""
"html-keyboard-response","162","210825","0.0-10.0-0.73","5e8c57d9b4483e012006e7aa","650c16f0f2faf8d7a0d14c09","651c1ceae4b2f23064397f19","null","null","<p style=""font-size: 60px; font-family: BACS"">tDPRkTmc</p>","","","","","","","","",""
"html-keyboard-response","163","211829","0.0-10.0-0.74","5e8c57d9b4483e012006e7aa","650c16f0f2faf8d7a0d14c09","651c1ceae4b2f23064397f19","null","null","<p style=""font-size: 60px; font-family: BACS"">COTKOPE</p>","","","","","","","","",""
"html-keyboard-response","164","212843","0.0-10.0-0.75","5e8c57d9b4483e012006e7aa","650c16f0f2faf8d7a0d14c09","651c1ceae4b2f23064397f19","null","null","<p style=""font-size: 60px; font-family: BACS"">JuamlJUNa</p>","","","","","","","","",""
"html-keyboard-response","165","213846","0.0-10.0-0.76","5e8c57d9b4483e012006e7aa","650c16f0f2faf8d7a0d14c09","651c1ceae4b2f23064397f19","null","null","<p style=""font-size: 60px; font-family: BACS"">COTKTmc</p>","","","","","","","","",""
"html-keyboard-response","166","214855","0.0-10.0-0.77","5e8c57d9b4483e012006e7aa","650c16f0f2faf8d7a0d14c09","651c1ceae4b2f23064397f19","null","null","<p style=""font-size: 60px; font-family: BACS"">rcmuvJZr</p>","","","","","","","","",""
"html-keyboard-response","167","215863","0.0-10.0-0.78","5e8c57d9b4483e012006e7aa","650c16f0f2faf8d7a0d14c09","651c1ceae4b2f23064397f19","null","null","<p style=""font-size: 60px; font-family: BACS"">COTKTbk</p>","","","","","","","","",""
"html-keyboard-response","168","216875","0.0-10.0-0.79","5e8c57d9b4483e012006e7aa","650c16f0f2faf8d7a0d14c09","651c1ceae4b2f23064397f19","null","null","<p style=""font-size: 60px; font-family: BACS"">UdumdLUOk</p>","","","","","","","","",""
"html-keyboard-response","169","264857","0.0-11.0","5e8c57d9b4483e012006e7aa","650c16f0f2faf8d7a0d14c09","651c1ceae4b2f23064397f19","47982"," ","<p>Great, you've seen the second block of words. You may now take a short break.</p>
      <p>Press the spacebar when you're ready to continue.</p>","","","","","","","","",""
"html-keyboard-response","170","265859","0.0-12.0-0.0","5e8c57d9b4483e012006e7aa","650c16f0f2faf8d7a0d14c09","651c1ceae4b2f23064397f19","null","null","<p style=""font-size: 60px; font-family: BACS"">rcmuvbadk</p>","","","","","","","","",""
"html-keyboard-response","171","266863","0.0-12.0-0.1","5e8c57d9b4483e012006e7aa","650c16f0f2faf8d7a0d14c09","651c1ceae4b2f23064397f19","null","null","<p style=""font-size: 60px; font-family: BACS"">PEkhATmc</p>","","","","","","","","",""
"html-keyboard-response","172","267874","0.0-12.0-0.2","5e8c57d9b4483e012006e7aa","650c16f0f2faf8d7a0d14c09","651c1ceae4b2f23064397f19","null","null","<p style=""font-size: 60px; font-family: BACS"">rcmuvravu</p>","","","","","","","","",""
"html-keyboard-response","173","268879","0.0-12.0-0.3","5e8c57d9b4483e012006e7aa","650c16f0f2faf8d7a0d14c09","651c1ceae4b2f23064397f19","null","null","<p style=""font-size: 60px; font-family: BACS"">lRCBdmRb</p>","","","","","","","","",""
"html-keyboard-response","174","269890","0.0-12.0-0.4","5e8c57d9b4483e012006e7aa","650c16f0f2faf8d7a0d14c09","651c1ceae4b2f23064397f19","null","null","<p style=""font-size: 60px; font-family: BACS"">tDPRkTmc</p>","","","","","","","","",""
"html-keyboard-response","175","270893","0.0-12.0-0.5","5e8c57d9b4483e012006e7aa","650c16f0f2faf8d7a0d14c09","651c1ceae4b2f23064397f19","null","null","<p style=""font-size: 60px; font-family: BACS"">udkmravu</p>","","","","","","","","",""
"html-keyboard-response","176","271895","0.0-12.0-0.6","5e8c57d9b4483e012006e7aa","650c16f0f2faf8d7a0d14c09","651c1ceae4b2f23064397f19","null","null","<p style=""font-size: 60px; font-family: BACS"">lkAkJUNa</p>","","","","","","","","",""
"html-keyboard-response","177","272906","0.0-12.0-0.7","5e8c57d9b4483e012006e7aa","650c16f0f2faf8d7a0d14c09","651c1ceae4b2f23064397f19","null","null","<p style=""font-size: 60px; font-family: BACS"">dKRDMCkm</p>","","","","","","","","",""
"html-keyboard-response","178","273910","0.0-12.0-0.8","5e8c57d9b4483e012006e7aa","650c16f0f2faf8d7a0d14c09","651c1ceae4b2f23064397f19","null","null","<p style=""font-size: 60px; font-family: BACS"">COTKTbk</p>","","","","","","","","",""
"html-keyboard-response","179","274912","0.0-12.0-0.9","5e8c57d9b4483e012006e7aa","650c16f0f2faf8d7a0d14c09","651c1ceae4b2f23064397f19","null","null","<p style=""font-size: 60px; font-family: BACS"">DOchlMCkm</p>","","","","","","","","",""
"html-keyboard-response","180","275919","0.0-12.0-0.10","5e8c57d9b4483e012006e7aa","650c16f0f2faf8d7a0d14c09","651c1ceae4b2f23064397f19","null","null","<p style=""font-size: 60px; font-family: BACS"">Juamlravu</p>","","","","","","","","",""
"html-keyboard-response","181","276927","0.0-12.0-0.11","5e8c57d9b4483e012006e7aa","650c16f0f2faf8d7a0d14c09","651c1ceae4b2f23064397f19","null","null","<p style=""font-size: 60px; font-family: BACS"">hlbtbdmRb</p>","","","","","","","","",""
"html-keyboard-response","182","277929","0.0-12.0-0.12","5e8c57d9b4483e012006e7aa","650c16f0f2faf8d7a0d14c09","651c1ceae4b2f23064397f19","null","null","<p style=""font-size: 60px; font-family: BACS"">YNrAmravu</p>","","","","","","","","",""
"html-keyboard-response","183","278937","0.0-12.0-0.13","5e8c57d9b4483e012006e7aa","650c16f0f2faf8d7a0d14c09","651c1ceae4b2f23064397f19","null","null","<p style=""font-size: 60px; font-family: BACS"">mBbKMCkm</p>","","","","","","","","",""
"html-keyboard-response","184","279943","0.0-12.0-0.14","5e8c57d9b4483e012006e7aa","650c16f0f2faf8d7a0d14c09","651c1ceae4b2f23064397f19","null","null","<p style=""font-size: 60px; font-family: BACS"">udkmJUNa</p>","","","","","","","","",""
"html-keyboard-response","185","280946","0.0-12.0-0.15","5e8c57d9b4483e012006e7aa","650c16f0f2faf8d7a0d14c09","651c1ceae4b2f23064397f19","null","null","<p style=""font-size: 60px; font-family: BACS"">PEkhAOPE</p>","","","","","","","","",""
"html-keyboard-response","186","281953","0.0-12.0-0.16","5e8c57d9b4483e012006e7aa","650c16f0f2faf8d7a0d14c09","651c1ceae4b2f23064397f19","null","null","<p style=""font-size: 60px; font-family: BACS"">CDEmYdmRb</p>","","","","","","","","",""
"html-keyboard-response","187","282961","0.0-12.0-0.17","5e8c57d9b4483e012006e7aa","650c16f0f2faf8d7a0d14c09","651c1ceae4b2f23064397f19","null","null","<p style=""font-size: 60px; font-family: BACS"">UdumdLUOk</p>","","","","","","","","",""
"html-keyboard-response","188","283969","0.0-12.0-0.18","5e8c57d9b4483e012006e7aa","650c16f0f2faf8d7a0d14c09","651c1ceae4b2f23064397f19","null","null","<p style=""font-size: 60px; font-family: BACS"">dKRDTmc</p>","","","","","","","","",""
"html-keyboard-response","189","284977","0.0-12.0-0.19","5e8c57d9b4483e012006e7aa","650c16f0f2faf8d7a0d14c09","651c1ceae4b2f23064397f19","null","null","<p style=""font-size: 60px; font-family: BACS"">hlbtbOPE</p>","","","","","","","","",""
"html-keyboard-response","190","285981","0.0-12.0-0.20","5e8c57d9b4483e012006e7aa","650c16f0f2faf8d7a0d14c09","651c1ceae4b2f23064397f19","null","null","<p style=""font-size: 60px; font-family: BACS"">NJZlJZr</p>","","","","","","","","",""
"html-keyboard-response","191","286989","0.0-12.0-0.21","5e8c57d9b4483e012006e7aa","650c16f0f2faf8d7a0d14c09","651c1ceae4b2f23064397f19","null","null","<p style=""font-size: 60px; font-family: BACS"">BdtACMCkm</p>","","","","","","","","",""
"html-keyboard-response","192","287996","0.0-12.0-0.22","5e8c57d9b4483e012006e7aa","650c16f0f2faf8d7a0d14c09","651c1ceae4b2f23064397f19","null","null","<p style=""font-size: 60px; font-family: BACS"">LdQvbadk</p>","","","","","","","","",""
"html-keyboard-response","193","289007","0.0-12.0-0.23","5e8c57d9b4483e012006e7aa","650c16f0f2faf8d7a0d14c09","651c1ceae4b2f23064397f19","null","null","<p style=""font-size: 60px; font-family: BACS"">lRCBTbk</p>","","","","","","","","",""
"html-keyboard-response","194","290012","0.0-12.0-0.24","5e8c57d9b4483e012006e7aa","650c16f0f2faf8d7a0d14c09","651c1ceae4b2f23064397f19","null","null","<p style=""font-size: 60px; font-family: BACS"">tDPRkOPE</p>","","","","","","","","",""
"html-keyboard-response","195","291021","0.0-12.0-0.25","5e8c57d9b4483e012006e7aa","650c16f0f2faf8d7a0d14c09","651c1ceae4b2f23064397f19","null","null","<p style=""font-size: 60px; font-family: BACS"">dKRDdmRb</p>","","","","","","","","",""
"html-keyboard-response","196","292028","0.0-12.0-0.26","5e8c57d9b4483e012006e7aa","650c16f0f2faf8d7a0d14c09","651c1ceae4b2f23064397f19","null","null","<p style=""font-size: 60px; font-family: BACS"">DOchlOPE</p>","","","","","","","","",""
"html-keyboard-response","197","293038","0.0-12.0-0.27","5e8c57d9b4483e012006e7aa","650c16f0f2faf8d7a0d14c09","651c1ceae4b2f23064397f19","null","null","<p style=""font-size: 60px; font-family: BACS"">lkAkJZr</p>","","","","","","","","",""
"html-keyboard-response","198","294044","0.0-12.0-0.28","5e8c57d9b4483e012006e7aa","650c16f0f2faf8d7a0d14c09","651c1ceae4b2f23064397f19","null","null","<p style=""font-size: 60px; font-family: BACS"">CDEmYMCkm</p>","","","","","","","","",""
"html-keyboard-response","199","295057","0.0-12.0-0.29","5e8c57d9b4483e012006e7aa","650c16f0f2faf8d7a0d14c09","651c1ceae4b2f23064397f19","null","null","<p style=""font-size: 60px; font-family: BACS"">PEkhAdmRb</p>","","","","","","","","",""
"html-keyboard-response","200","296061","0.0-12.0-0.30","5e8c57d9b4483e012006e7aa","650c16f0f2faf8d7a0d14c09","651c1ceae4b2f23064397f19","null","null","<p style=""font-size: 60px; font-family: BACS"">lkAkLUOk</p>","","","","","","","","",""
"html-keyboard-response","201","297063","0.0-12.0-0.31","5e8c57d9b4483e012006e7aa","650c16f0f2faf8d7a0d14c09","651c1ceae4b2f23064397f19","null","null","<p style=""font-size: 60px; font-family: BACS"">COTKMCkm</p>","","","","","","","","",""
"html-keyboard-response","202","298073","0.0-12.0-0.32","5e8c57d9b4483e012006e7aa","650c16f0f2faf8d7a0d14c09","651c1ceae4b2f23064397f19","null","null","<p style=""font-size: 60px; font-family: BACS"">CDEmYOPE</p>","","","","","","","","",""
"html-keyboard-response","203","299078","0.0-12.0-0.33","5e8c57d9b4483e012006e7aa","650c16f0f2faf8d7a0d14c09","651c1ceae4b2f23064397f19","null","null","<p style=""font-size: 60px; font-family: BACS"">mBbKTmc</p>","","","","","","","","",""
"html-keyboard-response","204","300086","0.0-12.0-0.34","5e8c57d9b4483e012006e7aa","650c16f0f2faf8d7a0d14c09","651c1ceae4b2f23064397f19","null","null","<p style=""font-size: 60px; font-family: BACS"">YNrAmJUNa</p>","","","","","","","","",""
"html-keyboard-response","205","301095","0.0-12.0-0.35","5e8c57d9b4483e012006e7aa","650c16f0f2faf8d7a0d14c09","651c1ceae4b2f23064397f19","null","null","<p style=""font-size: 60px; font-family: BACS"">UdumdJZr</p>","","","","","","","","",""
"html-keyboard-response","206","302100","0.0-12.0-0.36","5e8c57d9b4483e012006e7aa","650c16f0f2faf8d7a0d14c09","651c1ceae4b2f23064397f19","null","null","<p style=""font-size: 60px; font-family: BACS"">JuamlJUNa</p>","","","","","","","","",""
"html-keyboard-response","207","303112","0.0-12.0-0.37","5e8c57d9b4483e012006e7aa","650c16f0f2faf8d7a0d14c09","651c1ceae4b2f23064397f19","null","null","<p style=""font-size: 60px; font-family: BACS"">LdQvLUOk</p>","","","","","","","","",""
"html-keyboard-response","208","304117","0.0-12.0-0.38","5e8c57d9b4483e012006e7aa","650c16f0f2faf8d7a0d14c09","651c1ceae4b2f23064397f19","null","null","<p style=""font-size: 60px; font-family: BACS"">kLvdNJUNa</p>","","","","","","","","",""
"html-keyboard-response","209","305128","0.0-12.0-0.39","5e8c57d9b4483e012006e7aa","650c16f0f2faf8d7a0d14c09","651c1ceae4b2f23064397f19","null","null","<p style=""font-size: 60px; font-family: BACS"">NJZlbadk</p>","","","","","","","","",""
"html-keyboard-response","210","306129","0.0-12.0-0.40","5e8c57d9b4483e012006e7aa","650c16f0f2faf8d7a0d14c09","651c1ceae4b2f23064397f19","null","null","<p style=""font-size: 60px; font-family: BACS"">YNrAmLUOk</p>","","","","","","","","",""
"html-keyboard-response","211","307136","0.0-12.0-0.41","5e8c57d9b4483e012006e7aa","650c16f0f2faf8d7a0d14c09","651c1ceae4b2f23064397f19","null","null","<p style=""font-size: 60px; font-family: BACS"">hlbtbTmc</p>","","","","","","","","",""
"html-keyboard-response","212","308144","0.0-12.0-0.42","5e8c57d9b4483e012006e7aa","650c16f0f2faf8d7a0d14c09","651c1ceae4b2f23064397f19","null","null","<p style=""font-size: 60px; font-family: BACS"">YNrAmJZr</p>","","","","","","","","",""
"html-keyboard-response","213","309150","0.0-12.0-0.43","5e8c57d9b4483e012006e7aa","650c16f0f2faf8d7a0d14c09","651c1ceae4b2f23064397f19","null","null","<p style=""font-size: 60px; font-family: BACS"">udkmLUOk</p>","","","","","","","","",""
"html-keyboard-response","214","310159","0.0-12.0-0.44","5e8c57d9b4483e012006e7aa","650c16f0f2faf8d7a0d14c09","651c1ceae4b2f23064397f19","null","null","<p style=""font-size: 60px; font-family: BACS"">tDPRkdmRb</p>","","","","","","","","",""
"html-keyboard-response","215","311162","0.0-12.0-0.45","5e8c57d9b4483e012006e7aa","650c16f0f2faf8d7a0d14c09","651c1ceae4b2f23064397f19","null","null","<p style=""font-size: 60px; font-family: BACS"">COTKTmc</p>","","","","","","","","",""
"html-keyboard-response","216","312175","0.0-12.0-0.46","5e8c57d9b4483e012006e7aa","650c16f0f2faf8d7a0d14c09","651c1ceae4b2f23064397f19","null","null","<p style=""font-size: 60px; font-family: BACS"">lRCBMCkm</p>","","","","","","","","",""
"html-keyboard-response","217","313176","0.0-12.0-0.47","5e8c57d9b4483e012006e7aa","650c16f0f2faf8d7a0d14c09","651c1ceae4b2f23064397f19","null","null","<p style=""font-size: 60px; font-family: BACS"">BdtACdmRb</p>","","","","","","","","",""
"html-keyboard-response","218","314179","0.0-12.0-0.48","5e8c57d9b4483e012006e7aa","650c16f0f2faf8d7a0d14c09","651c1ceae4b2f23064397f19","null","null","<p style=""font-size: 60px; font-family: BACS"">dKRDTbk</p>","","","","","","","","",""
"html-keyboard-response","219","315188","0.0-12.0-0.49","5e8c57d9b4483e012006e7aa","650c16f0f2faf8d7a0d14c09","651c1ceae4b2f23064397f19","null","null","<p style=""font-size: 60px; font-family: BACS"">LdQvJUNa</p>","","","","","","","","",""
"html-keyboard-response","220","316195","0.0-12.0-0.50","5e8c57d9b4483e012006e7aa","650c16f0f2faf8d7a0d14c09","651c1ceae4b2f23064397f19","null","null","<p style=""font-size: 60px; font-family: BACS"">NJZlLUOk</p>","","","","","","","","",""
"html-keyboard-response","221","317208","0.0-12.0-0.51","5e8c57d9b4483e012006e7aa","650c16f0f2faf8d7a0d14c09","651c1ceae4b2f23064397f19","null","null","<p style=""font-size: 60px; font-family: BACS"">udkmbadk</p>","","","","","","","","",""
"html-keyboard-response","222","318212","0.0-12.0-0.52","5e8c57d9b4483e012006e7aa","650c16f0f2faf8d7a0d14c09","651c1ceae4b2f23064397f19","null","null","<p style=""font-size: 60px; font-family: BACS"">BdtACTmc</p>","","","","","","","","",""
"html-keyboard-response","223","319224","0.0-12.0-0.53","5e8c57d9b4483e012006e7aa","650c16f0f2faf8d7a0d14c09","651c1ceae4b2f23064397f19","null","null","<p style=""font-size: 60px; font-family: BACS"">mBbKTbk</p>","","","","","","","","",""
"html-keyboard-response","224","320229","0.0-12.0-0.54","5e8c57d9b4483e012006e7aa","650c16f0f2faf8d7a0d14c09","651c1ceae4b2f23064397f19","null","null","<p style=""font-size: 60px; font-family: BACS"">Juamlbadk</p>","","","","","","","","",""
"html-keyboard-response","225","321236","0.0-12.0-0.55","5e8c57d9b4483e012006e7aa","650c16f0f2faf8d7a0d14c09","651c1ceae4b2f23064397f19","null","null","<p style=""font-size: 60px; font-family: BACS"">UdlGQJUNa</p>","","","","","","","","",""
"html-keyboard-response","226","322245","0.0-12.0-0.56","5e8c57d9b4483e012006e7aa","650c16f0f2faf8d7a0d14c09","651c1ceae4b2f23064397f19","null","null","<p style=""font-size: 60px; font-family: BACS"">CDEmYTbk</p>","","","","","","","","",""
"html-keyboard-response","227","323256","0.0-12.0-0.57","5e8c57d9b4483e012006e7aa","650c16f0f2faf8d7a0d14c09","651c1ceae4b2f23064397f19","null","null","<p style=""font-size: 60px; font-family: BACS"">UdlGQravu</p>","","","","","","","","",""
"html-keyboard-response","228","324261","0.0-12.0-0.58","5e8c57d9b4483e012006e7aa","650c16f0f2faf8d7a0d14c09","651c1ceae4b2f23064397f19","null","null","<p style=""font-size: 60px; font-family: BACS"">JuamlJZr</p>","","","","","","","","",""
"html-keyboard-response","229","325272","0.0-12.0-0.59","5e8c57d9b4483e012006e7aa","650c16f0f2faf8d7a0d14c09","651c1ceae4b2f23064397f19","null","null","<p style=""font-size: 60px; font-family: BACS"">PEkhATbk</p>","","","","","","","","",""
"html-keyboard-response","230","326280","0.0-12.0-0.60","5e8c57d9b4483e012006e7aa","650c16f0f2faf8d7a0d14c09","651c1ceae4b2f23064397f19","null","null","<p style=""font-size: 60px; font-family: BACS"">NJZlravu</p>","","","","","","","","",""
"html-keyboard-response","231","327284","0.0-12.0-0.61","5e8c57d9b4483e012006e7aa","650c16f0f2faf8d7a0d14c09","651c1ceae4b2f23064397f19","null","null","<p style=""font-size: 60px; font-family: BACS"">BdtACTbk</p>","","","","","","","","",""
"html-keyboard-response","232","328294","0.0-12.0-0.62","5e8c57d9b4483e012006e7aa","650c16f0f2faf8d7a0d14c09","651c1ceae4b2f23064397f19","null","null","<p style=""font-size: 60px; font-family: BACS"">UdlGQbadk</p>","","","","","","","","",""
"html-keyboard-response","233","329304","0.0-12.0-0.63","5e8c57d9b4483e012006e7aa","650c16f0f2faf8d7a0d14c09","651c1ceae4b2f23064397f19","null","null","<p style=""font-size: 60px; font-family: BACS"">DOchlTmc</p>","","","","","","","","",""
"html-keyboard-response","234","330310","0.0-12.0-0.64","5e8c57d9b4483e012006e7aa","650c16f0f2faf8d7a0d14c09","651c1ceae4b2f23064397f19","null","null","<p style=""font-size: 60px; font-family: BACS"">lRCBOPE</p>","","","","","","","","",""
"html-keyboard-response","235","331320","0.0-12.0-0.65","5e8c57d9b4483e012006e7aa","650c16f0f2faf8d7a0d14c09","651c1ceae4b2f23064397f19","null","null","<p style=""font-size: 60px; font-family: BACS"">DOchldmRb</p>","","","","","","","","",""
"html-keyboard-response","236","332326","0.0-12.0-0.66","5e8c57d9b4483e012006e7aa","650c16f0f2faf8d7a0d14c09","651c1ceae4b2f23064397f19","null","null","<p style=""font-size: 60px; font-family: BACS"">lkAkbadk</p>","","","","","","","","",""
"html-keyboard-response","237","333328","0.0-12.0-0.67","5e8c57d9b4483e012006e7aa","650c16f0f2faf8d7a0d14c09","651c1ceae4b2f23064397f19","null","null","<p style=""font-size: 60px; font-family: BACS"">kLvdNLUOk</p>","","","","","","","","",""
"html-keyboard-response","238","334336","0.0-12.0-0.68","5e8c57d9b4483e012006e7aa","650c16f0f2faf8d7a0d14c09","651c1ceae4b2f23064397f19","null","null","<p style=""font-size: 60px; font-family: BACS"">rcmuvJZr</p>","","","","","","","","",""
"html-keyboard-response","239","335344","0.0-12.0-0.69","5e8c57d9b4483e012006e7aa","650c16f0f2faf8d7a0d14c09","651c1ceae4b2f23064397f19","null","null","<p style=""font-size: 60px; font-family: BACS"">kLvdNbadk</p>","","","","","","","","",""
"html-keyboard-response","240","336345","0.0-12.0-0.70","5e8c57d9b4483e012006e7aa","650c16f0f2faf8d7a0d14c09","651c1ceae4b2f23064397f19","null","null","<p style=""font-size: 60px; font-family: BACS"">hlbtbTbk</p>","","","","","","","","",""
"html-keyboard-response","241","337352","0.0-12.0-0.71","5e8c57d9b4483e012006e7aa","650c16f0f2faf8d7a0d14c09","651c1ceae4b2f23064397f19","null","null","<p style=""font-size: 60px; font-family: BACS"">Udumdravu</p>","","","","","","","","",""
"html-keyboard-response","242","338356","0.0-12.0-0.72","5e8c57d9b4483e012006e7aa","650c16f0f2faf8d7a0d14c09","651c1ceae4b2f23064397f19","null","null","<p style=""font-size: 60px; font-family: BACS"">kLvdNJZr</p>","","","","","","","","",""
"html-keyboard-response","243","339362","0.0-12.0-0.73","5e8c57d9b4483e012006e7aa","650c16f0f2faf8d7a0d14c09","651c1ceae4b2f23064397f19","null","null","<p style=""font-size: 60px; font-family: BACS"">tDPRkMCkm</p>","","","","","","","","",""
"html-keyboard-response","244","340371","0.0-12.0-0.74","5e8c57d9b4483e012006e7aa","650c16f0f2faf8d7a0d14c09","651c1ceae4b2f23064397f19","null","null","<p style=""font-size: 60px; font-family: BACS"">mBbKOPE</p>","","","","","","","","",""
"html-keyboard-response","245","341378","0.0-12.0-0.75","5e8c57d9b4483e012006e7aa","650c16f0f2faf8d7a0d14c09","651c1ceae4b2f23064397f19","null","null","<p style=""font-size: 60px; font-family: BACS"">LdQvravu</p>","","","","","","","","",""
"html-keyboard-response","246","342388","0.0-12.0-0.76","5e8c57d9b4483e012006e7aa","650c16f0f2faf8d7a0d14c09","651c1ceae4b2f23064397f19","null","null","<p style=""font-size: 60px; font-family: BACS"">COTKOPE</p>","","","","","","","","",""
"html-keyboard-response","247","343393","0.0-12.0-0.77","5e8c57d9b4483e012006e7aa","650c16f0f2faf8d7a0d14c09","651c1ceae4b2f23064397f19","null","null","<p style=""font-size: 60px; font-family: BACS"">UdlGQJZr</p>","","","","","","","","",""
"html-keyboard-response","248","344394","0.0-12.0-0.78","5e8c57d9b4483e012006e7aa","650c16f0f2faf8d7a0d14c09","651c1ceae4b2f23064397f19","null","null","<p style=""font-size: 60px; font-family: BACS"">rcmuvLUOk</p>","","","","","","","","",""
"html-keyboard-response","249","345405","0.0-12.0-0.79","5e8c57d9b4483e012006e7aa","650c16f0f2faf8d7a0d14c09","651c1ceae4b2f23064397f19","null","null","<p style=""font-size: 60px; font-family: BACS"">UdumdJUNa</p>","","","","","","","","",""
"html-keyboard-response","250","351967","0.0-13.0","5e8c57d9b4483e012006e7aa","650c16f0f2faf8d7a0d14c09","651c1ceae4b2f23064397f19","6561"," ","<p>Great, you've seen the third block of words. You may now take a short break.</p>
      <p>Press the spacebar when you're ready to continue.</p>","","","","","","","","",""
"html-keyboard-response","251","352975","0.0-14.0-0.0","5e8c57d9b4483e012006e7aa","650c16f0f2faf8d7a0d14c09","651c1ceae4b2f23064397f19","null","null","<p style=""font-size: 60px; font-family: BACS"">kLvdNLUOk</p>","","","","","","","","",""
"html-keyboard-response","252","353978","0.0-14.0-0.1","5e8c57d9b4483e012006e7aa","650c16f0f2faf8d7a0d14c09","651c1ceae4b2f23064397f19","null","null","<p style=""font-size: 60px; font-family: BACS"">YNrAmJUNa</p>","","","","","","","","",""
"html-keyboard-response","253","354988","0.0-14.0-0.2","5e8c57d9b4483e012006e7aa","650c16f0f2faf8d7a0d14c09","651c1ceae4b2f23064397f19","null","null","<p style=""font-size: 60px; font-family: BACS"">kLvdNJZr</p>","","","","","","","","",""
"html-keyboard-response","254","355994","0.0-14.0-0.3","5e8c57d9b4483e012006e7aa","650c16f0f2faf8d7a0d14c09","651c1ceae4b2f23064397f19","null","null","<p style=""font-size: 60px; font-family: BACS"">UdumdJUNa</p>","","","","","","","","",""
"html-keyboard-response","255","357007","0.0-14.0-0.4","5e8c57d9b4483e012006e7aa","650c16f0f2faf8d7a0d14c09","651c1ceae4b2f23064397f19","null","null","<p style=""font-size: 60px; font-family: BACS"">mBbKOPE</p>","","","","","","","","",""
"html-keyboard-response","256","358010","0.0-14.0-0.5","5e8c57d9b4483e012006e7aa","650c16f0f2faf8d7a0d14c09","651c1ceae4b2f23064397f19","null","null","<p style=""font-size: 60px; font-family: BACS"">dKRDdmRb</p>","","","","","","","","",""
"html-keyboard-response","257","359013","0.0-14.0-0.6","5e8c57d9b4483e012006e7aa","650c16f0f2faf8d7a0d14c09","651c1ceae4b2f23064397f19","null","null","<p style=""font-size: 60px; font-family: BACS"">BdtACMCkm</p>","","","","","","","","",""
"html-keyboard-response","258","360021","0.0-14.0-0.7","5e8c57d9b4483e012006e7aa","650c16f0f2faf8d7a0d14c09","651c1ceae4b2f23064397f19","null","null","<p style=""font-size: 60px; font-family: BACS"">LdQvLUOk</p>","","","","","","","","",""
"html-keyboard-response","259","361027","0.0-14.0-0.8","5e8c57d9b4483e012006e7aa","650c16f0f2faf8d7a0d14c09","651c1ceae4b2f23064397f19","null","null","<p style=""font-size: 60px; font-family: BACS"">dKRDTbk</p>","","","","","","","","",""
"html-keyboard-response","260","362037","0.0-14.0-0.9","5e8c57d9b4483e012006e7aa","650c16f0f2faf8d7a0d14c09","651c1ceae4b2f23064397f19","null","null","<p style=""font-size: 60px; font-family: BACS"">tDPRkdmRb</p>","","","","","","","","",""
"html-keyboard-response","261","363044","0.0-14.0-0.10","5e8c57d9b4483e012006e7aa","650c16f0f2faf8d7a0d14c09","651c1ceae4b2f23064397f19","null","null","<p style=""font-size: 60px; font-family: BACS"">hlbtbOPE</p>","","","","","","","","",""
"html-keyboard-response","262","364055","0.0-14.0-0.11","5e8c57d9b4483e012006e7aa","650c16f0f2faf8d7a0d14c09","651c1ceae4b2f23064397f19","null","null","<p style=""font-size: 60px; font-family: BACS"">tDPRkTmc</p>","","","","","","","","",""
"html-keyboard-response","263","365058","0.0-14.0-0.12","5e8c57d9b4483e012006e7aa","650c16f0f2faf8d7a0d14c09","651c1ceae4b2f23064397f19","null","null","<p style=""font-size: 60px; font-family: BACS"">lRCBTbk</p>","","","","","","","","",""
"html-keyboard-response","264","366062","0.0-14.0-0.13","5e8c57d9b4483e012006e7aa","650c16f0f2faf8d7a0d14c09","651c1ceae4b2f23064397f19","null","null","<p style=""font-size: 60px; font-family: BACS"">mBbKTmc</p>","","","","","","","","",""
"html-keyboard-response","265","367066","0.0-14.0-0.14","5e8c57d9b4483e012006e7aa","650c16f0f2faf8d7a0d14c09","651c1ceae4b2f23064397f19","null","null","<p style=""font-size: 60px; font-family: BACS"">rcmuvLUOk</p>","","","","","","","","",""
"html-keyboard-response","266","368077","0.0-14.0-0.15","5e8c57d9b4483e012006e7aa","650c16f0f2faf8d7a0d14c09","651c1ceae4b2f23064397f19","null","null","<p style=""font-size: 60px; font-family: BACS"">UdlGQbadk</p>","","","","","","","","",""
"html-keyboard-response","267","369079","0.0-14.0-0.16","5e8c57d9b4483e012006e7aa","650c16f0f2faf8d7a0d14c09","651c1ceae4b2f23064397f19","null","null","<p style=""font-size: 60px; font-family: BACS"">udkmJUNa</p>","","","","","","","","",""
"html-keyboard-response","268","370083","0.0-14.0-0.17","5e8c57d9b4483e012006e7aa","650c16f0f2faf8d7a0d14c09","651c1ceae4b2f23064397f19","null","null","<p style=""font-size: 60px; font-family: BACS"">rcmuvravu</p>","","","","","","","","",""
"html-keyboard-response","269","371094","0.0-14.0-0.18","5e8c57d9b4483e012006e7aa","650c16f0f2faf8d7a0d14c09","651c1ceae4b2f23064397f19","null","null","<p style=""font-size: 60px; font-family: BACS"">kLvdNJUNa</p>","","","","","","","","",""
"html-keyboard-response","270","372100","0.0-14.0-0.19","5e8c57d9b4483e012006e7aa","650c16f0f2faf8d7a0d14c09","651c1ceae4b2f23064397f19","null","null","<p style=""font-size: 60px; font-family: BACS"">lRCBOPE</p>","","","","","","","","",""
"html-keyboard-response","271","373111","0.0-14.0-0.20","5e8c57d9b4483e012006e7aa","650c16f0f2faf8d7a0d14c09","651c1ceae4b2f23064397f19","null","null","<p style=""font-size: 60px; font-family: BACS"">DOchlTmc</p>","","","","","","","","",""
"html-keyboard-response","272","374116","0.0-14.0-0.21","5e8c57d9b4483e012006e7aa","650c16f0f2faf8d7a0d14c09","651c1ceae4b2f23064397f19","null","null","<p style=""font-size: 60px; font-family: BACS"">CDEmYTbk</p>","","","","","","","","",""
"html-keyboard-response","273","375125","0.0-14.0-0.22","5e8c57d9b4483e012006e7aa","650c16f0f2faf8d7a0d14c09","651c1ceae4b2f23064397f19","null","null","<p style=""font-size: 60px; font-family: BACS"">lkAkLUOk</p>","","","","","","","","",""
"html-keyboard-response","274","376126","0.0-14.0-0.23","5e8c57d9b4483e012006e7aa","650c16f0f2faf8d7a0d14c09","651c1ceae4b2f23064397f19","null","null","<p style=""font-size: 60px; font-family: BACS"">JuamlJUNa</p>","","","","","","","","",""
"html-keyboard-response","275","377129","0.0-14.0-0.24","5e8c57d9b4483e012006e7aa","650c16f0f2faf8d7a0d14c09","651c1ceae4b2f23064397f19","null","null","<p style=""font-size: 60px; font-family: BACS"">mBbKMCkm</p>","","","","","","","","",""
"html-keyboard-response","276","378141","0.0-14.0-0.25","5e8c57d9b4483e012006e7aa","650c16f0f2faf8d7a0d14c09","651c1ceae4b2f23064397f19","null","null","<p style=""font-size: 60px; font-family: BACS"">PEkhATbk</p>","","","","","","","","",""
"html-keyboard-response","277","379147","0.0-14.0-0.26","5e8c57d9b4483e012006e7aa","650c16f0f2faf8d7a0d14c09","651c1ceae4b2f23064397f19","null","null","<p style=""font-size: 60px; font-family: BACS"">LdQvravu</p>","","","","","","","","",""
"html-keyboard-response","278","380158","0.0-14.0-0.27","5e8c57d9b4483e012006e7aa","650c16f0f2faf8d7a0d14c09","651c1ceae4b2f23064397f19","null","null","<p style=""font-size: 60px; font-family: BACS"">tDPRkMCkm</p>","","","","","","","","",""
"html-keyboard-response","279","381161","0.0-14.0-0.28","5e8c57d9b4483e012006e7aa","650c16f0f2faf8d7a0d14c09","651c1ceae4b2f23064397f19","null","null","<p style=""font-size: 60px; font-family: BACS"">lkAkbadk</p>","","","","","","","","",""
"html-keyboard-response","280","382174","0.0-14.0-0.29","5e8c57d9b4483e012006e7aa","650c16f0f2faf8d7a0d14c09","651c1ceae4b2f23064397f19","null","null","<p style=""font-size: 60px; font-family: BACS"">UdlGQJZr</p>","","","","","","","","",""
"html-keyboard-response","281","383177","0.0-14.0-0.30","5e8c57d9b4483e012006e7aa","650c16f0f2faf8d7a0d14c09","651c1ceae4b2f23064397f19","null","null","<p style=""font-size: 60px; font-family: BACS"">COTKTbk</p>","","","","","","","","",""
"html-keyboard-response","282","384186","0.0-14.0-0.31","5e8c57d9b4483e012006e7aa","650c16f0f2faf8d7a0d14c09","651c1ceae4b2f23064397f19","null","null","<p style=""font-size: 60px; font-family: BACS"">hlbtbTmc</p>","","","","","","","","",""
"html-keyboard-response","283","385195","0.0-14.0-0.32","5e8c57d9b4483e012006e7aa","650c16f0f2faf8d7a0d14c09","651c1ceae4b2f23064397f19","null","null","<p style=""font-size: 60px; font-family: BACS"">CDEmYOPE</p>","","","","","","","","",""
"html-keyboard-response","284","386206","0.0-14.0-0.33","5e8c57d9b4483e012006e7aa","650c16f0f2faf8d7a0d14c09","651c1ceae4b2f23064397f19","null","null","<p style=""font-size: 60px; font-family: BACS"">hlbtbTbk</p>","","","","","","","","",""
"html-keyboard-response","285","387211","0.0-14.0-0.34","5e8c57d9b4483e012006e7aa","650c16f0f2faf8d7a0d14c09","651c1ceae4b2f23064397f19","null","null","<p style=""font-size: 60px; font-family: BACS"">COTKMCkm</p>","","","","","","","","",""
"html-keyboard-response","286","388218","0.0-14.0-0.35","5e8c57d9b4483e012006e7aa","650c16f0f2faf8d7a0d14c09","651c1ceae4b2f23064397f19","null","null","<p style=""font-size: 60px; font-family: BACS"">lRCBdmRb</p>","","","","","","","","",""
"html-keyboard-response","287","389227","0.0-14.0-0.36","5e8c57d9b4483e012006e7aa","650c16f0f2faf8d7a0d14c09","651c1ceae4b2f23064397f19","null","null","<p style=""font-size: 60px; font-family: BACS"">Udumdravu</p>","","","","","","","","",""
"html-keyboard-response","288","390237","0.0-14.0-0.37","5e8c57d9b4483e012006e7aa","650c16f0f2faf8d7a0d14c09","651c1ceae4b2f23064397f19","null","null","<p style=""font-size: 60px; font-family: BACS"">dKRDTmc</p>","","","","","","","","",""
"html-keyboard-response","289","391245","0.0-14.0-0.38","5e8c57d9b4483e012006e7aa","650c16f0f2faf8d7a0d14c09","651c1ceae4b2f23064397f19","null","null","<p style=""font-size: 60px; font-family: BACS"">CDEmYMCkm</p>","","","","","","","","",""
"html-keyboard-response","290","392254","0.0-14.0-0.39","5e8c57d9b4483e012006e7aa","650c16f0f2faf8d7a0d14c09","651c1ceae4b2f23064397f19","null","null","<p style=""font-size: 60px; font-family: BACS"">hlbtbdmRb</p>","","","","","","","","",""
"html-keyboard-response","291","393261","0.0-14.0-0.40","5e8c57d9b4483e012006e7aa","650c16f0f2faf8d7a0d14c09","651c1ceae4b2f23064397f19","null","null","<p style=""font-size: 60px; font-family: BACS"">YNrAmravu</p>","","","","","","","","",""
"html-keyboard-response","292","394270","0.0-14.0-0.41","5e8c57d9b4483e012006e7aa","650c16f0f2faf8d7a0d14c09","651c1ceae4b2f23064397f19","null","null","<p style=""font-size: 60px; font-family: BACS"">NJZlLUOk</p>","","","","","","","","",""
"html-keyboard-response","293","395278","0.0-14.0-0.42","5e8c57d9b4483e012006e7aa","650c16f0f2faf8d7a0d14c09","651c1ceae4b2f23064397f19","null","null","<p style=""font-size: 60px; font-family: BACS"">dKRDMCkm</p>","","","","","","","","",""
"html-keyboard-response","294","396282","0.0-14.0-0.43","5e8c57d9b4483e012006e7aa","650c16f0f2faf8d7a0d14c09","651c1ceae4b2f23064397f19","null","null","<p style=""font-size: 60px; font-family: BACS"">rcmuvJZr</p>","","","","","","","","",""
"html-keyboard-response","295","397290","0.0-14.0-0.44","5e8c57d9b4483e012006e7aa","650c16f0f2faf8d7a0d14c09","651c1ceae4b2f23064397f19","null","null","<p style=""font-size: 60px; font-family: BACS"">YNrAmLUOk</p>","","","","","","","","",""
"html-keyboard-response","296","398295","0.0-14.0-0.45","5e8c57d9b4483e012006e7aa","650c16f0f2faf8d7a0d14c09","651c1ceae4b2f23064397f19","null","null","<p style=""font-size: 60px; font-family: BACS"">PEkhAOPE</p>","","","","","","","","",""
"html-keyboard-response","297","399297","0.0-14.0-0.46","5e8c57d9b4483e012006e7aa","650c16f0f2faf8d7a0d14c09","651c1ceae4b2f23064397f19","null","null","<p style=""font-size: 60px; font-family: BACS"">DOchldmRb</p>","","","","","","","","",""
"html-keyboard-response","298","400310","0.0-14.0-0.47","5e8c57d9b4483e012006e7aa","650c16f0f2faf8d7a0d14c09","651c1ceae4b2f23064397f19","null","null","<p style=""font-size: 60px; font-family: BACS"">udkmLUOk</p>","","","","","","","","",""
"html-keyboard-response","299","401311","0.0-14.0-0.48","5e8c57d9b4483e012006e7aa","650c16f0f2faf8d7a0d14c09","651c1ceae4b2f23064397f19","null","null","<p style=""font-size: 60px; font-family: BACS"">LdQvJUNa</p>","","","","","","","","",""
"html-keyboard-response","300","402315","0.0-14.0-0.49","5e8c57d9b4483e012006e7aa","650c16f0f2faf8d7a0d14c09","651c1ceae4b2f23064397f19","null","null","<p style=""font-size: 60px; font-family: BACS"">udkmbadk</p>","","","","","","","","",""
"html-keyboard-response","301","403326","0.0-14.0-0.50","5e8c57d9b4483e012006e7aa","650c16f0f2faf8d7a0d14c09","651c1ceae4b2f23064397f19","null","null","<p style=""font-size: 60px; font-family: BACS"">PEkhATmc</p>","","","","","","","","",""
"html-keyboard-response","302","404331","0.0-14.0-0.51","5e8c57d9b4483e012006e7aa","650c16f0f2faf8d7a0d14c09","651c1ceae4b2f23064397f19","null","null","<p style=""font-size: 60px; font-family: BACS"">UdlGQJUNa</p>","","","","","","","","",""
"html-keyboard-response","303","405342","0.0-14.0-0.52","5e8c57d9b4483e012006e7aa","650c16f0f2faf8d7a0d14c09","651c1ceae4b2f23064397f19","null","null","<p style=""font-size: 60px; font-family: BACS"">PEkhAdmRb</p>","","","","","","","","",""
"html-keyboard-response","304","406348","0.0-14.0-0.53","5e8c57d9b4483e012006e7aa","650c16f0f2faf8d7a0d14c09","651c1ceae4b2f23064397f19","null","null","<p style=""font-size: 60px; font-family: BACS"">NJZlbadk</p>","","","","","","","","",""
"html-keyboard-response","305","407354","0.0-14.0-0.54","5e8c57d9b4483e012006e7aa","650c16f0f2faf8d7a0d14c09","651c1ceae4b2f23064397f19","null","null","<p style=""font-size: 60px; font-family: BACS"">lkAkJUNa</p>","","","","","","","","",""
"html-keyboard-response","306","408361","0.0-14.0-0.55","5e8c57d9b4483e012006e7aa","650c16f0f2faf8d7a0d14c09","651c1ceae4b2f23064397f19","null","null","<p style=""font-size: 60px; font-family: BACS"">BdtACdmRb</p>","","","","","","","","",""
"html-keyboard-response","307","409373","0.0-14.0-0.56","5e8c57d9b4483e012006e7aa","650c16f0f2faf8d7a0d14c09","651c1ceae4b2f23064397f19","null","null","<p style=""font-size: 60px; font-family: BACS"">DOchlOPE</p>","","","","","","","","",""
"html-keyboard-response","308","410379","0.0-14.0-0.57","5e8c57d9b4483e012006e7aa","650c16f0f2faf8d7a0d14c09","651c1ceae4b2f23064397f19","null","null","<p style=""font-size: 60px; font-family: BACS"">lkAkJZr</p>","","","","","","","","",""
"html-keyboard-response","309","411385","0.0-14.0-0.58","5e8c57d9b4483e012006e7aa","650c16f0f2faf8d7a0d14c09","651c1ceae4b2f23064397f19","null","null","<p style=""font-size: 60px; font-family: BACS"">LdQvbadk</p>","","","","","","","","",""
"html-keyboard-response","310","412394","0.0-14.0-0.59","5e8c57d9b4483e012006e7aa","650c16f0f2faf8d7a0d14c09","651c1ceae4b2f23064397f19","null","null","<p style=""font-size: 60px; font-family: BACS"">UdumdLUOk</p>","","","","","","","","",""
"html-keyboard-response","311","413405","0.0-14.0-0.60","5e8c57d9b4483e012006e7aa","650c16f0f2faf8d7a0d14c09","651c1ceae4b2f23064397f19","null","null","<p style=""font-size: 60px; font-family: BACS"">rcmuvbadk</p>","","","","","","","","",""
"html-keyboard-response","312","414411","0.0-14.0-0.61","5e8c57d9b4483e012006e7aa","650c16f0f2faf8d7a0d14c09","651c1ceae4b2f23064397f19","null","null","<p style=""font-size: 60px; font-family: BACS"">udkmravu</p>","","","","","","","","",""
"html-keyboard-response","313","415418","0.0-14.0-0.62","5e8c57d9b4483e012006e7aa","650c16f0f2faf8d7a0d14c09","651c1ceae4b2f23064397f19","null","null","<p style=""font-size: 60px; font-family: BACS"">BdtACTbk</p>","","","","","","","","",""
"html-keyboard-response","314","416428","0.0-14.0-0.63","5e8c57d9b4483e012006e7aa","650c16f0f2faf8d7a0d14c09","651c1ceae4b2f23064397f19","null","null","<p style=""font-size: 60px; font-family: BACS"">NJZlravu</p>","","","","","","","","",""
"html-keyboard-response","315","417437","0.0-14.0-0.64","5e8c57d9b4483e012006e7aa","650c16f0f2faf8d7a0d14c09","651c1ceae4b2f23064397f19","null","null","<p style=""font-size: 60px; font-family: BACS"">COTKOPE</p>","","","","","","","","",""
"html-keyboard-response","316","418443","0.0-14.0-0.65","5e8c57d9b4483e012006e7aa","650c16f0f2faf8d7a0d14c09","651c1ceae4b2f23064397f19","null","null","<p style=""font-size: 60px; font-family: BACS"">Juamlbadk</p>","","","","","","","","",""
"html-keyboard-response","317","419444","0.0-14.0-0.66","5e8c57d9b4483e012006e7aa","650c16f0f2faf8d7a0d14c09","651c1ceae4b2f23064397f19","null","null","<p style=""font-size: 60px; font-family: BACS"">YNrAmJZr</p>","","","","","","","","",""
"html-keyboard-response","318","420453","0.0-14.0-0.67","5e8c57d9b4483e012006e7aa","650c16f0f2faf8d7a0d14c09","651c1ceae4b2f23064397f19","null","null","<p style=""font-size: 60px; font-family: BACS"">tDPRkOPE</p>","","","","","","","","",""
"html-keyboard-response","319","421461","0.0-14.0-0.68","5e8c57d9b4483e012006e7aa","650c16f0f2faf8d7a0d14c09","651c1ceae4b2f23064397f19","null","null","<p style=""font-size: 60px; font-family: BACS"">lRCBMCkm</p>","","","","","","","","",""
"html-keyboard-response","320","422469","0.0-14.0-0.69","5e8c57d9b4483e012006e7aa","650c16f0f2faf8d7a0d14c09","651c1ceae4b2f23064397f19","null","null","<p style=""font-size: 60px; font-family: BACS"">JuamlJZr</p>","","","","","","","","",""
"html-keyboard-response","321","423473","0.0-14.0-0.70","5e8c57d9b4483e012006e7aa","650c16f0f2faf8d7a0d14c09","651c1ceae4b2f23064397f19","null","null","<p style=""font-size: 60px; font-family: BACS"">CDEmYdmRb</p>","","","","","","","","",""
"html-keyboard-response","322","424477","0.0-14.0-0.71","5e8c57d9b4483e012006e7aa","650c16f0f2faf8d7a0d14c09","651c1ceae4b2f23064397f19","null","null","<p style=""font-size: 60px; font-family: BACS"">DOchlMCkm</p>","","","","","","","","",""
"html-keyboard-response","323","425482","0.0-14.0-0.72","5e8c57d9b4483e012006e7aa","650c16f0f2faf8d7a0d14c09","651c1ceae4b2f23064397f19","null","null","<p style=""font-size: 60px; font-family: BACS"">UdlGQravu</p>","","","","","","","","",""
"html-keyboard-response","324","426489","0.0-14.0-0.73","5e8c57d9b4483e012006e7aa","650c16f0f2faf8d7a0d14c09","651c1ceae4b2f23064397f19","null","null","<p style=""font-size: 60px; font-family: BACS"">BdtACTmc</p>","","","","","","","","",""
"html-keyboard-response","325","427495","0.0-14.0-0.74","5e8c57d9b4483e012006e7aa","650c16f0f2faf8d7a0d14c09","651c1ceae4b2f23064397f19","null","null","<p style=""font-size: 60px; font-family: BACS"">UdumdJZr</p>","","","","","","","","",""
"html-keyboard-response","326","428497","0.0-14.0-0.75","5e8c57d9b4483e012006e7aa","650c16f0f2faf8d7a0d14c09","651c1ceae4b2f23064397f19","null","null","<p style=""font-size: 60px; font-family: BACS"">COTKTmc</p>","","","","","","","","",""
"html-keyboard-response","327","429505","0.0-14.0-0.76","5e8c57d9b4483e012006e7aa","650c16f0f2faf8d7a0d14c09","651c1ceae4b2f23064397f19","null","null","<p style=""font-size: 60px; font-family: BACS"">Juamlravu</p>","","","","","","","","",""
"html-keyboard-response","328","430511","0.0-14.0-0.77","5e8c57d9b4483e012006e7aa","650c16f0f2faf8d7a0d14c09","651c1ceae4b2f23064397f19","null","null","<p style=""font-size: 60px; font-family: BACS"">NJZlJZr</p>","","","","","","","","",""
"html-keyboard-response","329","431522","0.0-14.0-0.78","5e8c57d9b4483e012006e7aa","650c16f0f2faf8d7a0d14c09","651c1ceae4b2f23064397f19","null","null","<p style=""font-size: 60px; font-family: BACS"">kLvdNbadk</p>","","","","","","","","",""
"html-keyboard-response","330","432529","0.0-14.0-0.79","5e8c57d9b4483e012006e7aa","650c16f0f2faf8d7a0d14c09","651c1ceae4b2f23064397f19","null","null","<p style=""font-size: 60px; font-family: BACS"">mBbKTbk</p>","","","","","","","","",""
"html-keyboard-response","331","535480","0.0-15.0","5e8c57d9b4483e012006e7aa","650c16f0f2faf8d7a0d14c09","651c1ceae4b2f23064397f19","102953"," ","<p>Great, you've seen the fourth block of words. You may now take a short break.</p>
      <p>Press the spacebar when you're ready to continue.</p>","","","","","","","","",""
"html-keyboard-response","332","536488","0.0-16.0-0.0","5e8c57d9b4483e012006e7aa","650c16f0f2faf8d7a0d14c09","651c1ceae4b2f23064397f19","null","null","<p style=""font-size: 60px; font-family: BACS"">UdlGQbadk</p>","","","","","","","","",""
"html-keyboard-response","333","537496","0.0-16.0-0.1","5e8c57d9b4483e012006e7aa","650c16f0f2faf8d7a0d14c09","651c1ceae4b2f23064397f19","null","null","<p style=""font-size: 60px; font-family: BACS"">UdlGQbadk</p>","","","","","","","","",""
"html-keyboard-response","334","538502","0.0-16.0-0.2","5e8c57d9b4483e012006e7aa","650c16f0f2faf8d7a0d14c09","651c1ceae4b2f23064397f19","null","null","<p style=""font-size: 60px; font-family: BACS"">UdlGQbadk</p>","","","","","","","","",""
"html-keyboard-response","335","539509","0.0-16.0-0.3","5e8c57d9b4483e012006e7aa","650c16f0f2faf8d7a0d14c09","651c1ceae4b2f23064397f19","null","null","<p style=""font-size: 60px; font-family: BACS"">UdlGQbadk</p>","","","","","","","","",""
"html-keyboard-response","336","540512","0.0-16.0-0.4","5e8c57d9b4483e012006e7aa","650c16f0f2faf8d7a0d14c09","651c1ceae4b2f23064397f19","null","null","<p style=""font-size: 60px; font-family: BACS"">UdlGQbadk</p>","","","","","","","","",""
"html-keyboard-response","337","541518","0.0-16.0-0.5","5e8c57d9b4483e012006e7aa","650c16f0f2faf8d7a0d14c09","651c1ceae4b2f23064397f19","null","null","<p style=""font-size: 60px; font-family: BACS"">UdlGQbadk</p>","","","","","","","","",""
"html-keyboard-response","338","542527","0.0-16.0-0.6","5e8c57d9b4483e012006e7aa","650c16f0f2faf8d7a0d14c09","651c1ceae4b2f23064397f19","null","null","<p style=""font-size: 60px; font-family: BACS"">UdlGQbadk</p>","","","","","","","","",""
"html-keyboard-response","339","543538","0.0-16.0-0.7","5e8c57d9b4483e012006e7aa","650c16f0f2faf8d7a0d14c09","651c1ceae4b2f23064397f19","null","null","<p style=""font-size: 60px; font-family: BACS"">UdlGQbadk</p>","","","","","","","","",""
"html-keyboard-response","340","544543","0.0-16.0-0.8","5e8c57d9b4483e012006e7aa","650c16f0f2faf8d7a0d14c09","651c1ceae4b2f23064397f19","null","null","<p style=""font-size: 60px; font-family: BACS"">UdlGQbadk</p>","","","","","","","","",""
"html-keyboard-response","341","545549","0.0-16.0-0.9","5e8c57d9b4483e012006e7aa","650c16f0f2faf8d7a0d14c09","651c1ceae4b2f23064397f19","null","null","<p style=""font-size: 60px; font-family: BACS"">UdlGQbadk</p>","","","","","","","","",""
"html-keyboard-response","342","546560","0.0-16.0-0.10","5e8c57d9b4483e012006e7aa","650c16f0f2faf8d7a0d14c09","651c1ceae4b2f23064397f19","null","null","<p style=""font-size: 60px; font-family: BACS"">UdlGQbadk</p>","","","","","","","","",""
"html-keyboard-response","343","547566","0.0-16.0-0.11","5e8c57d9b4483e012006e7aa","650c16f0f2faf8d7a0d14c09","651c1ceae4b2f23064397f19","null","null","<p style=""font-size: 60px; font-family: BACS"">UdlGQbadk</p>","","","","","","","","",""
"html-keyboard-response","344","548574","0.0-16.0-0.12","5e8c57d9b4483e012006e7aa","650c16f0f2faf8d7a0d14c09","651c1ceae4b2f23064397f19","null","null","<p style=""font-size: 60px; font-family: BACS"">UdlGQbadk</p>","","","","","","","","",""
"html-keyboard-response","345","549579","0.0-16.0-0.13","5e8c57d9b4483e012006e7aa","650c16f0f2faf8d7a0d14c09","651c1ceae4b2f23064397f19","null","null","<p style=""font-size: 60px; font-family: BACS"">UdlGQbadk</p>","","","","","","","","",""
"html-keyboard-response","346","550585","0.0-16.0-0.14","5e8c57d9b4483e012006e7aa","650c16f0f2faf8d7a0d14c09","651c1ceae4b2f23064397f19","null","null","<p style=""font-size: 60px; font-family: BACS"">UdlGQbadk</p>","","","","","","","","",""
"html-keyboard-response","347","551591","0.0-16.0-0.15","5e8c57d9b4483e012006e7aa","650c16f0f2faf8d7a0d14c09","651c1ceae4b2f23064397f19","null","null","<p style=""font-size: 60px; font-family: BACS"">UdlGQbadk</p>","","","","","","","","",""
"html-keyboard-response","348","552593","0.0-16.0-0.16","5e8c57d9b4483e012006e7aa","650c16f0f2faf8d7a0d14c09","651c1ceae4b2f23064397f19","null","null","<p style=""font-size: 60px; font-family: BACS"">UdlGQbadk</p>","","","","","","","","",""
"html-keyboard-response","349","553594","0.0-16.0-0.17","5e8c57d9b4483e012006e7aa","650c16f0f2faf8d7a0d14c09","651c1ceae4b2f23064397f19","null","null","<p style=""font-size: 60px; font-family: BACS"">UdlGQbadk</p>","","","","","","","","",""
"html-keyboard-response","350","554601","0.0-16.0-0.18","5e8c57d9b4483e012006e7aa","650c16f0f2faf8d7a0d14c09","651c1ceae4b2f23064397f19","null","null","<p style=""font-size: 60px; font-family: BACS"">UdlGQbadk</p>","","","","","","","","",""
"html-keyboard-response","351","555605","0.0-16.0-0.19","5e8c57d9b4483e012006e7aa","650c16f0f2faf8d7a0d14c09","651c1ceae4b2f23064397f19","null","null","<p style=""font-size: 60px; font-family: BACS"">UdlGQbadk</p>","","","","","","","","",""
"html-keyboard-response","352","556612","0.0-16.0-0.20","5e8c57d9b4483e012006e7aa","650c16f0f2faf8d7a0d14c09","651c1ceae4b2f23064397f19","null","null","<p style=""font-size: 60px; font-family: BACS"">UdlGQbadk</p>","","","","","","","","",""
"html-keyboard-response","353","557625","0.0-16.0-0.21","5e8c57d9b4483e012006e7aa","650c16f0f2faf8d7a0d14c09","651c1ceae4b2f23064397f19","null","null","<p style=""font-size: 60px; font-family: BACS"">UdlGQbadk</p>","","","","","","","","",""
"html-keyboard-response","354","558628","0.0-16.0-0.22","5e8c57d9b4483e012006e7aa","650c16f0f2faf8d7a0d14c09","651c1ceae4b2f23064397f19","null","null","<p style=""font-size: 60px; font-family: BACS"">UdlGQbadk</p>","","","","","","","","",""
"html-keyboard-response","355","559641","0.0-16.0-0.23","5e8c57d9b4483e012006e7aa","650c16f0f2faf8d7a0d14c09","651c1ceae4b2f23064397f19","null","null","<p style=""font-size: 60px; font-family: BACS"">UdlGQbadk</p>","","","","","","","","",""
"html-keyboard-response","356","560644","0.0-16.0-0.24","5e8c57d9b4483e012006e7aa","650c16f0f2faf8d7a0d14c09","651c1ceae4b2f23064397f19","null","null","<p style=""font-size: 60px; font-family: BACS"">UdlGQbadk</p>","","","","","","","","",""
"html-keyboard-response","357","561645","0.0-16.0-0.25","5e8c57d9b4483e012006e7aa","650c16f0f2faf8d7a0d14c09","651c1ceae4b2f23064397f19","null","null","<p style=""font-size: 60px; font-family: BACS"">UdlGQbadk</p>","","","","","","","","",""
"html-keyboard-response","358","562657","0.0-16.0-0.26","5e8c57d9b4483e012006e7aa","650c16f0f2faf8d7a0d14c09","651c1ceae4b2f23064397f19","null","null","<p style=""font-size: 60px; font-family: BACS"">UdlGQbadk</p>","","","","","","","","",""
"html-keyboard-response","359","563660","0.0-16.0-0.27","5e8c57d9b4483e012006e7aa","650c16f0f2faf8d7a0d14c09","651c1ceae4b2f23064397f19","null","null","<p style=""font-size: 60px; font-family: BACS"">UdlGQbadk</p>","","","","","","","","",""
"html-keyboard-response","360","564673","0.0-16.0-0.28","5e8c57d9b4483e012006e7aa","650c16f0f2faf8d7a0d14c09","651c1ceae4b2f23064397f19","null","null","<p style=""font-size: 60px; font-family: BACS"">UdlGQbadk</p>","","","","","","","","",""
"html-keyboard-response","361","565678","0.0-16.0-0.29","5e8c57d9b4483e012006e7aa","650c16f0f2faf8d7a0d14c09","651c1ceae4b2f23064397f19","null","null","<p style=""font-size: 60px; font-family: BACS"">UdlGQbadk</p>","","","","","","","","",""
"html-keyboard-response","362","566689","0.0-16.0-0.30","5e8c57d9b4483e012006e7aa","650c16f0f2faf8d7a0d14c09","651c1ceae4b2f23064397f19","null","null","<p style=""font-size: 60px; font-family: BACS"">UdlGQbadk</p>","","","","","","","","",""
"html-keyboard-response","363","567692","0.0-16.0-0.31","5e8c57d9b4483e012006e7aa","650c16f0f2faf8d7a0d14c09","651c1ceae4b2f23064397f19","null","null","<p style=""font-size: 60px; font-family: BACS"">UdlGQbadk</p>","","","","","","","","",""
"html-keyboard-response","364","568695","0.0-16.0-0.32","5e8c57d9b4483e012006e7aa","650c16f0f2faf8d7a0d14c09","651c1ceae4b2f23064397f19","null","null","<p style=""font-size: 60px; font-family: BACS"">UdlGQbadk</p>","","","","","","","","",""
"html-keyboard-response","365","569705","0.0-16.0-0.33","5e8c57d9b4483e012006e7aa","650c16f0f2faf8d7a0d14c09","651c1ceae4b2f23064397f19","null","null","<p style=""font-size: 60px; font-family: BACS"">UdlGQbadk</p>","","","","","","","","",""
"html-keyboard-response","366","570711","0.0-16.0-0.34","5e8c57d9b4483e012006e7aa","650c16f0f2faf8d7a0d14c09","651c1ceae4b2f23064397f19","null","null","<p style=""font-size: 60px; font-family: BACS"">UdlGQbadk</p>","","","","","","","","",""
"html-keyboard-response","367","571721","0.0-16.0-0.35","5e8c57d9b4483e012006e7aa","650c16f0f2faf8d7a0d14c09","651c1ceae4b2f23064397f19","null","null","<p style=""font-size: 60px; font-family: BACS"">UdlGQbadk</p>","","","","","","","","",""
"html-keyboard-response","368","572725","0.0-16.0-0.36","5e8c57d9b4483e012006e7aa","650c16f0f2faf8d7a0d14c09","651c1ceae4b2f23064397f19","null","null","<p style=""font-size: 60px; font-family: BACS"">UdlGQbadk</p>","","","","","","","","",""
"html-keyboard-response","369","573728","0.0-16.0-0.37","5e8c57d9b4483e012006e7aa","650c16f0f2faf8d7a0d14c09","651c1ceae4b2f23064397f19","null","null","<p style=""font-size: 60px; font-family: BACS"">UdlGQbadk</p>","","","","","","","","",""
"html-keyboard-response","370","574736","0.0-16.0-0.38","5e8c57d9b4483e012006e7aa","650c16f0f2faf8d7a0d14c09","651c1ceae4b2f23064397f19","null","null","<p style=""font-size: 60px; font-family: BACS"">UdlGQbadk</p>","","","","","","","","",""
"html-keyboard-response","371","575741","0.0-16.0-0.39","5e8c57d9b4483e012006e7aa","650c16f0f2faf8d7a0d14c09","651c1ceae4b2f23064397f19","null","null","<p style=""font-size: 60px; font-family: BACS"">UdlGQbadk</p>","","","","","","","","",""
"html-keyboard-response","372","576745","0.0-16.0-0.40","5e8c57d9b4483e012006e7aa","650c16f0f2faf8d7a0d14c09","651c1ceae4b2f23064397f19","null","null","<p style=""font-size: 60px; font-family: BACS"">UdlGQbadk</p>","","","","","","","","",""
"html-keyboard-response","373","577753","0.0-16.0-0.41","5e8c57d9b4483e012006e7aa","650c16f0f2faf8d7a0d14c09","651c1ceae4b2f23064397f19","null","null","<p style=""font-size: 60px; font-family: BACS"">UdlGQbadk</p>","","","","","","","","",""
"html-keyboard-response","374","578757","0.0-16.0-0.42","5e8c57d9b4483e012006e7aa","650c16f0f2faf8d7a0d14c09","651c1ceae4b2f23064397f19","null","null","<p style=""font-size: 60px; font-family: BACS"">UdlGQbadk</p>","","","","","","","","",""
"html-keyboard-response","375","579759","0.0-16.0-0.43","5e8c57d9b4483e012006e7aa","650c16f0f2faf8d7a0d14c09","651c1ceae4b2f23064397f19","null","null","<p style=""font-size: 60px; font-family: BACS"">UdlGQbadk</p>","","","","","","","","",""
"html-keyboard-response","376","580761","0.0-16.0-0.44","5e8c57d9b4483e012006e7aa","650c16f0f2faf8d7a0d14c09","651c1ceae4b2f23064397f19","null","null","<p style=""font-size: 60px; font-family: BACS"">UdlGQbadk</p>","","","","","","","","",""
"html-keyboard-response","377","581769","0.0-16.0-0.45","5e8c57d9b4483e012006e7aa","650c16f0f2faf8d7a0d14c09","651c1ceae4b2f23064397f19","null","null","<p style=""font-size: 60px; font-family: BACS"">UdlGQbadk</p>","","","","","","","","",""
"html-keyboard-response","378","582777","0.0-16.0-0.46","5e8c57d9b4483e012006e7aa","650c16f0f2faf8d7a0d14c09","651c1ceae4b2f23064397f19","null","null","<p style=""font-size: 60px; font-family: BACS"">UdlGQbadk</p>","","","","","","","","",""
"html-keyboard-response","379","583784","0.0-16.0-0.47","5e8c57d9b4483e012006e7aa","650c16f0f2faf8d7a0d14c09","651c1ceae4b2f23064397f19","null","null","<p style=""font-size: 60px; font-family: BACS"">UdlGQbadk</p>","","","","","","","","",""
"html-keyboard-response","380","584788","0.0-16.0-0.48","5e8c57d9b4483e012006e7aa","650c16f0f2faf8d7a0d14c09","651c1ceae4b2f23064397f19","null","null","<p style=""font-size: 60px; font-family: BACS"">UdlGQbadk</p>","","","","","","","","",""
"html-keyboard-response","381","585794","0.0-16.0-0.49","5e8c57d9b4483e012006e7aa","650c16f0f2faf8d7a0d14c09","651c1ceae4b2f23064397f19","null","null","<p style=""font-size: 60px; font-family: BACS"">UdlGQbadk</p>","","","","","","","","",""
"html-keyboard-response","382","586795","0.0-16.0-0.50","5e8c57d9b4483e012006e7aa","650c16f0f2faf8d7a0d14c09","651c1ceae4b2f23064397f19","null","null","<p style=""font-size: 60px; font-family: BACS"">UdlGQbadk</p>","","","","","","","","",""
"html-keyboard-response","383","587804","0.0-16.0-0.51","5e8c57d9b4483e012006e7aa","650c16f0f2faf8d7a0d14c09","651c1ceae4b2f23064397f19","null","null","<p style=""font-size: 60px; font-family: BACS"">UdlGQbadk</p>","","","","","","","","",""
"html-keyboard-response","384","588811","0.0-16.0-0.52","5e8c57d9b4483e012006e7aa","650c16f0f2faf8d7a0d14c09","651c1ceae4b2f23064397f19","null","null","<p style=""font-size: 60px; font-family: BACS"">UdlGQbadk</p>","","","","","","","","",""
"html-keyboard-response","385","589824","0.0-16.0-0.53","5e8c57d9b4483e012006e7aa","650c16f0f2faf8d7a0d14c09","651c1ceae4b2f23064397f19","null","null","<p style=""font-size: 60px; font-family: BACS"">UdlGQbadk</p>","","","","","","","","",""
"html-keyboard-response","386","590830","0.0-16.0-0.54","5e8c57d9b4483e012006e7aa","650c16f0f2faf8d7a0d14c09","651c1ceae4b2f23064397f19","null","null","<p style=""font-size: 60px; font-family: BACS"">UdlGQbadk</p>","","","","","","","","",""
"html-keyboard-response","387","591840","0.0-16.0-0.55","5e8c57d9b4483e012006e7aa","650c16f0f2faf8d7a0d14c09","651c1ceae4b2f23064397f19","null","null","<p style=""font-size: 60px; font-family: BACS"">UdlGQbadk</p>","","","","","","","","",""
"html-keyboard-response","388","592844","0.0-16.0-0.56","5e8c57d9b4483e012006e7aa","650c16f0f2faf8d7a0d14c09","651c1ceae4b2f23064397f19","null","null","<p style=""font-size: 60px; font-family: BACS"">UdlGQbadk</p>","","","","","","","","",""
"html-keyboard-response","389","593853","0.0-16.0-0.57","5e8c57d9b4483e012006e7aa","650c16f0f2faf8d7a0d14c09","651c1ceae4b2f23064397f19","null","null","<p style=""font-size: 60px; font-family: BACS"">UdlGQbadk</p>","","","","","","","","",""
"html-keyboard-response","390","594859","0.0-16.0-0.58","5e8c57d9b4483e012006e7aa","650c16f0f2faf8d7a0d14c09","651c1ceae4b2f23064397f19","null","null","<p style=""font-size: 60px; font-family: BACS"">UdlGQbadk</p>","","","","","","","","",""
"html-keyboard-response","391","595861","0.0-16.0-0.59","5e8c57d9b4483e012006e7aa","650c16f0f2faf8d7a0d14c09","651c1ceae4b2f23064397f19","null","null","<p style=""font-size: 60px; font-family: BACS"">UdlGQbadk</p>","","","","","","","","",""
"html-keyboard-response","392","596872","0.0-16.0-0.60","5e8c57d9b4483e012006e7aa","650c16f0f2faf8d7a0d14c09","651c1ceae4b2f23064397f19","null","null","<p style=""font-size: 60px; font-family: BACS"">UdlGQbadk</p>","","","","","","","","",""
"html-keyboard-response","393","597874","0.0-16.0-0.61","5e8c57d9b4483e012006e7aa","650c16f0f2faf8d7a0d14c09","651c1ceae4b2f23064397f19","null","null","<p style=""font-size: 60px; font-family: BACS"">UdlGQbadk</p>","","","","","","","","",""
"html-keyboard-response","394","598878","0.0-16.0-0.62","5e8c57d9b4483e012006e7aa","650c16f0f2faf8d7a0d14c09","651c1ceae4b2f23064397f19","null","null","<p style=""font-size: 60px; font-family: BACS"">UdlGQbadk</p>","","","","","","","","",""
"html-keyboard-response","395","599888","0.0-16.0-0.63","5e8c57d9b4483e012006e7aa","650c16f0f2faf8d7a0d14c09","651c1ceae4b2f23064397f19","null","null","<p style=""font-size: 60px; font-family: BACS"">UdlGQbadk</p>","","","","","","","","",""
"html-keyboard-response","396","600894","0.0-16.0-0.64","5e8c57d9b4483e012006e7aa","650c16f0f2faf8d7a0d14c09","651c1ceae4b2f23064397f19","null","null","<p style=""font-size: 60px; font-family: BACS"">UdlGQbadk</p>","","","","","","","","",""
"html-keyboard-response","397","601904","0.0-16.0-0.65","5e8c57d9b4483e012006e7aa","650c16f0f2faf8d7a0d14c09","651c1ceae4b2f23064397f19","null","null","<p style=""font-size: 60px; font-family: BACS"">UdlGQbadk</p>","","","","","","","","",""
"html-keyboard-response","398","602910","0.0-16.0-0.66","5e8c57d9b4483e012006e7aa","650c16f0f2faf8d7a0d14c09","651c1ceae4b2f23064397f19","null","null","<p style=""font-size: 60px; font-family: BACS"">UdlGQbadk</p>","","","","","","","","",""
"html-keyboard-response","399","603916","0.0-16.0-0.67","5e8c57d9b4483e012006e7aa","650c16f0f2faf8d7a0d14c09","651c1ceae4b2f23064397f19","null","null","<p style=""font-size: 60px; font-family: BACS"">UdlGQbadk</p>","","","","","","","","",""
