"trial_type","trial_index","time_elapsed","internal_node_id","subject_id","study_id","session_id","rt","response","stimulus","success","item","task","correct_response","correct","target","confound","name"
"pavlovia","0","3363","0.0-0.0","6048158f62550615002408af","64b003020eef62ee308107cc","64b03cd71f0bf30ffcd4b508","","","","","","","","","","",""
"survey-html-form","1","19528","0.0-1.0","6048158f62550615002408af","64b003020eef62ee308107cc","64b03cd71f0bf30ffcd4b508","16164","{""ID"":""6048158f62550615002408af""}","","","","","","","","",""
"html-keyboard-response","2","43618","0.0-2.0","6048158f62550615002408af","64b003020eef62ee308107cc","64b03cd71f0bf30ffcd4b508","24089"," ","<p style=""font-size: 15px;"">Prima di cominciare, le chiediamo di leggere il modulo di consenso informato e confermare la sua volontà di partecipare all'esperimento.</p>
      <p style=""font-size: 15px;""> La preghiamo di ricordare che questo è un progetto di ricerca e che la sua partecipazione è completamente volontaria. Lei si potra' ritirare in qualunque momento, senza necessariamente dover dare alcuna spiegazione. Lo studio al quale Le si chiede di partecipare ha lo scopo di esaminare come i lettori elaborano le parole scritte. La somministrazione delle prove è individuale. Lei sarà impegnato in una sessione di lavoro della durata media di 10 minuti, e un questionario di 10 minuti. L’ordine delle prove ed il loro svolgimento sono stabiliti in modo tale da evitare un eventuale affaticamento. Tutte le prove saranno precedute da un breve addestramento in modo tale che abbia la possibilità di familiarizzare con il compito. Sono previste alcune pause nel corso dello svolgimento dell’esperimento. Una ricompensa di £4 (£8 per ora) Le verrà consegnata al termine della sessione di testing. Nonostante il testing preveda delle prove cognitive, il presente esperimento non costituisce una prova clinica che permetta la diagnosi di eventuali patologie.</p>
      <p style=""font-size: 15px;"">Tutti i dati raccolti grazie alla partecipazione Sua e di altre persone volontarie saranno custoditi in server sicuri e protetti da password, e non sarà consentito ad alcuna persona non autorizzata di accedervi. Le Sue informazioni personali saranno conservate separatamente dai risultati della presente ricerca, cui saranno associati soltanto attraverso un ID arbitrario. Grazie a questo processo di anonimizzazione dei dati, a nessun ricercatore sarà possibile analizzare i risultati sapendo da quale specifico partecipante essi provengono. Inoltre, questa procedura renderà impossibile la Sua identificazione anche nel momento in cui i risultati della ricerca fossero pubblicati su riviste scientifiche, o presentati a congressi o in qualsiasi altro pubblico consesso. Più in generale, i dati raccolti saranno trattati in accordo con le leggi sulla privacy e in conformità al Decreto Legislativo 30 giugno 2003 n. 196 “Codice in materia di protezione dei dati personali” e al Regolamento Europeo 2016/679 (General Data Protection Regulation - GDPR). Il Responsabile della protezione dei dati (RPD) è l’Avv. Valentina Carollo che può essere contattato ai seguenti indirizzi email: <a href=""mailto:dpo@sissa.it"">dpo@sissa.it</a> oppure <a href=""mailto:rpd@sissa.it"">rpd@sissa.it</a> - PEC: <a href=""mailto:protocollo@pec.sissa.it"">protocollo@pec.sissa.it</a>.</p>
      <p style=""font-size: 15px;""> Prima di esprimere il suo consenso alla partecipazione, Le ricordiamo ancora che in caso Lei abbia bisogno di delucidazioni su qualunque aspetto della procedura sperimentale, il ricercatore è a Sua completa disposizione (<a href=""mailto:aliebelt@sissa.it"">aliebelt@sissa.it</a>, <a href=""mailto:davide.crepaldi@sissa.it"">davide.crepaldi@sissa.it</a>).</p>
      <p style=""font-size: 15px;"">Se vuole scaricare il modulo di consenso informato, clicca qui: <a href=""BASL_modulo_consenso.pdf"" download>modulo di consenso</a>.</p>
      <p style=""font-size: 15px;""> Le chiediamo di premere la barra per continuare al consenso.</p>","","","","","","","",""
"survey-html-form","3","63947","0.0-3.0","6048158f62550615002408af","64b003020eef62ee308107cc","64b03cd71f0bf30ffcd4b508","20329","{""consent1"":""YES"",""consent2"":""YES"",""consent3"":""YES"",""consent4"":""YES"",""consent5"":""YES"",""consent6"":""YES""}","","","","","","","","",""
"fullscreen","4","67940","0.0-4.0","6048158f62550615002408af","64b003020eef62ee308107cc","64b03cd71f0bf30ffcd4b508","","","","true","","","","","","",""
"html-keyboard-response","5","88334","0.0-5.0","6048158f62550615002408af","64b003020eef62ee308107cc","64b03cd71f0bf30ffcd4b508","20393"," ","<p>Benvenuta/o, e grazie mille del tuo tempo!</p>
      <p>In questo esperimento sarai un esperto/un'esperta di linguaggio cui è stato chiesto di dare un'occhiata ad alcuni messaggi che la Terra ha ricevuto dallo spazio. Il tuo compito, in questa prima parte dell'esperimento, sarà di fare molta attenzione alle parole che ti verranno mostrate; più tardi, i leader del mondo ti chiederanno qualche informazione su quello che hai visto. Le parole si susseguiranno abbastanza velocemente; sembra che questi alieni abbiano una certa fretta :-) </p>
      <p>Per favore, chiama lo sperimentatore se ha qualche domanda.</p><p>Premi la barra per continuare.</p>","","","","","","","",""
"html-keyboard-response","6","96330","0.0-6.0","6048158f62550615002408af","64b003020eef62ee308107cc","64b03cd71f0bf30ffcd4b508","7996"," ","<p>Ecco un esempio delle parole che vedrai:</p>
      <img src='esempio.png' height='400px'>
      <p>Quando sei pronti per iniziare, premi la barra.</p></div>","","","","","","","",""
"html-keyboard-response","7","97337","0.0-7.0-0.0","6048158f62550615002408af","64b003020eef62ee308107cc","64b03cd71f0bf30ffcd4b508","null","null","<p style=""font-size: 60px; font-family: BACS"">hbkdTRK</p>","","","","","","","",""
"html-keyboard-response","8","98347","0.0-7.0-0.1","6048158f62550615002408af","64b003020eef62ee308107cc","64b03cd71f0bf30ffcd4b508","null","null","<p style=""font-size: 60px; font-family: BACS"">LOLkUJQA</p>","","","","","","","",""
"html-keyboard-response","9","99352","0.0-7.0-0.2","6048158f62550615002408af","64b003020eef62ee308107cc","64b03cd71f0bf30ffcd4b508","null","null","<p style=""font-size: 60px; font-family: BACS"">ObOQlkmU</p>","","","","","","","",""
"html-keyboard-response","10","100365","0.0-7.0-0.3","6048158f62550615002408af","64b003020eef62ee308107cc","64b03cd71f0bf30ffcd4b508","null","null","<p style=""font-size: 60px; font-family: BACS"">CkBOPbdtK</p>","","","","","","","",""
"html-keyboard-response","11","101378","0.0-7.0-0.4","6048158f62550615002408af","64b003020eef62ee308107cc","64b03cd71f0bf30ffcd4b508","null","null","<p style=""font-size: 60px; font-family: BACS"">tdDdTRK</p>","","","","","","","",""
"html-keyboard-response","12","102393","0.0-7.0-0.5","6048158f62550615002408af","64b003020eef62ee308107cc","64b03cd71f0bf30ffcd4b508","null","null","<p style=""font-size: 60px; font-family: BACS"">adYrckmU</p>","","","","","","","",""
"html-keyboard-response","13","103406","0.0-7.0-0.6","6048158f62550615002408af","64b003020eef62ee308107cc","64b03cd71f0bf30ffcd4b508","null","null","<p style=""font-size: 60px; font-family: BACS"">DBPhcbdtK</p>","","","","","","","",""
"html-keyboard-response","14","104421","0.0-7.0-0.7","6048158f62550615002408af","64b003020eef62ee308107cc","64b03cd71f0bf30ffcd4b508","null","null","<p style=""font-size: 60px; font-family: BACS"">lcOcYZJO</p>","","","","","","","",""
"html-keyboard-response","15","105431","0.0-7.0-0.8","6048158f62550615002408af","64b003020eef62ee308107cc","64b03cd71f0bf30ffcd4b508","null","null","<p style=""font-size: 60px; font-family: BACS"">DBPhclRE</p>","","","","","","","",""
"html-keyboard-response","16","106447","0.0-7.0-0.9","6048158f62550615002408af","64b003020eef62ee308107cc","64b03cd71f0bf30ffcd4b508","null","null","<p style=""font-size: 60px; font-family: BACS"">KABAhEct</p>","","","","","","","",""
"html-keyboard-response","17","107461","0.0-7.0-0.10","6048158f62550615002408af","64b003020eef62ee308107cc","64b03cd71f0bf30ffcd4b508","null","null","<p style=""font-size: 60px; font-family: BACS"">ObOQlJcL</p>","","","","","","","",""
"html-keyboard-response","18","108473","0.0-7.0-0.11","6048158f62550615002408af","64b003020eef62ee308107cc","64b03cd71f0bf30ffcd4b508","null","null","<p style=""font-size: 60px; font-family: BACS"">KABATRK</p>","","","","","","","",""
"html-keyboard-response","19","109487","0.0-7.0-0.12","6048158f62550615002408af","64b003020eef62ee308107cc","64b03cd71f0bf30ffcd4b508","null","null","<p style=""font-size: 60px; font-family: BACS"">YQbcJcL</p>","","","","","","","",""
"html-keyboard-response","20","110501","0.0-7.0-0.13","6048158f62550615002408af","64b003020eef62ee308107cc","64b03cd71f0bf30ffcd4b508","null","null","<p style=""font-size: 60px; font-family: BACS"">hbkdBCD</p>","","","","","","","",""
"html-keyboard-response","21","111514","0.0-7.0-0.14","6048158f62550615002408af","64b003020eef62ee308107cc","64b03cd71f0bf30ffcd4b508","null","null","<p style=""font-size: 60px; font-family: BACS"">YQbcJQA</p>","","","","","","","",""
"html-keyboard-response","22","112531","0.0-7.0-0.15","6048158f62550615002408af","64b003020eef62ee308107cc","64b03cd71f0bf30ffcd4b508","null","null","<p style=""font-size: 60px; font-family: BACS"">JauQYZJO</p>","","","","","","","",""
"html-keyboard-response","23","113542","0.0-7.0-0.16","6048158f62550615002408af","64b003020eef62ee308107cc","64b03cd71f0bf30ffcd4b508","null","null","<p style=""font-size: 60px; font-family: BACS"">BECkhEct</p>","","","","","","","",""
"html-keyboard-response","24","114556","0.0-7.0-0.17","6048158f62550615002408af","64b003020eef62ee308107cc","64b03cd71f0bf30ffcd4b508","null","null","<p style=""font-size: 60px; font-family: BACS"">RYtkcbdtK</p>","","","","","","","",""
"html-keyboard-response","25","115568","0.0-7.0-0.18","6048158f62550615002408af","64b003020eef62ee308107cc","64b03cd71f0bf30ffcd4b508","null","null","<p style=""font-size: 60px; font-family: BACS"">JauQJcL</p>","","","","","","","",""
"html-keyboard-response","26","116569","0.0-7.0-0.19","6048158f62550615002408af","64b003020eef62ee308107cc","64b03cd71f0bf30ffcd4b508","null","null","<p style=""font-size: 60px; font-family: BACS"">LOLkUvUdm</p>","","","","","","","",""
"html-keyboard-response","27","117583","0.0-7.0-0.20","6048158f62550615002408af","64b003020eef62ee308107cc","64b03cd71f0bf30ffcd4b508","null","null","<p style=""font-size: 60px; font-family: BACS"">hBmMChEct</p>","","","","","","","",""
"html-keyboard-response","28","118599","0.0-7.0-0.21","6048158f62550615002408af","64b003020eef62ee308107cc","64b03cd71f0bf30ffcd4b508","null","null","<p style=""font-size: 60px; font-family: BACS"">CkBOPBCD</p>","","","","","","","",""
"html-keyboard-response","29","119613","0.0-7.0-0.22","6048158f62550615002408af","64b003020eef62ee308107cc","64b03cd71f0bf30ffcd4b508","null","null","<p style=""font-size: 60px; font-family: BACS"">rkYLJQA</p>","","","","","","","",""
"html-keyboard-response","30","120625","0.0-7.0-0.23","6048158f62550615002408af","64b003020eef62ee308107cc","64b03cd71f0bf30ffcd4b508","null","null","<p style=""font-size: 60px; font-family: BACS"">cdKBYhEct</p>","","","","","","","",""
"html-keyboard-response","31","121636","0.0-7.0-0.24","6048158f62550615002408af","64b003020eef62ee308107cc","64b03cd71f0bf30ffcd4b508","null","null","<p style=""font-size: 60px; font-family: BACS"">dClOCbdtK</p>","","","","","","","",""
"html-keyboard-response","32","122651","0.0-7.0-0.25","6048158f62550615002408af","64b003020eef62ee308107cc","64b03cd71f0bf30ffcd4b508","null","null","<p style=""font-size: 60px; font-family: BACS"">cdKBYBCD</p>","","","","","","","",""
"html-keyboard-response","33","123667","0.0-7.0-0.26","6048158f62550615002408af","64b003020eef62ee308107cc","64b03cd71f0bf30ffcd4b508","null","null","<p style=""font-size: 60px; font-family: BACS"">YOaAbJQA</p>","","","","","","","",""
"html-keyboard-response","34","124681","0.0-7.0-0.27","6048158f62550615002408af","64b003020eef62ee308107cc","64b03cd71f0bf30ffcd4b508","null","null","<p style=""font-size: 60px; font-family: BACS"">bYGOZYZJO</p>","","","","","","","",""
"html-keyboard-response","35","125694","0.0-7.0-0.28","6048158f62550615002408af","64b003020eef62ee308107cc","64b03cd71f0bf30ffcd4b508","null","null","<p style=""font-size: 60px; font-family: BACS"">YOaAbkmU</p>","","","","","","","",""
"html-keyboard-response","36","126707","0.0-7.0-0.29","6048158f62550615002408af","64b003020eef62ee308107cc","64b03cd71f0bf30ffcd4b508","null","null","<p style=""font-size: 60px; font-family: BACS"">JuamlJQA</p>","","","","","","","",""
"html-keyboard-response","37","127723","0.0-7.0-0.30","6048158f62550615002408af","64b003020eef62ee308107cc","64b03cd71f0bf30ffcd4b508","null","null","<p style=""font-size: 60px; font-family: BACS"">tdDdlRE</p>","","","","","","","",""
"html-keyboard-response","38","128734","0.0-7.0-0.31","6048158f62550615002408af","64b003020eef62ee308107cc","64b03cd71f0bf30ffcd4b508","null","null","<p style=""font-size: 60px; font-family: BACS"">adYrcvUdm</p>","","","","","","","",""
"html-keyboard-response","39","129746","0.0-7.0-0.32","6048158f62550615002408af","64b003020eef62ee308107cc","64b03cd71f0bf30ffcd4b508","null","null","<p style=""font-size: 60px; font-family: BACS"">dClOChEct</p>","","","","","","","",""
"html-keyboard-response","40","130763","0.0-7.0-0.33","6048158f62550615002408af","64b003020eef62ee308107cc","64b03cd71f0bf30ffcd4b508","null","null","<p style=""font-size: 60px; font-family: BACS"">cdKBYTRK</p>","","","","","","","",""
"html-keyboard-response","41","131777","0.0-7.0-0.34","6048158f62550615002408af","64b003020eef62ee308107cc","64b03cd71f0bf30ffcd4b508","null","null","<p style=""font-size: 60px; font-family: BACS"">LOLkUJcL</p>","","","","","","","",""
"html-keyboard-response","42","132788","0.0-7.0-0.35","6048158f62550615002408af","64b003020eef62ee308107cc","64b03cd71f0bf30ffcd4b508","null","null","<p style=""font-size: 60px; font-family: BACS"">ObOQlYZJO</p>","","","","","","","",""
"html-keyboard-response","43","133804","0.0-7.0-0.36","6048158f62550615002408af","64b003020eef62ee308107cc","64b03cd71f0bf30ffcd4b508","null","null","<p style=""font-size: 60px; font-family: BACS"">RYtkclRE</p>","","","","","","","",""
"html-keyboard-response","44","134817","0.0-7.0-0.37","6048158f62550615002408af","64b003020eef62ee308107cc","64b03cd71f0bf30ffcd4b508","null","null","<p style=""font-size: 60px; font-family: BACS"">BECkBCD</p>","","","","","","","",""
"html-keyboard-response","45","135830","0.0-7.0-0.38","6048158f62550615002408af","64b003020eef62ee308107cc","64b03cd71f0bf30ffcd4b508","null","null","<p style=""font-size: 60px; font-family: BACS"">hBmMCbdtK</p>","","","","","","","",""
"html-keyboard-response","46","136845","0.0-7.0-0.39","6048158f62550615002408af","64b003020eef62ee308107cc","64b03cd71f0bf30ffcd4b508","null","null","<p style=""font-size: 60px; font-family: BACS"">rkYLkmU</p>","","","","","","","",""
"html-keyboard-response","47","137857","0.0-7.0-0.40","6048158f62550615002408af","64b003020eef62ee308107cc","64b03cd71f0bf30ffcd4b508","null","null","<p style=""font-size: 60px; font-family: BACS"">hBmMCBCD</p>","","","","","","","",""
"html-keyboard-response","48","138871","0.0-7.0-0.41","6048158f62550615002408af","64b003020eef62ee308107cc","64b03cd71f0bf30ffcd4b508","null","null","<p style=""font-size: 60px; font-family: BACS"">adYrcJcL</p>","","","","","","","",""
"html-keyboard-response","49","139885","0.0-7.0-0.42","6048158f62550615002408af","64b003020eef62ee308107cc","64b03cd71f0bf30ffcd4b508","null","null","<p style=""font-size: 60px; font-family: BACS"">tdDdhEct</p>","","","","","","","",""
"html-keyboard-response","50","140898","0.0-7.0-0.43","6048158f62550615002408af","64b003020eef62ee308107cc","64b03cd71f0bf30ffcd4b508","null","null","<p style=""font-size: 60px; font-family: BACS"">DBPhcBCD</p>","","","","","","","",""
"html-keyboard-response","51","141913","0.0-7.0-0.44","6048158f62550615002408af","64b003020eef62ee308107cc","64b03cd71f0bf30ffcd4b508","null","null","<p style=""font-size: 60px; font-family: BACS"">YQbckmU</p>","","","","","","","",""
"html-keyboard-response","52","142925","0.0-7.0-0.45","6048158f62550615002408af","64b003020eef62ee308107cc","64b03cd71f0bf30ffcd4b508","null","null","<p style=""font-size: 60px; font-family: BACS"">rkYLJcL</p>","","","","","","","",""
"html-keyboard-response","53","143937","0.0-7.0-0.46","6048158f62550615002408af","64b003020eef62ee308107cc","64b03cd71f0bf30ffcd4b508","null","null","<p style=""font-size: 60px; font-family: BACS"">JuamlYZJO</p>","","","","","","","",""
"html-keyboard-response","54","144953","0.0-7.0-0.47","6048158f62550615002408af","64b003020eef62ee308107cc","64b03cd71f0bf30ffcd4b508","null","null","<p style=""font-size: 60px; font-family: BACS"">ObOQlJQA</p>","","","","","","","",""
"html-keyboard-response","55","145970","0.0-7.0-0.48","6048158f62550615002408af","64b003020eef62ee308107cc","64b03cd71f0bf30ffcd4b508","null","null","<p style=""font-size: 60px; font-family: BACS"">JuamlkmU</p>","","","","","","","",""
"html-keyboard-response","56","146983","0.0-7.0-0.49","6048158f62550615002408af","64b003020eef62ee308107cc","64b03cd71f0bf30ffcd4b508","null","null","<p style=""font-size: 60px; font-family: BACS"">hbkdbdtK</p>","","","","","","","",""
"html-keyboard-response","57","147996","0.0-7.0-0.50","6048158f62550615002408af","64b003020eef62ee308107cc","64b03cd71f0bf30ffcd4b508","null","null","<p style=""font-size: 60px; font-family: BACS"">DBPhcTRK</p>","","","","","","","",""
"html-keyboard-response","58","149006","0.0-7.0-0.51","6048158f62550615002408af","64b003020eef62ee308107cc","64b03cd71f0bf30ffcd4b508","null","null","<p style=""font-size: 60px; font-family: BACS"">bYGOZJQA</p>","","","","","","","",""
"html-keyboard-response","59","150021","0.0-7.0-0.52","6048158f62550615002408af","64b003020eef62ee308107cc","64b03cd71f0bf30ffcd4b508","null","null","<p style=""font-size: 60px; font-family: BACS"">JauQkmU</p>","","","","","","","",""
"html-keyboard-response","60","151038","0.0-7.0-0.53","6048158f62550615002408af","64b003020eef62ee308107cc","64b03cd71f0bf30ffcd4b508","null","null","<p style=""font-size: 60px; font-family: BACS"">KABABCD</p>","","","","","","","",""
"html-keyboard-response","61","152051","0.0-7.0-0.54","6048158f62550615002408af","64b003020eef62ee308107cc","64b03cd71f0bf30ffcd4b508","null","null","<p style=""font-size: 60px; font-family: BACS"">lcOcvUdm</p>","","","","","","","",""
"html-keyboard-response","62","153062","0.0-7.0-0.55","6048158f62550615002408af","64b003020eef62ee308107cc","64b03cd71f0bf30ffcd4b508","null","null","<p style=""font-size: 60px; font-family: BACS"">CkBOPhEct</p>","","","","","","","",""
"html-keyboard-response","63","154075","0.0-7.0-0.56","6048158f62550615002408af","64b003020eef62ee308107cc","64b03cd71f0bf30ffcd4b508","null","null","<p style=""font-size: 60px; font-family: BACS"">lcOckmU</p>","","","","","","","",""
"html-keyboard-response","64","155090","0.0-7.0-0.57","6048158f62550615002408af","64b003020eef62ee308107cc","64b03cd71f0bf30ffcd4b508","null","null","<p style=""font-size: 60px; font-family: BACS"">KABAbdtK</p>","","","","","","","",""
"html-keyboard-response","65","156102","0.0-7.0-0.58","6048158f62550615002408af","64b003020eef62ee308107cc","64b03cd71f0bf30ffcd4b508","null","null","<p style=""font-size: 60px; font-family: BACS"">adYrcYZJO</p>","","","","","","","",""
"html-keyboard-response","66","157115","0.0-7.0-0.59","6048158f62550615002408af","64b003020eef62ee308107cc","64b03cd71f0bf30ffcd4b508","null","null","<p style=""font-size: 60px; font-family: BACS"">bYGOZJcL</p>","","","","","","","",""
"html-keyboard-response","67","158116","0.0-7.0-0.60","6048158f62550615002408af","64b003020eef62ee308107cc","64b03cd71f0bf30ffcd4b508","null","null","<p style=""font-size: 60px; font-family: BACS"">YOaAbYZJO</p>","","","","","","","",""
"html-keyboard-response","68","159123","0.0-7.0-0.61","6048158f62550615002408af","64b003020eef62ee308107cc","64b03cd71f0bf30ffcd4b508","null","null","<p style=""font-size: 60px; font-family: BACS"">BECkbdtK</p>","","","","","","","",""
"html-keyboard-response","69","160130","0.0-7.0-0.62","6048158f62550615002408af","64b003020eef62ee308107cc","64b03cd71f0bf30ffcd4b508","null","null","<p style=""font-size: 60px; font-family: BACS"">RYtkchEct</p>","","","","","","","",""
"html-keyboard-response","70","161144","0.0-7.0-0.63","6048158f62550615002408af","64b003020eef62ee308107cc","64b03cd71f0bf30ffcd4b508","null","null","<p style=""font-size: 60px; font-family: BACS"">hbkdlRE</p>","","","","","","","",""
"html-keyboard-response","71","162157","0.0-7.0-0.64","6048158f62550615002408af","64b003020eef62ee308107cc","64b03cd71f0bf30ffcd4b508","null","null","<p style=""font-size: 60px; font-family: BACS"">YOaAbvUdm</p>","","","","","","","",""
"html-keyboard-response","72","163160","0.0-7.0-0.65","6048158f62550615002408af","64b003020eef62ee308107cc","64b03cd71f0bf30ffcd4b508","null","null","<p style=""font-size: 60px; font-family: BACS"">JuamlJcL</p>","","","","","","","",""
"html-keyboard-response","73","164173","0.0-7.0-0.66","6048158f62550615002408af","64b003020eef62ee308107cc","64b03cd71f0bf30ffcd4b508","null","null","<p style=""font-size: 60px; font-family: BACS"">RYtkcTRK</p>","","","","","","","",""
"html-keyboard-response","74","165190","0.0-7.0-0.67","6048158f62550615002408af","64b003020eef62ee308107cc","64b03cd71f0bf30ffcd4b508","null","null","<p style=""font-size: 60px; font-family: BACS"">CkBOPlRE</p>","","","","","","","",""
"html-keyboard-response","75","166205","0.0-7.0-0.68","6048158f62550615002408af","64b003020eef62ee308107cc","64b03cd71f0bf30ffcd4b508","null","null","<p style=""font-size: 60px; font-family: BACS"">JauQvUdm</p>","","","","","","","",""
"html-keyboard-response","76","167213","0.0-7.0-0.69","6048158f62550615002408af","64b003020eef62ee308107cc","64b03cd71f0bf30ffcd4b508","null","null","<p style=""font-size: 60px; font-family: BACS"">cdKBYlRE</p>","","","","","","","",""
"html-keyboard-response","77","168227","0.0-7.0-0.70","6048158f62550615002408af","64b003020eef62ee308107cc","64b03cd71f0bf30ffcd4b508","null","null","<p style=""font-size: 60px; font-family: BACS"">LOLkUYZJO</p>","","","","","","","",""
"html-keyboard-response","78","169240","0.0-7.0-0.71","6048158f62550615002408af","64b003020eef62ee308107cc","64b03cd71f0bf30ffcd4b508","null","null","<p style=""font-size: 60px; font-family: BACS"">dClOClRE</p>","","","","","","","",""
"html-keyboard-response","79","170257","0.0-7.0-0.72","6048158f62550615002408af","64b003020eef62ee308107cc","64b03cd71f0bf30ffcd4b508","null","null","<p style=""font-size: 60px; font-family: BACS"">bYGOZvUdm</p>","","","","","","","",""
"html-keyboard-response","80","171258","0.0-7.0-0.73","6048158f62550615002408af","64b003020eef62ee308107cc","64b03cd71f0bf30ffcd4b508","null","null","<p style=""font-size: 60px; font-family: BACS"">hBmMCTRK</p>","","","","","","","",""
"html-keyboard-response","81","172269","0.0-7.0-0.74","6048158f62550615002408af","64b003020eef62ee308107cc","64b03cd71f0bf30ffcd4b508","null","null","<p style=""font-size: 60px; font-family: BACS"">rkYLvUdm</p>","","","","","","","",""
"html-keyboard-response","82","173285","0.0-7.0-0.75","6048158f62550615002408af","64b003020eef62ee308107cc","64b03cd71f0bf30ffcd4b508","null","null","<p style=""font-size: 60px; font-family: BACS"">lcOcJQA</p>","","","","","","","",""
"html-keyboard-response","83","174296","0.0-7.0-0.76","6048158f62550615002408af","64b003020eef62ee308107cc","64b03cd71f0bf30ffcd4b508","null","null","<p style=""font-size: 60px; font-family: BACS"">dClOCTRK</p>","","","","","","","",""
"html-keyboard-response","84","175310","0.0-7.0-0.77","6048158f62550615002408af","64b003020eef62ee308107cc","64b03cd71f0bf30ffcd4b508","null","null","<p style=""font-size: 60px; font-family: BACS"">tdDdBCD</p>","","","","","","","",""
"html-keyboard-response","85","176325","0.0-7.0-0.78","6048158f62550615002408af","64b003020eef62ee308107cc","64b03cd71f0bf30ffcd4b508","null","null","<p style=""font-size: 60px; font-family: BACS"">YQbcvUdm</p>","","","","","","","",""
"html-keyboard-response","86","177338","0.0-7.0-0.79","6048158f62550615002408af","64b003020eef62ee308107cc","64b03cd71f0bf30ffcd4b508","null","null","<p style=""font-size: 60px; font-family: BACS"">BECklRE</p>","","","","","","","",""
"html-keyboard-response","87","180874","0.0-8.0","6048158f62550615002408af","64b003020eef62ee308107cc","64b03cd71f0bf30ffcd4b508","3535"," ","<p>Ottimo, hai visto il primo blocco di parole. Ora puoi prenderti una piccola pausa.</p>
      <p>Premi la barra quando sei pronta/o per riprendere.</p>","","","","","","","",""
"html-keyboard-response","88","181886","0.0-9.0-0.0","6048158f62550615002408af","64b003020eef62ee308107cc","64b03cd71f0bf30ffcd4b508","null","null","<p style=""font-size: 60px; font-family: BACS"">hBmMCbdtK</p>","","","","","","","",""
"html-keyboard-response","89","182902","0.0-9.0-0.1","6048158f62550615002408af","64b003020eef62ee308107cc","64b03cd71f0bf30ffcd4b508","null","null","<p style=""font-size: 60px; font-family: BACS"">LOLkUvUdm</p>","","","","","","","",""
"html-keyboard-response","90","183915","0.0-9.0-0.2","6048158f62550615002408af","64b003020eef62ee308107cc","64b03cd71f0bf30ffcd4b508","null","null","<p style=""font-size: 60px; font-family: BACS"">JauQYZJO</p>","","","","","","","",""
"html-keyboard-response","91","184927","0.0-9.0-0.3","6048158f62550615002408af","64b003020eef62ee308107cc","64b03cd71f0bf30ffcd4b508","null","null","<p style=""font-size: 60px; font-family: BACS"">YOaAbvUdm</p>","","","","","","","",""
"html-keyboard-response","92","185943","0.0-9.0-0.4","6048158f62550615002408af","64b003020eef62ee308107cc","64b03cd71f0bf30ffcd4b508","null","null","<p style=""font-size: 60px; font-family: BACS"">lcOcYZJO</p>","","","","","","","",""
"html-keyboard-response","93","186956","0.0-9.0-0.5","6048158f62550615002408af","64b003020eef62ee308107cc","64b03cd71f0bf30ffcd4b508","null","null","<p style=""font-size: 60px; font-family: BACS"">YQbcJQA</p>","","","","","","","",""
"html-keyboard-response","94","187973","0.0-9.0-0.6","6048158f62550615002408af","64b003020eef62ee308107cc","64b03cd71f0bf30ffcd4b508","null","null","<p style=""font-size: 60px; font-family: BACS"">RYtkcbdtK</p>","","","","","","","",""
"html-keyboard-response","95","188982","0.0-9.0-0.7","6048158f62550615002408af","64b003020eef62ee308107cc","64b03cd71f0bf30ffcd4b508","null","null","<p style=""font-size: 60px; font-family: BACS"">rkYLkmU</p>","","","","","","","",""
"html-keyboard-response","96","189997","0.0-9.0-0.8","6048158f62550615002408af","64b003020eef62ee308107cc","64b03cd71f0bf30ffcd4b508","null","null","<p style=""font-size: 60px; font-family: BACS"">JuamlJcL</p>","","","","","","","",""
"html-keyboard-response","97","191012","0.0-9.0-0.9","6048158f62550615002408af","64b003020eef62ee308107cc","64b03cd71f0bf30ffcd4b508","null","null","<p style=""font-size: 60px; font-family: BACS"">bYGOZvUdm</p>","","","","","","","",""
"html-keyboard-response","98","192022","0.0-9.0-0.10","6048158f62550615002408af","64b003020eef62ee308107cc","64b03cd71f0bf30ffcd4b508","null","null","<p style=""font-size: 60px; font-family: BACS"">CkBOPbdtK</p>","","","","","","","",""
"html-keyboard-response","99","193037","0.0-9.0-0.11","6048158f62550615002408af","64b003020eef62ee308107cc","64b03cd71f0bf30ffcd4b508","null","null","<p style=""font-size: 60px; font-family: BACS"">adYrcJcL</p>","","","","","","","",""
"html-keyboard-response","100","194051","0.0-9.0-0.12","6048158f62550615002408af","64b003020eef62ee308107cc","64b03cd71f0bf30ffcd4b508","null","null","<p style=""font-size: 60px; font-family: BACS"">hBmMCTRK</p>","","","","","","","",""
"html-keyboard-response","101","195064","0.0-9.0-0.13","6048158f62550615002408af","64b003020eef62ee308107cc","64b03cd71f0bf30ffcd4b508","null","null","<p style=""font-size: 60px; font-family: BACS"">DBPhclRE</p>","","","","","","","",""
"html-keyboard-response","102","196078","0.0-9.0-0.14","6048158f62550615002408af","64b003020eef62ee308107cc","64b03cd71f0bf30ffcd4b508","null","null","<p style=""font-size: 60px; font-family: BACS"">rkYLvUdm</p>","","","","","","","",""
"html-keyboard-response","103","197092","0.0-9.0-0.15","6048158f62550615002408af","64b003020eef62ee308107cc","64b03cd71f0bf30ffcd4b508","null","null","<p style=""font-size: 60px; font-family: BACS"">ObOQlYZJO</p>","","","","","","","",""
"html-keyboard-response","104","198104","0.0-9.0-0.16","6048158f62550615002408af","64b003020eef62ee308107cc","64b03cd71f0bf30ffcd4b508","null","null","<p style=""font-size: 60px; font-family: BACS"">cdKBYBCD</p>","","","","","","","",""
"html-keyboard-response","105","199120","0.0-9.0-0.17","6048158f62550615002408af","64b003020eef62ee308107cc","64b03cd71f0bf30ffcd4b508","null","null","<p style=""font-size: 60px; font-family: BACS"">YOaAbkmU</p>","","","","","","","",""
"html-keyboard-response","106","200133","0.0-9.0-0.18","6048158f62550615002408af","64b003020eef62ee308107cc","64b03cd71f0bf30ffcd4b508","null","null","<p style=""font-size: 60px; font-family: BACS"">DBPhcTRK</p>","","","","","","","",""
"html-keyboard-response","107","201148","0.0-9.0-0.19","6048158f62550615002408af","64b003020eef62ee308107cc","64b03cd71f0bf30ffcd4b508","null","null","<p style=""font-size: 60px; font-family: BACS"">YQbcvUdm</p>","","","","","","","",""
"html-keyboard-response","108","202160","0.0-9.0-0.20","6048158f62550615002408af","64b003020eef62ee308107cc","64b03cd71f0bf30ffcd4b508","null","null","<p style=""font-size: 60px; font-family: BACS"">lcOcJQA</p>","","","","","","","",""
"html-keyboard-response","109","203161","0.0-9.0-0.21","6048158f62550615002408af","64b003020eef62ee308107cc","64b03cd71f0bf30ffcd4b508","null","null","<p style=""font-size: 60px; font-family: BACS"">dClOClRE</p>","","","","","","","",""
"html-keyboard-response","110","204174","0.0-9.0-0.22","6048158f62550615002408af","64b003020eef62ee308107cc","64b03cd71f0bf30ffcd4b508","null","null","<p style=""font-size: 60px; font-family: BACS"">adYrcYZJO</p>","","","","","","","",""
"html-keyboard-response","111","205187","0.0-9.0-0.23","6048158f62550615002408af","64b003020eef62ee308107cc","64b03cd71f0bf30ffcd4b508","null","null","<p style=""font-size: 60px; font-family: BACS"">hbkdTRK</p>","","","","","","","",""
"html-keyboard-response","112","206202","0.0-9.0-0.24","6048158f62550615002408af","64b003020eef62ee308107cc","64b03cd71f0bf30ffcd4b508","null","null","<p style=""font-size: 60px; font-family: BACS"">ObOQlJQA</p>","","","","","","","",""
"html-keyboard-response","113","207215","0.0-9.0-0.25","6048158f62550615002408af","64b003020eef62ee308107cc","64b03cd71f0bf30ffcd4b508","null","null","<p style=""font-size: 60px; font-family: BACS"">JauQvUdm</p>","","","","","","","",""
"html-keyboard-response","114","208230","0.0-9.0-0.26","6048158f62550615002408af","64b003020eef62ee308107cc","64b03cd71f0bf30ffcd4b508","null","null","<p style=""font-size: 60px; font-family: BACS"">YOaAbJQA</p>","","","","","","","",""
"html-keyboard-response","115","209244","0.0-9.0-0.27","6048158f62550615002408af","64b003020eef62ee308107cc","64b03cd71f0bf30ffcd4b508","null","null","<p style=""font-size: 60px; font-family: BACS"">BECklRE</p>","","","","","","","",""
"html-keyboard-response","116","210258","0.0-9.0-0.28","6048158f62550615002408af","64b003020eef62ee308107cc","64b03cd71f0bf30ffcd4b508","null","null","<p style=""font-size: 60px; font-family: BACS"">lcOcvUdm</p>","","","","","","","",""
"html-keyboard-response","117","211271","0.0-9.0-0.29","6048158f62550615002408af","64b003020eef62ee308107cc","64b03cd71f0bf30ffcd4b508","null","null","<p style=""font-size: 60px; font-family: BACS"">dClOCTRK</p>","","","","","","","",""
"html-keyboard-response","118","212285","0.0-9.0-0.30","6048158f62550615002408af","64b003020eef62ee308107cc","64b03cd71f0bf30ffcd4b508","null","null","<p style=""font-size: 60px; font-family: BACS"">JuamlkmU</p>","","","","","","","",""
"html-keyboard-response","119","213298","0.0-9.0-0.31","6048158f62550615002408af","64b003020eef62ee308107cc","64b03cd71f0bf30ffcd4b508","null","null","<p style=""font-size: 60px; font-family: BACS"">hbkdbdtK</p>","","","","","","","",""
"html-keyboard-response","120","214312","0.0-9.0-0.32","6048158f62550615002408af","64b003020eef62ee308107cc","64b03cd71f0bf30ffcd4b508","null","null","<p style=""font-size: 60px; font-family: BACS"">hBmMChEct</p>","","","","","","","",""
"html-keyboard-response","121","215324","0.0-9.0-0.33","6048158f62550615002408af","64b003020eef62ee308107cc","64b03cd71f0bf30ffcd4b508","null","null","<p style=""font-size: 60px; font-family: BACS"">JauQkmU</p>","","","","","","","",""
"html-keyboard-response","122","216337","0.0-9.0-0.34","6048158f62550615002408af","64b003020eef62ee308107cc","64b03cd71f0bf30ffcd4b508","null","null","<p style=""font-size: 60px; font-family: BACS"">RYtkchEct</p>","","","","","","","",""
"html-keyboard-response","123","217338","0.0-9.0-0.35","6048158f62550615002408af","64b003020eef62ee308107cc","64b03cd71f0bf30ffcd4b508","null","null","<p style=""font-size: 60px; font-family: BACS"">YQbckmU</p>","","","","","","","",""
"html-keyboard-response","124","218341","0.0-9.0-0.36","6048158f62550615002408af","64b003020eef62ee308107cc","64b03cd71f0bf30ffcd4b508","null","null","<p style=""font-size: 60px; font-family: BACS"">dClOCbdtK</p>","","","","","","","",""
"html-keyboard-response","125","219353","0.0-9.0-0.37","6048158f62550615002408af","64b003020eef62ee308107cc","64b03cd71f0bf30ffcd4b508","null","null","<p style=""font-size: 60px; font-family: BACS"">hBmMCBCD</p>","","","","","","","",""
"html-keyboard-response","126","220354","0.0-9.0-0.38","6048158f62550615002408af","64b003020eef62ee308107cc","64b03cd71f0bf30ffcd4b508","null","null","<p style=""font-size: 60px; font-family: BACS"">LOLkUJcL</p>","","","","","","","",""
"html-keyboard-response","127","221369","0.0-9.0-0.39","6048158f62550615002408af","64b003020eef62ee308107cc","64b03cd71f0bf30ffcd4b508","null","null","<p style=""font-size: 60px; font-family: BACS"">rkYLJQA</p>","","","","","","","",""
"html-keyboard-response","128","222381","0.0-9.0-0.40","6048158f62550615002408af","64b003020eef62ee308107cc","64b03cd71f0bf30ffcd4b508","null","null","<p style=""font-size: 60px; font-family: BACS"">CkBOPlRE</p>","","","","","","","",""
"html-keyboard-response","129","223395","0.0-9.0-0.41","6048158f62550615002408af","64b003020eef62ee308107cc","64b03cd71f0bf30ffcd4b508","null","null","<p style=""font-size: 60px; font-family: BACS"">ObOQlkmU</p>","","","","","","","",""
"html-keyboard-response","130","224412","0.0-9.0-0.42","6048158f62550615002408af","64b003020eef62ee308107cc","64b03cd71f0bf30ffcd4b508","null","null","<p style=""font-size: 60px; font-family: BACS"">BECkhEct</p>","","","","","","","",""
"html-keyboard-response","131","225424","0.0-9.0-0.43","6048158f62550615002408af","64b003020eef62ee308107cc","64b03cd71f0bf30ffcd4b508","null","null","<p style=""font-size: 60px; font-family: BACS"">YOaAbYZJO</p>","","","","","","","",""
"html-keyboard-response","132","226434","0.0-9.0-0.44","6048158f62550615002408af","64b003020eef62ee308107cc","64b03cd71f0bf30ffcd4b508","null","null","<p style=""font-size: 60px; font-family: BACS"">RYtkclRE</p>","","","","","","","",""
"html-keyboard-response","133","227448","0.0-9.0-0.45","6048158f62550615002408af","64b003020eef62ee308107cc","64b03cd71f0bf30ffcd4b508","null","null","<p style=""font-size: 60px; font-family: BACS"">cdKBYhEct</p>","","","","","","","",""
"html-keyboard-response","134","228464","0.0-9.0-0.46","6048158f62550615002408af","64b003020eef62ee308107cc","64b03cd71f0bf30ffcd4b508","null","null","<p style=""font-size: 60px; font-family: BACS"">LOLkUYZJO</p>","","","","","","","",""
"html-keyboard-response","135","229477","0.0-9.0-0.47","6048158f62550615002408af","64b003020eef62ee308107cc","64b03cd71f0bf30ffcd4b508","null","null","<p style=""font-size: 60px; font-family: BACS"">bYGOZJcL</p>","","","","","","","",""
"html-keyboard-response","136","230491","0.0-9.0-0.48","6048158f62550615002408af","64b003020eef62ee308107cc","64b03cd71f0bf30ffcd4b508","null","null","<p style=""font-size: 60px; font-family: BACS"">JuamlJQA</p>","","","","","","","",""
"html-keyboard-response","137","231504","0.0-9.0-0.49","6048158f62550615002408af","64b003020eef62ee308107cc","64b03cd71f0bf30ffcd4b508","null","null","<p style=""font-size: 60px; font-family: BACS"">tdDdlRE</p>","","","","","","","",""
"html-keyboard-response","138","232521","0.0-9.0-0.50","6048158f62550615002408af","64b003020eef62ee308107cc","64b03cd71f0bf30ffcd4b508","null","null","<p style=""font-size: 60px; font-family: BACS"">KABAhEct</p>","","","","","","","",""
"html-keyboard-response","139","233535","0.0-9.0-0.51","6048158f62550615002408af","64b003020eef62ee308107cc","64b03cd71f0bf30ffcd4b508","null","null","<p style=""font-size: 60px; font-family: BACS"">CkBOPBCD</p>","","","","","","","",""
"html-keyboard-response","140","234547","0.0-9.0-0.52","6048158f62550615002408af","64b003020eef62ee308107cc","64b03cd71f0bf30ffcd4b508","null","null","<p style=""font-size: 60px; font-family: BACS"">tdDdhEct</p>","","","","","","","",""
"html-keyboard-response","141","235555","0.0-9.0-0.53","6048158f62550615002408af","64b003020eef62ee308107cc","64b03cd71f0bf30ffcd4b508","null","null","<p style=""font-size: 60px; font-family: BACS"">BECkbdtK</p>","","","","","","","",""
"html-keyboard-response","142","236559","0.0-9.0-0.54","6048158f62550615002408af","64b003020eef62ee308107cc","64b03cd71f0bf30ffcd4b508","null","null","<p style=""font-size: 60px; font-family: BACS"">LOLkUJQA</p>","","","","","","","",""
"html-keyboard-response","143","237562","0.0-9.0-0.55","6048158f62550615002408af","64b003020eef62ee308107cc","64b03cd71f0bf30ffcd4b508","null","null","<p style=""font-size: 60px; font-family: BACS"">KABABCD</p>","","","","","","","",""
"html-keyboard-response","144","238574","0.0-9.0-0.56","6048158f62550615002408af","64b003020eef62ee308107cc","64b03cd71f0bf30ffcd4b508","null","null","<p style=""font-size: 60px; font-family: BACS"">tdDdTRK</p>","","","","","","","",""
"html-keyboard-response","145","239588","0.0-9.0-0.57","6048158f62550615002408af","64b003020eef62ee308107cc","64b03cd71f0bf30ffcd4b508","null","null","<p style=""font-size: 60px; font-family: BACS"">DBPhcBCD</p>","","","","","","","",""
"html-keyboard-response","146","240602","0.0-9.0-0.58","6048158f62550615002408af","64b003020eef62ee308107cc","64b03cd71f0bf30ffcd4b508","null","null","<p style=""font-size: 60px; font-family: BACS"">adYrcvUdm</p>","","","","","","","",""
"html-keyboard-response","147","241614","0.0-9.0-0.59","6048158f62550615002408af","64b003020eef62ee308107cc","64b03cd71f0bf30ffcd4b508","null","null","<p style=""font-size: 60px; font-family: BACS"">KABAbdtK</p>","","","","","","","",""
"html-keyboard-response","148","242630","0.0-9.0-0.60","6048158f62550615002408af","64b003020eef62ee308107cc","64b03cd71f0bf30ffcd4b508","null","null","<p style=""font-size: 60px; font-family: BACS"">tdDdBCD</p>","","","","","","","",""
"html-keyboard-response","149","243643","0.0-9.0-0.61","6048158f62550615002408af","64b003020eef62ee308107cc","64b03cd71f0bf30ffcd4b508","null","null","<p style=""font-size: 60px; font-family: BACS"">lcOckmU</p>","","","","","","","",""
"html-keyboard-response","150","244656","0.0-9.0-0.62","6048158f62550615002408af","64b003020eef62ee308107cc","64b03cd71f0bf30ffcd4b508","null","null","<p style=""font-size: 60px; font-family: BACS"">hbkdBCD</p>","","","","","","","",""
"html-keyboard-response","151","245671","0.0-9.0-0.63","6048158f62550615002408af","64b003020eef62ee308107cc","64b03cd71f0bf30ffcd4b508","null","null","<p style=""font-size: 60px; font-family: BACS"">JuamlYZJO</p>","","","","","","","",""
"html-keyboard-response","152","246682","0.0-9.0-0.64","6048158f62550615002408af","64b003020eef62ee308107cc","64b03cd71f0bf30ffcd4b508","null","null","<p style=""font-size: 60px; font-family: BACS"">cdKBYTRK</p>","","","","","","","",""
"html-keyboard-response","153","247684","0.0-9.0-0.65","6048158f62550615002408af","64b003020eef62ee308107cc","64b03cd71f0bf30ffcd4b508","null","null","<p style=""font-size: 60px; font-family: BACS"">DBPhcbdtK</p>","","","","","","","",""
"html-keyboard-response","154","248685","0.0-9.0-0.66","6048158f62550615002408af","64b003020eef62ee308107cc","64b03cd71f0bf30ffcd4b508","null","null","<p style=""font-size: 60px; font-family: BACS"">YQbcJcL</p>","","","","","","","",""
"html-keyboard-response","155","249699","0.0-9.0-0.67","6048158f62550615002408af","64b003020eef62ee308107cc","64b03cd71f0bf30ffcd4b508","null","null","<p style=""font-size: 60px; font-family: BACS"">RYtkcTRK</p>","","","","","","","",""
"html-keyboard-response","156","250713","0.0-9.0-0.68","6048158f62550615002408af","64b003020eef62ee308107cc","64b03cd71f0bf30ffcd4b508","null","null","<p style=""font-size: 60px; font-family: BACS"">dClOChEct</p>","","","","","","","",""
"html-keyboard-response","157","251725","0.0-9.0-0.69","6048158f62550615002408af","64b003020eef62ee308107cc","64b03cd71f0bf30ffcd4b508","null","null","<p style=""font-size: 60px; font-family: BACS"">JauQJcL</p>","","","","","","","",""
"html-keyboard-response","158","252738","0.0-9.0-0.70","6048158f62550615002408af","64b003020eef62ee308107cc","64b03cd71f0bf30ffcd4b508","null","null","<p style=""font-size: 60px; font-family: BACS"">BECkBCD</p>","","","","","","","",""
"html-keyboard-response","159","253753","0.0-9.0-0.71","6048158f62550615002408af","64b003020eef62ee308107cc","64b03cd71f0bf30ffcd4b508","null","null","<p style=""font-size: 60px; font-family: BACS"">KABATRK</p>","","","","","","","",""
"html-keyboard-response","160","254767","0.0-9.0-0.72","6048158f62550615002408af","64b003020eef62ee308107cc","64b03cd71f0bf30ffcd4b508","null","null","<p style=""font-size: 60px; font-family: BACS"">hbkdlRE</p>","","","","","","","",""
"html-keyboard-response","161","255783","0.0-9.0-0.73","6048158f62550615002408af","64b003020eef62ee308107cc","64b03cd71f0bf30ffcd4b508","null","null","<p style=""font-size: 60px; font-family: BACS"">bYGOZYZJO</p>","","","","","","","",""
"html-keyboard-response","162","256795","0.0-9.0-0.74","6048158f62550615002408af","64b003020eef62ee308107cc","64b03cd71f0bf30ffcd4b508","null","null","<p style=""font-size: 60px; font-family: BACS"">ObOQlJcL</p>","","","","","","","",""
"html-keyboard-response","163","257811","0.0-9.0-0.75","6048158f62550615002408af","64b003020eef62ee308107cc","64b03cd71f0bf30ffcd4b508","null","null","<p style=""font-size: 60px; font-family: BACS"">bYGOZJQA</p>","","","","","","","",""
"html-keyboard-response","164","258818","0.0-9.0-0.76","6048158f62550615002408af","64b003020eef62ee308107cc","64b03cd71f0bf30ffcd4b508","null","null","<p style=""font-size: 60px; font-family: BACS"">rkYLJcL</p>","","","","","","","",""
"html-keyboard-response","165","259823","0.0-9.0-0.77","6048158f62550615002408af","64b003020eef62ee308107cc","64b03cd71f0bf30ffcd4b508","null","null","<p style=""font-size: 60px; font-family: BACS"">cdKBYlRE</p>","","","","","","","",""
"html-keyboard-response","166","260834","0.0-9.0-0.78","6048158f62550615002408af","64b003020eef62ee308107cc","64b03cd71f0bf30ffcd4b508","null","null","<p style=""font-size: 60px; font-family: BACS"">adYrckmU</p>","","","","","","","",""
"html-keyboard-response","167","261845","0.0-9.0-0.79","6048158f62550615002408af","64b003020eef62ee308107cc","64b03cd71f0bf30ffcd4b508","null","null","<p style=""font-size: 60px; font-family: BACS"">CkBOPhEct</p>","","","","","","","",""
"html-keyboard-response","168","268573","0.0-10.0","6048158f62550615002408af","64b003020eef62ee308107cc","64b03cd71f0bf30ffcd4b508","6727"," ","<p>Ottimo, hai visto il secondo blocco di parole. Ora puoi prenderti una piccola pausa.</p>
      <p>Premi la barra quando sei pronta/o per riprendere.</p>","","","","","","","",""
"html-keyboard-response","169","269585","0.0-11.0-0.0","6048158f62550615002408af","64b003020eef62ee308107cc","64b03cd71f0bf30ffcd4b508","null","null","<p style=""font-size: 60px; font-family: BACS"">DBPhcbdtK</p>","","","","","","","",""
"html-keyboard-response","170","270598","0.0-11.0-0.1","6048158f62550615002408af","64b003020eef62ee308107cc","64b03cd71f0bf30ffcd4b508","null","null","<p style=""font-size: 60px; font-family: BACS"">adYrcJcL</p>","","","","","","","",""
"html-keyboard-response","171","271614","0.0-11.0-0.2","6048158f62550615002408af","64b003020eef62ee308107cc","64b03cd71f0bf30ffcd4b508","null","null","<p style=""font-size: 60px; font-family: BACS"">hbkdlRE</p>","","","","","","","",""
"html-keyboard-response","172","272627","0.0-11.0-0.3","6048158f62550615002408af","64b003020eef62ee308107cc","64b03cd71f0bf30ffcd4b508","null","null","<p style=""font-size: 60px; font-family: BACS"">dClOCTRK</p>","","","","","","","",""
"html-keyboard-response","173","273642","0.0-11.0-0.4","6048158f62550615002408af","64b003020eef62ee308107cc","64b03cd71f0bf30ffcd4b508","null","null","<p style=""font-size: 60px; font-family: BACS"">lcOcJQA</p>","","","","","","","",""
"html-keyboard-response","174","274655","0.0-11.0-0.5","6048158f62550615002408af","64b003020eef62ee308107cc","64b03cd71f0bf30ffcd4b508","null","null","<p style=""font-size: 60px; font-family: BACS"">JuamlJcL</p>","","","","","","","",""
"html-keyboard-response","175","275666","0.0-11.0-0.6","6048158f62550615002408af","64b003020eef62ee308107cc","64b03cd71f0bf30ffcd4b508","null","null","<p style=""font-size: 60px; font-family: BACS"">DBPhclRE</p>","","","","","","","",""
"html-keyboard-response","176","276683","0.0-11.0-0.7","6048158f62550615002408af","64b003020eef62ee308107cc","64b03cd71f0bf30ffcd4b508","null","null","<p style=""font-size: 60px; font-family: BACS"">YQbcJQA</p>","","","","","","","",""
"html-keyboard-response","177","277698","0.0-11.0-0.8","6048158f62550615002408af","64b003020eef62ee308107cc","64b03cd71f0bf30ffcd4b508","null","null","<p style=""font-size: 60px; font-family: BACS"">BECkbdtK</p>","","","","","","","",""
"html-keyboard-response","178","278710","0.0-11.0-0.9","6048158f62550615002408af","64b003020eef62ee308107cc","64b03cd71f0bf30ffcd4b508","null","null","<p style=""font-size: 60px; font-family: BACS"">JuamlYZJO</p>","","","","","","","",""
"html-keyboard-response","179","279721","0.0-11.0-0.10","6048158f62550615002408af","64b003020eef62ee308107cc","64b03cd71f0bf30ffcd4b508","null","null","<p style=""font-size: 60px; font-family: BACS"">JauQJcL</p>","","","","","","","",""
"html-keyboard-response","180","280736","0.0-11.0-0.11","6048158f62550615002408af","64b003020eef62ee308107cc","64b03cd71f0bf30ffcd4b508","null","null","<p style=""font-size: 60px; font-family: BACS"">rkYLvUdm</p>","","","","","","","",""
"html-keyboard-response","181","281753","0.0-11.0-0.12","6048158f62550615002408af","64b003020eef62ee308107cc","64b03cd71f0bf30ffcd4b508","null","null","<p style=""font-size: 60px; font-family: BACS"">JauQkmU</p>","","","","","","","",""
"html-keyboard-response","182","282764","0.0-11.0-0.13","6048158f62550615002408af","64b003020eef62ee308107cc","64b03cd71f0bf30ffcd4b508","null","null","<p style=""font-size: 60px; font-family: BACS"">CkBOPlRE</p>","","","","","","","",""
"html-keyboard-response","183","283779","0.0-11.0-0.14","6048158f62550615002408af","64b003020eef62ee308107cc","64b03cd71f0bf30ffcd4b508","null","null","<p style=""font-size: 60px; font-family: BACS"">dClOChEct</p>","","","","","","","",""
"html-keyboard-response","184","284790","0.0-11.0-0.15","6048158f62550615002408af","64b003020eef62ee308107cc","64b03cd71f0bf30ffcd4b508","null","null","<p style=""font-size: 60px; font-family: BACS"">adYrcvUdm</p>","","","","","","","",""
"html-keyboard-response","185","285805","0.0-11.0-0.16","6048158f62550615002408af","64b003020eef62ee308107cc","64b03cd71f0bf30ffcd4b508","null","null","<p style=""font-size: 60px; font-family: BACS"">lcOckmU</p>","","","","","","","",""
"html-keyboard-response","186","286818","0.0-11.0-0.17","6048158f62550615002408af","64b003020eef62ee308107cc","64b03cd71f0bf30ffcd4b508","null","null","<p style=""font-size: 60px; font-family: BACS"">JauQYZJO</p>","","","","","","","",""
"html-keyboard-response","187","287831","0.0-11.0-0.18","6048158f62550615002408af","64b003020eef62ee308107cc","64b03cd71f0bf30ffcd4b508","null","null","<p style=""font-size: 60px; font-family: BACS"">JuamlkmU</p>","","","","","","","",""
"html-keyboard-response","188","288833","0.0-11.0-0.19","6048158f62550615002408af","64b003020eef62ee308107cc","64b03cd71f0bf30ffcd4b508","null","null","<p style=""font-size: 60px; font-family: BACS"">RYtkclRE</p>","","","","","","","",""
"html-keyboard-response","189","289847","0.0-11.0-0.20","6048158f62550615002408af","64b003020eef62ee308107cc","64b03cd71f0bf30ffcd4b508","null","null","<p style=""font-size: 60px; font-family: BACS"">JuamlJQA</p>","","","","","","","",""
"html-keyboard-response","190","290863","0.0-11.0-0.21","6048158f62550615002408af","64b003020eef62ee308107cc","64b03cd71f0bf30ffcd4b508","null","null","<p style=""font-size: 60px; font-family: BACS"">bYGOZvUdm</p>","","","","","","","",""
"html-keyboard-response","191","291870","0.0-11.0-0.22","6048158f62550615002408af","64b003020eef62ee308107cc","64b03cd71f0bf30ffcd4b508","null","null","<p style=""font-size: 60px; font-family: BACS"">hbkdbdtK</p>","","","","","","","",""
"html-keyboard-response","192","292874","0.0-11.0-0.23","6048158f62550615002408af","64b003020eef62ee308107cc","64b03cd71f0bf30ffcd4b508","null","null","<p style=""font-size: 60px; font-family: BACS"">RYtkchEct</p>","","","","","","","",""
"html-keyboard-response","193","293888","0.0-11.0-0.24","6048158f62550615002408af","64b003020eef62ee308107cc","64b03cd71f0bf30ffcd4b508","null","null","<p style=""font-size: 60px; font-family: BACS"">YQbcvUdm</p>","","","","","","","",""
"html-keyboard-response","194","294903","0.0-11.0-0.25","6048158f62550615002408af","64b003020eef62ee308107cc","64b03cd71f0bf30ffcd4b508","null","null","<p style=""font-size: 60px; font-family: BACS"">rkYLJQA</p>","","","","","","","",""
"html-keyboard-response","195","295914","0.0-11.0-0.26","6048158f62550615002408af","64b003020eef62ee308107cc","64b03cd71f0bf30ffcd4b508","null","null","<p style=""font-size: 60px; font-family: BACS"">hBmMCbdtK</p>","","","","","","","",""
"html-keyboard-response","196","296928","0.0-11.0-0.27","6048158f62550615002408af","64b003020eef62ee308107cc","64b03cd71f0bf30ffcd4b508","null","null","<p style=""font-size: 60px; font-family: BACS"">ObOQlYZJO</p>","","","","","","","",""
"html-keyboard-response","197","297942","0.0-11.0-0.28","6048158f62550615002408af","64b003020eef62ee308107cc","64b03cd71f0bf30ffcd4b508","null","null","<p style=""font-size: 60px; font-family: BACS"">LOLkUJcL</p>","","","","","","","",""
"html-keyboard-response","198","298954","0.0-11.0-0.29","6048158f62550615002408af","64b003020eef62ee308107cc","64b03cd71f0bf30ffcd4b508","null","null","<p style=""font-size: 60px; font-family: BACS"">bYGOZJQA</p>","","","","","","","",""
"html-keyboard-response","199","299967","0.0-11.0-0.30","6048158f62550615002408af","64b003020eef62ee308107cc","64b03cd71f0bf30ffcd4b508","null","null","<p style=""font-size: 60px; font-family: BACS"">hBmMCBCD</p>","","","","","","","",""
"html-keyboard-response","200","300982","0.0-11.0-0.31","6048158f62550615002408af","64b003020eef62ee308107cc","64b03cd71f0bf30ffcd4b508","null","null","<p style=""font-size: 60px; font-family: BACS"">CkBOPhEct</p>","","","","","","","",""
"html-keyboard-response","201","301997","0.0-11.0-0.32","6048158f62550615002408af","64b003020eef62ee308107cc","64b03cd71f0bf30ffcd4b508","null","null","<p style=""font-size: 60px; font-family: BACS"">adYrckmU</p>","","","","","","","",""
"html-keyboard-response","202","303010","0.0-11.0-0.33","6048158f62550615002408af","64b003020eef62ee308107cc","64b03cd71f0bf30ffcd4b508","null","null","<p style=""font-size: 60px; font-family: BACS"">hBmMChEct</p>","","","","","","","",""
"html-keyboard-response","203","304025","0.0-11.0-0.34","6048158f62550615002408af","64b003020eef62ee308107cc","64b03cd71f0bf30ffcd4b508","null","null","<p style=""font-size: 60px; font-family: BACS"">tdDdlRE</p>","","","","","","","",""
"html-keyboard-response","204","305039","0.0-11.0-0.35","6048158f62550615002408af","64b003020eef62ee308107cc","64b03cd71f0bf30ffcd4b508","null","null","<p style=""font-size: 60px; font-family: BACS"">KABAhEct</p>","","","","","","","",""
"html-keyboard-response","205","306051","0.0-11.0-0.36","6048158f62550615002408af","64b003020eef62ee308107cc","64b03cd71f0bf30ffcd4b508","null","null","<p style=""font-size: 60px; font-family: BACS"">bYGOZYZJO</p>","","","","","","","",""
"html-keyboard-response","206","307065","0.0-11.0-0.37","6048158f62550615002408af","64b003020eef62ee308107cc","64b03cd71f0bf30ffcd4b508","null","null","<p style=""font-size: 60px; font-family: BACS"">lcOcvUdm</p>","","","","","","","",""
"html-keyboard-response","207","308077","0.0-11.0-0.38","6048158f62550615002408af","64b003020eef62ee308107cc","64b03cd71f0bf30ffcd4b508","null","null","<p style=""font-size: 60px; font-family: BACS"">cdKBYBCD</p>","","","","","","","",""
"html-keyboard-response","208","309093","0.0-11.0-0.39","6048158f62550615002408af","64b003020eef62ee308107cc","64b03cd71f0bf30ffcd4b508","null","null","<p style=""font-size: 60px; font-family: BACS"">LOLkUvUdm</p>","","","","","","","",""
"html-keyboard-response","209","310107","0.0-11.0-0.40","6048158f62550615002408af","64b003020eef62ee308107cc","64b03cd71f0bf30ffcd4b508","null","null","<p style=""font-size: 60px; font-family: BACS"">DBPhcBCD</p>","","","","","","","",""
"html-keyboard-response","210","311120","0.0-11.0-0.41","6048158f62550615002408af","64b003020eef62ee308107cc","64b03cd71f0bf30ffcd4b508","null","null","<p style=""font-size: 60px; font-family: BACS"">KABAbdtK</p>","","","","","","","",""
"html-keyboard-response","211","312134","0.0-11.0-0.42","6048158f62550615002408af","64b003020eef62ee308107cc","64b03cd71f0bf30ffcd4b508","null","null","<p style=""font-size: 60px; font-family: BACS"">ObOQlkmU</p>","","","","","","","",""
"html-keyboard-response","212","313149","0.0-11.0-0.43","6048158f62550615002408af","64b003020eef62ee308107cc","64b03cd71f0bf30ffcd4b508","null","null","<p style=""font-size: 60px; font-family: BACS"">JauQvUdm</p>","","","","","","","",""
"html-keyboard-response","213","314159","0.0-11.0-0.44","6048158f62550615002408af","64b003020eef62ee308107cc","64b03cd71f0bf30ffcd4b508","null","null","<p style=""font-size: 60px; font-family: BACS"">YOaAbYZJO</p>","","","","","","","",""
"html-keyboard-response","214","315175","0.0-11.0-0.45","6048158f62550615002408af","64b003020eef62ee308107cc","64b03cd71f0bf30ffcd4b508","null","null","<p style=""font-size: 60px; font-family: BACS"">YQbckmU</p>","","","","","","","",""
"html-keyboard-response","215","316187","0.0-11.0-0.46","6048158f62550615002408af","64b003020eef62ee308107cc","64b03cd71f0bf30ffcd4b508","null","null","<p style=""font-size: 60px; font-family: BACS"">LOLkUYZJO</p>","","","","","","","",""
"html-keyboard-response","216","317200","0.0-11.0-0.47","6048158f62550615002408af","64b003020eef62ee308107cc","64b03cd71f0bf30ffcd4b508","null","null","<p style=""font-size: 60px; font-family: BACS"">YOaAbkmU</p>","","","","","","","",""
"html-keyboard-response","217","318215","0.0-11.0-0.48","6048158f62550615002408af","64b003020eef62ee308107cc","64b03cd71f0bf30ffcd4b508","null","null","<p style=""font-size: 60px; font-family: BACS"">hbkdTRK</p>","","","","","","","",""
"html-keyboard-response","218","319232","0.0-11.0-0.49","6048158f62550615002408af","64b003020eef62ee308107cc","64b03cd71f0bf30ffcd4b508","null","null","<p style=""font-size: 60px; font-family: BACS"">tdDdhEct</p>","","","","","","","",""
"html-keyboard-response","219","320244","0.0-11.0-0.50","6048158f62550615002408af","64b003020eef62ee308107cc","64b03cd71f0bf30ffcd4b508","null","null","<p style=""font-size: 60px; font-family: BACS"">DBPhcTRK</p>","","","","","","","",""
"html-keyboard-response","220","321256","0.0-11.0-0.51","6048158f62550615002408af","64b003020eef62ee308107cc","64b03cd71f0bf30ffcd4b508","null","null","<p style=""font-size: 60px; font-family: BACS"">dClOCbdtK</p>","","","","","","","",""
"html-keyboard-response","221","322269","0.0-11.0-0.52","6048158f62550615002408af","64b003020eef62ee308107cc","64b03cd71f0bf30ffcd4b508","null","null","<p style=""font-size: 60px; font-family: BACS"">cdKBYhEct</p>","","","","","","","",""
"html-keyboard-response","222","323281","0.0-11.0-0.53","6048158f62550615002408af","64b003020eef62ee308107cc","64b03cd71f0bf30ffcd4b508","null","null","<p style=""font-size: 60px; font-family: BACS"">YOaAbJQA</p>","","","","","","","",""
"html-keyboard-response","223","324282","0.0-11.0-0.54","6048158f62550615002408af","64b003020eef62ee308107cc","64b03cd71f0bf30ffcd4b508","null","null","<p style=""font-size: 60px; font-family: BACS"">adYrcYZJO</p>","","","","","","","",""
"html-keyboard-response","224","325285","0.0-11.0-0.55","6048158f62550615002408af","64b003020eef62ee308107cc","64b03cd71f0bf30ffcd4b508","null","null","<p style=""font-size: 60px; font-family: BACS"">CkBOPbdtK</p>","","","","","","","",""
"html-keyboard-response","225","326300","0.0-11.0-0.56","6048158f62550615002408af","64b003020eef62ee308107cc","64b03cd71f0bf30ffcd4b508","null","null","<p style=""font-size: 60px; font-family: BACS"">ObOQlJQA</p>","","","","","","","",""
"html-keyboard-response","226","327314","0.0-11.0-0.57","6048158f62550615002408af","64b003020eef62ee308107cc","64b03cd71f0bf30ffcd4b508","null","null","<p style=""font-size: 60px; font-family: BACS"">bYGOZJcL</p>","","","","","","","",""
"html-keyboard-response","227","328325","0.0-11.0-0.58","6048158f62550615002408af","64b003020eef62ee308107cc","64b03cd71f0bf30ffcd4b508","null","null","<p style=""font-size: 60px; font-family: BACS"">cdKBYlRE</p>","","","","","","","",""
"html-keyboard-response","228","329327","0.0-11.0-0.59","6048158f62550615002408af","64b003020eef62ee308107cc","64b03cd71f0bf30ffcd4b508","null","null","<p style=""font-size: 60px; font-family: BACS"">rkYLJcL</p>","","","","","","","",""
"html-keyboard-response","229","330340","0.0-11.0-0.60","6048158f62550615002408af","64b003020eef62ee308107cc","64b03cd71f0bf30ffcd4b508","null","null","<p style=""font-size: 60px; font-family: BACS"">RYtkcTRK</p>","","","","","","","",""
"html-keyboard-response","230","331352","0.0-11.0-0.61","6048158f62550615002408af","64b003020eef62ee308107cc","64b03cd71f0bf30ffcd4b508","null","null","<p style=""font-size: 60px; font-family: BACS"">KABABCD</p>","","","","","","","",""
"html-keyboard-response","231","332368","0.0-11.0-0.62","6048158f62550615002408af","64b003020eef62ee308107cc","64b03cd71f0bf30ffcd4b508","null","null","<p style=""font-size: 60px; font-family: BACS"">LOLkUJQA</p>","","","","","","","",""
"html-keyboard-response","232","333379","0.0-11.0-0.63","6048158f62550615002408af","64b003020eef62ee308107cc","64b03cd71f0bf30ffcd4b508","null","null","<p style=""font-size: 60px; font-family: BACS"">tdDdTRK</p>","","","","","","","",""
"html-keyboard-response","233","334379","0.0-11.0-0.64","6048158f62550615002408af","64b003020eef62ee308107cc","64b03cd71f0bf30ffcd4b508","null","null","<p style=""font-size: 60px; font-family: BACS"">BECkhEct</p>","","","","","","","",""
"html-keyboard-response","234","335394","0.0-11.0-0.65","6048158f62550615002408af","64b003020eef62ee308107cc","64b03cd71f0bf30ffcd4b508","null","null","<p style=""font-size: 60px; font-family: BACS"">hbkdBCD</p>","","","","","","","",""
"html-keyboard-response","235","336407","0.0-11.0-0.66","6048158f62550615002408af","64b003020eef62ee308107cc","64b03cd71f0bf30ffcd4b508","null","null","<p style=""font-size: 60px; font-family: BACS"">ObOQlJcL</p>","","","","","","","",""
"html-keyboard-response","236","337423","0.0-11.0-0.67","6048158f62550615002408af","64b003020eef62ee308107cc","64b03cd71f0bf30ffcd4b508","null","null","<p style=""font-size: 60px; font-family: BACS"">BECkBCD</p>","","","","","","","",""
"html-keyboard-response","237","338434","0.0-11.0-0.68","6048158f62550615002408af","64b003020eef62ee308107cc","64b03cd71f0bf30ffcd4b508","null","null","<p style=""font-size: 60px; font-family: BACS"">hBmMCTRK</p>","","","","","","","",""
"html-keyboard-response","238","339448","0.0-11.0-0.69","6048158f62550615002408af","64b003020eef62ee308107cc","64b03cd71f0bf30ffcd4b508","null","null","<p style=""font-size: 60px; font-family: BACS"">YOaAbvUdm</p>","","","","","","","",""
"html-keyboard-response","239","340463","0.0-11.0-0.70","6048158f62550615002408af","64b003020eef62ee308107cc","64b03cd71f0bf30ffcd4b508","null","null","<p style=""font-size: 60px; font-family: BACS"">KABATRK</p>","","","","","","","",""
"html-keyboard-response","240","341465","0.0-11.0-0.71","6048158f62550615002408af","64b003020eef62ee308107cc","64b03cd71f0bf30ffcd4b508","null","null","<p style=""font-size: 60px; font-family: BACS"">tdDdBCD</p>","","","","","","","",""
"html-keyboard-response","241","342482","0.0-11.0-0.72","6048158f62550615002408af","64b003020eef62ee308107cc","64b03cd71f0bf30ffcd4b508","null","null","<p style=""font-size: 60px; font-family: BACS"">rkYLkmU</p>","","","","","","","",""
"html-keyboard-response","242","343492","0.0-11.0-0.73","6048158f62550615002408af","64b003020eef62ee308107cc","64b03cd71f0bf30ffcd4b508","null","null","<p style=""font-size: 60px; font-family: BACS"">YQbcJcL</p>","","","","","","","",""
"html-keyboard-response","243","344504","0.0-11.0-0.74","6048158f62550615002408af","64b003020eef62ee308107cc","64b03cd71f0bf30ffcd4b508","null","null","<p style=""font-size: 60px; font-family: BACS"">dClOClRE</p>","","","","","","","",""
"html-keyboard-response","244","345517","0.0-11.0-0.75","6048158f62550615002408af","64b003020eef62ee308107cc","64b03cd71f0bf30ffcd4b508","null","null","<p style=""font-size: 60px; font-family: BACS"">cdKBYTRK</p>","","","","","","","",""
"html-keyboard-response","245","346532","0.0-11.0-0.76","6048158f62550615002408af","64b003020eef62ee308107cc","64b03cd71f0bf30ffcd4b508","null","null","<p style=""font-size: 60px; font-family: BACS"">BECklRE</p>","","","","","","","",""
"html-keyboard-response","246","347546","0.0-11.0-0.77","6048158f62550615002408af","64b003020eef62ee308107cc","64b03cd71f0bf30ffcd4b508","null","null","<p style=""font-size: 60px; font-family: BACS"">lcOcYZJO</p>","","","","","","","",""
"html-keyboard-response","247","348561","0.0-11.0-0.78","6048158f62550615002408af","64b003020eef62ee308107cc","64b03cd71f0bf30ffcd4b508","null","null","<p style=""font-size: 60px; font-family: BACS"">CkBOPBCD</p>","","","","","","","",""
"html-keyboard-response","248","349572","0.0-11.0-0.79","6048158f62550615002408af","64b003020eef62ee308107cc","64b03cd71f0bf30ffcd4b508","null","null","<p style=""font-size: 60px; font-family: BACS"">RYtkcbdtK</p>","","","","","","","",""
"html-keyboard-response","249","352369","0.0-12.0","6048158f62550615002408af","64b003020eef62ee308107cc","64b03cd71f0bf30ffcd4b508","2796"," ","<p>Ottimo, hai visto il terzo blocco di parole. Ora puoi prenderti una piccola pausa.</p>
      <p>Premi la barra quando sei pronta/o per riprendere.</p>","","","","","","","",""
"html-keyboard-response","250","353376","0.0-13.0-0.0","6048158f62550615002408af","64b003020eef62ee308107cc","64b03cd71f0bf30ffcd4b508","null","null","<p style=""font-size: 60px; font-family: BACS"">LOLkUvUdm</p>","","","","","","","",""
"html-keyboard-response","251","354387","0.0-13.0-0.1","6048158f62550615002408af","64b003020eef62ee308107cc","64b03cd71f0bf30ffcd4b508","null","null","<p style=""font-size: 60px; font-family: BACS"">KABATRK</p>","","","","","","","",""
"html-keyboard-response","252","355402","0.0-13.0-0.2","6048158f62550615002408af","64b003020eef62ee308107cc","64b03cd71f0bf30ffcd4b508","null","null","<p style=""font-size: 60px; font-family: BACS"">rkYLJcL</p>","","","","","","","",""
"html-keyboard-response","253","356416","0.0-13.0-0.3","6048158f62550615002408af","64b003020eef62ee308107cc","64b03cd71f0bf30ffcd4b508","null","null","<p style=""font-size: 60px; font-family: BACS"">BECkBCD</p>","","","","","","","",""
"html-keyboard-response","254","357428","0.0-13.0-0.4","6048158f62550615002408af","64b003020eef62ee308107cc","64b03cd71f0bf30ffcd4b508","null","null","<p style=""font-size: 60px; font-family: BACS"">tdDdhEct</p>","","","","","","","",""
"html-keyboard-response","255","358442","0.0-13.0-0.5","6048158f62550615002408af","64b003020eef62ee308107cc","64b03cd71f0bf30ffcd4b508","null","null","<p style=""font-size: 60px; font-family: BACS"">rkYLvUdm</p>","","","","","","","",""
"html-keyboard-response","256","359457","0.0-13.0-0.6","6048158f62550615002408af","64b003020eef62ee308107cc","64b03cd71f0bf30ffcd4b508","null","null","<p style=""font-size: 60px; font-family: BACS"">YOaAbJQA</p>","","","","","","","",""
"html-keyboard-response","257","360470","0.0-13.0-0.7","6048158f62550615002408af","64b003020eef62ee308107cc","64b03cd71f0bf30ffcd4b508","null","null","<p style=""font-size: 60px; font-family: BACS"">RYtkcbdtK</p>","","","","","","","",""
"html-keyboard-response","258","361480","0.0-13.0-0.8","6048158f62550615002408af","64b003020eef62ee308107cc","64b03cd71f0bf30ffcd4b508","null","null","<p style=""font-size: 60px; font-family: BACS"">lcOcvUdm</p>","","","","","","","",""
"html-keyboard-response","259","362485","0.0-13.0-0.9","6048158f62550615002408af","64b003020eef62ee308107cc","64b03cd71f0bf30ffcd4b508","null","null","<p style=""font-size: 60px; font-family: BACS"">YQbckmU</p>","","","","","","","",""
"html-keyboard-response","260","363496","0.0-13.0-0.10","6048158f62550615002408af","64b003020eef62ee308107cc","64b03cd71f0bf30ffcd4b508","null","null","<p style=""font-size: 60px; font-family: BACS"">hbkdbdtK</p>","","","","","","","",""
"html-keyboard-response","261","364499","0.0-13.0-0.11","6048158f62550615002408af","64b003020eef62ee308107cc","64b03cd71f0bf30ffcd4b508","null","null","<p style=""font-size: 60px; font-family: BACS"">hBmMCBCD</p>","","","","","","","",""
"html-keyboard-response","262","365512","0.0-13.0-0.12","6048158f62550615002408af","64b003020eef62ee308107cc","64b03cd71f0bf30ffcd4b508","null","null","<p style=""font-size: 60px; font-family: BACS"">cdKBYTRK</p>","","","","","","","",""
"html-keyboard-response","263","366526","0.0-13.0-0.13","6048158f62550615002408af","64b003020eef62ee308107cc","64b03cd71f0bf30ffcd4b508","null","null","<p style=""font-size: 60px; font-family: BACS"">dClOCbdtK</p>","","","","","","","",""
"html-keyboard-response","264","367539","0.0-13.0-0.14","6048158f62550615002408af","64b003020eef62ee308107cc","64b03cd71f0bf30ffcd4b508","null","null","<p style=""font-size: 60px; font-family: BACS"">RYtkcTRK</p>","","","","","","","",""
"html-keyboard-response","265","368553","0.0-13.0-0.15","6048158f62550615002408af","64b003020eef62ee308107cc","64b03cd71f0bf30ffcd4b508","null","null","<p style=""font-size: 60px; font-family: BACS"">DBPhcBCD</p>","","","","","","","",""
"html-keyboard-response","266","369567","0.0-13.0-0.16","6048158f62550615002408af","64b003020eef62ee308107cc","64b03cd71f0bf30ffcd4b508","null","null","<p style=""font-size: 60px; font-family: BACS"">KABAhEct</p>","","","","","","","",""
"html-keyboard-response","267","370578","0.0-13.0-0.17","6048158f62550615002408af","64b003020eef62ee308107cc","64b03cd71f0bf30ffcd4b508","null","null","<p style=""font-size: 60px; font-family: BACS"">YOaAbvUdm</p>","","","","","","","",""
"html-keyboard-response","268","371595","0.0-13.0-0.18","6048158f62550615002408af","64b003020eef62ee308107cc","64b03cd71f0bf30ffcd4b508","null","null","<p style=""font-size: 60px; font-family: BACS"">LOLkUJQA</p>","","","","","","","",""
"html-keyboard-response","269","372606","0.0-13.0-0.19","6048158f62550615002408af","64b003020eef62ee308107cc","64b03cd71f0bf30ffcd4b508","null","null","<p style=""font-size: 60px; font-family: BACS"">YOaAbYZJO</p>","","","","","","","",""
"html-keyboard-response","270","373607","0.0-13.0-0.20","6048158f62550615002408af","64b003020eef62ee308107cc","64b03cd71f0bf30ffcd4b508","null","null","<p style=""font-size: 60px; font-family: BACS"">JauQkmU</p>","","","","","","","",""
"html-keyboard-response","271","374620","0.0-13.0-0.21","6048158f62550615002408af","64b003020eef62ee308107cc","64b03cd71f0bf30ffcd4b508","null","null","<p style=""font-size: 60px; font-family: BACS"">RYtkclRE</p>","","","","","","","",""
"html-keyboard-response","272","375638","0.0-13.0-0.22","6048158f62550615002408af","64b003020eef62ee308107cc","64b03cd71f0bf30ffcd4b508","null","null","<p style=""font-size: 60px; font-family: BACS"">hBmMCTRK</p>","","","","","","","",""
"html-keyboard-response","273","376650","0.0-13.0-0.23","6048158f62550615002408af","64b003020eef62ee308107cc","64b03cd71f0bf30ffcd4b508","null","null","<p style=""font-size: 60px; font-family: BACS"">KABABCD</p>","","","","","","","",""
"html-keyboard-response","274","377665","0.0-13.0-0.24","6048158f62550615002408af","64b003020eef62ee308107cc","64b03cd71f0bf30ffcd4b508","null","null","<p style=""font-size: 60px; font-family: BACS"">LOLkUYZJO</p>","","","","","","","",""
"html-keyboard-response","275","378679","0.0-13.0-0.25","6048158f62550615002408af","64b003020eef62ee308107cc","64b03cd71f0bf30ffcd4b508","null","null","<p style=""font-size: 60px; font-family: BACS"">adYrckmU</p>","","","","","","","",""
"html-keyboard-response","276","379692","0.0-13.0-0.26","6048158f62550615002408af","64b003020eef62ee308107cc","64b03cd71f0bf30ffcd4b508","null","null","<p style=""font-size: 60px; font-family: BACS"">dClOClRE</p>","","","","","","","",""
"html-keyboard-response","277","380707","0.0-13.0-0.27","6048158f62550615002408af","64b003020eef62ee308107cc","64b03cd71f0bf30ffcd4b508","null","null","<p style=""font-size: 60px; font-family: BACS"">JauQYZJO</p>","","","","","","","",""
"html-keyboard-response","278","381721","0.0-13.0-0.28","6048158f62550615002408af","64b003020eef62ee308107cc","64b03cd71f0bf30ffcd4b508","null","null","<p style=""font-size: 60px; font-family: BACS"">DBPhcTRK</p>","","","","","","","",""
"html-keyboard-response","279","382734","0.0-13.0-0.29","6048158f62550615002408af","64b003020eef62ee308107cc","64b03cd71f0bf30ffcd4b508","null","null","<p style=""font-size: 60px; font-family: BACS"">JuamlkmU</p>","","","","","","","",""
"html-keyboard-response","280","383745","0.0-13.0-0.30","6048158f62550615002408af","64b003020eef62ee308107cc","64b03cd71f0bf30ffcd4b508","null","null","<p style=""font-size: 60px; font-family: BACS"">ObOQlJcL</p>","","","","","","","",""
"html-keyboard-response","281","384761","0.0-13.0-0.31","6048158f62550615002408af","64b003020eef62ee308107cc","64b03cd71f0bf30ffcd4b508","null","null","<p style=""font-size: 60px; font-family: BACS"">hbkdlRE</p>","","","","","","","",""
"html-keyboard-response","282","385772","0.0-13.0-0.32","6048158f62550615002408af","64b003020eef62ee308107cc","64b03cd71f0bf30ffcd4b508","null","null","<p style=""font-size: 60px; font-family: BACS"">bYGOZJcL</p>","","","","","","","",""
"html-keyboard-response","283","386789","0.0-13.0-0.33","6048158f62550615002408af","64b003020eef62ee308107cc","64b03cd71f0bf30ffcd4b508","null","null","<p style=""font-size: 60px; font-family: BACS"">tdDdlRE</p>","","","","","","","",""
"html-keyboard-response","284","387801","0.0-13.0-0.34","6048158f62550615002408af","64b003020eef62ee308107cc","64b03cd71f0bf30ffcd4b508","null","null","<p style=""font-size: 60px; font-family: BACS"">ObOQlYZJO</p>","","","","","","","",""
"html-keyboard-response","285","388814","0.0-13.0-0.35","6048158f62550615002408af","64b003020eef62ee308107cc","64b03cd71f0bf30ffcd4b508","null","null","<p style=""font-size: 60px; font-family: BACS"">dClOCTRK</p>","","","","","","","",""
"html-keyboard-response","286","389830","0.0-13.0-0.36","6048158f62550615002408af","64b003020eef62ee308107cc","64b03cd71f0bf30ffcd4b508","null","null","<p style=""font-size: 60px; font-family: BACS"">bYGOZJQA</p>","","","","","","","",""
"html-keyboard-response","287","390840","0.0-13.0-0.37","6048158f62550615002408af","64b003020eef62ee308107cc","64b03cd71f0bf30ffcd4b508","null","null","<p style=""font-size: 60px; font-family: BACS"">CkBOPBCD</p>","","","","","","","",""
"html-keyboard-response","288","391856","0.0-13.0-0.38","6048158f62550615002408af","64b003020eef62ee308107cc","64b03cd71f0bf30ffcd4b508","null","null","<p style=""font-size: 60px; font-family: BACS"">BECklRE</p>","","","","","","","",""
"html-keyboard-response","289","392867","0.0-13.0-0.39","6048158f62550615002408af","64b003020eef62ee308107cc","64b03cd71f0bf30ffcd4b508","null","null","<p style=""font-size: 60px; font-family: BACS"">YQbcJQA</p>","","","","","","","",""
"html-keyboard-response","290","393875","0.0-13.0-0.40","6048158f62550615002408af","64b003020eef62ee308107cc","64b03cd71f0bf30ffcd4b508","null","null","<p style=""font-size: 60px; font-family: BACS"">CkBOPbdtK</p>","","","","","","","",""
"html-keyboard-response","291","394882","0.0-13.0-0.41","6048158f62550615002408af","64b003020eef62ee308107cc","64b03cd71f0bf30ffcd4b508","null","null","<p style=""font-size: 60px; font-family: BACS"">cdKBYBCD</p>","","","","","","","",""
"html-keyboard-response","292","395899","0.0-13.0-0.42","6048158f62550615002408af","64b003020eef62ee308107cc","64b03cd71f0bf30ffcd4b508","null","null","<p style=""font-size: 60px; font-family: BACS"">ObOQlkmU</p>","","","","","","","",""
"html-keyboard-response","293","396906","0.0-13.0-0.43","6048158f62550615002408af","64b003020eef62ee308107cc","64b03cd71f0bf30ffcd4b508","null","null","<p style=""font-size: 60px; font-family: BACS"">JuamlYZJO</p>","","","","","","","",""
"html-keyboard-response","294","397911","0.0-13.0-0.44","6048158f62550615002408af","64b003020eef62ee308107cc","64b03cd71f0bf30ffcd4b508","null","null","<p style=""font-size: 60px; font-family: BACS"">dClOChEct</p>","","","","","","","",""
"html-keyboard-response","295","398927","0.0-13.0-0.45","6048158f62550615002408af","64b003020eef62ee308107cc","64b03cd71f0bf30ffcd4b508","null","null","<p style=""font-size: 60px; font-family: BACS"">ObOQlJQA</p>","","","","","","","",""
"html-keyboard-response","296","399941","0.0-13.0-0.46","6048158f62550615002408af","64b003020eef62ee308107cc","64b03cd71f0bf30ffcd4b508","null","null","<p style=""font-size: 60px; font-family: BACS"">adYrcYZJO</p>","","","","","","","",""
"html-keyboard-response","297","400951","0.0-13.0-0.47","6048158f62550615002408af","64b003020eef62ee308107cc","64b03cd71f0bf30ffcd4b508","null","null","<p style=""font-size: 60px; font-family: BACS"">cdKBYlRE</p>","","","","","","","",""
"html-keyboard-response","298","401967","0.0-13.0-0.48","6048158f62550615002408af","64b003020eef62ee308107cc","64b03cd71f0bf30ffcd4b508","null","null","<p style=""font-size: 60px; font-family: BACS"">lcOcYZJO</p>","","","","","","","",""
"html-keyboard-response","299","402980","0.0-13.0-0.49","6048158f62550615002408af","64b003020eef62ee308107cc","64b03cd71f0bf30ffcd4b508","null","null","<p style=""font-size: 60px; font-family: BACS"">rkYLkmU</p>","","","","","","","",""
"html-keyboard-response","300","403992","0.0-13.0-0.50","6048158f62550615002408af","64b003020eef62ee308107cc","64b03cd71f0bf30ffcd4b508","null","null","<p style=""font-size: 60px; font-family: BACS"">YQbcJcL</p>","","","","","","","",""
"html-keyboard-response","301","405007","0.0-13.0-0.51","6048158f62550615002408af","64b003020eef62ee308107cc","64b03cd71f0bf30ffcd4b508","null","null","<p style=""font-size: 60px; font-family: BACS"">rkYLJQA</p>","","","","","","","",""
"html-keyboard-response","302","406020","0.0-13.0-0.52","6048158f62550615002408af","64b003020eef62ee308107cc","64b03cd71f0bf30ffcd4b508","null","null","<p style=""font-size: 60px; font-family: BACS"">BECkbdtK</p>","","","","","","","",""
"html-keyboard-response","303","407036","0.0-13.0-0.53","6048158f62550615002408af","64b003020eef62ee308107cc","64b03cd71f0bf30ffcd4b508","null","null","<p style=""font-size: 60px; font-family: BACS"">adYrcJcL</p>","","","","","","","",""
"html-keyboard-response","304","408047","0.0-13.0-0.54","6048158f62550615002408af","64b003020eef62ee308107cc","64b03cd71f0bf30ffcd4b508","null","null","<p style=""font-size: 60px; font-family: BACS"">JauQvUdm</p>","","","","","","","",""
"html-keyboard-response","305","409062","0.0-13.0-0.55","6048158f62550615002408af","64b003020eef62ee308107cc","64b03cd71f0bf30ffcd4b508","null","null","<p style=""font-size: 60px; font-family: BACS"">RYtkchEct</p>","","","","","","","",""
"html-keyboard-response","306","410077","0.0-13.0-0.56","6048158f62550615002408af","64b003020eef62ee308107cc","64b03cd71f0bf30ffcd4b508","null","null","<p style=""font-size: 60px; font-family: BACS"">KABAbdtK</p>","","","","","","","",""
"html-keyboard-response","307","411088","0.0-13.0-0.57","6048158f62550615002408af","64b003020eef62ee308107cc","64b03cd71f0bf30ffcd4b508","null","null","<p style=""font-size: 60px; font-family: BACS"">BECkhEct</p>","","","","","","","",""
"html-keyboard-response","308","412101","0.0-13.0-0.58","6048158f62550615002408af","64b003020eef62ee308107cc","64b03cd71f0bf30ffcd4b508","null","null","<p style=""font-size: 60px; font-family: BACS"">tdDdBCD</p>","","","","","","","",""
"html-keyboard-response","309","413102","0.0-13.0-0.59","6048158f62550615002408af","64b003020eef62ee308107cc","64b03cd71f0bf30ffcd4b508","null","null","<p style=""font-size: 60px; font-family: BACS"">JuamlJQA</p>","","","","","","","",""
"html-keyboard-response","310","414119","0.0-13.0-0.60","6048158f62550615002408af","64b003020eef62ee308107cc","64b03cd71f0bf30ffcd4b508","null","null","<p style=""font-size: 60px; font-family: BACS"">lcOckmU</p>","","","","","","","",""
"html-keyboard-response","311","415132","0.0-13.0-0.61","6048158f62550615002408af","64b003020eef62ee308107cc","64b03cd71f0bf30ffcd4b508","null","null","<p style=""font-size: 60px; font-family: BACS"">DBPhclRE</p>","","","","","","","",""
"html-keyboard-response","312","416145","0.0-13.0-0.62","6048158f62550615002408af","64b003020eef62ee308107cc","64b03cd71f0bf30ffcd4b508","null","null","<p style=""font-size: 60px; font-family: BACS"">tdDdTRK</p>","","","","","","","",""
"html-keyboard-response","313","417158","0.0-13.0-0.63","6048158f62550615002408af","64b003020eef62ee308107cc","64b03cd71f0bf30ffcd4b508","null","null","<p style=""font-size: 60px; font-family: BACS"">bYGOZYZJO</p>","","","","","","","",""
"html-keyboard-response","314","418172","0.0-13.0-0.64","6048158f62550615002408af","64b003020eef62ee308107cc","64b03cd71f0bf30ffcd4b508","null","null","<p style=""font-size: 60px; font-family: BACS"">CkBOPhEct</p>","","","","","","","",""
"html-keyboard-response","315","419187","0.0-13.0-0.65","6048158f62550615002408af","64b003020eef62ee308107cc","64b03cd71f0bf30ffcd4b508","null","null","<p style=""font-size: 60px; font-family: BACS"">JuamlJcL</p>","","","","","","","",""
"html-keyboard-response","316","420197","0.0-13.0-0.66","6048158f62550615002408af","64b003020eef62ee308107cc","64b03cd71f0bf30ffcd4b508","null","null","<p style=""font-size: 60px; font-family: BACS"">bYGOZvUdm</p>","","","","","","","",""
"html-keyboard-response","317","421212","0.0-13.0-0.67","6048158f62550615002408af","64b003020eef62ee308107cc","64b03cd71f0bf30ffcd4b508","null","null","<p style=""font-size: 60px; font-family: BACS"">lcOcJQA</p>","","","","","","","",""
"html-keyboard-response","318","422226","0.0-13.0-0.68","6048158f62550615002408af","64b003020eef62ee308107cc","64b03cd71f0bf30ffcd4b508","null","null","<p style=""font-size: 60px; font-family: BACS"">JauQJcL</p>","","","","","","","",""
"html-keyboard-response","319","423242","0.0-13.0-0.69","6048158f62550615002408af","64b003020eef62ee308107cc","64b03cd71f0bf30ffcd4b508","null","null","<p style=""font-size: 60px; font-family: BACS"">YOaAbkmU</p>","","","","","","","",""
"html-keyboard-response","320","424253","0.0-13.0-0.70","6048158f62550615002408af","64b003020eef62ee308107cc","64b03cd71f0bf30ffcd4b508","null","null","<p style=""font-size: 60px; font-family: BACS"">YQbcvUdm</p>","","","","","","","",""
"html-keyboard-response","321","425266","0.0-13.0-0.71","6048158f62550615002408af","64b003020eef62ee308107cc","64b03cd71f0bf30ffcd4b508","null","null","<p style=""font-size: 60px; font-family: BACS"">LOLkUJcL</p>","","","","","","","",""
"html-keyboard-response","322","426267","0.0-13.0-0.72","6048158f62550615002408af","64b003020eef62ee308107cc","64b03cd71f0bf30ffcd4b508","null","null","<p style=""font-size: 60px; font-family: BACS"">hBmMChEct</p>","","","","","","","",""
"html-keyboard-response","323","427284","0.0-13.0-0.73","6048158f62550615002408af","64b003020eef62ee308107cc","64b03cd71f0bf30ffcd4b508","null","null","<p style=""font-size: 60px; font-family: BACS"">DBPhcbdtK</p>","","","","","","","",""
"html-keyboard-response","324","428296","0.0-13.0-0.74","6048158f62550615002408af","64b003020eef62ee308107cc","64b03cd71f0bf30ffcd4b508","null","null","<p style=""font-size: 60px; font-family: BACS"">adYrcvUdm</p>","","","","","","","",""
"html-keyboard-response","325","429307","0.0-13.0-0.75","6048158f62550615002408af","64b003020eef62ee308107cc","64b03cd71f0bf30ffcd4b508","null","null","<p style=""font-size: 60px; font-family: BACS"">hbkdBCD</p>","","","","","","","",""
"html-keyboard-response","326","430311","0.0-13.0-0.76","6048158f62550615002408af","64b003020eef62ee308107cc","64b03cd71f0bf30ffcd4b508","null","null","<p style=""font-size: 60px; font-family: BACS"">cdKBYhEct</p>","","","","","","","",""
"html-keyboard-response","327","431322","0.0-13.0-0.77","6048158f62550615002408af","64b003020eef62ee308107cc","64b03cd71f0bf30ffcd4b508","null","null","<p style=""font-size: 60px; font-family: BACS"">hbkdTRK</p>","","","","","","","",""
"html-keyboard-response","328","432337","0.0-13.0-0.78","6048158f62550615002408af","64b003020eef62ee308107cc","64b03cd71f0bf30ffcd4b508","null","null","<p style=""font-size: 60px; font-family: BACS"">hBmMCbdtK</p>","","","","","","","",""
"html-keyboard-response","329","433350","0.0-13.0-0.79","6048158f62550615002408af","64b003020eef62ee308107cc","64b03cd71f0bf30ffcd4b508","null","null","<p style=""font-size: 60px; font-family: BACS"">CkBOPlRE</p>","","","","","","","",""
"html-keyboard-response","330","434946","0.0-14.0","6048158f62550615002408af","64b003020eef62ee308107cc","64b03cd71f0bf30ffcd4b508","1595"," ","<p>Ottimo, hai visto il quarto blocco di parole. Ora puoi prenderti una piccola pausa.</p>
      <p>Premi la barra quando sei pronta/o per riprendere.</p>","","","","","","","",""
"html-keyboard-response","331","435952","0.0-15.0-0.0","6048158f62550615002408af","64b003020eef62ee308107cc","64b03cd71f0bf30ffcd4b508","null","null","<p style=""font-size: 60px; font-family: BACS"">BECklRE</p>","","","","","","","",""
"html-keyboard-response","332","436967","0.0-15.0-0.1","6048158f62550615002408af","64b003020eef62ee308107cc","64b03cd71f0bf30ffcd4b508","null","null","<p style=""font-size: 60px; font-family: BACS"">BECklRE</p>","","","","","","","",""
"html-keyboard-response","333","437981","0.0-15.0-0.2","6048158f62550615002408af","64b003020eef62ee308107cc","64b03cd71f0bf30ffcd4b508","null","null","<p style=""font-size: 60px; font-family: BACS"">BECklRE</p>","","","","","","","",""
"html-keyboard-response","334","438994","0.0-15.0-0.3","6048158f62550615002408af","64b003020eef62ee308107cc","64b03cd71f0bf30ffcd4b508","null","null","<p style=""font-size: 60px; font-family: BACS"">BECklRE</p>","","","","","","","",""
"html-keyboard-response","335","440008","0.0-15.0-0.4","6048158f62550615002408af","64b003020eef62ee308107cc","64b03cd71f0bf30ffcd4b508","null","null","<p style=""font-size: 60px; font-family: BACS"">BECklRE</p>","","","","","","","",""
"html-keyboard-response","336","441017","0.0-15.0-0.5","6048158f62550615002408af","64b003020eef62ee308107cc","64b03cd71f0bf30ffcd4b508","null","null","<p style=""font-size: 60px; font-family: BACS"">BECklRE</p>","","","","","","","",""
"html-keyboard-response","337","442020","0.0-15.0-0.6","6048158f62550615002408af","64b003020eef62ee308107cc","64b03cd71f0bf30ffcd4b508","null","null","<p style=""font-size: 60px; font-family: BACS"">BECklRE</p>","","","","","","","",""
"html-keyboard-response","338","443034","0.0-15.0-0.7","6048158f62550615002408af","64b003020eef62ee308107cc","64b03cd71f0bf30ffcd4b508","null","null","<p style=""font-size: 60px; font-family: BACS"">BECklRE</p>","","","","","","","",""
"html-keyboard-response","339","444046","0.0-15.0-0.8","6048158f62550615002408af","64b003020eef62ee308107cc","64b03cd71f0bf30ffcd4b508","null","null","<p style=""font-size: 60px; font-family: BACS"">BECklRE</p>","","","","","","","",""
"html-keyboard-response","340","445062","0.0-15.0-0.9","6048158f62550615002408af","64b003020eef62ee308107cc","64b03cd71f0bf30ffcd4b508","null","null","<p style=""font-size: 60px; font-family: BACS"">BECklRE</p>","","","","","","","",""
"html-keyboard-response","341","446075","0.0-15.0-0.10","6048158f62550615002408af","64b003020eef62ee308107cc","64b03cd71f0bf30ffcd4b508","null","null","<p style=""font-size: 60px; font-family: BACS"">BECklRE</p>","","","","","","","",""
"html-keyboard-response","342","447092","0.0-15.0-0.11","6048158f62550615002408af","64b003020eef62ee308107cc","64b03cd71f0bf30ffcd4b508","null","null","<p style=""font-size: 60px; font-family: BACS"">BECklRE</p>","","","","","","","",""
"html-keyboard-response","343","448104","0.0-15.0-0.12","6048158f62550615002408af","64b003020eef62ee308107cc","64b03cd71f0bf30ffcd4b508","null","null","<p style=""font-size: 60px; font-family: BACS"">BECklRE</p>","","","","","","","",""
"html-keyboard-response","344","449118","0.0-15.0-0.13","6048158f62550615002408af","64b003020eef62ee308107cc","64b03cd71f0bf30ffcd4b508","null","null","<p style=""font-size: 60px; font-family: BACS"">BECklRE</p>","","","","","","","",""
"html-keyboard-response","345","450130","0.0-15.0-0.14","6048158f62550615002408af","64b003020eef62ee308107cc","64b03cd71f0bf30ffcd4b508","null","null","<p style=""font-size: 60px; font-family: BACS"">BECklRE</p>","","","","","","","",""
"html-keyboard-response","346","451143","0.0-15.0-0.15","6048158f62550615002408af","64b003020eef62ee308107cc","64b03cd71f0bf30ffcd4b508","null","null","<p style=""font-size: 60px; font-family: BACS"">BECklRE</p>","","","","","","","",""
"html-keyboard-response","347","452157","0.0-15.0-0.16","6048158f62550615002408af","64b003020eef62ee308107cc","64b03cd71f0bf30ffcd4b508","null","null","<p style=""font-size: 60px; font-family: BACS"">BECklRE</p>","","","","","","","",""
"html-keyboard-response","348","453168","0.0-15.0-0.17","6048158f62550615002408af","64b003020eef62ee308107cc","64b03cd71f0bf30ffcd4b508","null","null","<p style=""font-size: 60px; font-family: BACS"">BECklRE</p>","","","","","","","",""
"html-keyboard-response","349","454171","0.0-15.0-0.18","6048158f62550615002408af","64b003020eef62ee308107cc","64b03cd71f0bf30ffcd4b508","null","null","<p style=""font-size: 60px; font-family: BACS"">BECklRE</p>","","","","","","","",""
"html-keyboard-response","350","455182","0.0-15.0-0.19","6048158f62550615002408af","64b003020eef62ee308107cc","64b03cd71f0bf30ffcd4b508","null","null","<p style=""font-size: 60px; font-family: BACS"">BECklRE</p>","","","","","","","",""
"html-keyboard-response","351","456183","0.0-15.0-0.20","6048158f62550615002408af","64b003020eef62ee308107cc","64b03cd71f0bf30ffcd4b508","null","null","<p style=""font-size: 60px; font-family: BACS"">BECklRE</p>","","","","","","","",""
"html-keyboard-response","352","457198","0.0-15.0-0.21","6048158f62550615002408af","64b003020eef62ee308107cc","64b03cd71f0bf30ffcd4b508","null","null","<p style=""font-size: 60px; font-family: BACS"">BECklRE</p>","","","","","","","",""
"html-keyboard-response","353","458215","0.0-15.0-0.22","6048158f62550615002408af","64b003020eef62ee308107cc","64b03cd71f0bf30ffcd4b508","null","null","<p style=""font-size: 60px; font-family: BACS"">BECklRE</p>","","","","","","","",""
"html-keyboard-response","354","459230","0.0-15.0-0.23","6048158f62550615002408af","64b003020eef62ee308107cc","64b03cd71f0bf30ffcd4b508","null","null","<p style=""font-size: 60px; font-family: BACS"">BECklRE</p>","","","","","","","",""
"html-keyboard-response","355","460239","0.0-15.0-0.24","6048158f62550615002408af","64b003020eef62ee308107cc","64b03cd71f0bf30ffcd4b508","null","null","<p style=""font-size: 60px; font-family: BACS"">BECklRE</p>","","","","","","","",""
"html-keyboard-response","356","461255","0.0-15.0-0.25","6048158f62550615002408af","64b003020eef62ee308107cc","64b03cd71f0bf30ffcd4b508","null","null","<p style=""font-size: 60px; font-family: BACS"">BECklRE</p>","","","","","","","",""
"html-keyboard-response","357","462267","0.0-15.0-0.26","6048158f62550615002408af","64b003020eef62ee308107cc","64b03cd71f0bf30ffcd4b508","null","null","<p style=""font-size: 60px; font-family: BACS"">BECklRE</p>","","","","","","","",""
"html-keyboard-response","358","463281","0.0-15.0-0.27","6048158f62550615002408af","64b003020eef62ee308107cc","64b03cd71f0bf30ffcd4b508","null","null","<p style=""font-size: 60px; font-family: BACS"">BECklRE</p>","","","","","","","",""
"html-keyboard-response","359","464296","0.0-15.0-0.28","6048158f62550615002408af","64b003020eef62ee308107cc","64b03cd71f0bf30ffcd4b508","null","null","<p style=""font-size: 60px; font-family: BACS"">BECklRE</p>","","","","","","","",""
"html-keyboard-response","360","465308","0.0-15.0-0.29","6048158f62550615002408af","64b003020eef62ee308107cc","64b03cd71f0bf30ffcd4b508","null","null","<p style=""font-size: 60px; font-family: BACS"">BECklRE</p>","","","","","","","",""
"html-keyboard-response","361","466323","0.0-15.0-0.30","6048158f62550615002408af","64b003020eef62ee308107cc","64b03cd71f0bf30ffcd4b508","null","null","<p style=""font-size: 60px; font-family: BACS"">BECklRE</p>","","","","","","","",""
"html-keyboard-response","362","467335","0.0-15.0-0.31","6048158f62550615002408af","64b003020eef62ee308107cc","64b03cd71f0bf30ffcd4b508","null","null","<p style=""font-size: 60px; font-family: BACS"">BECklRE</p>","","","","","","","",""
"html-keyboard-response","363","468349","0.0-15.0-0.32","6048158f62550615002408af","64b003020eef62ee308107cc","64b03cd71f0bf30ffcd4b508","null","null","<p style=""font-size: 60px; font-family: BACS"">BECklRE</p>","","","","","","","",""
"html-keyboard-response","364","469365","0.0-15.0-0.33","6048158f62550615002408af","64b003020eef62ee308107cc","64b03cd71f0bf30ffcd4b508","null","null","<p style=""font-size: 60px; font-family: BACS"">BECklRE</p>","","","","","","","",""
"html-keyboard-response","365","470378","0.0-15.0-0.34","6048158f62550615002408af","64b003020eef62ee308107cc","64b03cd71f0bf30ffcd4b508","null","null","<p style=""font-size: 60px; font-family: BACS"">BECklRE</p>","","","","","","","",""
"html-keyboard-response","366","471391","0.0-15.0-0.35","6048158f62550615002408af","64b003020eef62ee308107cc","64b03cd71f0bf30ffcd4b508","null","null","<p style=""font-size: 60px; font-family: BACS"">BECklRE</p>","","","","","","","",""
"html-keyboard-response","367","472392","0.0-15.0-0.36","6048158f62550615002408af","64b003020eef62ee308107cc","64b03cd71f0bf30ffcd4b508","null","null","<p style=""font-size: 60px; font-family: BACS"">BECklRE</p>","","","","","","","",""
"html-keyboard-response","368","473405","0.0-15.0-0.37","6048158f62550615002408af","64b003020eef62ee308107cc","64b03cd71f0bf30ffcd4b508","null","null","<p style=""font-size: 60px; font-family: BACS"">BECklRE</p>","","","","","","","",""
"html-keyboard-response","369","474406","0.0-15.0-0.38","6048158f62550615002408af","64b003020eef62ee308107cc","64b03cd71f0bf30ffcd4b508","null","null","<p style=""font-size: 60px; font-family: BACS"">BECklRE</p>","","","","","","","",""
"html-keyboard-response","370","475420","0.0-15.0-0.39","6048158f62550615002408af","64b003020eef62ee308107cc","64b03cd71f0bf30ffcd4b508","null","null","<p style=""font-size: 60px; font-family: BACS"">BECklRE</p>","","","","","","","",""
"html-keyboard-response","371","476430","0.0-15.0-0.40","6048158f62550615002408af","64b003020eef62ee308107cc","64b03cd71f0bf30ffcd4b508","null","null","<p style=""font-size: 60px; font-family: BACS"">BECklRE</p>","","","","","","","",""
"html-keyboard-response","372","477433","0.0-15.0-0.41","6048158f62550615002408af","64b003020eef62ee308107cc","64b03cd71f0bf30ffcd4b508","null","null","<p style=""font-size: 60px; font-family: BACS"">BECklRE</p>","","","","","","","",""
"html-keyboard-response","373","478447","0.0-15.0-0.42","6048158f62550615002408af","64b003020eef62ee308107cc","64b03cd71f0bf30ffcd4b508","null","null","<p style=""font-size: 60px; font-family: BACS"">BECklRE</p>","","","","","","","",""
"html-keyboard-response","374","479462","0.0-15.0-0.43","6048158f62550615002408af","64b003020eef62ee308107cc","64b03cd71f0bf30ffcd4b508","null","null","<p style=""font-size: 60px; font-family: BACS"">BECklRE</p>","","","","","","","",""
"html-keyboard-response","375","480476","0.0-15.0-0.44","6048158f62550615002408af","64b003020eef62ee308107cc","64b03cd71f0bf30ffcd4b508","null","null","<p style=""font-size: 60px; font-family: BACS"">BECklRE</p>","","","","","","","",""
"html-keyboard-response","376","481487","0.0-15.0-0.45","6048158f62550615002408af","64b003020eef62ee308107cc","64b03cd71f0bf30ffcd4b508","null","null","<p style=""font-size: 60px; font-family: BACS"">BECklRE</p>","","","","","","","",""
"html-keyboard-response","377","482501","0.0-15.0-0.46","6048158f62550615002408af","64b003020eef62ee308107cc","64b03cd71f0bf30ffcd4b508","null","null","<p style=""font-size: 60px; font-family: BACS"">BECklRE</p>","","","","","","","",""
"html-keyboard-response","378","483514","0.0-15.0-0.47","6048158f62550615002408af","64b003020eef62ee308107cc","64b03cd71f0bf30ffcd4b508","null","null","<p style=""font-size: 60px; font-family: BACS"">BECklRE</p>","","","","","","","",""
"html-keyboard-response","379","484527","0.0-15.0-0.48","6048158f62550615002408af","64b003020eef62ee308107cc","64b03cd71f0bf30ffcd4b508","null","null","<p style=""font-size: 60px; font-family: BACS"">BECklRE</p>","","","","","","","",""
"html-keyboard-response","380","485544","0.0-15.0-0.49","6048158f62550615002408af","64b003020eef62ee308107cc","64b03cd71f0bf30ffcd4b508","null","null","<p style=""font-size: 60px; font-family: BACS"">BECklRE</p>","","","","","","","",""
"html-keyboard-response","381","486557","0.0-15.0-0.50","6048158f62550615002408af","64b003020eef62ee308107cc","64b03cd71f0bf30ffcd4b508","null","null","<p style=""font-size: 60px; font-family: BACS"">BECklRE</p>","","","","","","","",""
"html-keyboard-response","382","487572","0.0-15.0-0.51","6048158f62550615002408af","64b003020eef62ee308107cc","64b03cd71f0bf30ffcd4b508","null","null","<p style=""font-size: 60px; font-family: BACS"">BECklRE</p>","","","","","","","",""
"html-keyboard-response","383","488582","0.0-15.0-0.52","6048158f62550615002408af","64b003020eef62ee308107cc","64b03cd71f0bf30ffcd4b508","null","null","<p style=""font-size: 60px; font-family: BACS"">BECklRE</p>","","","","","","","",""
"html-keyboard-response","384","489597","0.0-15.0-0.53","6048158f62550615002408af","64b003020eef62ee308107cc","64b03cd71f0bf30ffcd4b508","null","null","<p style=""font-size: 60px; font-family: BACS"">BECklRE</p>","","","","","","","",""
"html-keyboard-response","385","490611","0.0-15.0-0.54","6048158f62550615002408af","64b003020eef62ee308107cc","64b03cd71f0bf30ffcd4b508","null","null","<p style=""font-size: 60px; font-family: BACS"">BECklRE</p>","","","","","","","",""
"html-keyboard-response","386","491624","0.0-15.0-0.55","6048158f62550615002408af","64b003020eef62ee308107cc","64b03cd71f0bf30ffcd4b508","null","null","<p style=""font-size: 60px; font-family: BACS"">BECklRE</p>","","","","","","","",""
"html-keyboard-response","387","492636","0.0-15.0-0.56","6048158f62550615002408af","64b003020eef62ee308107cc","64b03cd71f0bf30ffcd4b508","null","null","<p style=""font-size: 60px; font-family: BACS"">BECklRE</p>","","","","","","","",""
"html-keyboard-response","388","493650","0.0-15.0-0.57","6048158f62550615002408af","64b003020eef62ee308107cc","64b03cd71f0bf30ffcd4b508","null","null","<p style=""font-size: 60px; font-family: BACS"">BECklRE</p>","","","","","","","",""
"html-keyboard-response","389","494665","0.0-15.0-0.58","6048158f62550615002408af","64b003020eef62ee308107cc","64b03cd71f0bf30ffcd4b508","null","null","<p style=""font-size: 60px; font-family: BACS"">BECklRE</p>","","","","","","","",""
"html-keyboard-response","390","495680","0.0-15.0-0.59","6048158f62550615002408af","64b003020eef62ee308107cc","64b03cd71f0bf30ffcd4b508","null","null","<p style=""font-size: 60px; font-family: BACS"">BECklRE</p>","","","","","","","",""
"html-keyboard-response","391","496695","0.0-15.0-0.60","6048158f62550615002408af","64b003020eef62ee308107cc","64b03cd71f0bf30ffcd4b508","null","null","<p style=""font-size: 60px; font-family: BACS"">BECklRE</p>","","","","","","","",""
"html-keyboard-response","392","497707","0.0-15.0-0.61","6048158f62550615002408af","64b003020eef62ee308107cc","64b03cd71f0bf30ffcd4b508","null","null","<p style=""font-size: 60px; font-family: BACS"">BECklRE</p>","","","","","","","",""
"html-keyboard-response","393","498719","0.0-15.0-0.62","6048158f62550615002408af","64b003020eef62ee308107cc","64b03cd71f0bf30ffcd4b508","null","null","<p style=""font-size: 60px; font-family: BACS"">BECklRE</p>","","","","","","","",""
"html-keyboard-response","394","499734","0.0-15.0-0.63","6048158f62550615002408af","64b003020eef62ee308107cc","64b03cd71f0bf30ffcd4b508","null","null","<p style=""font-size: 60px; font-family: BACS"">BECklRE</p>","","","","","","","",""
"html-keyboard-response","395","500748","0.0-15.0-0.64","6048158f62550615002408af","64b003020eef62ee308107cc","64b03cd71f0bf30ffcd4b508","null","null","<p style=""font-size: 60px; font-family: BACS"">BECklRE</p>","","","","","","","",""
"html-keyboard-response","396","501763","0.0-15.0-0.65","6048158f62550615002408af","64b003020eef62ee308107cc","64b03cd71f0bf30ffcd4b508","null","null","<p style=""font-size: 60px; font-family: BACS"">BECklRE</p>","","","","","","","",""
"html-keyboard-response","397","502773","0.0-15.0-0.66","6048158f62550615002408af","64b003020eef62ee308107cc","64b03cd71f0bf30ffcd4b508","null","null","<p style=""font-size: 60px; font-family: BACS"">BECklRE</p>","","","","","","","",""
"html-keyboard-response","398","503775","0.0-15.0-0.67","6048158f62550615002408af","64b003020eef62ee308107cc","64b03cd71f0bf30ffcd4b508","null","null","<p style=""font-size: 60px; font-family: BACS"">BECklRE</p>","","","","","","","",""
"html-keyboard-response","399","504788","0.0-15.0-0.68","6048158f62550615002408af","64b003020eef62ee308107cc","64b03cd71f0bf30ffcd4b508","null","null","<p style=""font-size: 60px; font-family: BACS"">BECklRE</p>","","","","","","","",""
"html-keyboard-response","400","505800","0.0-15.0-0.69","6048158f62550615002408af","64b003020eef62ee308107cc","64b03cd71f0bf30ffcd4b508","null","null","<p style=""font-size: 60px; font-family: BACS"">BECklRE</p>","","","","","","","",""
"html-keyboard-response","401","506815","0.0-15.0-0.70","6048158f62550615002408af","64b003020eef62ee308107cc","64b03cd71f0bf30ffcd4b508","null","null","<p style=""font-size: 60px; font-family: BACS"">BECklRE</p>","","","","","","","",""
"html-keyboard-response","402","507831","0.0-15.0-0.71","6048158f62550615002408af","64b003020eef62ee308107cc","64b03cd71f0bf30ffcd4b508","null","null","<p style=""font-size: 60px; font-family: BACS"">BECklRE</p>","","","","","","","",""
