"trial_type","trial_index","time_elapsed","internal_node_id","subject_id","study_id","session_id","rt","response","stimulus","success","item","task","correct_response","testing_condition","correct","target","confound","name"
"pavlovia","0","1732","0.0-0.0","60edd136d544e7c8f5fac8a7","650c16f0f2faf8d7a0d14c09","651c1beaaa440d338183b16f","","","","","","","","","","","",""
"survey-html-form","1","11933","0.0-1.0","60edd136d544e7c8f5fac8a7","650c16f0f2faf8d7a0d14c09","651c1beaaa440d338183b16f","10197","{""ID"":""60edd136d544e7c8f5fac8a7""}","","","","","","","","","",""
"html-keyboard-response","2","74837","0.0-2.0","60edd136d544e7c8f5fac8a7","650c16f0f2faf8d7a0d14c09","651c1beaaa440d338183b16f","62894"," ","<p style=""font-size: 15px;"">Before beginning, we ask that you read the consent information and confirm your agreement to participate in the experiment.</p>
      <p style=""font-size: 15px;""> We ask that you remember that this is a research project and that your participation is entirely voluntary. You can stop your participation at any time, without needing to provide any explanation. The study we're asking you to participate in aims at examining how readers process written words. You will be engaged in a session of apprximately 20 minutes, followed by a brief questionnaire. You will have the opportunity to take a few breaks during the experiment. You will be paid £4 for your participation, corresponding to a rate of £8/hour. While this experiment looks at cognitive faculties, this experiment doesn't constitute clinical proof of eventual pathologies.</p>
      <p style=""font-size: 15px;"">All of the information collected thanks to yours and others' participation will be held in a secure password-protected server, and will not be shared with anyone not authorised to view it. Your personal information will be kept with an arbitrary participant ID. Thanks to this data anonymity process, any researcher analysing the data won't be able to track the information back to a specific participant. Therefore, this process will make identifying you impossibile, even when results from the study will be published in scientific reviews, presented at congresses, or at any other public forum. More generally, the collected data will be treated in accordance with the laws on privacy and conformity to the Legislative Degree n. 196 ""Code regarding the protection of personal data"" of the 30th of June 2003 and to the European Regulation 2016/670 (General Data Protection Regulation - GDPR). The Data Protection Officer is Avv. Valentina Carollo, who can be contacted at the following email addresses: <a href=""mailto:dpo@sissa.it"">dpo@sissa.it</a> or <a href=""mailto:rpd@sissa.it"">rpd@sissa.it</a> - PEC: <a href=""mailto:protocollo@pec.sissa.it"">protocollo@pec.sissa.it</a>.</p>
      <p style=""font-size: 15px;""> Before expressing your consent to participate, we would like to remind you again that in case you need explanations on any aspect of the experimental procedure, the researcher is at your disposition (<a href=""mailto:aliebelt@sissa.it"">aliebelt@sissa.it</a>, <a href=""mailto:davide.crepaldi@sissa.it"">davide.crepaldi@sissa.it</a>).</p>
      <p style=""font-size: 15px;"">If you would like to download the informed consent form, you can do so here: <a href=""BASL-Informed_Consent.pdf"" download>informed consent form</a>.</p>
      <p style=""font-size: 15px;"">We ask that you press the spacebar to proceed to the consent section.</p>","","","","","","","","",""
"survey-html-form","3","207761","0.0-3.0","60edd136d544e7c8f5fac8a7","650c16f0f2faf8d7a0d14c09","651c1beaaa440d338183b16f","132922","{""consent1"":""YES"",""consent2"":""YES"",""consent3"":""YES"",""consent4"":""YES"",""consent5"":""YES"",""consent6"":""YES""}","","","","","","","","","",""
"fullscreen","4","229150","0.0-4.0","60edd136d544e7c8f5fac8a7","650c16f0f2faf8d7a0d14c09","651c1beaaa440d338183b16f","","","","true","","","","","","","",""
"html-keyboard-response","5","255009","0.0-5.0","60edd136d544e7c8f5fac8a7","650c16f0f2faf8d7a0d14c09","651c1beaaa440d338183b16f","25857"," ","<p>Welcome, and thank you very much for your time!</p>
      <p>In this experiment, you'll be a language expert who's been asked to take a look at words that Earth has received in its first communication with aliens. Your task, in this first part of the experiment, is to pay close attention to the words you'll be shown; later, world leaders will ask you questions on what you saw. The words will be shown to you quite quickly; it seems that the aliens were in a hurry :-)</p>
      <p>Press the spacebar to continue.<p>","","","","","","","","",""
"html-keyboard-response","6","255063","0.0-6.0","60edd136d544e7c8f5fac8a7","650c16f0f2faf8d7a0d14c09","651c1beaaa440d338183b16f","null","null","<p style=""font-size: 120px; font-family: BACS""> </p>","","","","","","","","",""
"html-keyboard-response","7","262424","0.0-7.0","60edd136d544e7c8f5fac8a7","650c16f0f2faf8d7a0d14c09","651c1beaaa440d338183b16f","7360"," ","<p>Here is an example of the words you'll see:</p>
      <img src='esempio.png' height='400px'>
      <p>When you're ready to begin, press the spacebar.</p></div>","","","","","","","","",""
"html-keyboard-response","8","263426","0.0-8.0-0.0","60edd136d544e7c8f5fac8a7","650c16f0f2faf8d7a0d14c09","651c1beaaa440d338183b16f","null","null","<p style=""font-size: 60px; font-family: BACS"">JrGvYZUZ</p>","","","","","","","","",""
"html-keyboard-response","9","264428","0.0-8.0-0.1","60edd136d544e7c8f5fac8a7","650c16f0f2faf8d7a0d14c09","651c1beaaa440d338183b16f","null","null","<p style=""font-size: 60px; font-family: BACS"">rvUbkdrO</p>","","","","","","","","",""
"html-keyboard-response","10","265442","0.0-8.0-0.2","60edd136d544e7c8f5fac8a7","650c16f0f2faf8d7a0d14c09","651c1beaaa440d338183b16f","null","null","<p style=""font-size: 60px; font-family: BACS"">YQbcYNu</p>","","","","","","","","",""
"html-keyboard-response","11","266465","0.0-8.0-0.3","60edd136d544e7c8f5fac8a7","650c16f0f2faf8d7a0d14c09","651c1beaaa440d338183b16f","null","null","<p style=""font-size: 60px; font-family: BACS"">TklDRDM</p>","","","","","","","","",""
"html-keyboard-response","12","267473","0.0-8.0-0.4","60edd136d544e7c8f5fac8a7","650c16f0f2faf8d7a0d14c09","651c1beaaa440d338183b16f","null","null","<p style=""font-size: 60px; font-family: BACS"">CmcObRC</p>","","","","","","","","",""
"html-keyboard-response","13","268475","0.0-8.0-0.5","60edd136d544e7c8f5fac8a7","650c16f0f2faf8d7a0d14c09","651c1beaaa440d338183b16f","null","null","<p style=""font-size: 60px; font-family: BACS"">UmNJYZUZ</p>","","","","","","","","",""
"html-keyboard-response","14","269490","0.0-8.0-0.6","60edd136d544e7c8f5fac8a7","650c16f0f2faf8d7a0d14c09","651c1beaaa440d338183b16f","null","null","<p style=""font-size: 60px; font-family: BACS"">YJLcAdYAJ</p>","","","","","","","","",""
"html-keyboard-response","15","270494","0.0-8.0-0.7","60edd136d544e7c8f5fac8a7","650c16f0f2faf8d7a0d14c09","651c1beaaa440d338183b16f","null","null","<p style=""font-size: 60px; font-family: BACS"">CmcOCdt</p>","","","","","","","","",""
"html-keyboard-response","16","271506","0.0-8.0-0.8","60edd136d544e7c8f5fac8a7","650c16f0f2faf8d7a0d14c09","651c1beaaa440d338183b16f","null","null","<p style=""font-size: 60px; font-family: BACS"">cDOEBbRC</p>","","","","","","","","",""
"html-keyboard-response","17","272520","0.0-8.0-0.9","60edd136d544e7c8f5fac8a7","650c16f0f2faf8d7a0d14c09","651c1beaaa440d338183b16f","null","null","<p style=""font-size: 60px; font-family: BACS"">OLJblYNu</p>","","","","","","","","",""
"html-keyboard-response","18","273530","0.0-8.0-0.10","60edd136d544e7c8f5fac8a7","650c16f0f2faf8d7a0d14c09","651c1beaaa440d338183b16f","null","null","<p style=""font-size: 60px; font-family: BACS"">lBKtcPK</p>","","","","","","","","",""
"html-keyboard-response","19","274542","0.0-8.0-0.11","60edd136d544e7c8f5fac8a7","650c16f0f2faf8d7a0d14c09","651c1beaaa440d338183b16f","null","null","<p style=""font-size: 60px; font-family: BACS"">YJLcAYNu</p>","","","","","","","","",""
"html-keyboard-response","20","275546","0.0-8.0-0.12","60edd136d544e7c8f5fac8a7","650c16f0f2faf8d7a0d14c09","651c1beaaa440d338183b16f","null","null","<p style=""font-size: 60px; font-family: BACS"">NvuGrkdrO</p>","","","","","","","","",""
"html-keyboard-response","21","276559","0.0-8.0-0.13","60edd136d544e7c8f5fac8a7","650c16f0f2faf8d7a0d14c09","651c1beaaa440d338183b16f","null","null","<p style=""font-size: 60px; font-family: BACS"">YQbcdYAJ</p>","","","","","","","","",""
"html-keyboard-response","22","277568","0.0-8.0-0.14","60edd136d544e7c8f5fac8a7","650c16f0f2faf8d7a0d14c09","651c1beaaa440d338183b16f","null","null","<p style=""font-size: 60px; font-family: BACS"">dMYBPCdt</p>","","","","","","","","",""
"html-keyboard-response","23","278576","0.0-8.0-0.15","60edd136d544e7c8f5fac8a7","650c16f0f2faf8d7a0d14c09","651c1beaaa440d338183b16f","null","null","<p style=""font-size: 60px; font-family: BACS"">OcYMbRC</p>","","","","","","","","",""
"html-keyboard-response","24","279591","0.0-8.0-0.16","60edd136d544e7c8f5fac8a7","650c16f0f2faf8d7a0d14c09","651c1beaaa440d338183b16f","null","null","<p style=""font-size: 60px; font-family: BACS"">rLkmYNu</p>","","","","","","","","",""
"html-keyboard-response","25","280602","0.0-8.0-0.17","60edd136d544e7c8f5fac8a7","650c16f0f2faf8d7a0d14c09","651c1beaaa440d338183b16f","null","null","<p style=""font-size: 60px; font-family: BACS"">dMYBPbRC</p>","","","","","","","","",""
"html-keyboard-response","26","281611","0.0-8.0-0.18","60edd136d544e7c8f5fac8a7","650c16f0f2faf8d7a0d14c09","651c1beaaa440d338183b16f","null","null","<p style=""font-size: 60px; font-family: BACS"">tdDdRDM</p>","","","","","","","","",""
"html-keyboard-response","27","282624","0.0-8.0-0.19","60edd136d544e7c8f5fac8a7","650c16f0f2faf8d7a0d14c09","651c1beaaa440d338183b16f","null","null","<p style=""font-size: 60px; font-family: BACS"">lBKtAkd</p>","","","","","","","","",""
"html-keyboard-response","28","283632","0.0-8.0-0.20","60edd136d544e7c8f5fac8a7","650c16f0f2faf8d7a0d14c09","651c1beaaa440d338183b16f","null","null","<p style=""font-size: 60px; font-family: BACS"">ldAaYNu</p>","","","","","","","","",""
"html-keyboard-response","29","284649","0.0-8.0-0.21","60edd136d544e7c8f5fac8a7","650c16f0f2faf8d7a0d14c09","651c1beaaa440d338183b16f","null","null","<p style=""font-size: 60px; font-family: BACS"">lBKtRDM</p>","","","","","","","","",""
"html-keyboard-response","30","285657","0.0-8.0-0.22","60edd136d544e7c8f5fac8a7","650c16f0f2faf8d7a0d14c09","651c1beaaa440d338183b16f","null","null","<p style=""font-size: 60px; font-family: BACS"">amJmYNu</p>","","","","","","","","",""
"html-keyboard-response","31","286664","0.0-8.0-0.23","60edd136d544e7c8f5fac8a7","650c16f0f2faf8d7a0d14c09","651c1beaaa440d338183b16f","null","null","<p style=""font-size: 60px; font-family: BACS"">UmNJkdrO</p>","","","","","","","","",""
"html-keyboard-response","32","287672","0.0-8.0-0.24","60edd136d544e7c8f5fac8a7","650c16f0f2faf8d7a0d14c09","651c1beaaa440d338183b16f","null","null","<p style=""font-size: 60px; font-family: BACS"">KTDTBAkd</p>","","","","","","","","",""
"html-keyboard-response","33","288674","0.0-8.0-0.25","60edd136d544e7c8f5fac8a7","650c16f0f2faf8d7a0d14c09","651c1beaaa440d338183b16f","null","null","<p style=""font-size: 60px; font-family: BACS"">hChYRDM</p>","","","","","","","","",""
"html-keyboard-response","34","289682","0.0-8.0-0.26","60edd136d544e7c8f5fac8a7","650c16f0f2faf8d7a0d14c09","651c1beaaa440d338183b16f","null","null","<p style=""font-size: 60px; font-family: BACS"">KTDTBbRC</p>","","","","","","","","",""
"html-keyboard-response","35","290694","0.0-8.0-0.27","60edd136d544e7c8f5fac8a7","650c16f0f2faf8d7a0d14c09","651c1beaaa440d338183b16f","null","null","<p style=""font-size: 60px; font-family: BACS"">YQbcYZUZ</p>","","","","","","","","",""
"html-keyboard-response","36","291699","0.0-8.0-0.28","60edd136d544e7c8f5fac8a7","650c16f0f2faf8d7a0d14c09","651c1beaaa440d338183b16f","null","null","<p style=""font-size: 60px; font-family: BACS"">JrGvdmkv</p>","","","","","","","","",""
"html-keyboard-response","37","292708","0.0-8.0-0.29","60edd136d544e7c8f5fac8a7","650c16f0f2faf8d7a0d14c09","651c1beaaa440d338183b16f","null","null","<p style=""font-size: 60px; font-family: BACS"">OLJblkdrO</p>","","","","","","","","",""
"html-keyboard-response","38","293714","0.0-8.0-0.30","60edd136d544e7c8f5fac8a7","650c16f0f2faf8d7a0d14c09","651c1beaaa440d338183b16f","null","null","<p style=""font-size: 60px; font-family: BACS"">NvuGrdYAJ</p>","","","","","","","","",""
"html-keyboard-response","39","294725","0.0-8.0-0.31","60edd136d544e7c8f5fac8a7","650c16f0f2faf8d7a0d14c09","651c1beaaa440d338183b16f","null","null","<p style=""font-size: 60px; font-family: BACS"">tdDdcPK</p>","","","","","","","","",""
"html-keyboard-response","40","295728","0.0-8.0-0.32","60edd136d544e7c8f5fac8a7","650c16f0f2faf8d7a0d14c09","651c1beaaa440d338183b16f","null","null","<p style=""font-size: 60px; font-family: BACS"">dMYBPAkd</p>","","","","","","","","",""
"html-keyboard-response","41","296736","0.0-8.0-0.33","60edd136d544e7c8f5fac8a7","650c16f0f2faf8d7a0d14c09","651c1beaaa440d338183b16f","null","null","<p style=""font-size: 60px; font-family: BACS"">cDOEBcPK</p>","","","","","","","","",""
"html-keyboard-response","42","297752","0.0-8.0-0.34","60edd136d544e7c8f5fac8a7","650c16f0f2faf8d7a0d14c09","651c1beaaa440d338183b16f","null","null","<p style=""font-size: 60px; font-family: BACS"">amJmdYAJ</p>","","","","","","","","",""
"html-keyboard-response","43","298758","0.0-8.0-0.35","60edd136d544e7c8f5fac8a7","650c16f0f2faf8d7a0d14c09","651c1beaaa440d338183b16f","null","null","<p style=""font-size: 60px; font-family: BACS"">cDOEBCdt</p>","","","","","","","","",""
"html-keyboard-response","44","299764","0.0-8.0-0.36","60edd136d544e7c8f5fac8a7","650c16f0f2faf8d7a0d14c09","651c1beaaa440d338183b16f","null","null","<p style=""font-size: 60px; font-family: BACS"">rvUbYNu</p>","","","","","","","","",""
"html-keyboard-response","45","300771","0.0-8.0-0.37","60edd136d544e7c8f5fac8a7","650c16f0f2faf8d7a0d14c09","651c1beaaa440d338183b16f","null","null","<p style=""font-size: 60px; font-family: BACS"">OLJbldmkv</p>","","","","","","","","",""
"html-keyboard-response","46","301772","0.0-8.0-0.38","60edd136d544e7c8f5fac8a7","650c16f0f2faf8d7a0d14c09","651c1beaaa440d338183b16f","null","null","<p style=""font-size: 60px; font-family: BACS"">ldAadYAJ</p>","","","","","","","","",""
"html-keyboard-response","47","302785","0.0-8.0-0.39","60edd136d544e7c8f5fac8a7","650c16f0f2faf8d7a0d14c09","651c1beaaa440d338183b16f","null","null","<p style=""font-size: 60px; font-family: BACS"">NvuGrYZUZ</p>","","","","","","","","",""
"html-keyboard-response","48","303797","0.0-8.0-0.40","60edd136d544e7c8f5fac8a7","650c16f0f2faf8d7a0d14c09","651c1beaaa440d338183b16f","null","null","<p style=""font-size: 60px; font-family: BACS"">OcYMAkd</p>","","","","","","","","",""
"html-keyboard-response","49","304811","0.0-8.0-0.41","60edd136d544e7c8f5fac8a7","650c16f0f2faf8d7a0d14c09","651c1beaaa440d338183b16f","null","null","<p style=""font-size: 60px; font-family: BACS"">ldAakdrO</p>","","","","","","","","",""
"html-keyboard-response","50","305823","0.0-8.0-0.42","60edd136d544e7c8f5fac8a7","650c16f0f2faf8d7a0d14c09","651c1beaaa440d338183b16f","null","null","<p style=""font-size: 60px; font-family: BACS"">JrGvdYAJ</p>","","","","","","","","",""
"html-keyboard-response","51","306825","0.0-8.0-0.43","60edd136d544e7c8f5fac8a7","650c16f0f2faf8d7a0d14c09","651c1beaaa440d338183b16f","null","null","<p style=""font-size: 60px; font-family: BACS"">CmcOAkd</p>","","","","","","","","",""
"html-keyboard-response","52","307840","0.0-8.0-0.44","60edd136d544e7c8f5fac8a7","650c16f0f2faf8d7a0d14c09","651c1beaaa440d338183b16f","null","null","<p style=""font-size: 60px; font-family: BACS"">YJLcAkdrO</p>","","","","","","","","",""
"html-keyboard-response","53","308854","0.0-8.0-0.45","60edd136d544e7c8f5fac8a7","650c16f0f2faf8d7a0d14c09","651c1beaaa440d338183b16f","null","null","<p style=""font-size: 60px; font-family: BACS"">amJmYZUZ</p>","","","","","","","","",""
"html-keyboard-response","54","309860","0.0-8.0-0.46","60edd136d544e7c8f5fac8a7","650c16f0f2faf8d7a0d14c09","651c1beaaa440d338183b16f","null","null","<p style=""font-size: 60px; font-family: BACS"">YQbcdmkv</p>","","","","","","","","",""
"html-keyboard-response","55","310870","0.0-8.0-0.47","60edd136d544e7c8f5fac8a7","650c16f0f2faf8d7a0d14c09","651c1beaaa440d338183b16f","null","null","<p style=""font-size: 60px; font-family: BACS"">amJmkdrO</p>","","","","","","","","",""
"html-keyboard-response","56","311886","0.0-8.0-0.48","60edd136d544e7c8f5fac8a7","650c16f0f2faf8d7a0d14c09","651c1beaaa440d338183b16f","null","null","<p style=""font-size: 60px; font-family: BACS"">lBKtCdt</p>","","","","","","","","",""
"html-keyboard-response","57","312902","0.0-8.0-0.49","60edd136d544e7c8f5fac8a7","650c16f0f2faf8d7a0d14c09","651c1beaaa440d338183b16f","null","null","<p style=""font-size: 60px; font-family: BACS"">rLkmdYAJ</p>","","","","","","","","",""
"html-keyboard-response","58","313903","0.0-8.0-0.50","60edd136d544e7c8f5fac8a7","650c16f0f2faf8d7a0d14c09","651c1beaaa440d338183b16f","null","null","<p style=""font-size: 60px; font-family: BACS"">dMYBPcPK</p>","","","","","","","","",""
"html-keyboard-response","59","314917","0.0-8.0-0.51","60edd136d544e7c8f5fac8a7","650c16f0f2faf8d7a0d14c09","651c1beaaa440d338183b16f","null","null","<p style=""font-size: 60px; font-family: BACS"">tRdMbRC</p>","","","","","","","","",""
"html-keyboard-response","60","315933","0.0-8.0-0.52","60edd136d544e7c8f5fac8a7","650c16f0f2faf8d7a0d14c09","651c1beaaa440d338183b16f","null","null","<p style=""font-size: 60px; font-family: BACS"">OLJbldYAJ</p>","","","","","","","","",""
"html-keyboard-response","61","316947","0.0-8.0-0.53","60edd136d544e7c8f5fac8a7","650c16f0f2faf8d7a0d14c09","651c1beaaa440d338183b16f","null","null","<p style=""font-size: 60px; font-family: BACS"">UmNJdmkv</p>","","","","","","","","",""
"html-keyboard-response","62","317960","0.0-8.0-0.54","60edd136d544e7c8f5fac8a7","650c16f0f2faf8d7a0d14c09","651c1beaaa440d338183b16f","null","null","<p style=""font-size: 60px; font-family: BACS"">tdDdCdt</p>","","","","","","","","",""
"html-keyboard-response","63","318975","0.0-8.0-0.55","60edd136d544e7c8f5fac8a7","650c16f0f2faf8d7a0d14c09","651c1beaaa440d338183b16f","null","null","<p style=""font-size: 60px; font-family: BACS"">UmNJYNu</p>","","","","","","","","",""
"html-keyboard-response","64","319981","0.0-8.0-0.56","60edd136d544e7c8f5fac8a7","650c16f0f2faf8d7a0d14c09","651c1beaaa440d338183b16f","null","null","<p style=""font-size: 60px; font-family: BACS"">OcYMcPK</p>","","","","","","","","",""
"html-keyboard-response","65","320989","0.0-8.0-0.57","60edd136d544e7c8f5fac8a7","650c16f0f2faf8d7a0d14c09","651c1beaaa440d338183b16f","null","null","<p style=""font-size: 60px; font-family: BACS"">NvuGrdmkv</p>","","","","","","","","",""
"html-keyboard-response","66","322000","0.0-8.0-0.58","60edd136d544e7c8f5fac8a7","650c16f0f2faf8d7a0d14c09","651c1beaaa440d338183b16f","null","null","<p style=""font-size: 60px; font-family: BACS"">tdDdbRC</p>","","","","","","","","",""
"html-keyboard-response","67","323014","0.0-8.0-0.59","60edd136d544e7c8f5fac8a7","650c16f0f2faf8d7a0d14c09","651c1beaaa440d338183b16f","null","null","<p style=""font-size: 60px; font-family: BACS"">KTDTBRDM</p>","","","","","","","","",""
"html-keyboard-response","68","324015","0.0-8.0-0.60","60edd136d544e7c8f5fac8a7","650c16f0f2faf8d7a0d14c09","651c1beaaa440d338183b16f","null","null","<p style=""font-size: 60px; font-family: BACS"">TklDAkd</p>","","","","","","","","",""
"html-keyboard-response","69","325023","0.0-8.0-0.61","60edd136d544e7c8f5fac8a7","650c16f0f2faf8d7a0d14c09","651c1beaaa440d338183b16f","null","null","<p style=""font-size: 60px; font-family: BACS"">cDOEBRDM</p>","","","","","","","","",""
"html-keyboard-response","70","326032","0.0-8.0-0.62","60edd136d544e7c8f5fac8a7","650c16f0f2faf8d7a0d14c09","651c1beaaa440d338183b16f","null","null","<p style=""font-size: 60px; font-family: BACS"">ldAadmkv</p>","","","","","","","","",""
"html-keyboard-response","71","327039","0.0-8.0-0.63","60edd136d544e7c8f5fac8a7","650c16f0f2faf8d7a0d14c09","651c1beaaa440d338183b16f","null","null","<p style=""font-size: 60px; font-family: BACS"">rvUbYZUZ</p>","","","","","","","","",""
"html-keyboard-response","72","328047","0.0-8.0-0.64","60edd136d544e7c8f5fac8a7","650c16f0f2faf8d7a0d14c09","651c1beaaa440d338183b16f","null","null","<p style=""font-size: 60px; font-family: BACS"">OcYMRDM</p>","","","","","","","","",""
"html-keyboard-response","73","329056","0.0-8.0-0.65","60edd136d544e7c8f5fac8a7","650c16f0f2faf8d7a0d14c09","651c1beaaa440d338183b16f","null","null","<p style=""font-size: 60px; font-family: BACS"">tRdMCdt</p>","","","","","","","","",""
"html-keyboard-response","74","330064","0.0-8.0-0.66","60edd136d544e7c8f5fac8a7","650c16f0f2faf8d7a0d14c09","651c1beaaa440d338183b16f","null","null","<p style=""font-size: 60px; font-family: BACS"">JrGvkdrO</p>","","","","","","","","",""
"html-keyboard-response","75","331080","0.0-8.0-0.67","60edd136d544e7c8f5fac8a7","650c16f0f2faf8d7a0d14c09","651c1beaaa440d338183b16f","null","null","<p style=""font-size: 60px; font-family: BACS"">hChYcPK</p>","","","","","","","","",""
"html-keyboard-response","76","332090","0.0-8.0-0.68","60edd136d544e7c8f5fac8a7","650c16f0f2faf8d7a0d14c09","651c1beaaa440d338183b16f","null","null","<p style=""font-size: 60px; font-family: BACS"">CmcORDM</p>","","","","","","","","",""
"html-keyboard-response","77","333104","0.0-8.0-0.69","60edd136d544e7c8f5fac8a7","650c16f0f2faf8d7a0d14c09","651c1beaaa440d338183b16f","null","null","<p style=""font-size: 60px; font-family: BACS"">hChYAkd</p>","","","","","","","","",""
"html-keyboard-response","78","334120","0.0-8.0-0.70","60edd136d544e7c8f5fac8a7","650c16f0f2faf8d7a0d14c09","651c1beaaa440d338183b16f","null","null","<p style=""font-size: 60px; font-family: BACS"">YJLcAYZUZ</p>","","","","","","","","",""
"html-keyboard-response","79","335124","0.0-8.0-0.71","60edd136d544e7c8f5fac8a7","650c16f0f2faf8d7a0d14c09","651c1beaaa440d338183b16f","null","null","<p style=""font-size: 60px; font-family: BACS"">KTDTBCdt</p>","","","","","","","","",""
"html-keyboard-response","80","336127","0.0-8.0-0.72","60edd136d544e7c8f5fac8a7","650c16f0f2faf8d7a0d14c09","651c1beaaa440d338183b16f","null","null","<p style=""font-size: 60px; font-family: BACS"">TklDcPK</p>","","","","","","","","",""
"html-keyboard-response","81","337134","0.0-8.0-0.73","60edd136d544e7c8f5fac8a7","650c16f0f2faf8d7a0d14c09","651c1beaaa440d338183b16f","null","null","<p style=""font-size: 60px; font-family: BACS"">rLkmYZUZ</p>","","","","","","","","",""
"html-keyboard-response","82","338135","0.0-8.0-0.74","60edd136d544e7c8f5fac8a7","650c16f0f2faf8d7a0d14c09","651c1beaaa440d338183b16f","null","null","<p style=""font-size: 60px; font-family: BACS"">tRdMAkd</p>","","","","","","","","",""
"html-keyboard-response","83","339150","0.0-8.0-0.75","60edd136d544e7c8f5fac8a7","650c16f0f2faf8d7a0d14c09","651c1beaaa440d338183b16f","null","null","<p style=""font-size: 60px; font-family: BACS"">rvUbdmkv</p>","","","","","","","","",""
"html-keyboard-response","84","340159","0.0-8.0-0.76","60edd136d544e7c8f5fac8a7","650c16f0f2faf8d7a0d14c09","651c1beaaa440d338183b16f","null","null","<p style=""font-size: 60px; font-family: BACS"">hChYbRC</p>","","","","","","","","",""
"html-keyboard-response","85","341169","0.0-8.0-0.77","60edd136d544e7c8f5fac8a7","650c16f0f2faf8d7a0d14c09","651c1beaaa440d338183b16f","null","null","<p style=""font-size: 60px; font-family: BACS"">tRdMcPK</p>","","","","","","","","",""
"html-keyboard-response","86","342178","0.0-8.0-0.78","60edd136d544e7c8f5fac8a7","650c16f0f2faf8d7a0d14c09","651c1beaaa440d338183b16f","null","null","<p style=""font-size: 60px; font-family: BACS"">TklDCdt</p>","","","","","","","","",""
"html-keyboard-response","87","343189","0.0-8.0-0.79","60edd136d544e7c8f5fac8a7","650c16f0f2faf8d7a0d14c09","651c1beaaa440d338183b16f","null","null","<p style=""font-size: 60px; font-family: BACS"">rLkmdmkv</p>","","","","","","","","",""
"html-keyboard-response","88","476943","0.0-9.0","60edd136d544e7c8f5fac8a7","650c16f0f2faf8d7a0d14c09","651c1beaaa440d338183b16f","133753"," ","<p>Great, you've seen the first block of words. You may now take a short break.</p>
      <p>Press the spacebar when you're ready to continue.</p>","","","","","","","","",""
"html-keyboard-response","89","477951","0.0-10.0-0.0","60edd136d544e7c8f5fac8a7","650c16f0f2faf8d7a0d14c09","651c1beaaa440d338183b16f","null","null","<p style=""font-size: 60px; font-family: BACS"">lBKtRDM</p>","","","","","","","","",""
"html-keyboard-response","90","478962","0.0-10.0-0.1","60edd136d544e7c8f5fac8a7","650c16f0f2faf8d7a0d14c09","651c1beaaa440d338183b16f","null","null","<p style=""font-size: 60px; font-family: BACS"">tdDdbRC</p>","","","","","","","","",""
"html-keyboard-response","91","479986","0.0-10.0-0.2","60edd136d544e7c8f5fac8a7","650c16f0f2faf8d7a0d14c09","651c1beaaa440d338183b16f","null","null","<p style=""font-size: 60px; font-family: BACS"">lBKtCdt</p>","","","","","","","","",""
"html-keyboard-response","92","480995","0.0-10.0-0.3","60edd136d544e7c8f5fac8a7","650c16f0f2faf8d7a0d14c09","651c1beaaa440d338183b16f","null","null","<p style=""font-size: 60px; font-family: BACS"">hChYcPK</p>","","","","","","","","",""
"html-keyboard-response","93","482005","0.0-10.0-0.4","60edd136d544e7c8f5fac8a7","650c16f0f2faf8d7a0d14c09","651c1beaaa440d338183b16f","null","null","<p style=""font-size: 60px; font-family: BACS"">TklDAkd</p>","","","","","","","","",""
"html-keyboard-response","94","483012","0.0-10.0-0.5","60edd136d544e7c8f5fac8a7","650c16f0f2faf8d7a0d14c09","651c1beaaa440d338183b16f","null","null","<p style=""font-size: 60px; font-family: BACS"">rvUbkdrO</p>","","","","","","","","",""
"html-keyboard-response","95","484027","0.0-10.0-0.6","60edd136d544e7c8f5fac8a7","650c16f0f2faf8d7a0d14c09","651c1beaaa440d338183b16f","null","null","<p style=""font-size: 60px; font-family: BACS"">tdDdCdt</p>","","","","","","","","",""
"html-keyboard-response","96","485029","0.0-10.0-0.7","60edd136d544e7c8f5fac8a7","650c16f0f2faf8d7a0d14c09","651c1beaaa440d338183b16f","null","null","<p style=""font-size: 60px; font-family: BACS"">rLkmdmkv</p>","","","","","","","","",""
"html-keyboard-response","97","486036","0.0-10.0-0.8","60edd136d544e7c8f5fac8a7","650c16f0f2faf8d7a0d14c09","651c1beaaa440d338183b16f","null","null","<p style=""font-size: 60px; font-family: BACS"">amJmdYAJ</p>","","","","","","","","",""
"html-keyboard-response","98","487046","0.0-10.0-0.9","60edd136d544e7c8f5fac8a7","650c16f0f2faf8d7a0d14c09","651c1beaaa440d338183b16f","null","null","<p style=""font-size: 60px; font-family: BACS"">ldAakdrO</p>","","","","","","","","",""
"html-keyboard-response","99","488051","0.0-10.0-0.10","60edd136d544e7c8f5fac8a7","650c16f0f2faf8d7a0d14c09","651c1beaaa440d338183b16f","null","null","<p style=""font-size: 60px; font-family: BACS"">YQbcdmkv</p>","","","","","","","","",""
"html-keyboard-response","100","489057","0.0-10.0-0.11","60edd136d544e7c8f5fac8a7","650c16f0f2faf8d7a0d14c09","651c1beaaa440d338183b16f","null","null","<p style=""font-size: 60px; font-family: BACS"">dMYBPCdt</p>","","","","","","","","",""
"html-keyboard-response","101","490072","0.0-10.0-0.12","60edd136d544e7c8f5fac8a7","650c16f0f2faf8d7a0d14c09","651c1beaaa440d338183b16f","null","null","<p style=""font-size: 60px; font-family: BACS"">tRdMAkd</p>","","","","","","","","",""
"html-keyboard-response","102","491074","0.0-10.0-0.13","60edd136d544e7c8f5fac8a7","650c16f0f2faf8d7a0d14c09","651c1beaaa440d338183b16f","null","null","<p style=""font-size: 60px; font-family: BACS"">CmcORDM</p>","","","","","","","","",""
"html-keyboard-response","103","492082","0.0-10.0-0.14","60edd136d544e7c8f5fac8a7","650c16f0f2faf8d7a0d14c09","651c1beaaa440d338183b16f","null","null","<p style=""font-size: 60px; font-family: BACS"">YJLcAkdrO</p>","","","","","","","","",""
"html-keyboard-response","104","493085","0.0-10.0-0.15","60edd136d544e7c8f5fac8a7","650c16f0f2faf8d7a0d14c09","651c1beaaa440d338183b16f","null","null","<p style=""font-size: 60px; font-family: BACS"">hChYAkd</p>","","","","","","","","",""
"html-keyboard-response","105","494095","0.0-10.0-0.16","60edd136d544e7c8f5fac8a7","650c16f0f2faf8d7a0d14c09","651c1beaaa440d338183b16f","null","null","<p style=""font-size: 60px; font-family: BACS"">YQbcYZUZ</p>","","","","","","","","",""
"html-keyboard-response","106","495105","0.0-10.0-0.17","60edd136d544e7c8f5fac8a7","650c16f0f2faf8d7a0d14c09","651c1beaaa440d338183b16f","null","null","<p style=""font-size: 60px; font-family: BACS"">NvuGrdYAJ</p>","","","","","","","","",""
"html-keyboard-response","107","496117","0.0-10.0-0.18","60edd136d544e7c8f5fac8a7","650c16f0f2faf8d7a0d14c09","651c1beaaa440d338183b16f","null","null","<p style=""font-size: 60px; font-family: BACS"">rvUbYZUZ</p>","","","","","","","","",""
"html-keyboard-response","108","497122","0.0-10.0-0.19","60edd136d544e7c8f5fac8a7","650c16f0f2faf8d7a0d14c09","651c1beaaa440d338183b16f","null","null","<p style=""font-size: 60px; font-family: BACS"">cDOEBRDM</p>","","","","","","","","",""
"html-keyboard-response","109","498130","0.0-10.0-0.20","60edd136d544e7c8f5fac8a7","650c16f0f2faf8d7a0d14c09","651c1beaaa440d338183b16f","null","null","<p style=""font-size: 60px; font-family: BACS"">UmNJdmkv</p>","","","","","","","","",""
"html-keyboard-response","110","499142","0.0-10.0-0.21","60edd136d544e7c8f5fac8a7","650c16f0f2faf8d7a0d14c09","651c1beaaa440d338183b16f","null","null","<p style=""font-size: 60px; font-family: BACS"">JrGvYZUZ</p>","","","","","","","","",""
"html-keyboard-response","111","500153","0.0-10.0-0.22","60edd136d544e7c8f5fac8a7","650c16f0f2faf8d7a0d14c09","651c1beaaa440d338183b16f","null","null","<p style=""font-size: 60px; font-family: BACS"">OLJbldYAJ</p>","","","","","","","","",""
"html-keyboard-response","112","501155","0.0-10.0-0.23","60edd136d544e7c8f5fac8a7","650c16f0f2faf8d7a0d14c09","651c1beaaa440d338183b16f","null","null","<p style=""font-size: 60px; font-family: BACS"">amJmYZUZ</p>","","","","","","","","",""
"html-keyboard-response","113","502157","0.0-10.0-0.24","60edd136d544e7c8f5fac8a7","650c16f0f2faf8d7a0d14c09","651c1beaaa440d338183b16f","null","null","<p style=""font-size: 60px; font-family: BACS"">OcYMRDM</p>","","","","","","","","",""
"html-keyboard-response","114","503168","0.0-10.0-0.25","60edd136d544e7c8f5fac8a7","650c16f0f2faf8d7a0d14c09","651c1beaaa440d338183b16f","null","null","<p style=""font-size: 60px; font-family: BACS"">OLJbldmkv</p>","","","","","","","","",""
"html-keyboard-response","115","504177","0.0-10.0-0.26","60edd136d544e7c8f5fac8a7","650c16f0f2faf8d7a0d14c09","651c1beaaa440d338183b16f","null","null","<p style=""font-size: 60px; font-family: BACS"">tRdMcPK</p>","","","","","","","","",""
"html-keyboard-response","116","505184","0.0-10.0-0.27","60edd136d544e7c8f5fac8a7","650c16f0f2faf8d7a0d14c09","651c1beaaa440d338183b16f","null","null","<p style=""font-size: 60px; font-family: BACS"">UmNJkdrO</p>","","","","","","","","",""
"html-keyboard-response","117","506194","0.0-10.0-0.28","60edd136d544e7c8f5fac8a7","650c16f0f2faf8d7a0d14c09","651c1beaaa440d338183b16f","null","null","<p style=""font-size: 60px; font-family: BACS"">KTDTBbRC</p>","","","","","","","","",""
"html-keyboard-response","118","507203","0.0-10.0-0.29","60edd136d544e7c8f5fac8a7","650c16f0f2faf8d7a0d14c09","651c1beaaa440d338183b16f","null","null","<p style=""font-size: 60px; font-family: BACS"">rLkmYNu</p>","","","","","","","","",""
"html-keyboard-response","119","508218","0.0-10.0-0.30","60edd136d544e7c8f5fac8a7","650c16f0f2faf8d7a0d14c09","651c1beaaa440d338183b16f","null","null","<p style=""font-size: 60px; font-family: BACS"">ldAadYAJ</p>","","","","","","","","",""
"html-keyboard-response","120","509223","0.0-10.0-0.31","60edd136d544e7c8f5fac8a7","650c16f0f2faf8d7a0d14c09","651c1beaaa440d338183b16f","null","null","<p style=""font-size: 60px; font-family: BACS"">tRdMCdt</p>","","","","","","","","",""
"html-keyboard-response","121","510240","0.0-10.0-0.32","60edd136d544e7c8f5fac8a7","650c16f0f2faf8d7a0d14c09","651c1beaaa440d338183b16f","null","null","<p style=""font-size: 60px; font-family: BACS"">KTDTBRDM</p>","","","","","","","","",""
"html-keyboard-response","122","511256","0.0-10.0-0.33","60edd136d544e7c8f5fac8a7","650c16f0f2faf8d7a0d14c09","651c1beaaa440d338183b16f","null","null","<p style=""font-size: 60px; font-family: BACS"">NvuGrkdrO</p>","","","","","","","","",""
"html-keyboard-response","123","512265","0.0-10.0-0.34","60edd136d544e7c8f5fac8a7","650c16f0f2faf8d7a0d14c09","651c1beaaa440d338183b16f","null","null","<p style=""font-size: 60px; font-family: BACS"">cDOEBbRC</p>","","","","","","","","",""
"html-keyboard-response","124","513275","0.0-10.0-0.35","60edd136d544e7c8f5fac8a7","650c16f0f2faf8d7a0d14c09","651c1beaaa440d338183b16f","null","null","<p style=""font-size: 60px; font-family: BACS"">hChYRDM</p>","","","","","","","","",""
"html-keyboard-response","125","514283","0.0-10.0-0.36","60edd136d544e7c8f5fac8a7","650c16f0f2faf8d7a0d14c09","651c1beaaa440d338183b16f","null","null","<p style=""font-size: 60px; font-family: BACS"">JrGvdmkv</p>","","","","","","","","",""
"html-keyboard-response","126","515295","0.0-10.0-0.37","60edd136d544e7c8f5fac8a7","650c16f0f2faf8d7a0d14c09","651c1beaaa440d338183b16f","null","null","<p style=""font-size: 60px; font-family: BACS"">amJmkdrO</p>","","","","","","","","",""
"html-keyboard-response","127","516297","0.0-10.0-0.38","60edd136d544e7c8f5fac8a7","650c16f0f2faf8d7a0d14c09","651c1beaaa440d338183b16f","null","null","<p style=""font-size: 60px; font-family: BACS"">dMYBPcPK</p>","","","","","","","","",""
"html-keyboard-response","128","517313","0.0-10.0-0.39","60edd136d544e7c8f5fac8a7","650c16f0f2faf8d7a0d14c09","651c1beaaa440d338183b16f","null","null","<p style=""font-size: 60px; font-family: BACS"">rvUbYNu</p>","","","","","","","","",""
"html-keyboard-response","129","518322","0.0-10.0-0.40","60edd136d544e7c8f5fac8a7","650c16f0f2faf8d7a0d14c09","651c1beaaa440d338183b16f","null","null","<p style=""font-size: 60px; font-family: BACS"">TklDcPK</p>","","","","","","","","",""
"html-keyboard-response","130","519339","0.0-10.0-0.41","60edd136d544e7c8f5fac8a7","650c16f0f2faf8d7a0d14c09","651c1beaaa440d338183b16f","null","null","<p style=""font-size: 60px; font-family: BACS"">OcYMbRC</p>","","","","","","","","",""
"html-keyboard-response","131","520355","0.0-10.0-0.42","60edd136d544e7c8f5fac8a7","650c16f0f2faf8d7a0d14c09","651c1beaaa440d338183b16f","null","null","<p style=""font-size: 60px; font-family: BACS"">JrGvkdrO</p>","","","","","","","","",""
"html-keyboard-response","132","521365","0.0-10.0-0.43","60edd136d544e7c8f5fac8a7","650c16f0f2faf8d7a0d14c09","651c1beaaa440d338183b16f","null","null","<p style=""font-size: 60px; font-family: BACS"">YJLcAdYAJ</p>","","","","","","","","",""
"html-keyboard-response","133","522371","0.0-10.0-0.44","60edd136d544e7c8f5fac8a7","650c16f0f2faf8d7a0d14c09","651c1beaaa440d338183b16f","null","null","<p style=""font-size: 60px; font-family: BACS"">tRdMbRC</p>","","","","","","","","",""
"html-keyboard-response","134","523377","0.0-10.0-0.45","60edd136d544e7c8f5fac8a7","650c16f0f2faf8d7a0d14c09","651c1beaaa440d338183b16f","null","null","<p style=""font-size: 60px; font-family: BACS"">ldAadmkv</p>","","","","","","","","",""
"html-keyboard-response","135","524407","0.0-10.0-0.46","60edd136d544e7c8f5fac8a7","650c16f0f2faf8d7a0d14c09","651c1beaaa440d338183b16f","null","null","<p style=""font-size: 60px; font-family: BACS"">CmcOAkd</p>","","","","","","","","",""
"html-keyboard-response","136","525426","0.0-10.0-0.47","60edd136d544e7c8f5fac8a7","650c16f0f2faf8d7a0d14c09","651c1beaaa440d338183b16f","null","null","<p style=""font-size: 60px; font-family: BACS"">cDOEBcPK</p>","","","","","","","","",""
"html-keyboard-response","137","526456","0.0-10.0-0.48","60edd136d544e7c8f5fac8a7","650c16f0f2faf8d7a0d14c09","651c1beaaa440d338183b16f","null","null","<p style=""font-size: 60px; font-family: BACS"">UmNJYZUZ</p>","","","","","","","","",""
"html-keyboard-response","138","527460","0.0-10.0-0.49","60edd136d544e7c8f5fac8a7","650c16f0f2faf8d7a0d14c09","651c1beaaa440d338183b16f","null","null","<p style=""font-size: 60px; font-family: BACS"">tdDdRDM</p>","","","","","","","","",""
"html-keyboard-response","139","528469","0.0-10.0-0.50","60edd136d544e7c8f5fac8a7","650c16f0f2faf8d7a0d14c09","651c1beaaa440d338183b16f","null","null","<p style=""font-size: 60px; font-family: BACS"">dMYBPbRC</p>","","","","","","","","",""
"html-keyboard-response","140","529476","0.0-10.0-0.51","60edd136d544e7c8f5fac8a7","650c16f0f2faf8d7a0d14c09","651c1beaaa440d338183b16f","null","null","<p style=""font-size: 60px; font-family: BACS"">JrGvdYAJ</p>","","","","","","","","",""
"html-keyboard-response","141","530483","0.0-10.0-0.52","60edd136d544e7c8f5fac8a7","650c16f0f2faf8d7a0d14c09","651c1beaaa440d338183b16f","null","null","<p style=""font-size: 60px; font-family: BACS"">amJmYNu</p>","","","","","","","","",""
"html-keyboard-response","142","531485","0.0-10.0-0.53","60edd136d544e7c8f5fac8a7","650c16f0f2faf8d7a0d14c09","651c1beaaa440d338183b16f","null","null","<p style=""font-size: 60px; font-family: BACS"">rLkmdYAJ</p>","","","","","","","","",""
"html-keyboard-response","143","532490","0.0-10.0-0.54","60edd136d544e7c8f5fac8a7","650c16f0f2faf8d7a0d14c09","651c1beaaa440d338183b16f","null","null","<p style=""font-size: 60px; font-family: BACS"">KTDTBCdt</p>","","","","","","","","",""
"html-keyboard-response","144","533499","0.0-10.0-0.55","60edd136d544e7c8f5fac8a7","650c16f0f2faf8d7a0d14c09","651c1beaaa440d338183b16f","null","null","<p style=""font-size: 60px; font-family: BACS"">NvuGrdmkv</p>","","","","","","","","",""
"html-keyboard-response","145","534502","0.0-10.0-0.56","60edd136d544e7c8f5fac8a7","650c16f0f2faf8d7a0d14c09","651c1beaaa440d338183b16f","null","null","<p style=""font-size: 60px; font-family: BACS"">YQbcdYAJ</p>","","","","","","","","",""
"html-keyboard-response","146","535514","0.0-10.0-0.57","60edd136d544e7c8f5fac8a7","650c16f0f2faf8d7a0d14c09","651c1beaaa440d338183b16f","null","null","<p style=""font-size: 60px; font-family: BACS"">tdDdcPK</p>","","","","","","","","",""
"html-keyboard-response","147","536530","0.0-10.0-0.58","60edd136d544e7c8f5fac8a7","650c16f0f2faf8d7a0d14c09","651c1beaaa440d338183b16f","null","null","<p style=""font-size: 60px; font-family: BACS"">YQbcYNu</p>","","","","","","","","",""
"html-keyboard-response","148","537535","0.0-10.0-0.59","60edd136d544e7c8f5fac8a7","650c16f0f2faf8d7a0d14c09","651c1beaaa440d338183b16f","null","null","<p style=""font-size: 60px; font-family: BACS"">dMYBPAkd</p>","","","","","","","","",""
"html-keyboard-response","149","538544","0.0-10.0-0.60","60edd136d544e7c8f5fac8a7","650c16f0f2faf8d7a0d14c09","651c1beaaa440d338183b16f","null","null","<p style=""font-size: 60px; font-family: BACS"">OLJblkdrO</p>","","","","","","","","",""
"html-keyboard-response","150","539561","0.0-10.0-0.61","60edd136d544e7c8f5fac8a7","650c16f0f2faf8d7a0d14c09","651c1beaaa440d338183b16f","null","null","<p style=""font-size: 60px; font-family: BACS"">cDOEBCdt</p>","","","","","","","","",""
"html-keyboard-response","151","540565","0.0-10.0-0.62","60edd136d544e7c8f5fac8a7","650c16f0f2faf8d7a0d14c09","651c1beaaa440d338183b16f","null","null","<p style=""font-size: 60px; font-family: BACS"">OcYMcPK</p>","","","","","","","","",""
"html-keyboard-response","152","541581","0.0-10.0-0.63","60edd136d544e7c8f5fac8a7","650c16f0f2faf8d7a0d14c09","651c1beaaa440d338183b16f","null","null","<p style=""font-size: 60px; font-family: BACS"">ldAaYNu</p>","","","","","","","","",""
"html-keyboard-response","153","542585","0.0-10.0-0.64","60edd136d544e7c8f5fac8a7","650c16f0f2faf8d7a0d14c09","651c1beaaa440d338183b16f","null","null","<p style=""font-size: 60px; font-family: BACS"">CmcOCdt</p>","","","","","","","","",""
"html-keyboard-response","154","543598","0.0-10.0-0.65","60edd136d544e7c8f5fac8a7","650c16f0f2faf8d7a0d14c09","651c1beaaa440d338183b16f","null","null","<p style=""font-size: 60px; font-family: BACS"">rvUbdmkv</p>","","","","","","","","",""
"html-keyboard-response","155","544613","0.0-10.0-0.66","60edd136d544e7c8f5fac8a7","650c16f0f2faf8d7a0d14c09","651c1beaaa440d338183b16f","null","null","<p style=""font-size: 60px; font-family: BACS"">rLkmYZUZ</p>","","","","","","","","",""
"html-keyboard-response","156","545615","0.0-10.0-0.67","60edd136d544e7c8f5fac8a7","650c16f0f2faf8d7a0d14c09","651c1beaaa440d338183b16f","null","null","<p style=""font-size: 60px; font-family: BACS"">KTDTBAkd</p>","","","","","","","","",""
"html-keyboard-response","157","546620","0.0-10.0-0.68","60edd136d544e7c8f5fac8a7","650c16f0f2faf8d7a0d14c09","651c1beaaa440d338183b16f","null","null","<p style=""font-size: 60px; font-family: BACS"">hChYbRC</p>","","","","","","","","",""
"html-keyboard-response","158","547635","0.0-10.0-0.69","60edd136d544e7c8f5fac8a7","650c16f0f2faf8d7a0d14c09","651c1beaaa440d338183b16f","null","null","<p style=""font-size: 60px; font-family: BACS"">OLJblYNu</p>","","","","","","","","",""
"html-keyboard-response","159","548650","0.0-10.0-0.70","60edd136d544e7c8f5fac8a7","650c16f0f2faf8d7a0d14c09","651c1beaaa440d338183b16f","null","null","<p style=""font-size: 60px; font-family: BACS"">TklDRDM</p>","","","","","","","","",""
"html-keyboard-response","160","549654","0.0-10.0-0.71","60edd136d544e7c8f5fac8a7","650c16f0f2faf8d7a0d14c09","651c1beaaa440d338183b16f","null","null","<p style=""font-size: 60px; font-family: BACS"">OcYMAkd</p>","","","","","","","","",""
"html-keyboard-response","161","550664","0.0-10.0-0.72","60edd136d544e7c8f5fac8a7","650c16f0f2faf8d7a0d14c09","651c1beaaa440d338183b16f","null","null","<p style=""font-size: 60px; font-family: BACS"">YJLcAYNu</p>","","","","","","","","",""
"html-keyboard-response","162","551681","0.0-10.0-0.73","60edd136d544e7c8f5fac8a7","650c16f0f2faf8d7a0d14c09","651c1beaaa440d338183b16f","null","null","<p style=""font-size: 60px; font-family: BACS"">CmcObRC</p>","","","","","","","","",""
"html-keyboard-response","163","552687","0.0-10.0-0.74","60edd136d544e7c8f5fac8a7","650c16f0f2faf8d7a0d14c09","651c1beaaa440d338183b16f","null","null","<p style=""font-size: 60px; font-family: BACS"">YJLcAYZUZ</p>","","","","","","","","",""
"html-keyboard-response","164","553698","0.0-10.0-0.75","60edd136d544e7c8f5fac8a7","650c16f0f2faf8d7a0d14c09","651c1beaaa440d338183b16f","null","null","<p style=""font-size: 60px; font-family: BACS"">lBKtAkd</p>","","","","","","","","",""
"html-keyboard-response","165","554709","0.0-10.0-0.76","60edd136d544e7c8f5fac8a7","650c16f0f2faf8d7a0d14c09","651c1beaaa440d338183b16f","null","null","<p style=""font-size: 60px; font-family: BACS"">NvuGrYZUZ</p>","","","","","","","","",""
"html-keyboard-response","166","555726","0.0-10.0-0.77","60edd136d544e7c8f5fac8a7","650c16f0f2faf8d7a0d14c09","651c1beaaa440d338183b16f","null","null","<p style=""font-size: 60px; font-family: BACS"">TklDCdt</p>","","","","","","","","",""
"html-keyboard-response","167","556734","0.0-10.0-0.78","60edd136d544e7c8f5fac8a7","650c16f0f2faf8d7a0d14c09","651c1beaaa440d338183b16f","null","null","<p style=""font-size: 60px; font-family: BACS"">UmNJYNu</p>","","","","","","","","",""
"html-keyboard-response","168","557736","0.0-10.0-0.79","60edd136d544e7c8f5fac8a7","650c16f0f2faf8d7a0d14c09","651c1beaaa440d338183b16f","null","null","<p style=""font-size: 60px; font-family: BACS"">lBKtcPK</p>","","","","","","","","",""
"html-keyboard-response","169","665685","0.0-11.0","60edd136d544e7c8f5fac8a7","650c16f0f2faf8d7a0d14c09","651c1beaaa440d338183b16f","107948"," ","<p>Great, you've seen the second block of words. You may now take a short break.</p>
      <p>Press the spacebar when you're ready to continue.</p>","","","","","","","","",""
"html-keyboard-response","170","666687","0.0-12.0-0.0","60edd136d544e7c8f5fac8a7","650c16f0f2faf8d7a0d14c09","651c1beaaa440d338183b16f","null","null","<p style=""font-size: 60px; font-family: BACS"">amJmdYAJ</p>","","","","","","","","",""
"html-keyboard-response","171","667697","0.0-12.0-0.1","60edd136d544e7c8f5fac8a7","650c16f0f2faf8d7a0d14c09","651c1beaaa440d338183b16f","null","null","<p style=""font-size: 60px; font-family: BACS"">hChYcPK</p>","","","","","","","","",""
"html-keyboard-response","172","668705","0.0-12.0-0.2","60edd136d544e7c8f5fac8a7","650c16f0f2faf8d7a0d14c09","651c1beaaa440d338183b16f","null","null","<p style=""font-size: 60px; font-family: BACS"">cDOEBbRC</p>","","","","","","","","",""
"html-keyboard-response","173","669720","0.0-12.0-0.3","60edd136d544e7c8f5fac8a7","650c16f0f2faf8d7a0d14c09","651c1beaaa440d338183b16f","null","null","<p style=""font-size: 60px; font-family: BACS"">rvUbYZUZ</p>","","","","","","","","",""
"html-keyboard-response","174","670727","0.0-12.0-0.4","60edd136d544e7c8f5fac8a7","650c16f0f2faf8d7a0d14c09","651c1beaaa440d338183b16f","null","null","<p style=""font-size: 60px; font-family: BACS"">tRdMbRC</p>","","","","","","","","",""
"html-keyboard-response","175","671734","0.0-12.0-0.5","60edd136d544e7c8f5fac8a7","650c16f0f2faf8d7a0d14c09","651c1beaaa440d338183b16f","null","null","<p style=""font-size: 60px; font-family: BACS"">OcYMRDM</p>","","","","","","","","",""
"html-keyboard-response","176","672750","0.0-12.0-0.6","60edd136d544e7c8f5fac8a7","650c16f0f2faf8d7a0d14c09","651c1beaaa440d338183b16f","null","null","<p style=""font-size: 60px; font-family: BACS"">ldAaYNu</p>","","","","","","","","",""
"html-keyboard-response","177","673752","0.0-12.0-0.7","60edd136d544e7c8f5fac8a7","650c16f0f2faf8d7a0d14c09","651c1beaaa440d338183b16f","null","null","<p style=""font-size: 60px; font-family: BACS"">YQbcdmkv</p>","","","","","","","","",""
"html-keyboard-response","178","674760","0.0-12.0-0.8","60edd136d544e7c8f5fac8a7","650c16f0f2faf8d7a0d14c09","651c1beaaa440d338183b16f","null","null","<p style=""font-size: 60px; font-family: BACS"">JrGvkdrO</p>","","","","","","","","",""
"html-keyboard-response","179","675762","0.0-12.0-0.9","60edd136d544e7c8f5fac8a7","650c16f0f2faf8d7a0d14c09","651c1beaaa440d338183b16f","null","null","<p style=""font-size: 60px; font-family: BACS"">OLJblYNu</p>","","","","","","","","",""
"html-keyboard-response","180","676776","0.0-12.0-0.10","60edd136d544e7c8f5fac8a7","650c16f0f2faf8d7a0d14c09","651c1beaaa440d338183b16f","null","null","<p style=""font-size: 60px; font-family: BACS"">NvuGrdmkv</p>","","","","","","","","",""
"html-keyboard-response","181","677791","0.0-12.0-0.11","60edd136d544e7c8f5fac8a7","650c16f0f2faf8d7a0d14c09","651c1beaaa440d338183b16f","null","null","<p style=""font-size: 60px; font-family: BACS"">dMYBPCdt</p>","","","","","","","","",""
"html-keyboard-response","182","678801","0.0-12.0-0.12","60edd136d544e7c8f5fac8a7","650c16f0f2faf8d7a0d14c09","651c1beaaa440d338183b16f","null","null","<p style=""font-size: 60px; font-family: BACS"">tdDdRDM</p>","","","","","","","","",""
"html-keyboard-response","183","679808","0.0-12.0-0.13","60edd136d544e7c8f5fac8a7","650c16f0f2faf8d7a0d14c09","651c1beaaa440d338183b16f","null","null","<p style=""font-size: 60px; font-family: BACS"">rLkmdYAJ</p>","","","","","","","","",""
"html-keyboard-response","184","680829","0.0-12.0-0.14","60edd136d544e7c8f5fac8a7","650c16f0f2faf8d7a0d14c09","651c1beaaa440d338183b16f","null","null","<p style=""font-size: 60px; font-family: BACS"">YQbcYZUZ</p>","","","","","","","","",""
"html-keyboard-response","185","681834","0.0-12.0-0.15","60edd136d544e7c8f5fac8a7","650c16f0f2faf8d7a0d14c09","651c1beaaa440d338183b16f","null","null","<p style=""font-size: 60px; font-family: BACS"">OcYMcPK</p>","","","","","","","","",""
"html-keyboard-response","186","682840","0.0-12.0-0.16","60edd136d544e7c8f5fac8a7","650c16f0f2faf8d7a0d14c09","651c1beaaa440d338183b16f","null","null","<p style=""font-size: 60px; font-family: BACS"">KTDTBCdt</p>","","","","","","","","",""
"html-keyboard-response","187","683847","0.0-12.0-0.17","60edd136d544e7c8f5fac8a7","650c16f0f2faf8d7a0d14c09","651c1beaaa440d338183b16f","null","null","<p style=""font-size: 60px; font-family: BACS"">YJLcAdYAJ</p>","","","","","","","","",""
"html-keyboard-response","188","684871","0.0-12.0-0.18","60edd136d544e7c8f5fac8a7","650c16f0f2faf8d7a0d14c09","651c1beaaa440d338183b16f","null","null","<p style=""font-size: 60px; font-family: BACS"">lBKtcPK</p>","","","","","","","","",""
"html-keyboard-response","189","685887","0.0-12.0-0.19","60edd136d544e7c8f5fac8a7","650c16f0f2faf8d7a0d14c09","651c1beaaa440d338183b16f","null","null","<p style=""font-size: 60px; font-family: BACS"">NvuGrYZUZ</p>","","","","","","","","",""
"html-keyboard-response","190","686896","0.0-12.0-0.20","60edd136d544e7c8f5fac8a7","650c16f0f2faf8d7a0d14c09","651c1beaaa440d338183b16f","null","null","<p style=""font-size: 60px; font-family: BACS"">TklDcPK</p>","","","","","","","","",""
"html-keyboard-response","191","687904","0.0-12.0-0.21","60edd136d544e7c8f5fac8a7","650c16f0f2faf8d7a0d14c09","651c1beaaa440d338183b16f","null","null","<p style=""font-size: 60px; font-family: BACS"">YJLcAkdrO</p>","","","","","","","","",""
"html-keyboard-response","192","688921","0.0-12.0-0.22","60edd136d544e7c8f5fac8a7","650c16f0f2faf8d7a0d14c09","651c1beaaa440d338183b16f","null","null","<p style=""font-size: 60px; font-family: BACS"">NvuGrdYAJ</p>","","","","","","","","",""
"html-keyboard-response","193","689933","0.0-12.0-0.23","60edd136d544e7c8f5fac8a7","650c16f0f2faf8d7a0d14c09","651c1beaaa440d338183b16f","null","null","<p style=""font-size: 60px; font-family: BACS"">ldAakdrO</p>","","","","","","","","",""
"html-keyboard-response","194","690943","0.0-12.0-0.24","60edd136d544e7c8f5fac8a7","650c16f0f2faf8d7a0d14c09","651c1beaaa440d338183b16f","null","null","<p style=""font-size: 60px; font-family: BACS"">tdDdcPK</p>","","","","","","","","",""
"html-keyboard-response","195","691953","0.0-12.0-0.25","60edd136d544e7c8f5fac8a7","650c16f0f2faf8d7a0d14c09","651c1beaaa440d338183b16f","null","null","<p style=""font-size: 60px; font-family: BACS"">amJmYZUZ</p>","","","","","","","","",""
"html-keyboard-response","196","692969","0.0-12.0-0.26","60edd136d544e7c8f5fac8a7","650c16f0f2faf8d7a0d14c09","651c1beaaa440d338183b16f","null","null","<p style=""font-size: 60px; font-family: BACS"">YJLcAYNu</p>","","","","","","","","",""
"html-keyboard-response","197","693985","0.0-12.0-0.27","60edd136d544e7c8f5fac8a7","650c16f0f2faf8d7a0d14c09","651c1beaaa440d338183b16f","null","null","<p style=""font-size: 60px; font-family: BACS"">TklDAkd</p>","","","","","","","","",""
"html-keyboard-response","198","695002","0.0-12.0-0.28","60edd136d544e7c8f5fac8a7","650c16f0f2faf8d7a0d14c09","651c1beaaa440d338183b16f","null","null","<p style=""font-size: 60px; font-family: BACS"">CmcORDM</p>","","","","","","","","",""
"html-keyboard-response","199","696003","0.0-12.0-0.29","60edd136d544e7c8f5fac8a7","650c16f0f2faf8d7a0d14c09","651c1beaaa440d338183b16f","null","null","<p style=""font-size: 60px; font-family: BACS"">OcYMbRC</p>","","","","","","","","",""
"html-keyboard-response","200","697009","0.0-12.0-0.30","60edd136d544e7c8f5fac8a7","650c16f0f2faf8d7a0d14c09","651c1beaaa440d338183b16f","null","null","<p style=""font-size: 60px; font-family: BACS"">KTDTBAkd</p>","","","","","","","","",""
"html-keyboard-response","201","698017","0.0-12.0-0.31","60edd136d544e7c8f5fac8a7","650c16f0f2faf8d7a0d14c09","651c1beaaa440d338183b16f","null","null","<p style=""font-size: 60px; font-family: BACS"">OLJbldYAJ</p>","","","","","","","","",""
"html-keyboard-response","202","699032","0.0-12.0-0.32","60edd136d544e7c8f5fac8a7","650c16f0f2faf8d7a0d14c09","651c1beaaa440d338183b16f","null","null","<p style=""font-size: 60px; font-family: BACS"">TklDCdt</p>","","","","","","","","",""
"html-keyboard-response","203","700040","0.0-12.0-0.33","60edd136d544e7c8f5fac8a7","650c16f0f2faf8d7a0d14c09","651c1beaaa440d338183b16f","null","null","<p style=""font-size: 60px; font-family: BACS"">dMYBPbRC</p>","","","","","","","","",""
"html-keyboard-response","204","701049","0.0-12.0-0.34","60edd136d544e7c8f5fac8a7","650c16f0f2faf8d7a0d14c09","651c1beaaa440d338183b16f","null","null","<p style=""font-size: 60px; font-family: BACS"">rvUbdmkv</p>","","","","","","","","",""
"html-keyboard-response","205","702052","0.0-12.0-0.35","60edd136d544e7c8f5fac8a7","650c16f0f2faf8d7a0d14c09","651c1beaaa440d338183b16f","null","null","<p style=""font-size: 60px; font-family: BACS"">TklDRDM</p>","","","","","","","","",""
"html-keyboard-response","206","703063","0.0-12.0-0.36","60edd136d544e7c8f5fac8a7","650c16f0f2faf8d7a0d14c09","651c1beaaa440d338183b16f","null","null","<p style=""font-size: 60px; font-family: BACS"">CmcOAkd</p>","","","","","","","","",""
"html-keyboard-response","207","704071","0.0-12.0-0.37","60edd136d544e7c8f5fac8a7","650c16f0f2faf8d7a0d14c09","651c1beaaa440d338183b16f","null","null","<p style=""font-size: 60px; font-family: BACS"">UmNJkdrO</p>","","","","","","","","",""
"html-keyboard-response","208","705073","0.0-12.0-0.38","60edd136d544e7c8f5fac8a7","650c16f0f2faf8d7a0d14c09","651c1beaaa440d338183b16f","null","null","<p style=""font-size: 60px; font-family: BACS"">YQbcYNu</p>","","","","","","","","",""
"html-keyboard-response","209","706080","0.0-12.0-0.39","60edd136d544e7c8f5fac8a7","650c16f0f2faf8d7a0d14c09","651c1beaaa440d338183b16f","null","null","<p style=""font-size: 60px; font-family: BACS"">hChYAkd</p>","","","","","","","","",""
"html-keyboard-response","210","707084","0.0-12.0-0.40","60edd136d544e7c8f5fac8a7","650c16f0f2faf8d7a0d14c09","651c1beaaa440d338183b16f","null","null","<p style=""font-size: 60px; font-family: BACS"">cDOEBRDM</p>","","","","","","","","",""
"html-keyboard-response","211","708086","0.0-12.0-0.41","60edd136d544e7c8f5fac8a7","650c16f0f2faf8d7a0d14c09","651c1beaaa440d338183b16f","null","null","<p style=""font-size: 60px; font-family: BACS"">ldAadYAJ</p>","","","","","","","","",""
"html-keyboard-response","212","709087","0.0-12.0-0.42","60edd136d544e7c8f5fac8a7","650c16f0f2faf8d7a0d14c09","651c1beaaa440d338183b16f","null","null","<p style=""font-size: 60px; font-family: BACS"">KTDTBRDM</p>","","","","","","","","",""
"html-keyboard-response","213","710102","0.0-12.0-0.43","60edd136d544e7c8f5fac8a7","650c16f0f2faf8d7a0d14c09","651c1beaaa440d338183b16f","null","null","<p style=""font-size: 60px; font-family: BACS"">UmNJdmkv</p>","","","","","","","","",""
"html-keyboard-response","214","711105","0.0-12.0-0.44","60edd136d544e7c8f5fac8a7","650c16f0f2faf8d7a0d14c09","651c1beaaa440d338183b16f","null","null","<p style=""font-size: 60px; font-family: BACS"">dMYBPAkd</p>","","","","","","","","",""
"html-keyboard-response","215","712109","0.0-12.0-0.45","60edd136d544e7c8f5fac8a7","650c16f0f2faf8d7a0d14c09","651c1beaaa440d338183b16f","null","null","<p style=""font-size: 60px; font-family: BACS"">rLkmdmkv</p>","","","","","","","","",""
"html-keyboard-response","216","713117","0.0-12.0-0.46","60edd136d544e7c8f5fac8a7","650c16f0f2faf8d7a0d14c09","651c1beaaa440d338183b16f","null","null","<p style=""font-size: 60px; font-family: BACS"">lBKtRDM</p>","","","","","","","","",""
"html-keyboard-response","217","714118","0.0-12.0-0.47","60edd136d544e7c8f5fac8a7","650c16f0f2faf8d7a0d14c09","651c1beaaa440d338183b16f","null","null","<p style=""font-size: 60px; font-family: BACS"">tRdMcPK</p>","","","","","","","","",""
"html-keyboard-response","218","715130","0.0-12.0-0.48","60edd136d544e7c8f5fac8a7","650c16f0f2faf8d7a0d14c09","651c1beaaa440d338183b16f","null","null","<p style=""font-size: 60px; font-family: BACS"">UmNJYZUZ</p>","","","","","","","","",""
"html-keyboard-response","219","716141","0.0-12.0-0.49","60edd136d544e7c8f5fac8a7","650c16f0f2faf8d7a0d14c09","651c1beaaa440d338183b16f","null","null","<p style=""font-size: 60px; font-family: BACS"">rvUbYNu</p>","","","","","","","","",""
"html-keyboard-response","220","717147","0.0-12.0-0.50","60edd136d544e7c8f5fac8a7","650c16f0f2faf8d7a0d14c09","651c1beaaa440d338183b16f","null","null","<p style=""font-size: 60px; font-family: BACS"">cDOEBCdt</p>","","","","","","","","",""
"html-keyboard-response","221","718152","0.0-12.0-0.51","60edd136d544e7c8f5fac8a7","650c16f0f2faf8d7a0d14c09","651c1beaaa440d338183b16f","null","null","<p style=""font-size: 60px; font-family: BACS"">OLJbldmkv</p>","","","","","","","","",""
"html-keyboard-response","222","719154","0.0-12.0-0.52","60edd136d544e7c8f5fac8a7","650c16f0f2faf8d7a0d14c09","651c1beaaa440d338183b16f","null","null","<p style=""font-size: 60px; font-family: BACS"">OcYMAkd</p>","","","","","","","","",""
"html-keyboard-response","223","720157","0.0-12.0-0.53","60edd136d544e7c8f5fac8a7","650c16f0f2faf8d7a0d14c09","651c1beaaa440d338183b16f","null","null","<p style=""font-size: 60px; font-family: BACS"">OLJblkdrO</p>","","","","","","","","",""
"html-keyboard-response","224","721168","0.0-12.0-0.54","60edd136d544e7c8f5fac8a7","650c16f0f2faf8d7a0d14c09","651c1beaaa440d338183b16f","null","null","<p style=""font-size: 60px; font-family: BACS"">tRdMCdt</p>","","","","","","","","",""
"html-keyboard-response","225","722177","0.0-12.0-0.55","60edd136d544e7c8f5fac8a7","650c16f0f2faf8d7a0d14c09","651c1beaaa440d338183b16f","null","null","<p style=""font-size: 60px; font-family: BACS"">JrGvdYAJ</p>","","","","","","","","",""
"html-keyboard-response","226","723193","0.0-12.0-0.56","60edd136d544e7c8f5fac8a7","650c16f0f2faf8d7a0d14c09","651c1beaaa440d338183b16f","null","null","<p style=""font-size: 60px; font-family: BACS"">lBKtAkd</p>","","","","","","","","",""
"html-keyboard-response","227","724201","0.0-12.0-0.57","60edd136d544e7c8f5fac8a7","650c16f0f2faf8d7a0d14c09","651c1beaaa440d338183b16f","null","null","<p style=""font-size: 60px; font-family: BACS"">JrGvdmkv</p>","","","","","","","","",""
"html-keyboard-response","228","725211","0.0-12.0-0.58","60edd136d544e7c8f5fac8a7","650c16f0f2faf8d7a0d14c09","651c1beaaa440d338183b16f","null","null","<p style=""font-size: 60px; font-family: BACS"">NvuGrkdrO</p>","","","","","","","","",""
"html-keyboard-response","229","726213","0.0-12.0-0.59","60edd136d544e7c8f5fac8a7","650c16f0f2faf8d7a0d14c09","651c1beaaa440d338183b16f","null","null","<p style=""font-size: 60px; font-family: BACS"">UmNJYNu</p>","","","","","","","","",""
"html-keyboard-response","230","727224","0.0-12.0-0.60","60edd136d544e7c8f5fac8a7","650c16f0f2faf8d7a0d14c09","651c1beaaa440d338183b16f","null","null","<p style=""font-size: 60px; font-family: BACS"">YJLcAYZUZ</p>","","","","","","","","",""
"html-keyboard-response","231","728227","0.0-12.0-0.61","60edd136d544e7c8f5fac8a7","650c16f0f2faf8d7a0d14c09","651c1beaaa440d338183b16f","null","null","<p style=""font-size: 60px; font-family: BACS"">YQbcdYAJ</p>","","","","","","","","",""
"html-keyboard-response","232","729235","0.0-12.0-0.62","60edd136d544e7c8f5fac8a7","650c16f0f2faf8d7a0d14c09","651c1beaaa440d338183b16f","null","null","<p style=""font-size: 60px; font-family: BACS"">amJmkdrO</p>","","","","","","","","",""
"html-keyboard-response","233","730249","0.0-12.0-0.63","60edd136d544e7c8f5fac8a7","650c16f0f2faf8d7a0d14c09","651c1beaaa440d338183b16f","null","null","<p style=""font-size: 60px; font-family: BACS"">dMYBPcPK</p>","","","","","","","","",""
"html-keyboard-response","234","731254","0.0-12.0-0.64","60edd136d544e7c8f5fac8a7","650c16f0f2faf8d7a0d14c09","651c1beaaa440d338183b16f","null","null","<p style=""font-size: 60px; font-family: BACS"">lBKtCdt</p>","","","","","","","","",""
"html-keyboard-response","235","732265","0.0-12.0-0.65","60edd136d544e7c8f5fac8a7","650c16f0f2faf8d7a0d14c09","651c1beaaa440d338183b16f","null","null","<p style=""font-size: 60px; font-family: BACS"">hChYRDM</p>","","","","","","","","",""
"html-keyboard-response","236","733267","0.0-12.0-0.66","60edd136d544e7c8f5fac8a7","650c16f0f2faf8d7a0d14c09","651c1beaaa440d338183b16f","null","null","<p style=""font-size: 60px; font-family: BACS"">amJmYNu</p>","","","","","","","","",""
"html-keyboard-response","237","734282","0.0-12.0-0.67","60edd136d544e7c8f5fac8a7","650c16f0f2faf8d7a0d14c09","651c1beaaa440d338183b16f","null","null","<p style=""font-size: 60px; font-family: BACS"">tdDdbRC</p>","","","","","","","","",""
"html-keyboard-response","238","735292","0.0-12.0-0.68","60edd136d544e7c8f5fac8a7","650c16f0f2faf8d7a0d14c09","651c1beaaa440d338183b16f","null","null","<p style=""font-size: 60px; font-family: BACS"">cDOEBcPK</p>","","","","","","","","",""
"html-keyboard-response","239","736300","0.0-12.0-0.69","60edd136d544e7c8f5fac8a7","650c16f0f2faf8d7a0d14c09","651c1beaaa440d338183b16f","null","null","<p style=""font-size: 60px; font-family: BACS"">hChYbRC</p>","","","","","","","","",""
"html-keyboard-response","240","737311","0.0-12.0-0.70","60edd136d544e7c8f5fac8a7","650c16f0f2faf8d7a0d14c09","651c1beaaa440d338183b16f","null","null","<p style=""font-size: 60px; font-family: BACS"">CmcOCdt</p>","","","","","","","","",""
"html-keyboard-response","241","738313","0.0-12.0-0.71","60edd136d544e7c8f5fac8a7","650c16f0f2faf8d7a0d14c09","651c1beaaa440d338183b16f","null","null","<p style=""font-size: 60px; font-family: BACS"">ldAadmkv</p>","","","","","","","","",""
"html-keyboard-response","242","739315","0.0-12.0-0.72","60edd136d544e7c8f5fac8a7","650c16f0f2faf8d7a0d14c09","651c1beaaa440d338183b16f","null","null","<p style=""font-size: 60px; font-family: BACS"">CmcObRC</p>","","","","","","","","",""
"html-keyboard-response","243","740323","0.0-12.0-0.73","60edd136d544e7c8f5fac8a7","650c16f0f2faf8d7a0d14c09","651c1beaaa440d338183b16f","null","null","<p style=""font-size: 60px; font-family: BACS"">tdDdCdt</p>","","","","","","","","",""
"html-keyboard-response","244","741332","0.0-12.0-0.74","60edd136d544e7c8f5fac8a7","650c16f0f2faf8d7a0d14c09","651c1beaaa440d338183b16f","null","null","<p style=""font-size: 60px; font-family: BACS"">rLkmYZUZ</p>","","","","","","","","",""
"html-keyboard-response","245","742338","0.0-12.0-0.75","60edd136d544e7c8f5fac8a7","650c16f0f2faf8d7a0d14c09","651c1beaaa440d338183b16f","null","null","<p style=""font-size: 60px; font-family: BACS"">KTDTBbRC</p>","","","","","","","","",""
"html-keyboard-response","246","743345","0.0-12.0-0.76","60edd136d544e7c8f5fac8a7","650c16f0f2faf8d7a0d14c09","651c1beaaa440d338183b16f","null","null","<p style=""font-size: 60px; font-family: BACS"">JrGvYZUZ</p>","","","","","","","","",""
"html-keyboard-response","247","744355","0.0-12.0-0.77","60edd136d544e7c8f5fac8a7","650c16f0f2faf8d7a0d14c09","651c1beaaa440d338183b16f","null","null","<p style=""font-size: 60px; font-family: BACS"">tRdMAkd</p>","","","","","","","","",""
"html-keyboard-response","248","745366","0.0-12.0-0.78","60edd136d544e7c8f5fac8a7","650c16f0f2faf8d7a0d14c09","651c1beaaa440d338183b16f","null","null","<p style=""font-size: 60px; font-family: BACS"">rLkmYNu</p>","","","","","","","","",""
"html-keyboard-response","249","746381","0.0-12.0-0.79","60edd136d544e7c8f5fac8a7","650c16f0f2faf8d7a0d14c09","651c1beaaa440d338183b16f","null","null","<p style=""font-size: 60px; font-family: BACS"">rvUbkdrO</p>","","","","","","","","",""
"html-keyboard-response","250","868144","0.0-13.0","60edd136d544e7c8f5fac8a7","650c16f0f2faf8d7a0d14c09","651c1beaaa440d338183b16f","121762"," ","<p>Great, you've seen the third block of words. You may now take a short break.</p>
      <p>Press the spacebar when you're ready to continue.</p>","","","","","","","","",""
"html-keyboard-response","251","869150","0.0-14.0-0.0","60edd136d544e7c8f5fac8a7","650c16f0f2faf8d7a0d14c09","651c1beaaa440d338183b16f","null","null","<p style=""font-size: 60px; font-family: BACS"">JrGvYZUZ</p>","","","","","","","","",""
"html-keyboard-response","252","870156","0.0-14.0-0.1","60edd136d544e7c8f5fac8a7","650c16f0f2faf8d7a0d14c09","651c1beaaa440d338183b16f","null","null","<p style=""font-size: 60px; font-family: BACS"">OcYMRDM</p>","","","","","","","","",""
"html-keyboard-response","253","871165","0.0-14.0-0.2","60edd136d544e7c8f5fac8a7","650c16f0f2faf8d7a0d14c09","651c1beaaa440d338183b16f","null","null","<p style=""font-size: 60px; font-family: BACS"">tRdMAkd</p>","","","","","","","","",""
"html-keyboard-response","254","872182","0.0-14.0-0.3","60edd136d544e7c8f5fac8a7","650c16f0f2faf8d7a0d14c09","651c1beaaa440d338183b16f","null","null","<p style=""font-size: 60px; font-family: BACS"">hChYbRC</p>","","","","","","","","",""
"html-keyboard-response","255","873193","0.0-14.0-0.4","60edd136d544e7c8f5fac8a7","650c16f0f2faf8d7a0d14c09","651c1beaaa440d338183b16f","null","null","<p style=""font-size: 60px; font-family: BACS"">JrGvdYAJ</p>","","","","","","","","",""
"html-keyboard-response","256","874199","0.0-14.0-0.5","60edd136d544e7c8f5fac8a7","650c16f0f2faf8d7a0d14c09","651c1beaaa440d338183b16f","null","null","<p style=""font-size: 60px; font-family: BACS"">OLJbldmkv</p>","","","","","","","","",""
"html-keyboard-response","257","875207","0.0-14.0-0.6","60edd136d544e7c8f5fac8a7","650c16f0f2faf8d7a0d14c09","651c1beaaa440d338183b16f","null","null","<p style=""font-size: 60px; font-family: BACS"">hChYRDM</p>","","","","","","","","",""
"html-keyboard-response","258","876218","0.0-14.0-0.7","60edd136d544e7c8f5fac8a7","650c16f0f2faf8d7a0d14c09","651c1beaaa440d338183b16f","null","null","<p style=""font-size: 60px; font-family: BACS"">dMYBPcPK</p>","","","","","","","","",""
"html-keyboard-response","259","877227","0.0-14.0-0.8","60edd136d544e7c8f5fac8a7","650c16f0f2faf8d7a0d14c09","651c1beaaa440d338183b16f","null","null","<p style=""font-size: 60px; font-family: BACS"">KTDTBbRC</p>","","","","","","","","",""
"html-keyboard-response","260","878244","0.0-14.0-0.9","60edd136d544e7c8f5fac8a7","650c16f0f2faf8d7a0d14c09","651c1beaaa440d338183b16f","null","null","<p style=""font-size: 60px; font-family: BACS"">ldAaYNu</p>","","","","","","","","",""
"html-keyboard-response","261","879262","0.0-14.0-0.10","60edd136d544e7c8f5fac8a7","650c16f0f2faf8d7a0d14c09","651c1beaaa440d338183b16f","null","null","<p style=""font-size: 60px; font-family: BACS"">tRdMCdt</p>","","","","","","","","",""
"html-keyboard-response","262","880266","0.0-14.0-0.11","60edd136d544e7c8f5fac8a7","650c16f0f2faf8d7a0d14c09","651c1beaaa440d338183b16f","null","null","<p style=""font-size: 60px; font-family: BACS"">ldAadmkv</p>","","","","","","","","",""
"html-keyboard-response","263","881270","0.0-14.0-0.12","60edd136d544e7c8f5fac8a7","650c16f0f2faf8d7a0d14c09","651c1beaaa440d338183b16f","null","null","<p style=""font-size: 60px; font-family: BACS"">YJLcAdYAJ</p>","","","","","","","","",""
"html-keyboard-response","264","882283","0.0-14.0-0.13","60edd136d544e7c8f5fac8a7","650c16f0f2faf8d7a0d14c09","651c1beaaa440d338183b16f","null","null","<p style=""font-size: 60px; font-family: BACS"">hChYAkd</p>","","","","","","","","",""
"html-keyboard-response","265","883299","0.0-14.0-0.14","60edd136d544e7c8f5fac8a7","650c16f0f2faf8d7a0d14c09","651c1beaaa440d338183b16f","null","null","<p style=""font-size: 60px; font-family: BACS"">TklDCdt</p>","","","","","","","","",""
"html-keyboard-response","266","884314","0.0-14.0-0.15","60edd136d544e7c8f5fac8a7","650c16f0f2faf8d7a0d14c09","651c1beaaa440d338183b16f","null","null","<p style=""font-size: 60px; font-family: BACS"">YJLcAkdrO</p>","","","","","","","","",""
"html-keyboard-response","267","885316","0.0-14.0-0.16","60edd136d544e7c8f5fac8a7","650c16f0f2faf8d7a0d14c09","651c1beaaa440d338183b16f","null","null","<p style=""font-size: 60px; font-family: BACS"">lBKtcPK</p>","","","","","","","","",""
"html-keyboard-response","268","886324","0.0-14.0-0.17","60edd136d544e7c8f5fac8a7","650c16f0f2faf8d7a0d14c09","651c1beaaa440d338183b16f","null","null","<p style=""font-size: 60px; font-family: BACS"">OLJbldYAJ</p>","","","","","","","","",""
"html-keyboard-response","269","887330","0.0-14.0-0.18","60edd136d544e7c8f5fac8a7","650c16f0f2faf8d7a0d14c09","651c1beaaa440d338183b16f","null","null","<p style=""font-size: 60px; font-family: BACS"">amJmYNu</p>","","","","","","","","",""
"html-keyboard-response","270","888332","0.0-14.0-0.19","60edd136d544e7c8f5fac8a7","650c16f0f2faf8d7a0d14c09","651c1beaaa440d338183b16f","null","null","<p style=""font-size: 60px; font-family: BACS"">YQbcYZUZ</p>","","","","","","","","",""
"html-keyboard-response","271","889346","0.0-14.0-0.20","60edd136d544e7c8f5fac8a7","650c16f0f2faf8d7a0d14c09","651c1beaaa440d338183b16f","null","null","<p style=""font-size: 60px; font-family: BACS"">OcYMAkd</p>","","","","","","","","",""
"html-keyboard-response","272","890362","0.0-14.0-0.21","60edd136d544e7c8f5fac8a7","650c16f0f2faf8d7a0d14c09","651c1beaaa440d338183b16f","null","null","<p style=""font-size: 60px; font-family: BACS"">tdDdCdt</p>","","","","","","","","",""
"html-keyboard-response","273","891372","0.0-14.0-0.22","60edd136d544e7c8f5fac8a7","650c16f0f2faf8d7a0d14c09","651c1beaaa440d338183b16f","null","null","<p style=""font-size: 60px; font-family: BACS"">NvuGrdmkv</p>","","","","","","","","",""
"html-keyboard-response","274","892388","0.0-14.0-0.23","60edd136d544e7c8f5fac8a7","650c16f0f2faf8d7a0d14c09","651c1beaaa440d338183b16f","null","null","<p style=""font-size: 60px; font-family: BACS"">OLJblkdrO</p>","","","","","","","","",""
"html-keyboard-response","275","893396","0.0-14.0-0.24","60edd136d544e7c8f5fac8a7","650c16f0f2faf8d7a0d14c09","651c1beaaa440d338183b16f","null","null","<p style=""font-size: 60px; font-family: BACS"">rLkmYNu</p>","","","","","","","","",""
"html-keyboard-response","276","894407","0.0-14.0-0.25","60edd136d544e7c8f5fac8a7","650c16f0f2faf8d7a0d14c09","651c1beaaa440d338183b16f","null","null","<p style=""font-size: 60px; font-family: BACS"">CmcOAkd</p>","","","","","","","","",""
"html-keyboard-response","277","895420","0.0-14.0-0.26","60edd136d544e7c8f5fac8a7","650c16f0f2faf8d7a0d14c09","651c1beaaa440d338183b16f","null","null","<p style=""font-size: 60px; font-family: BACS"">rvUbdmkv</p>","","","","","","","","",""
"html-keyboard-response","278","896427","0.0-14.0-0.27","60edd136d544e7c8f5fac8a7","650c16f0f2faf8d7a0d14c09","651c1beaaa440d338183b16f","null","null","<p style=""font-size: 60px; font-family: BACS"">amJmkdrO</p>","","","","","","","","",""
"html-keyboard-response","279","897444","0.0-14.0-0.28","60edd136d544e7c8f5fac8a7","650c16f0f2faf8d7a0d14c09","651c1beaaa440d338183b16f","null","null","<p style=""font-size: 60px; font-family: BACS"">lBKtRDM</p>","","","","","","","","",""
"html-keyboard-response","280","898448","0.0-14.0-0.29","60edd136d544e7c8f5fac8a7","650c16f0f2faf8d7a0d14c09","651c1beaaa440d338183b16f","null","null","<p style=""font-size: 60px; font-family: BACS"">rvUbYZUZ</p>","","","","","","","","",""
"html-keyboard-response","281","899459","0.0-14.0-0.30","60edd136d544e7c8f5fac8a7","650c16f0f2faf8d7a0d14c09","651c1beaaa440d338183b16f","null","null","<p style=""font-size: 60px; font-family: BACS"">ldAadYAJ</p>","","","","","","","","",""
"html-keyboard-response","282","900468","0.0-14.0-0.31","60edd136d544e7c8f5fac8a7","650c16f0f2faf8d7a0d14c09","651c1beaaa440d338183b16f","null","null","<p style=""font-size: 60px; font-family: BACS"">UmNJkdrO</p>","","","","","","","","",""
"html-keyboard-response","283","901476","0.0-14.0-0.32","60edd136d544e7c8f5fac8a7","650c16f0f2faf8d7a0d14c09","651c1beaaa440d338183b16f","null","null","<p style=""font-size: 60px; font-family: BACS"">OLJblYNu</p>","","","","","","","","",""
"html-keyboard-response","284","902485","0.0-14.0-0.33","60edd136d544e7c8f5fac8a7","650c16f0f2faf8d7a0d14c09","651c1beaaa440d338183b16f","null","null","<p style=""font-size: 60px; font-family: BACS"">YJLcAYZUZ</p>","","","","","","","","",""
"html-keyboard-response","285","903493","0.0-14.0-0.34","60edd136d544e7c8f5fac8a7","650c16f0f2faf8d7a0d14c09","651c1beaaa440d338183b16f","null","null","<p style=""font-size: 60px; font-family: BACS"">rLkmdmkv</p>","","","","","","","","",""
"html-keyboard-response","286","904507","0.0-14.0-0.35","60edd136d544e7c8f5fac8a7","650c16f0f2faf8d7a0d14c09","651c1beaaa440d338183b16f","null","null","<p style=""font-size: 60px; font-family: BACS"">UmNJYNu</p>","","","","","","","","",""
"html-keyboard-response","287","905525","0.0-14.0-0.36","60edd136d544e7c8f5fac8a7","650c16f0f2faf8d7a0d14c09","651c1beaaa440d338183b16f","null","null","<p style=""font-size: 60px; font-family: BACS"">tdDdbRC</p>","","","","","","","","",""
"html-keyboard-response","288","906539","0.0-14.0-0.37","60edd136d544e7c8f5fac8a7","650c16f0f2faf8d7a0d14c09","651c1beaaa440d338183b16f","null","null","<p style=""font-size: 60px; font-family: BACS"">cDOEBRDM</p>","","","","","","","","",""
"html-keyboard-response","289","907553","0.0-14.0-0.38","60edd136d544e7c8f5fac8a7","650c16f0f2faf8d7a0d14c09","651c1beaaa440d338183b16f","null","null","<p style=""font-size: 60px; font-family: BACS"">JrGvkdrO</p>","","","","","","","","",""
"html-keyboard-response","290","908557","0.0-14.0-0.39","60edd136d544e7c8f5fac8a7","650c16f0f2faf8d7a0d14c09","651c1beaaa440d338183b16f","null","null","<p style=""font-size: 60px; font-family: BACS"">amJmdYAJ</p>","","","","","","","","",""
"html-keyboard-response","291","909572","0.0-14.0-0.40","60edd136d544e7c8f5fac8a7","650c16f0f2faf8d7a0d14c09","651c1beaaa440d338183b16f","null","null","<p style=""font-size: 60px; font-family: BACS"">CmcObRC</p>","","","","","","","","",""
"html-keyboard-response","292","910587","0.0-14.0-0.41","60edd136d544e7c8f5fac8a7","650c16f0f2faf8d7a0d14c09","651c1beaaa440d338183b16f","null","null","<p style=""font-size: 60px; font-family: BACS"">tdDdRDM</p>","","","","","","","","",""
"html-keyboard-response","293","911598","0.0-14.0-0.42","60edd136d544e7c8f5fac8a7","650c16f0f2faf8d7a0d14c09","651c1beaaa440d338183b16f","null","null","<p style=""font-size: 60px; font-family: BACS"">amJmYZUZ</p>","","","","","","","","",""
"html-keyboard-response","294","912604","0.0-14.0-0.43","60edd136d544e7c8f5fac8a7","650c16f0f2faf8d7a0d14c09","651c1beaaa440d338183b16f","null","null","<p style=""font-size: 60px; font-family: BACS"">CmcORDM</p>","","","","","","","","",""
"html-keyboard-response","295","913606","0.0-14.0-0.44","60edd136d544e7c8f5fac8a7","650c16f0f2faf8d7a0d14c09","651c1beaaa440d338183b16f","null","null","<p style=""font-size: 60px; font-family: BACS"">lBKtAkd</p>","","","","","","","","",""
"html-keyboard-response","296","914617","0.0-14.0-0.45","60edd136d544e7c8f5fac8a7","650c16f0f2faf8d7a0d14c09","651c1beaaa440d338183b16f","null","null","<p style=""font-size: 60px; font-family: BACS"">KTDTBCdt</p>","","","","","","","","",""
"html-keyboard-response","297","915628","0.0-14.0-0.46","60edd136d544e7c8f5fac8a7","650c16f0f2faf8d7a0d14c09","651c1beaaa440d338183b16f","null","null","<p style=""font-size: 60px; font-family: BACS"">NvuGrkdrO</p>","","","","","","","","",""
"html-keyboard-response","298","916636","0.0-14.0-0.47","60edd136d544e7c8f5fac8a7","650c16f0f2faf8d7a0d14c09","651c1beaaa440d338183b16f","null","null","<p style=""font-size: 60px; font-family: BACS"">rvUbYNu</p>","","","","","","","","",""
"html-keyboard-response","299","917645","0.0-14.0-0.48","60edd136d544e7c8f5fac8a7","650c16f0f2faf8d7a0d14c09","651c1beaaa440d338183b16f","null","null","<p style=""font-size: 60px; font-family: BACS"">KTDTBRDM</p>","","","","","","","","",""
"html-keyboard-response","300","918652","0.0-14.0-0.49","60edd136d544e7c8f5fac8a7","650c16f0f2faf8d7a0d14c09","651c1beaaa440d338183b16f","null","null","<p style=""font-size: 60px; font-family: BACS"">tRdMbRC</p>","","","","","","","","",""
"html-keyboard-response","301","919674","0.0-14.0-0.50","60edd136d544e7c8f5fac8a7","650c16f0f2faf8d7a0d14c09","651c1beaaa440d338183b16f","null","null","<p style=""font-size: 60px; font-family: BACS"">YQbcYNu</p>","","","","","","","","",""
"html-keyboard-response","302","920684","0.0-14.0-0.51","60edd136d544e7c8f5fac8a7","650c16f0f2faf8d7a0d14c09","651c1beaaa440d338183b16f","null","null","<p style=""font-size: 60px; font-family: BACS"">cDOEBcPK</p>","","","","","","","","",""
"html-keyboard-response","303","921700","0.0-14.0-0.52","60edd136d544e7c8f5fac8a7","650c16f0f2faf8d7a0d14c09","651c1beaaa440d338183b16f","null","null","<p style=""font-size: 60px; font-family: BACS"">KTDTBAkd</p>","","","","","","","","",""
"html-keyboard-response","304","922717","0.0-14.0-0.53","60edd136d544e7c8f5fac8a7","650c16f0f2faf8d7a0d14c09","651c1beaaa440d338183b16f","null","null","<p style=""font-size: 60px; font-family: BACS"">NvuGrYZUZ</p>","","","","","","","","",""
"html-keyboard-response","305","923732","0.0-14.0-0.54","60edd136d544e7c8f5fac8a7","650c16f0f2faf8d7a0d14c09","651c1beaaa440d338183b16f","null","null","<p style=""font-size: 60px; font-family: BACS"">lBKtCdt</p>","","","","","","","","",""
"html-keyboard-response","306","924743","0.0-14.0-0.55","60edd136d544e7c8f5fac8a7","650c16f0f2faf8d7a0d14c09","651c1beaaa440d338183b16f","null","null","<p style=""font-size: 60px; font-family: BACS"">dMYBPbRC</p>","","","","","","","","",""
"html-keyboard-response","307","925754","0.0-14.0-0.56","60edd136d544e7c8f5fac8a7","650c16f0f2faf8d7a0d14c09","651c1beaaa440d338183b16f","null","null","<p style=""font-size: 60px; font-family: BACS"">tRdMcPK</p>","","","","","","","","",""
"html-keyboard-response","308","926757","0.0-14.0-0.57","60edd136d544e7c8f5fac8a7","650c16f0f2faf8d7a0d14c09","651c1beaaa440d338183b16f","null","null","<p style=""font-size: 60px; font-family: BACS"">dMYBPAkd</p>","","","","","","","","",""
"html-keyboard-response","309","927770","0.0-14.0-0.58","60edd136d544e7c8f5fac8a7","650c16f0f2faf8d7a0d14c09","651c1beaaa440d338183b16f","null","null","<p style=""font-size: 60px; font-family: BACS"">rLkmYZUZ</p>","","","","","","","","",""
"html-keyboard-response","310","928779","0.0-14.0-0.59","60edd136d544e7c8f5fac8a7","650c16f0f2faf8d7a0d14c09","651c1beaaa440d338183b16f","null","null","<p style=""font-size: 60px; font-family: BACS"">UmNJdmkv</p>","","","","","","","","",""
"html-keyboard-response","311","929788","0.0-14.0-0.60","60edd136d544e7c8f5fac8a7","650c16f0f2faf8d7a0d14c09","651c1beaaa440d338183b16f","null","null","<p style=""font-size: 60px; font-family: BACS"">tdDdcPK</p>","","","","","","","","",""
"html-keyboard-response","312","930797","0.0-14.0-0.61","60edd136d544e7c8f5fac8a7","650c16f0f2faf8d7a0d14c09","651c1beaaa440d338183b16f","null","null","<p style=""font-size: 60px; font-family: BACS"">CmcOCdt</p>","","","","","","","","",""
"html-keyboard-response","313","931809","0.0-14.0-0.62","60edd136d544e7c8f5fac8a7","650c16f0f2faf8d7a0d14c09","651c1beaaa440d338183b16f","null","null","<p style=""font-size: 60px; font-family: BACS"">OcYMbRC</p>","","","","","","","","",""
"html-keyboard-response","314","932813","0.0-14.0-0.63","60edd136d544e7c8f5fac8a7","650c16f0f2faf8d7a0d14c09","651c1beaaa440d338183b16f","null","null","<p style=""font-size: 60px; font-family: BACS"">rLkmdYAJ</p>","","","","","","","","",""
"html-keyboard-response","315","933829","0.0-14.0-0.64","60edd136d544e7c8f5fac8a7","650c16f0f2faf8d7a0d14c09","651c1beaaa440d338183b16f","null","null","<p style=""font-size: 60px; font-family: BACS"">TklDAkd</p>","","","","","","","","",""
"html-keyboard-response","316","934836","0.0-14.0-0.65","60edd136d544e7c8f5fac8a7","650c16f0f2faf8d7a0d14c09","651c1beaaa440d338183b16f","null","null","<p style=""font-size: 60px; font-family: BACS"">rvUbkdrO</p>","","","","","","","","",""
"html-keyboard-response","317","935849","0.0-14.0-0.66","60edd136d544e7c8f5fac8a7","650c16f0f2faf8d7a0d14c09","651c1beaaa440d338183b16f","null","null","<p style=""font-size: 60px; font-family: BACS"">TklDcPK</p>","","","","","","","","",""
"html-keyboard-response","318","936861","0.0-14.0-0.67","60edd136d544e7c8f5fac8a7","650c16f0f2faf8d7a0d14c09","651c1beaaa440d338183b16f","null","null","<p style=""font-size: 60px; font-family: BACS"">YQbcdYAJ</p>","","","","","","","","",""
"html-keyboard-response","319","937871","0.0-14.0-0.68","60edd136d544e7c8f5fac8a7","650c16f0f2faf8d7a0d14c09","651c1beaaa440d338183b16f","null","null","<p style=""font-size: 60px; font-family: BACS"">OcYMcPK</p>","","","","","","","","",""
"html-keyboard-response","320","938879","0.0-14.0-0.69","60edd136d544e7c8f5fac8a7","650c16f0f2faf8d7a0d14c09","651c1beaaa440d338183b16f","null","null","<p style=""font-size: 60px; font-family: BACS"">TklDRDM</p>","","","","","","","","",""
"html-keyboard-response","321","939888","0.0-14.0-0.70","60edd136d544e7c8f5fac8a7","650c16f0f2faf8d7a0d14c09","651c1beaaa440d338183b16f","null","null","<p style=""font-size: 60px; font-family: BACS"">YQbcdmkv</p>","","","","","","","","",""
"html-keyboard-response","322","940899","0.0-14.0-0.71","60edd136d544e7c8f5fac8a7","650c16f0f2faf8d7a0d14c09","651c1beaaa440d338183b16f","null","null","<p style=""font-size: 60px; font-family: BACS"">hChYcPK</p>","","","","","","","","",""
"html-keyboard-response","323","941902","0.0-14.0-0.72","60edd136d544e7c8f5fac8a7","650c16f0f2faf8d7a0d14c09","651c1beaaa440d338183b16f","null","null","<p style=""font-size: 60px; font-family: BACS"">ldAakdrO</p>","","","","","","","","",""
"html-keyboard-response","324","942917","0.0-14.0-0.73","60edd136d544e7c8f5fac8a7","650c16f0f2faf8d7a0d14c09","651c1beaaa440d338183b16f","null","null","<p style=""font-size: 60px; font-family: BACS"">cDOEBbRC</p>","","","","","","","","",""
"html-keyboard-response","325","943933","0.0-14.0-0.74","60edd136d544e7c8f5fac8a7","650c16f0f2faf8d7a0d14c09","651c1beaaa440d338183b16f","null","null","<p style=""font-size: 60px; font-family: BACS"">dMYBPCdt</p>","","","","","","","","",""
"html-keyboard-response","326","944944","0.0-14.0-0.75","60edd136d544e7c8f5fac8a7","650c16f0f2faf8d7a0d14c09","651c1beaaa440d338183b16f","null","null","<p style=""font-size: 60px; font-family: BACS"">JrGvdmkv</p>","","","","","","","","",""
"html-keyboard-response","327","945955","0.0-14.0-0.76","60edd136d544e7c8f5fac8a7","650c16f0f2faf8d7a0d14c09","651c1beaaa440d338183b16f","null","null","<p style=""font-size: 60px; font-family: BACS"">YJLcAYNu</p>","","","","","","","","",""
"html-keyboard-response","328","946966","0.0-14.0-0.77","60edd136d544e7c8f5fac8a7","650c16f0f2faf8d7a0d14c09","651c1beaaa440d338183b16f","null","null","<p style=""font-size: 60px; font-family: BACS"">NvuGrdYAJ</p>","","","","","","","","",""
"html-keyboard-response","329","947970","0.0-14.0-0.78","60edd136d544e7c8f5fac8a7","650c16f0f2faf8d7a0d14c09","651c1beaaa440d338183b16f","null","null","<p style=""font-size: 60px; font-family: BACS"">UmNJYZUZ</p>","","","","","","","","",""
"html-keyboard-response","330","948984","0.0-14.0-0.79","60edd136d544e7c8f5fac8a7","650c16f0f2faf8d7a0d14c09","651c1beaaa440d338183b16f","null","null","<p style=""font-size: 60px; font-family: BACS"">cDOEBCdt</p>","","","","","","","","",""
"html-keyboard-response","331","979607","0.0-15.0","60edd136d544e7c8f5fac8a7","650c16f0f2faf8d7a0d14c09","651c1beaaa440d338183b16f","30622"," ","<p>Great, you've seen the fourth block of words. You may now take a short break.</p>
      <p>Press the spacebar when you're ready to continue.</p>","","","","","","","","",""
"html-keyboard-response","332","980623","0.0-16.0-0.0","60edd136d544e7c8f5fac8a7","650c16f0f2faf8d7a0d14c09","651c1beaaa440d338183b16f","null","null","<p style=""font-size: 60px; font-family: BACS"">rLkmdmkv</p>","","","","","","","","",""
"html-keyboard-response","333","981628","0.0-16.0-0.1","60edd136d544e7c8f5fac8a7","650c16f0f2faf8d7a0d14c09","651c1beaaa440d338183b16f","null","null","<p style=""font-size: 60px; font-family: BACS"">rLkmdmkv</p>","","","","","","","","",""
"html-keyboard-response","334","982639","0.0-16.0-0.2","60edd136d544e7c8f5fac8a7","650c16f0f2faf8d7a0d14c09","651c1beaaa440d338183b16f","null","null","<p style=""font-size: 60px; font-family: BACS"">rLkmdmkv</p>","","","","","","","","",""
"html-keyboard-response","335","983656","0.0-16.0-0.3","60edd136d544e7c8f5fac8a7","650c16f0f2faf8d7a0d14c09","651c1beaaa440d338183b16f","null","null","<p style=""font-size: 60px; font-family: BACS"">rLkmdmkv</p>","","","","","","","","",""
"html-keyboard-response","336","984665","0.0-16.0-0.4","60edd136d544e7c8f5fac8a7","650c16f0f2faf8d7a0d14c09","651c1beaaa440d338183b16f","null","null","<p style=""font-size: 60px; font-family: BACS"">rLkmdmkv</p>","","","","","","","","",""
"html-keyboard-response","337","985676","0.0-16.0-0.5","60edd136d544e7c8f5fac8a7","650c16f0f2faf8d7a0d14c09","651c1beaaa440d338183b16f","null","null","<p style=""font-size: 60px; font-family: BACS"">rLkmdmkv</p>","","","","","","","","",""
"html-keyboard-response","338","986688","0.0-16.0-0.6","60edd136d544e7c8f5fac8a7","650c16f0f2faf8d7a0d14c09","651c1beaaa440d338183b16f","null","null","<p style=""font-size: 60px; font-family: BACS"">rLkmdmkv</p>","","","","","","","","",""
"html-keyboard-response","339","987702","0.0-16.0-0.7","60edd136d544e7c8f5fac8a7","650c16f0f2faf8d7a0d14c09","651c1beaaa440d338183b16f","null","null","<p style=""font-size: 60px; font-family: BACS"">rLkmdmkv</p>","","","","","","","","",""
"html-keyboard-response","340","988704","0.0-16.0-0.8","60edd136d544e7c8f5fac8a7","650c16f0f2faf8d7a0d14c09","651c1beaaa440d338183b16f","null","null","<p style=""font-size: 60px; font-family: BACS"">rLkmdmkv</p>","","","","","","","","",""
"html-keyboard-response","341","989708","0.0-16.0-0.9","60edd136d544e7c8f5fac8a7","650c16f0f2faf8d7a0d14c09","651c1beaaa440d338183b16f","null","null","<p style=""font-size: 60px; font-family: BACS"">rLkmdmkv</p>","","","","","","","","",""
"html-keyboard-response","342","990723","0.0-16.0-0.10","60edd136d544e7c8f5fac8a7","650c16f0f2faf8d7a0d14c09","651c1beaaa440d338183b16f","null","null","<p style=""font-size: 60px; font-family: BACS"">rLkmdmkv</p>","","","","","","","","",""
"html-keyboard-response","343","991724","0.0-16.0-0.11","60edd136d544e7c8f5fac8a7","650c16f0f2faf8d7a0d14c09","651c1beaaa440d338183b16f","null","null","<p style=""font-size: 60px; font-family: BACS"">rLkmdmkv</p>","","","","","","","","",""
"html-keyboard-response","344","992734","0.0-16.0-0.12","60edd136d544e7c8f5fac8a7","650c16f0f2faf8d7a0d14c09","651c1beaaa440d338183b16f","null","null","<p style=""font-size: 60px; font-family: BACS"">rLkmdmkv</p>","","","","","","","","",""
"html-keyboard-response","345","993736","0.0-16.0-0.13","60edd136d544e7c8f5fac8a7","650c16f0f2faf8d7a0d14c09","651c1beaaa440d338183b16f","null","null","<p style=""font-size: 60px; font-family: BACS"">rLkmdmkv</p>","","","","","","","","",""
"html-keyboard-response","346","994745","0.0-16.0-0.14","60edd136d544e7c8f5fac8a7","650c16f0f2faf8d7a0d14c09","651c1beaaa440d338183b16f","null","null","<p style=""font-size: 60px; font-family: BACS"">rLkmdmkv</p>","","","","","","","","",""
"html-keyboard-response","347","995748","0.0-16.0-0.15","60edd136d544e7c8f5fac8a7","650c16f0f2faf8d7a0d14c09","651c1beaaa440d338183b16f","null","null","<p style=""font-size: 60px; font-family: BACS"">rLkmdmkv</p>","","","","","","","","",""
"html-keyboard-response","348","996764","0.0-16.0-0.16","60edd136d544e7c8f5fac8a7","650c16f0f2faf8d7a0d14c09","651c1beaaa440d338183b16f","null","null","<p style=""font-size: 60px; font-family: BACS"">rLkmdmkv</p>","","","","","","","","",""
"html-keyboard-response","349","997765","0.0-16.0-0.17","60edd136d544e7c8f5fac8a7","650c16f0f2faf8d7a0d14c09","651c1beaaa440d338183b16f","null","null","<p style=""font-size: 60px; font-family: BACS"">rLkmdmkv</p>","","","","","","","","",""
"html-keyboard-response","350","998766","0.0-16.0-0.18","60edd136d544e7c8f5fac8a7","650c16f0f2faf8d7a0d14c09","651c1beaaa440d338183b16f","null","null","<p style=""font-size: 60px; font-family: BACS"">rLkmdmkv</p>","","","","","","","","",""
"html-keyboard-response","351","999782","0.0-16.0-0.19","60edd136d544e7c8f5fac8a7","650c16f0f2faf8d7a0d14c09","651c1beaaa440d338183b16f","null","null","<p style=""font-size: 60px; font-family: BACS"">rLkmdmkv</p>","","","","","","","","",""
"html-keyboard-response","352","1000784","0.0-16.0-0.20","60edd136d544e7c8f5fac8a7","650c16f0f2faf8d7a0d14c09","651c1beaaa440d338183b16f","null","null","<p style=""font-size: 60px; font-family: BACS"">rLkmdmkv</p>","","","","","","","","",""
"html-keyboard-response","353","1001792","0.0-16.0-0.21","60edd136d544e7c8f5fac8a7","650c16f0f2faf8d7a0d14c09","651c1beaaa440d338183b16f","null","null","<p style=""font-size: 60px; font-family: BACS"">rLkmdmkv</p>","","","","","","","","",""
"html-keyboard-response","354","1002799","0.0-16.0-0.22","60edd136d544e7c8f5fac8a7","650c16f0f2faf8d7a0d14c09","651c1beaaa440d338183b16f","null","null","<p style=""font-size: 60px; font-family: BACS"">rLkmdmkv</p>","","","","","","","","",""
"html-keyboard-response","355","1003809","0.0-16.0-0.23","60edd136d544e7c8f5fac8a7","650c16f0f2faf8d7a0d14c09","651c1beaaa440d338183b16f","null","null","<p style=""font-size: 60px; font-family: BACS"">rLkmdmkv</p>","","","","","","","","",""
"html-keyboard-response","356","1004810","0.0-16.0-0.24","60edd136d544e7c8f5fac8a7","650c16f0f2faf8d7a0d14c09","651c1beaaa440d338183b16f","null","null","<p style=""font-size: 60px; font-family: BACS"">rLkmdmkv</p>","","","","","","","","",""
"html-keyboard-response","357","1005820","0.0-16.0-0.25","60edd136d544e7c8f5fac8a7","650c16f0f2faf8d7a0d14c09","651c1beaaa440d338183b16f","null","null","<p style=""font-size: 60px; font-family: BACS"">rLkmdmkv</p>","","","","","","","","",""
"html-keyboard-response","358","1006830","0.0-16.0-0.26","60edd136d544e7c8f5fac8a7","650c16f0f2faf8d7a0d14c09","651c1beaaa440d338183b16f","null","null","<p style=""font-size: 60px; font-family: BACS"">rLkmdmkv</p>","","","","","","","","",""
"html-keyboard-response","359","1007838","0.0-16.0-0.27","60edd136d544e7c8f5fac8a7","650c16f0f2faf8d7a0d14c09","651c1beaaa440d338183b16f","null","null","<p style=""font-size: 60px; font-family: BACS"">rLkmdmkv</p>","","","","","","","","",""
"html-keyboard-response","360","1008855","0.0-16.0-0.28","60edd136d544e7c8f5fac8a7","650c16f0f2faf8d7a0d14c09","651c1beaaa440d338183b16f","null","null","<p style=""font-size: 60px; font-family: BACS"">rLkmdmkv</p>","","","","","","","","",""
"html-keyboard-response","361","1009861","0.0-16.0-0.29","60edd136d544e7c8f5fac8a7","650c16f0f2faf8d7a0d14c09","651c1beaaa440d338183b16f","null","null","<p style=""font-size: 60px; font-family: BACS"">rLkmdmkv</p>","","","","","","","","",""
"html-keyboard-response","362","1010875","0.0-16.0-0.30","60edd136d544e7c8f5fac8a7","650c16f0f2faf8d7a0d14c09","651c1beaaa440d338183b16f","null","null","<p style=""font-size: 60px; font-family: BACS"">rLkmdmkv</p>","","","","","","","","",""
"html-keyboard-response","363","1011886","0.0-16.0-0.31","60edd136d544e7c8f5fac8a7","650c16f0f2faf8d7a0d14c09","651c1beaaa440d338183b16f","null","null","<p style=""font-size: 60px; font-family: BACS"">rLkmdmkv</p>","","","","","","","","",""
"html-keyboard-response","364","1012892","0.0-16.0-0.32","60edd136d544e7c8f5fac8a7","650c16f0f2faf8d7a0d14c09","651c1beaaa440d338183b16f","null","null","<p style=""font-size: 60px; font-family: BACS"">rLkmdmkv</p>","","","","","","","","",""
"html-keyboard-response","365","1013909","0.0-16.0-0.33","60edd136d544e7c8f5fac8a7","650c16f0f2faf8d7a0d14c09","651c1beaaa440d338183b16f","null","null","<p style=""font-size: 60px; font-family: BACS"">rLkmdmkv</p>","","","","","","","","",""
"html-keyboard-response","366","1014925","0.0-16.0-0.34","60edd136d544e7c8f5fac8a7","650c16f0f2faf8d7a0d14c09","651c1beaaa440d338183b16f","null","null","<p style=""font-size: 60px; font-family: BACS"">rLkmdmkv</p>","","","","","","","","",""
"html-keyboard-response","367","1015935","0.0-16.0-0.35","60edd136d544e7c8f5fac8a7","650c16f0f2faf8d7a0d14c09","651c1beaaa440d338183b16f","null","null","<p style=""font-size: 60px; font-family: BACS"">rLkmdmkv</p>","","","","","","","","",""
"html-keyboard-response","368","1016950","0.0-16.0-0.36","60edd136d544e7c8f5fac8a7","650c16f0f2faf8d7a0d14c09","651c1beaaa440d338183b16f","null","null","<p style=""font-size: 60px; font-family: BACS"">rLkmdmkv</p>","","","","","","","","",""
"html-keyboard-response","369","1017957","0.0-16.0-0.37","60edd136d544e7c8f5fac8a7","650c16f0f2faf8d7a0d14c09","651c1beaaa440d338183b16f","null","null","<p style=""font-size: 60px; font-family: BACS"">rLkmdmkv</p>","","","","","","","","",""
"html-keyboard-response","370","1018964","0.0-16.0-0.38","60edd136d544e7c8f5fac8a7","650c16f0f2faf8d7a0d14c09","651c1beaaa440d338183b16f","null","null","<p style=""font-size: 60px; font-family: BACS"">rLkmdmkv</p>","","","","","","","","",""
"html-keyboard-response","371","1019967","0.0-16.0-0.39","60edd136d544e7c8f5fac8a7","650c16f0f2faf8d7a0d14c09","651c1beaaa440d338183b16f","null","null","<p style=""font-size: 60px; font-family: BACS"">rLkmdmkv</p>","","","","","","","","",""
"html-keyboard-response","372","1020973","0.0-16.0-0.40","60edd136d544e7c8f5fac8a7","650c16f0f2faf8d7a0d14c09","651c1beaaa440d338183b16f","null","null","<p style=""font-size: 60px; font-family: BACS"">rLkmdmkv</p>","","","","","","","","",""
"html-keyboard-response","373","1021980","0.0-16.0-0.41","60edd136d544e7c8f5fac8a7","650c16f0f2faf8d7a0d14c09","651c1beaaa440d338183b16f","null","null","<p style=""font-size: 60px; font-family: BACS"">rLkmdmkv</p>","","","","","","","","",""
"html-keyboard-response","374","1022984","0.0-16.0-0.42","60edd136d544e7c8f5fac8a7","650c16f0f2faf8d7a0d14c09","651c1beaaa440d338183b16f","null","null","<p style=""font-size: 60px; font-family: BACS"">rLkmdmkv</p>","","","","","","","","",""
"html-keyboard-response","375","1023998","0.0-16.0-0.43","60edd136d544e7c8f5fac8a7","650c16f0f2faf8d7a0d14c09","651c1beaaa440d338183b16f","null","null","<p style=""font-size: 60px; font-family: BACS"">rLkmdmkv</p>","","","","","","","","",""
"html-keyboard-response","376","1025003","0.0-16.0-0.44","60edd136d544e7c8f5fac8a7","650c16f0f2faf8d7a0d14c09","651c1beaaa440d338183b16f","null","null","<p style=""font-size: 60px; font-family: BACS"">rLkmdmkv</p>","","","","","","","","",""
"html-keyboard-response","377","1026017","0.0-16.0-0.45","60edd136d544e7c8f5fac8a7","650c16f0f2faf8d7a0d14c09","651c1beaaa440d338183b16f","null","null","<p style=""font-size: 60px; font-family: BACS"">rLkmdmkv</p>","","","","","","","","",""
"html-keyboard-response","378","1027032","0.0-16.0-0.46","60edd136d544e7c8f5fac8a7","650c16f0f2faf8d7a0d14c09","651c1beaaa440d338183b16f","null","null","<p style=""font-size: 60px; font-family: BACS"">rLkmdmkv</p>","","","","","","","","",""
"html-keyboard-response","379","1028042","0.0-16.0-0.47","60edd136d544e7c8f5fac8a7","650c16f0f2faf8d7a0d14c09","651c1beaaa440d338183b16f","null","null","<p style=""font-size: 60px; font-family: BACS"">rLkmdmkv</p>","","","","","","","","",""
"html-keyboard-response","380","1029052","0.0-16.0-0.48","60edd136d544e7c8f5fac8a7","650c16f0f2faf8d7a0d14c09","651c1beaaa440d338183b16f","null","null","<p style=""font-size: 60px; font-family: BACS"">rLkmdmkv</p>","","","","","","","","",""
"html-keyboard-response","381","1030060","0.0-16.0-0.49","60edd136d544e7c8f5fac8a7","650c16f0f2faf8d7a0d14c09","651c1beaaa440d338183b16f","null","null","<p style=""font-size: 60px; font-family: BACS"">rLkmdmkv</p>","","","","","","","","",""
"html-keyboard-response","382","1031076","0.0-16.0-0.50","60edd136d544e7c8f5fac8a7","650c16f0f2faf8d7a0d14c09","651c1beaaa440d338183b16f","null","null","<p style=""font-size: 60px; font-family: BACS"">rLkmdmkv</p>","","","","","","","","",""
"html-keyboard-response","383","1032084","0.0-16.0-0.51","60edd136d544e7c8f5fac8a7","650c16f0f2faf8d7a0d14c09","651c1beaaa440d338183b16f","null","null","<p style=""font-size: 60px; font-family: BACS"">rLkmdmkv</p>","","","","","","","","",""
"html-keyboard-response","384","1033101","0.0-16.0-0.52","60edd136d544e7c8f5fac8a7","650c16f0f2faf8d7a0d14c09","651c1beaaa440d338183b16f","null","null","<p style=""font-size: 60px; font-family: BACS"">rLkmdmkv</p>","","","","","","","","",""
"html-keyboard-response","385","1034118","0.0-16.0-0.53","60edd136d544e7c8f5fac8a7","650c16f0f2faf8d7a0d14c09","651c1beaaa440d338183b16f","null","null","<p style=""font-size: 60px; font-family: BACS"">rLkmdmkv</p>","","","","","","","","",""
"html-keyboard-response","386","1035132","0.0-16.0-0.54","60edd136d544e7c8f5fac8a7","650c16f0f2faf8d7a0d14c09","651c1beaaa440d338183b16f","null","null","<p style=""font-size: 60px; font-family: BACS"">rLkmdmkv</p>","","","","","","","","",""
"html-keyboard-response","387","1036141","0.0-16.0-0.55","60edd136d544e7c8f5fac8a7","650c16f0f2faf8d7a0d14c09","651c1beaaa440d338183b16f","null","null","<p style=""font-size: 60px; font-family: BACS"">rLkmdmkv</p>","","","","","","","","",""
"html-keyboard-response","388","1037148","0.0-16.0-0.56","60edd136d544e7c8f5fac8a7","650c16f0f2faf8d7a0d14c09","651c1beaaa440d338183b16f","null","null","<p style=""font-size: 60px; font-family: BACS"">rLkmdmkv</p>","","","","","","","","",""
"html-keyboard-response","389","1038164","0.0-16.0-0.57","60edd136d544e7c8f5fac8a7","650c16f0f2faf8d7a0d14c09","651c1beaaa440d338183b16f","null","null","<p style=""font-size: 60px; font-family: BACS"">rLkmdmkv</p>","","","","","","","","",""
"html-keyboard-response","390","1039178","0.0-16.0-0.58","60edd136d544e7c8f5fac8a7","650c16f0f2faf8d7a0d14c09","651c1beaaa440d338183b16f","null","null","<p style=""font-size: 60px; font-family: BACS"">rLkmdmkv</p>","","","","","","","","",""
"html-keyboard-response","391","1040190","0.0-16.0-0.59","60edd136d544e7c8f5fac8a7","650c16f0f2faf8d7a0d14c09","651c1beaaa440d338183b16f","null","null","<p style=""font-size: 60px; font-family: BACS"">rLkmdmkv</p>","","","","","","","","",""
"html-keyboard-response","392","1041195","0.0-16.0-0.60","60edd136d544e7c8f5fac8a7","650c16f0f2faf8d7a0d14c09","651c1beaaa440d338183b16f","null","null","<p style=""font-size: 60px; font-family: BACS"">rLkmdmkv</p>","","","","","","","","",""
"html-keyboard-response","393","1042210","0.0-16.0-0.61","60edd136d544e7c8f5fac8a7","650c16f0f2faf8d7a0d14c09","651c1beaaa440d338183b16f","null","null","<p style=""font-size: 60px; font-family: BACS"">rLkmdmkv</p>","","","","","","","","",""
"html-keyboard-response","394","1043220","0.0-16.0-0.62","60edd136d544e7c8f5fac8a7","650c16f0f2faf8d7a0d14c09","651c1beaaa440d338183b16f","null","null","<p style=""font-size: 60px; font-family: BACS"">rLkmdmkv</p>","","","","","","","","",""
"html-keyboard-response","395","1044229","0.0-16.0-0.63","60edd136d544e7c8f5fac8a7","650c16f0f2faf8d7a0d14c09","651c1beaaa440d338183b16f","null","null","<p style=""font-size: 60px; font-family: BACS"">rLkmdmkv</p>","","","","","","","","",""
"html-keyboard-response","396","1045245","0.0-16.0-0.64","60edd136d544e7c8f5fac8a7","650c16f0f2faf8d7a0d14c09","651c1beaaa440d338183b16f","null","null","<p style=""font-size: 60px; font-family: BACS"">rLkmdmkv</p>","","","","","","","","",""
"html-keyboard-response","397","1046253","0.0-16.0-0.65","60edd136d544e7c8f5fac8a7","650c16f0f2faf8d7a0d14c09","651c1beaaa440d338183b16f","null","null","<p style=""font-size: 60px; font-family: BACS"">rLkmdmkv</p>","","","","","","","","",""
"html-keyboard-response","398","1047255","0.0-16.0-0.66","60edd136d544e7c8f5fac8a7","650c16f0f2faf8d7a0d14c09","651c1beaaa440d338183b16f","null","null","<p style=""font-size: 60px; font-family: BACS"">rLkmdmkv</p>","","","","","","","","",""
"html-keyboard-response","399","1048261","0.0-16.0-0.67","60edd136d544e7c8f5fac8a7","650c16f0f2faf8d7a0d14c09","651c1beaaa440d338183b16f","null","null","<p style=""font-size: 60px; font-family: BACS"">rLkmdmkv</p>","","","","","","","","",""
"html-keyboard-response","400","1049269","0.0-16.0-0.68","60edd136d544e7c8f5fac8a7","650c16f0f2faf8d7a0d14c09","651c1beaaa440d338183b16f","null","null","<p style=""font-size: 60px; font-family: BACS"">rLkmdmkv</p>","","","","","","","","",""
