sbjID,trialn,condition,response,expected,observed,RT
1,1,0,hit,0,0,715.16
1,2,0,hit,0,0,388.38
1,3,1,false_alarm,1,0,501.09
1,4,0,miss,0,1,558.89
1,5,1,correct_rejection,1,1,498.36
1,6,1,false_alarm,1,0,307.83
1,7,1,false_alarm,1,0,307.81
1,8,0,miss,0,1,344.69
1,9,0,hit,0,0,411.83
1,10,1,correct_rejection,1,1,171.48
1,11,0,miss,0,1,403.79
1,12,1,false_alarm,1,0,112.72
1,13,0,miss,0,1,397.4
1,14,0,miss,0,1,242.29
1,15,0,miss,0,1,274.12
1,16,0,miss,0,1,259.91
1,17,0,miss,0,1,607.13
1,18,1,false_alarm,1,0,147.88
1,19,0,hit,0,0,370.07
1,20,1,correct_rejection,1,1,429.49
1,21,1,correct_rejection,1,1,201.82
1,22,0,hit,0,0,200.6
1,23,0,hit,0,0,114.3
1,24,1,false_alarm,1,0,271.16
1,25,0,hit,0,0,303.12
1,26,1,false_alarm,1,0,307.88
1,27,0,miss,0,1,520.67
1,28,0,miss,0,1,346.35
1,29,0,hit,0,0,353.67
1,30,0,miss,0,1,531.71
1,31,1,false_alarm,1,0,431.07
1,32,1,correct_rejection,1,1,461.26
1,33,1,false_alarm,1,0,80.55
1,34,1,correct_rejection,1,1,427.83
1,35,1,false_alarm,1,0,264.75
1,36,1,correct_rejection,1,1,317.49
1,37,0,hit,0,0,529.93
1,38,1,false_alarm,1,0,106.29
1,39,1,correct_rejection,1,1,286.27
1,40,1,false_alarm,1,0,275.9
2,1,1,false_alarm,1,0,519.87
2,2,0,hit,0,0,810.71
2,3,0,hit,0,0,368.54
2,4,0,hit,0,0,512.19
2,5,1,false_alarm,1,0,677.29
2,6,1,correct_rejection,1,1,506.08
2,7,1,correct_rejection,1,1,493.5
2,8,1,false_alarm,1,0,118.85
2,9,1,false_alarm,1,0,525.42
2,10,1,correct_rejection,1,1,410.11
2,11,1,correct_rejection,1,1,478.97
2,12,1,false_alarm,1,0,160.56
2,13,0,hit,0,0,250.27
2,14,0,hit,0,0,216.66
2,15,1,false_alarm,1,0,1099.87
2,16,1,correct_rejection,1,1,266.29
2,17,0,hit,0,0,314.29
2,18,0,miss,0,1,629.53
2,19,0,miss,0,1,366.97
2,20,1,correct_rejection,1,1,296.74
2,21,0,hit,0,0,411.77
2,22,0,hit,0,0,909.49
2,23,1,false_alarm,1,0,432.7
2,24,1,correct_rejection,1,1,387.97
2,25,1,false_alarm,1,0,338.03
2,26,1,correct_rejection,1,1,194.32
2,27,0,hit,0,0,594.35
2,28,0,hit,0,0,397.51
2,29,1,false_alarm,1,0,354.33
2,30,0,miss,0,1,714.18
2,31,0,hit,0,0,192.65
2,32,1,correct_rejection,1,1,843.91
2,33,0,hit,0,0,451.96
2,34,0,hit,0,0,283.87
2,35,0,miss,0,1,1419.84
2,36,0,miss,0,1,659.84
2,37,0,miss,0,1,179.9
2,38,0,hit,0,0,151.1
2,39,1,false_alarm,1,0,383.15
2,40,1,false_alarm,1,0,125.45
3,1,0,hit,0,0,370.96
3,2,1,false_alarm,1,0,188.5
3,3,1,false_alarm,1,0,262.86
3,4,1,false_alarm,1,0,157.23
3,5,1,correct_rejection,1,1,408.65
3,6,0,miss,0,1,170.15
3,7,0,miss,0,1,323.9
3,8,0,miss,0,1,325.44
3,9,1,false_alarm,1,0,104.59
3,10,1,correct_rejection,1,1,120.44
3,11,0,hit,0,0,286.93
3,12,1,false_alarm,1,0,232.58
3,13,1,correct_rejection,1,1,99.94
3,14,0,miss,0,1,131.85
3,15,0,miss,0,1,157.51
3,16,1,false_alarm,1,0,130.29
3,17,1,correct_rejection,1,1,90.26
3,18,1,correct_rejection,1,1,277.49
3,19,1,correct_rejection,1,1,91.89
3,20,0,hit,0,0,111.09
3,21,0,miss,0,1,256.62
3,22,0,miss,0,1,399.05
3,23,0,miss,0,1,149.57
3,24,1,correct_rejection,1,1,111.17
3,25,0,miss,0,1,136.65
3,26,0,hit,0,0,154.3
3,27,1,false_alarm,1,0,131.93
3,28,1,correct_rejection,1,1,149.29
3,29,1,false_alarm,1,0,143.08
3,30,0,miss,0,1,363.88
3,31,1,correct_rejection,1,1,85.47
3,32,0,miss,0,1,93.5
3,33,1,false_alarm,1,0,103.17
3,34,0,miss,0,1,203.82
3,35,0,miss,0,1,137.58
3,36,0,miss,0,1,207.18
3,37,0,miss,0,1,157.36
3,38,0,miss,0,1,189.48
3,39,1,correct_rejection,1,1,186.27
3,40,1,false_alarm,1,0,88.64
4,1,1,false_alarm,1,0,940.78
4,2,0,hit,0,0,1303.88
4,3,1,false_alarm,1,0,482.01
4,4,1,correct_rejection,1,1,893.1
4,5,0,miss,0,1,520.55
4,6,0,miss,0,1,1261.23
4,7,1,correct_rejection,1,1,379.69
4,8,0,hit,0,0,354.11
4,9,1,false_alarm,1,0,696.67
4,10,1,false_alarm,1,0,525.45
4,11,1,false_alarm,1,0,367.14
4,12,1,correct_rejection,1,1,424.55
4,13,1,false_alarm,1,0,408.67
4,14,0,hit,0,0,435.94
4,15,0,hit,0,0,482.22
4,16,1,false_alarm,1,0,288.72
4,17,0,miss,0,1,664.57
4,18,1,false_alarm,1,0,696.64
4,19,0,hit,0,0,488.69
4,20,0,hit,0,0,631.17
4,21,1,false_alarm,1,0,560.67
4,22,0,miss,0,1,187.91
4,23,0,miss,0,1,359.14
4,24,0,hit,0,0,248.65
4,25,1,false_alarm,1,0,640.6
4,26,1,correct_rejection,1,1,317.49
4,27,1,false_alarm,1,0,311.1
4,28,1,false_alarm,1,0,367.11
4,29,0,miss,0,1,298.27
4,30,0,hit,0,0,469.46
4,31,1,correct_rejection,1,1,311.07
4,32,0,hit,0,0,410.3
4,33,1,false_alarm,1,0,586.24
4,34,0,miss,0,1,583.08
4,35,0,miss,0,1,517.52
4,36,1,false_alarm,1,0,245.47
4,37,0,hit,0,0,467.9
4,38,0,hit,0,0,539.94
4,39,0,miss,0,1,248.68
4,40,1,correct_rejection,1,1,314.26
5,1,0,hit,0,0,639.96
5,2,0,hit,0,0,598.33
5,3,1,false_alarm,1,0,267.65
5,4,0,hit,0,0,358.96
5,5,0,miss,0,1,275.95
5,6,1,false_alarm,1,0,279.03
5,7,1,false_alarm,1,0,250.17
5,8,1,false_alarm,1,0,216.64
5,9,1,false_alarm,1,0,258.16
5,10,1,correct_rejection,1,1,293.44
5,11,0,hit,0,0,131.81
5,12,1,false_alarm,1,0,197.58
5,13,1,false_alarm,1,0,182.99
5,14,0,hit,0,0,261.47
5,15,1,correct_rejection,1,1,336.68
5,16,0,miss,0,1,163.91
5,17,0,hit,0,0,378.34
5,18,0,miss,0,1,229.59
5,19,1,false_alarm,1,0,283.83
5,20,0,hit,0,0,160.75
5,21,1,false_alarm,1,0,315.96
5,22,1,correct_rejection,1,1,114.23
5,23,1,correct_rejection,1,1,261.54
5,24,0,hit,0,0,223.17
5,25,0,hit,0,0,383.05
5,26,1,false_alarm,1,0,250.33
5,27,1,false_alarm,1,0,167.09
5,28,1,correct_rejection,1,1,357.51
5,29,0,hit,0,0,195.95
5,30,0,miss,0,1,180.01
5,31,1,false_alarm,1,0,256.69
5,32,1,false_alarm,1,0,226.35
5,33,1,false_alarm,1,0,191.04
5,34,0,hit,0,0,247.03
5,35,1,false_alarm,1,0,130.33
5,36,0,hit,0,0,211.98
5,37,0,hit,0,0,163.83
5,38,0,hit,0,0,162.31
5,39,0,hit,0,0,308.96
5,40,0,miss,0,1,291.84
6,1,1,false_alarm,1,0,440.19
6,2,1,false_alarm,1,0,127.87
6,3,1,false_alarm,1,0,360.5
6,4,1,correct_rejection,1,1,290.08
6,5,0,miss,0,1,317.47
6,6,0,hit,0,0,240.59
6,7,1,false_alarm,1,0,378.2
6,8,1,false_alarm,1,0,175.04
6,9,1,correct_rejection,1,1,112.58
6,10,1,correct_rejection,1,1,131.82
6,11,0,miss,0,1,218.28
6,12,0,hit,0,0,178.24
6,13,0,miss,0,1,231.03
6,14,0,miss,0,1,520.8
6,15,0,hit,0,0,232.77
6,16,1,correct_rejection,1,1,181.5
6,17,0,miss,0,1,272.61
6,18,1,false_alarm,1,0,98.36
6,19,0,hit,0,0,106.32
6,20,0,miss,0,1,90.39
6,21,0,hit,0,0,130.3
6,22,0,miss,0,1,197.46
6,23,1,false_alarm,1,0,162.4
6,24,0,hit,0,0,119.14
6,25,1,false_alarm,1,0,176.71
6,26,0,hit,0,0,284.05
6,27,0,miss,0,1,91.96
6,28,1,false_alarm,1,0,243.91
6,29,1,correct_rejection,1,1,208.76
6,30,0,miss,0,1,155.92
6,31,1,false_alarm,1,0,207.07
6,32,1,false_alarm,1,0,176.76
6,33,0,hit,0,0,229.53
6,34,0,miss,0,1,131.91
6,35,1,correct_rejection,1,1,229.53
6,36,0,miss,0,1,144.74
6,37,0,miss,0,1,299.87
6,38,1,false_alarm,1,0,267.99
6,39,1,false_alarm,1,0,63.11
6,40,1,correct_rejection,1,1,227.85
7,1,1,false_alarm,1,0,585.77
7,2,1,false_alarm,1,0,239.79
7,3,1,false_alarm,1,0,301.31
7,4,0,hit,0,0,568.65
7,5,0,hit,0,0,458.17
7,6,0,hit,0,0,621.45
7,7,0,hit,0,0,314.24
7,8,0,hit,0,0,515.83
7,9,1,false_alarm,1,0,346.34
7,10,1,correct_rejection,1,1,283.74
7,11,1,false_alarm,1,0,735.14
7,12,1,false_alarm,1,0,427.86
7,13,0,miss,0,1,490.29
7,14,1,false_alarm,1,0,781.42
7,15,1,false_alarm,1,0,552.67
7,16,1,correct_rejection,1,1,394.31
7,17,1,false_alarm,1,0,952.71
7,18,1,correct_rejection,1,1,376.74
7,19,1,correct_rejection,1,1,560.57
7,20,1,false_alarm,1,0,387.98
7,21,0,hit,0,0,976.69
7,22,0,miss,0,1,442.15
7,23,0,hit,0,0,1029.56
7,24,0,miss,0,1,1128.74
7,25,0,hit,0,0,202.28
7,26,0,hit,0,0,733.51
7,27,0,hit,0,0,197.46
7,28,0,miss,0,1,325.57
7,29,1,correct_rejection,1,1,475.89
7,30,1,false_alarm,1,0,891.91
7,31,0,miss,0,1,531.93
7,32,0,hit,0,0,237.55
7,33,0,hit,0,0,127.13
7,34,1,false_alarm,1,0,455.14
7,35,1,false_alarm,1,0,656.74
7,36,1,false_alarm,1,0,139.88
7,37,1,correct_rejection,1,1,426.3
7,38,0,hit,0,0,1331.88
7,39,0,hit,0,0,626.3
7,40,0,hit,0,0,391.15
8,1,1,false_alarm,1,0,1060.75
8,2,1,false_alarm,1,0,1066.94
8,3,1,false_alarm,1,0,984.52
8,4,0,miss,0,1,454.83
8,5,0,hit,0,0,662.95
8,6,0,hit,0,0,1242.18
8,7,0,miss,0,1,485.42
8,8,0,hit,0,0,861.25
8,9,1,false_alarm,1,0,855.06
8,10,0,miss,0,1,520.71
8,11,0,miss,0,1,992.59
8,12,0,miss,0,1,336.72
8,13,0,miss,0,1,269.51
8,14,1,correct_rejection,1,1,350.94
8,15,0,miss,0,1,227.85
8,16,1,false_alarm,1,0,239.08
8,17,1,correct_rejection,1,1,1216.72
8,18,1,false_alarm,1,0,658.25
8,19,0,hit,0,0,237.23
8,20,0,hit,0,0,933.55
8,21,0,miss,0,1,530.2
8,22,1,correct_rejection,1,1,461.49
8,23,0,hit,0,0,827.84
8,24,0,miss,0,1,515.91
8,25,1,false_alarm,1,0,429.53
8,26,1,false_alarm,1,0,570.29
8,27,1,false_alarm,1,0,759.11
8,28,0,miss,0,1,1362.33
8,29,1,false_alarm,1,0,714.32
8,30,1,correct_rejection,1,1,775.18
8,31,1,false_alarm,1,0,277.49
8,32,0,hit,0,0,218.27
8,33,0,hit,0,0,501.49
8,34,0,miss,0,1,175.08
8,35,0,miss,0,1,400.71
8,36,1,false_alarm,1,0,279.07
8,37,1,false_alarm,1,0,167.14
8,38,1,correct_rejection,1,1,879.14
8,39,1,false_alarm,1,0,301.53
8,40,1,correct_rejection,1,1,323.86
9,1,1,false_alarm,1,0,694.31
9,2,0,hit,0,0,183.78
9,3,1,false_alarm,1,0,712.5
9,4,0,miss,0,1,350.81
9,5,0,miss,0,1,430.96
9,6,1,false_alarm,1,0,298.34
9,7,0,hit,0,0,101.35
9,8,0,hit,0,0,672.58
9,9,0,miss,0,1,222.99
9,10,1,false_alarm,1,0,224.63
9,11,0,hit,0,0,333.45
9,12,1,correct_rejection,1,1,402.27
9,13,0,hit,0,0,283.85
9,14,1,correct_rejection,1,1,514.35
9,15,1,false_alarm,1,0,200.58
9,16,0,hit,0,0,434.34
9,17,1,false_alarm,1,0,293.53
9,18,1,correct_rejection,1,1,381.44
9,19,0,hit,0,0,459.93
9,20,1,correct_rejection,1,1,343.12
9,21,1,correct_rejection,1,1,341.49
9,22,1,false_alarm,1,0,106.31
9,23,0,hit,0,0,117.53
9,24,0,hit,0,0,237.52
9,25,0,miss,0,1,165.5
9,26,1,false_alarm,1,0,127.11
9,27,0,hit,0,0,234.34
9,28,0,hit,0,0,219.86
9,29,1,false_alarm,1,0,262.9
9,30,1,false_alarm,1,0,157.51
9,31,1,correct_rejection,1,1,160.74
9,32,1,false_alarm,1,0,160.7
9,33,1,false_alarm,1,0,309.52
9,34,1,correct_rejection,1,1,266.33
9,35,0,hit,0,0,160.72
9,36,1,false_alarm,1,0,277.49
9,37,0,hit,0,0,226.28
9,38,0,miss,0,1,219.88
9,39,0,miss,0,1,199.12
9,40,0,hit,0,0,125.53
10,1,0,miss,0,1,286.31
10,2,0,hit,0,0,203.01
10,3,0,hit,0,0,294.88
10,4,0,hit,0,0,318.75
10,5,0,hit,0,0,115.72
10,6,0,miss,0,1,322.13
10,7,0,hit,0,0,154.18
10,8,1,correct_rejection,1,1,150.93
10,9,1,correct_rejection,1,1,223.1
10,10,1,false_alarm,1,0,69.34
10,11,1,correct_rejection,1,1,371.98
10,12,1,false_alarm,1,0,141.51
10,13,0,hit,0,0,150.94
10,14,0,hit,0,0,87.04
10,15,0,miss,0,1,223.09
10,16,1,correct_rejection,1,1,567.11
10,17,1,false_alarm,1,0,74.38
10,18,1,correct_rejection,1,1,362.32
10,19,0,miss,0,1,122.28
10,20,1,false_alarm,1,0,103.13
10,21,1,false_alarm,1,0,167.15
10,22,1,false_alarm,1,0,375.15
10,23,1,false_alarm,1,0,165.42
10,24,1,false_alarm,1,0,247.16
10,25,0,hit,0,0,197.54
10,26,0,miss,0,1,202.33
10,27,0,hit,0,0,165.49
10,28,0,miss,0,1,274.37
10,29,1,false_alarm,1,0,149.43
10,30,1,correct_rejection,1,1,224.71
10,31,1,correct_rejection,1,1,352.73
10,32,1,false_alarm,1,0,127.04
10,33,0,hit,0,0,279.08
10,34,1,correct_rejection,1,1,151.07
10,35,0,miss,0,1,194.31
10,36,0,hit,0,0,98.3
10,37,0,hit,0,0,120.7
10,38,0,hit,0,0,139.91
10,39,1,false_alarm,1,0,243.89
10,40,1,false_alarm,1,0,181.57
11,1,1,false_alarm,1,0,510.35
11,2,0,hit,0,0,146.86
11,3,1,false_alarm,1,0,664.46
11,4,1,correct_rejection,1,1,701.28
11,5,1,false_alarm,1,0,125.34
11,6,1,correct_rejection,1,1,448.63
11,7,0,hit,0,0,237.41
11,8,1,correct_rejection,1,1,586.25
11,9,0,hit,0,0,109.35
11,10,0,hit,0,0,141.39
11,11,1,false_alarm,1,0,171.87
11,12,1,correct_rejection,1,1,227.98
11,13,1,false_alarm,1,0,179.95
11,14,1,correct_rejection,1,1,360.62
11,15,1,correct_rejection,1,1,170.38
11,16,1,false_alarm,1,0,231.12
11,17,1,correct_rejection,1,1,506.23
11,18,1,false_alarm,1,0,223.17
11,19,0,miss,0,1,215.08
11,20,1,correct_rejection,1,1,235.91
11,21,0,hit,0,0,226.38
11,22,0,miss,0,1,336.78
11,23,0,hit,0,0,309.49
11,24,0,hit,0,0,187.92
11,25,1,correct_rejection,1,1,290.36
11,26,1,correct_rejection,1,1,258.29
11,27,0,miss,0,1,275.9
11,28,0,hit,0,0,360.73
11,29,0,miss,0,1,245.51
11,30,0,hit,0,0,266.36
11,31,1,false_alarm,1,0,141.52
11,32,0,hit,0,0,394.24
11,33,0,hit,0,0,431.18
11,34,0,hit,0,0,466.36
11,35,0,miss,0,1,155.89
11,36,1,correct_rejection,1,1,266.35
11,37,1,false_alarm,1,0,315.95
11,38,0,hit,0,0,170.25
11,39,0,hit,0,0,343.17
11,40,0,hit,0,0,336.73
12,1,1,correct_rejection,1,1,366.36
12,2,1,false_alarm,1,0,153.34
12,3,0,hit,0,0,213.37
12,4,1,false_alarm,1,0,142.82
12,5,0,hit,0,0,128.53
12,6,0,miss,0,1,299.88
12,7,0,hit,0,0,430.94
12,8,0,hit,0,0,242.37
12,9,0,hit,0,0,106.1
12,10,1,false_alarm,1,0,123.79
12,11,1,false_alarm,1,0,458.25
12,12,0,hit,0,0,439.07
12,13,1,correct_rejection,1,1,159.13
12,14,1,correct_rejection,1,1,395.9
12,15,0,miss,0,1,333.47
12,16,1,correct_rejection,1,1,131.81
12,17,0,hit,0,0,290.26
12,18,0,hit,0,0,151.13
12,19,0,miss,0,1,522.31
12,20,0,miss,0,1,211.76
12,21,0,hit,0,0,171.92
12,22,1,false_alarm,1,0,274.32
12,23,0,miss,0,1,216.68
12,24,1,false_alarm,1,0,109.49
12,25,1,correct_rejection,1,1,448.71
12,26,1,correct_rejection,1,1,251.85
12,27,0,miss,0,1,170.33
12,28,1,false_alarm,1,0,400.68
12,29,0,miss,0,1,224.67
12,30,1,correct_rejection,1,1,168.7
12,31,1,correct_rejection,1,1,123.93
12,32,0,miss,0,1,226.3
12,33,1,correct_rejection,1,1,163.88
12,34,1,correct_rejection,1,1,194.33
12,35,1,correct_rejection,1,1,474.34
12,36,0,miss,0,1,736.72
12,37,0,miss,0,1,232.7
12,38,1,correct_rejection,1,1,474.33
12,39,1,false_alarm,1,0,128.72
12,40,0,miss,0,1,603.93
13,1,0,hit,0,0,1196.77
13,2,1,correct_rejection,1,1,716.52
13,3,0,miss,0,1,474.03
13,4,1,false_alarm,1,0,178.13
13,5,1,false_alarm,1,0,675.83
13,6,0,hit,0,0,207.16
13,7,1,false_alarm,1,0,727.09
13,8,1,false_alarm,1,0,326.95
13,9,1,correct_rejection,1,1,501.51
13,10,1,false_alarm,1,0,429.42
13,11,0,hit,0,0,165.42
13,12,1,false_alarm,1,0,248.64
13,13,0,hit,0,0,111.16
13,14,0,hit,0,0,131.9
13,15,1,correct_rejection,1,1,359.16
13,16,0,miss,0,1,314.26
13,17,0,hit,0,0,208.7
13,18,0,hit,0,0,155.92
13,19,1,false_alarm,1,0,128.61
13,20,0,miss,0,1,163.97
13,21,1,correct_rejection,1,1,234.34
13,22,1,correct_rejection,1,1,213.34
13,23,0,hit,0,0,522.29
13,24,1,false_alarm,1,0,133.45
13,25,1,false_alarm,1,0,103.11
13,26,0,miss,0,1,143.03
13,27,1,false_alarm,1,0,237.5
13,28,0,hit,0,0,213.56
13,29,0,hit,0,0,88.73
13,30,0,hit,0,0,163.96
13,31,1,false_alarm,1,0,88.77
13,32,1,false_alarm,1,0,85.55
13,33,0,hit,0,0,85.52
13,34,0,hit,0,0,431.15
13,35,1,false_alarm,1,0,111.14
13,36,1,false_alarm,1,0,114.29
13,37,0,miss,0,1,482.34
13,38,1,false_alarm,1,0,117.53
13,39,0,miss,0,1,517.56
13,40,0,hit,0,0,149.56
14,1,0,hit,0,0,759.98
14,2,1,false_alarm,1,0,481.38
14,3,1,false_alarm,1,0,259.57
14,4,1,false_alarm,1,0,914.05
14,5,0,hit,0,0,502.97
14,6,0,hit,0,0,755.9
14,7,1,false_alarm,1,0,654.33
14,8,1,false_alarm,1,0,578.14
14,9,1,correct_rejection,1,1,408.63
14,10,0,miss,0,1,989.46
14,11,0,miss,0,1,343.15
14,12,1,false_alarm,1,0,301.5
14,13,0,hit,0,0,901.56
14,14,0,hit,0,0,646.95
14,15,0,miss,0,1,479.15
14,16,0,miss,0,1,575.04
14,17,0,hit,0,0,267.9
14,18,1,false_alarm,1,0,1178.36
14,19,1,false_alarm,1,0,178.28
14,20,0,miss,0,1,200.66
14,21,1,correct_rejection,1,1,170.33
14,22,1,correct_rejection,1,1,263.09
14,23,1,false_alarm,1,0,122.1
14,24,1,correct_rejection,1,1,251.97
14,25,1,false_alarm,1,0,1119.13
14,26,1,false_alarm,1,0,135.08
14,27,1,correct_rejection,1,1,106.29
14,28,0,miss,0,1,144.72
14,29,1,correct_rejection,1,1,163.89
14,30,0,miss,0,1,115.98
14,31,0,miss,0,1,167.13
14,32,0,miss,0,1,213.47
14,33,0,miss,0,1,208.72
14,34,0,miss,0,1,119.07
14,35,0,hit,0,0,251.96
14,36,1,false_alarm,1,0,227.96
14,37,0,hit,0,0,139.87
14,38,0,miss,0,1,197.55
14,39,1,false_alarm,1,0,309.58
14,40,1,false_alarm,1,0,151.09
15,1,1,false_alarm,1,0,384.17
15,2,1,false_alarm,1,0,169.32
15,3,1,correct_rejection,1,1,173.33
15,4,1,false_alarm,1,0,256.45
15,5,1,correct_rejection,1,1,205.34
15,6,1,correct_rejection,1,1,504.64
15,7,1,false_alarm,1,0,158.97
15,8,0,miss,0,1,367.05
15,9,0,hit,0,0,323.79
15,10,0,miss,0,1,280.58
15,11,0,hit,0,0,227.91
15,12,1,false_alarm,1,0,359.16
15,13,0,hit,0,0,274.24
15,14,0,hit,0,0,178.35
15,15,1,false_alarm,1,0,104.78
15,16,1,correct_rejection,1,1,371.87
15,17,1,false_alarm,1,0,288.65
15,18,0,hit,0,0,189.51
15,19,0,hit,0,0,232.72
15,20,1,false_alarm,1,0,259.82
15,21,1,correct_rejection,1,1,187.93
15,22,1,false_alarm,1,0,264.66
15,23,0,hit,0,0,360.72
15,24,0,hit,0,0,247.16
15,25,1,correct_rejection,1,1,239.09
15,26,1,correct_rejection,1,1,731.89
15,27,1,correct_rejection,1,1,192.77
15,28,1,correct_rejection,1,1,397.47
15,29,1,false_alarm,1,0,277.42
15,30,0,miss,0,1,258.27
15,31,0,hit,0,0,184.66
15,32,0,miss,0,1,125.36
15,33,0,hit,0,0,269.58
15,34,0,hit,0,0,127.08
15,35,0,miss,0,1,119.13
15,36,0,miss,0,1,104.76
15,37,0,hit,0,0,83.93
15,38,1,false_alarm,1,0,272.72
15,39,0,hit,0,0,83.96
15,40,0,hit,0,0,125.43
