"trial_type","trial_index","time_elapsed","internal_node_id","subject_id","study_id","session_id","rt","response","stimulus","success","item","task","correct_response","testing_condition","correct","target","confound","name"
"pavlovia","0","1105","0.0-0.0","611d33d7cc16fdd812b1a4c4","64e77d7b61f440b60e28659d","64ec9a9df1258af590cdfefa","","","","","","","","","","","",""
"survey-html-form","1","6619","0.0-1.0","611d33d7cc16fdd812b1a4c4","64e77d7b61f440b60e28659d","64ec9a9df1258af590cdfefa","5512","{""ID"":""611d33d7cc16fdd812b1a4c4""}","","","","","","","","","",""
"html-keyboard-response","2","29223","0.0-2.0","611d33d7cc16fdd812b1a4c4","64e77d7b61f440b60e28659d","64ec9a9df1258af590cdfefa","22602"," ","<p style=""font-size: 15px;"">Before beginning, we ask that you read the consent information and confirm your agreement to participate in the experiment.</p>
      <p style=""font-size: 15px;""> We ask that you remember that this is a research project and that your participation is entirely voluntary. You can stop your participation at any time, without needing to provide any explanation. The study we're asking you to participate in aims at examining how readers process written words. You will be engaged in a session of apprximately 20 minutes, followed by a brief questionnaire. You will have the opportunity to take a few breaks during the experiment. You will be paid £4 for your participation, corresponding to a rate of £8/hour. While this experiment looks at cognitive faculties, this experiment doesn't constitute clinical proof of eventual pathologies.</p>
      <p style=""font-size: 15px;"">All of the information collected thanks to yours and others' participation will be held in a secure password-protected server, and will not be shared with anyone not authorised to view it. Your personal information will be kept with an arbitrary participant ID. Thanks to this data anonymity process, any researcher analysing the data won't be able to track the information back to a specific participant. Therefore, this process will make identifying you impossibile, even when results from the study will be published in scientific reviews, presented at congresses, or at any other public forum. More generally, the collected data will be treated in accordance with the laws on privacy and conformity to the Legislative Degree n. 196 ""Code regarding the protection of personal data"" of the 30th of June 2003 and to the European Regulation 2016/670 (General Data Protection Regulation - GDPR). The Data Protection Officer is Avv. Valentina Carollo, who can be contacted at the following email addresses: <a href=""mailto:dpo@sissa.it"">dpo@sissa.it</a> or <a href=""mailto:rpd@sissa.it"">rpd@sissa.it</a> - PEC: <a href=""mailto:protocollo@pec.sissa.it"">protocollo@pec.sissa.it</a>.</p>
      <p style=""font-size: 15px;""> Before expressing your consent to participate, we would like to remind you again that in case you need explanations on any aspect of the experimental procedure, the researcher is at your disposition (<a href=""mailto:aliebelt@sissa.it"">aliebelt@sissa.it</a>, <a href=""mailto:davide.crepaldi@sissa.it"">davide.crepaldi@sissa.it</a>).</p>
      <p style=""font-size: 15px;"">If you would like to download the informed consent form, you can do so here: <a href=""BASL-Informed_Consent.pdf"" download>informed consent form</a>.</p>
      <p style=""font-size: 15px;"">We ask that you press the spacebar to proceed to the consent section.</p>","","","","","","","","",""
"survey-html-form","3","42859","0.0-3.0","611d33d7cc16fdd812b1a4c4","64e77d7b61f440b60e28659d","64ec9a9df1258af590cdfefa","13634","{""consent1"":""YES"",""consent2"":""YES"",""consent3"":""YES"",""consent4"":""YES"",""consent5"":""YES"",""consent6"":""YES""}","","","","","","","","","",""
"fullscreen","4","48571","0.0-4.0","611d33d7cc16fdd812b1a4c4","64e77d7b61f440b60e28659d","64ec9a9df1258af590cdfefa","","","","true","","","","","","","",""
"html-keyboard-response","5","64227","0.0-5.0","611d33d7cc16fdd812b1a4c4","64e77d7b61f440b60e28659d","64ec9a9df1258af590cdfefa","15655"," ","<p>Welcome, and thank you very much for your time!</p>
      <p>In this experiment, you'll be a language expert who's been asked to take a look at words that Earth has received in its first communication with aliens. Your task, in this first part of the experiment, is to pay close attention to the words you'll be shown; later, world leaders will ask you questions on what you saw. The words will be shown to you quite quickly; it seems that the aliens were in a hurry :-)</p>
      <p>Press the spacebar to continue.<p>","","","","","","","","",""
"html-keyboard-response","6","72727","0.0-6.0","611d33d7cc16fdd812b1a4c4","64e77d7b61f440b60e28659d","64ec9a9df1258af590cdfefa","8498"," ","<p>Here is an example of the words you'll see:</p>
      <img src='esempio.png' height='400px'>
      <p>When you're ready to begin, press the spacebar.</p></div>","","","","","","","","",""
"html-keyboard-response","7","73736","0.0-7.0-0.0","611d33d7cc16fdd812b1a4c4","64e77d7b61f440b60e28659d","64ec9a9df1258af590cdfefa","null","null","<p style=""font-size: 60px; font-family: BACS"">NbacAGlu</p>","","","","","","","","",""
"html-keyboard-response","8","74747","0.0-7.0-0.1","611d33d7cc16fdd812b1a4c4","64e77d7b61f440b60e28659d","64ec9a9df1258af590cdfefa","null","null","<p style=""font-size: 60px; font-family: BACS"">hbkdhBK</p>","","","","","","","","",""
"html-keyboard-response","9","75762","0.0-7.0-0.2","611d33d7cc16fdd812b1a4c4","64e77d7b61f440b60e28659d","64ec9a9df1258af590cdfefa","null","null","<p style=""font-size: 60px; font-family: BACS"">bYuQkbu</p>","","","","","","","","",""
"html-keyboard-response","10","76775","0.0-7.0-0.3","611d33d7cc16fdd812b1a4c4","64e77d7b61f440b60e28659d","64ec9a9df1258af590cdfefa","null","null","<p style=""font-size: 60px; font-family: BACS"">QOLmuGlu</p>","","","","","","","","",""
"html-keyboard-response","11","77785","0.0-7.0-0.4","611d33d7cc16fdd812b1a4c4","64e77d7b61f440b60e28659d","64ec9a9df1258af590cdfefa","null","null","<p style=""font-size: 60px; font-family: BACS"">CchtdAlKD</p>","","","","","","","","",""
"html-keyboard-response","12","78802","0.0-7.0-0.5","611d33d7cc16fdd812b1a4c4","64e77d7b61f440b60e28659d","64ec9a9df1258af590cdfefa","null","null","<p style=""font-size: 60px; font-family: BACS"">mBbKTmc</p>","","","","","","","","",""
"html-keyboard-response","13","79804","0.0-7.0-0.6","611d33d7cc16fdd812b1a4c4","64e77d7b61f440b60e28659d","64ec9a9df1258af590cdfefa","null","null","<p style=""font-size: 60px; font-family: BACS"">OQarQcYUv</p>","","","","","","","","",""
"html-keyboard-response","14","80812","0.0-7.0-0.7","611d33d7cc16fdd812b1a4c4","64e77d7b61f440b60e28659d","64ec9a9df1258af590cdfefa","null","null","<p style=""font-size: 60px; font-family: BACS"">JrGvGlu</p>","","","","","","","","",""
"html-keyboard-response","15","81820","0.0-7.0-0.8","611d33d7cc16fdd812b1a4c4","64e77d7b61f440b60e28659d","64ec9a9df1258af590cdfefa","null","null","<p style=""font-size: 60px; font-family: BACS"">hChYhBK</p>","","","","","","","","",""
"html-keyboard-response","16","82825","0.0-7.0-0.9","611d33d7cc16fdd812b1a4c4","64e77d7b61f440b60e28659d","64ec9a9df1258af590cdfefa","null","null","<p style=""font-size: 60px; font-family: BACS"">EhRmPED</p>","","","","","","","","",""
"html-keyboard-response","17","83833","0.0-7.0-0.10","611d33d7cc16fdd812b1a4c4","64e77d7b61f440b60e28659d","64ec9a9df1258af590cdfefa","null","null","<p style=""font-size: 60px; font-family: BACS"">hChYABb</p>","","","","","","","","",""
"html-keyboard-response","18","84835","0.0-7.0-0.11","611d33d7cc16fdd812b1a4c4","64e77d7b61f440b60e28659d","64ec9a9df1258af590cdfefa","null","null","<p style=""font-size: 60px; font-family: BACS"">AmaclcYUv</p>","","","","","","","","",""
"html-keyboard-response","19","85852","0.0-7.0-0.12","611d33d7cc16fdd812b1a4c4","64e77d7b61f440b60e28659d","64ec9a9df1258af590cdfefa","null","null","<p style=""font-size: 60px; font-family: BACS"">EhRmABb</p>","","","","","","","","",""
"html-keyboard-response","20","86866","0.0-7.0-0.13","611d33d7cc16fdd812b1a4c4","64e77d7b61f440b60e28659d","64ec9a9df1258af590cdfefa","null","null","<p style=""font-size: 60px; font-family: BACS"">McMDTmc</p>","","","","","","","","",""
"html-keyboard-response","21","87868","0.0-7.0-0.14","611d33d7cc16fdd812b1a4c4","64e77d7b61f440b60e28659d","64ec9a9df1258af590cdfefa","null","null","<p style=""font-size: 60px; font-family: BACS"">EhRmhBK</p>","","","","","","","","",""
"html-keyboard-response","22","88874","0.0-7.0-0.15","611d33d7cc16fdd812b1a4c4","64e77d7b61f440b60e28659d","64ec9a9df1258af590cdfefa","null","null","<p style=""font-size: 60px; font-family: BACS"">hTtBbTmc</p>","","","","","","","","",""
"html-keyboard-response","23","89889","0.0-7.0-0.16","611d33d7cc16fdd812b1a4c4","64e77d7b61f440b60e28659d","64ec9a9df1258af590cdfefa","null","null","<p style=""font-size: 60px; font-family: BACS"">LdrbvJUNa</p>","","","","","","","","",""
"html-keyboard-response","24","90897","0.0-7.0-0.17","611d33d7cc16fdd812b1a4c4","64e77d7b61f440b60e28659d","64ec9a9df1258af590cdfefa","null","null","<p style=""font-size: 60px; font-family: BACS"">TPCbTmc</p>","","","","","","","","",""
"html-keyboard-response","25","91904","0.0-7.0-0.18","611d33d7cc16fdd812b1a4c4","64e77d7b61f440b60e28659d","64ec9a9df1258af590cdfefa","null","null","<p style=""font-size: 60px; font-family: BACS"">OQarQLcO</p>","","","","","","","","",""
"html-keyboard-response","26","92914","0.0-7.0-0.19","611d33d7cc16fdd812b1a4c4","64e77d7b61f440b60e28659d","64ec9a9df1258af590cdfefa","null","null","<p style=""font-size: 60px; font-family: BACS"">hTtBbPED</p>","","","","","","","","",""
"html-keyboard-response","27","93924","0.0-7.0-0.20","611d33d7cc16fdd812b1a4c4","64e77d7b61f440b60e28659d","64ec9a9df1258af590cdfefa","null","null","<p style=""font-size: 60px; font-family: BACS"">GAcYGlu</p>","","","","","","","","",""
"html-keyboard-response","28","94931","0.0-7.0-0.21","611d33d7cc16fdd812b1a4c4","64e77d7b61f440b60e28659d","64ec9a9df1258af590cdfefa","null","null","<p style=""font-size: 60px; font-family: BACS"">NbacAkbu</p>","","","","","","","","",""
"html-keyboard-response","29","95945","0.0-7.0-0.22","611d33d7cc16fdd812b1a4c4","64e77d7b61f440b60e28659d","64ec9a9df1258af590cdfefa","null","null","<p style=""font-size: 60px; font-family: BACS"">CchtdABb</p>","","","","","","","","",""
"html-keyboard-response","30","96948","0.0-7.0-0.23","611d33d7cc16fdd812b1a4c4","64e77d7b61f440b60e28659d","64ec9a9df1258af590cdfefa","null","null","<p style=""font-size: 60px; font-family: BACS"">OQarQGlu</p>","","","","","","","","",""
"html-keyboard-response","31","97952","0.0-7.0-0.24","611d33d7cc16fdd812b1a4c4","64e77d7b61f440b60e28659d","64ec9a9df1258af590cdfefa","null","null","<p style=""font-size: 60px; font-family: BACS"">bYuQLcO</p>","","","","","","","","",""
"html-keyboard-response","32","98964","0.0-7.0-0.25","611d33d7cc16fdd812b1a4c4","64e77d7b61f440b60e28659d","64ec9a9df1258af590cdfefa","null","null","<p style=""font-size: 60px; font-family: BACS"">EMYKABb</p>","","","","","","","","",""
"html-keyboard-response","33","99966","0.0-7.0-0.26","611d33d7cc16fdd812b1a4c4","64e77d7b61f440b60e28659d","64ec9a9df1258af590cdfefa","null","null","<p style=""font-size: 60px; font-family: BACS"">aOLZUJUNa</p>","","","","","","","","",""
"html-keyboard-response","34","100980","0.0-7.0-0.27","611d33d7cc16fdd812b1a4c4","64e77d7b61f440b60e28659d","64ec9a9df1258af590cdfefa","null","null","<p style=""font-size: 60px; font-family: BACS"">QOLmukbu</p>","","","","","","","","",""
"html-keyboard-response","35","101986","0.0-7.0-0.28","611d33d7cc16fdd812b1a4c4","64e77d7b61f440b60e28659d","64ec9a9df1258af590cdfefa","null","null","<p style=""font-size: 60px; font-family: BACS"">aOLZUGlu</p>","","","","","","","","",""
"html-keyboard-response","36","102996","0.0-7.0-0.29","611d33d7cc16fdd812b1a4c4","64e77d7b61f440b60e28659d","64ec9a9df1258af590cdfefa","null","null","<p style=""font-size: 60px; font-family: BACS"">hChYPED</p>","","","","","","","","",""
"html-keyboard-response","37","104011","0.0-7.0-0.30","611d33d7cc16fdd812b1a4c4","64e77d7b61f440b60e28659d","64ec9a9df1258af590cdfefa","null","null","<p style=""font-size: 60px; font-family: BACS"">dKRDAlKD</p>","","","","","","","","",""
"html-keyboard-response","38","105019","0.0-7.0-0.31","611d33d7cc16fdd812b1a4c4","64e77d7b61f440b60e28659d","64ec9a9df1258af590cdfefa","null","null","<p style=""font-size: 60px; font-family: BACS"">aOLZUkbu</p>","","","","","","","","",""
"html-keyboard-response","39","106029","0.0-7.0-0.32","611d33d7cc16fdd812b1a4c4","64e77d7b61f440b60e28659d","64ec9a9df1258af590cdfefa","null","null","<p style=""font-size: 60px; font-family: BACS"">hTtBbABb</p>","","","","","","","","",""
"html-keyboard-response","40","107032","0.0-7.0-0.33","611d33d7cc16fdd812b1a4c4","64e77d7b61f440b60e28659d","64ec9a9df1258af590cdfefa","null","null","<p style=""font-size: 60px; font-family: BACS"">bYuQcYUv</p>","","","","","","","","",""
"html-keyboard-response","41","108047","0.0-7.0-0.34","611d33d7cc16fdd812b1a4c4","64e77d7b61f440b60e28659d","64ec9a9df1258af590cdfefa","null","null","<p style=""font-size: 60px; font-family: BACS"">dKRDhBK</p>","","","","","","","","",""
"html-keyboard-response","42","109048","0.0-7.0-0.35","611d33d7cc16fdd812b1a4c4","64e77d7b61f440b60e28659d","64ec9a9df1258af590cdfefa","null","null","<p style=""font-size: 60px; font-family: BACS"">JrGvJUNa</p>","","","","","","","","",""
"html-keyboard-response","43","110058","0.0-7.0-0.36","611d33d7cc16fdd812b1a4c4","64e77d7b61f440b60e28659d","64ec9a9df1258af590cdfefa","null","null","<p style=""font-size: 60px; font-family: BACS"">hTtBbhBK</p>","","","","","","","","",""
"html-keyboard-response","44","111073","0.0-7.0-0.37","611d33d7cc16fdd812b1a4c4","64e77d7b61f440b60e28659d","64ec9a9df1258af590cdfefa","null","null","<p style=""font-size: 60px; font-family: BACS"">dKRDTmc</p>","","","","","","","","",""
"html-keyboard-response","45","112075","0.0-7.0-0.38","611d33d7cc16fdd812b1a4c4","64e77d7b61f440b60e28659d","64ec9a9df1258af590cdfefa","null","null","<p style=""font-size: 60px; font-family: BACS"">mBbKABb</p>","","","","","","","","",""
"html-keyboard-response","46","113078","0.0-7.0-0.39","611d33d7cc16fdd812b1a4c4","64e77d7b61f440b60e28659d","64ec9a9df1258af590cdfefa","null","null","<p style=""font-size: 60px; font-family: BACS"">hbkdAlKD</p>","","","","","","","","",""
"html-keyboard-response","47","114082","0.0-7.0-0.40","611d33d7cc16fdd812b1a4c4","64e77d7b61f440b60e28659d","64ec9a9df1258af590cdfefa","null","null","<p style=""font-size: 60px; font-family: BACS"">QOLmuLcO</p>","","","","","","","","",""
"html-keyboard-response","48","115095","0.0-7.0-0.41","611d33d7cc16fdd812b1a4c4","64e77d7b61f440b60e28659d","64ec9a9df1258af590cdfefa","null","null","<p style=""font-size: 60px; font-family: BACS"">AmaclGlu</p>","","","","","","","","",""
"html-keyboard-response","49","116107","0.0-7.0-0.42","611d33d7cc16fdd812b1a4c4","64e77d7b61f440b60e28659d","64ec9a9df1258af590cdfefa","null","null","<p style=""font-size: 60px; font-family: BACS"">NbacAJUNa</p>","","","","","","","","",""
"html-keyboard-response","50","117124","0.0-7.0-0.43","611d33d7cc16fdd812b1a4c4","64e77d7b61f440b60e28659d","64ec9a9df1258af590cdfefa","null","null","<p style=""font-size: 60px; font-family: BACS"">aOLZUcYUv</p>","","","","","","","","",""
"html-keyboard-response","51","118129","0.0-7.0-0.44","611d33d7cc16fdd812b1a4c4","64e77d7b61f440b60e28659d","64ec9a9df1258af590cdfefa","null","null","<p style=""font-size: 60px; font-family: BACS"">hbkdTmc</p>","","","","","","","","",""
"html-keyboard-response","52","119145","0.0-7.0-0.45","611d33d7cc16fdd812b1a4c4","64e77d7b61f440b60e28659d","64ec9a9df1258af590cdfefa","null","null","<p style=""font-size: 60px; font-family: BACS"">GAcYcYUv</p>","","","","","","","","",""
"html-keyboard-response","53","120154","0.0-7.0-0.46","611d33d7cc16fdd812b1a4c4","64e77d7b61f440b60e28659d","64ec9a9df1258af590cdfefa","null","null","<p style=""font-size: 60px; font-family: BACS"">JauQLcO</p>","","","","","","","","",""
"html-keyboard-response","54","121161","0.0-7.0-0.47","611d33d7cc16fdd812b1a4c4","64e77d7b61f440b60e28659d","64ec9a9df1258af590cdfefa","null","null","<p style=""font-size: 60px; font-family: BACS"">AmaclJUNa</p>","","","","","","","","",""
"html-keyboard-response","55","122169","0.0-7.0-0.48","611d33d7cc16fdd812b1a4c4","64e77d7b61f440b60e28659d","64ec9a9df1258af590cdfefa","null","null","<p style=""font-size: 60px; font-family: BACS"">QOLmucYUv</p>","","","","","","","","",""
"html-keyboard-response","56","123184","0.0-7.0-0.49","611d33d7cc16fdd812b1a4c4","64e77d7b61f440b60e28659d","64ec9a9df1258af590cdfefa","null","null","<p style=""font-size: 60px; font-family: BACS"">McMDAlKD</p>","","","","","","","","",""
"html-keyboard-response","57","124191","0.0-7.0-0.50","611d33d7cc16fdd812b1a4c4","64e77d7b61f440b60e28659d","64ec9a9df1258af590cdfefa","null","null","<p style=""font-size: 60px; font-family: BACS"">JauQcYUv</p>","","","","","","","","",""
"html-keyboard-response","58","125205","0.0-7.0-0.51","611d33d7cc16fdd812b1a4c4","64e77d7b61f440b60e28659d","64ec9a9df1258af590cdfefa","null","null","<p style=""font-size: 60px; font-family: BACS"">LdrbvLcO</p>","","","","","","","","",""
"html-keyboard-response","59","126218","0.0-7.0-0.52","611d33d7cc16fdd812b1a4c4","64e77d7b61f440b60e28659d","64ec9a9df1258af590cdfefa","null","null","<p style=""font-size: 60px; font-family: BACS"">McMDABb</p>","","","","","","","","",""
"html-keyboard-response","60","127224","0.0-7.0-0.53","611d33d7cc16fdd812b1a4c4","64e77d7b61f440b60e28659d","64ec9a9df1258af590cdfefa","null","null","<p style=""font-size: 60px; font-family: BACS"">mBbKPED</p>","","","","","","","","",""
"html-keyboard-response","61","128242","0.0-7.0-0.54","611d33d7cc16fdd812b1a4c4","64e77d7b61f440b60e28659d","64ec9a9df1258af590cdfefa","null","null","<p style=""font-size: 60px; font-family: BACS"">EhRmAlKD</p>","","","","","","","","",""
"html-keyboard-response","62","129245","0.0-7.0-0.55","611d33d7cc16fdd812b1a4c4","64e77d7b61f440b60e28659d","64ec9a9df1258af590cdfefa","null","null","<p style=""font-size: 60px; font-family: BACS"">GAcYLcO</p>","","","","","","","","",""
"html-keyboard-response","63","130254","0.0-7.0-0.56","611d33d7cc16fdd812b1a4c4","64e77d7b61f440b60e28659d","64ec9a9df1258af590cdfefa","null","null","<p style=""font-size: 60px; font-family: BACS"">LdrbvcYUv</p>","","","","","","","","",""
"html-keyboard-response","64","131258","0.0-7.0-0.57","611d33d7cc16fdd812b1a4c4","64e77d7b61f440b60e28659d","64ec9a9df1258af590cdfefa","null","null","<p style=""font-size: 60px; font-family: BACS"">Amaclkbu</p>","","","","","","","","",""
"html-keyboard-response","65","132269","0.0-7.0-0.58","611d33d7cc16fdd812b1a4c4","64e77d7b61f440b60e28659d","64ec9a9df1258af590cdfefa","null","null","<p style=""font-size: 60px; font-family: BACS"">EMYKTmc</p>","","","","","","","","",""
"html-keyboard-response","66","133275","0.0-7.0-0.59","611d33d7cc16fdd812b1a4c4","64e77d7b61f440b60e28659d","64ec9a9df1258af590cdfefa","null","null","<p style=""font-size: 60px; font-family: BACS"">JrGvkbu</p>","","","","","","","","",""
"html-keyboard-response","67","134290","0.0-7.0-0.60","611d33d7cc16fdd812b1a4c4","64e77d7b61f440b60e28659d","64ec9a9df1258af590cdfefa","null","null","<p style=""font-size: 60px; font-family: BACS"">TPCbABb</p>","","","","","","","","",""
"html-keyboard-response","68","135302","0.0-7.0-0.61","611d33d7cc16fdd812b1a4c4","64e77d7b61f440b60e28659d","64ec9a9df1258af590cdfefa","null","null","<p style=""font-size: 60px; font-family: BACS"">GAcYkbu</p>","","","","","","","","",""
"html-keyboard-response","69","136319","0.0-7.0-0.62","611d33d7cc16fdd812b1a4c4","64e77d7b61f440b60e28659d","64ec9a9df1258af590cdfefa","null","null","<p style=""font-size: 60px; font-family: BACS"">TPCbhBK</p>","","","","","","","","",""
"html-keyboard-response","70","137331","0.0-7.0-0.63","611d33d7cc16fdd812b1a4c4","64e77d7b61f440b60e28659d","64ec9a9df1258af590cdfefa","null","null","<p style=""font-size: 60px; font-family: BACS"">JauQJUNa</p>","","","","","","","","",""
"html-keyboard-response","71","138341","0.0-7.0-0.64","611d33d7cc16fdd812b1a4c4","64e77d7b61f440b60e28659d","64ec9a9df1258af590cdfefa","null","null","<p style=""font-size: 60px; font-family: BACS"">CchtdTmc</p>","","","","","","","","",""
"html-keyboard-response","72","139347","0.0-7.0-0.65","611d33d7cc16fdd812b1a4c4","64e77d7b61f440b60e28659d","64ec9a9df1258af590cdfefa","null","null","<p style=""font-size: 60px; font-family: BACS"">McMDPED</p>","","","","","","","","",""
"html-keyboard-response","73","140362","0.0-7.0-0.66","611d33d7cc16fdd812b1a4c4","64e77d7b61f440b60e28659d","64ec9a9df1258af590cdfefa","null","null","<p style=""font-size: 60px; font-family: BACS"">EMYKAlKD</p>","","","","","","","","",""
"html-keyboard-response","74","141370","0.0-7.0-0.67","611d33d7cc16fdd812b1a4c4","64e77d7b61f440b60e28659d","64ec9a9df1258af590cdfefa","null","null","<p style=""font-size: 60px; font-family: BACS"">bYuQJUNa</p>","","","","","","","","",""
"html-keyboard-response","75","142372","0.0-7.0-0.68","611d33d7cc16fdd812b1a4c4","64e77d7b61f440b60e28659d","64ec9a9df1258af590cdfefa","null","null","<p style=""font-size: 60px; font-family: BACS"">EMYKhBK</p>","","","","","","","","",""
"html-keyboard-response","76","143379","0.0-7.0-0.69","611d33d7cc16fdd812b1a4c4","64e77d7b61f440b60e28659d","64ec9a9df1258af590cdfefa","null","null","<p style=""font-size: 60px; font-family: BACS"">JauQkbu</p>","","","","","","","","",""
"html-keyboard-response","77","144387","0.0-7.0-0.70","611d33d7cc16fdd812b1a4c4","64e77d7b61f440b60e28659d","64ec9a9df1258af590cdfefa","null","null","<p style=""font-size: 60px; font-family: BACS"">hChYAlKD</p>","","","","","","","","",""
"html-keyboard-response","78","145402","0.0-7.0-0.71","611d33d7cc16fdd812b1a4c4","64e77d7b61f440b60e28659d","64ec9a9df1258af590cdfefa","null","null","<p style=""font-size: 60px; font-family: BACS"">TPCbPED</p>","","","","","","","","",""
"html-keyboard-response","79","146419","0.0-7.0-0.72","611d33d7cc16fdd812b1a4c4","64e77d7b61f440b60e28659d","64ec9a9df1258af590cdfefa","null","null","<p style=""font-size: 60px; font-family: BACS"">JrGvLcO</p>","","","","","","","","",""
"html-keyboard-response","80","147429","0.0-7.0-0.73","611d33d7cc16fdd812b1a4c4","64e77d7b61f440b60e28659d","64ec9a9df1258af590cdfefa","null","null","<p style=""font-size: 60px; font-family: BACS"">mBbKAlKD</p>","","","","","","","","",""
"html-keyboard-response","81","148435","0.0-7.0-0.74","611d33d7cc16fdd812b1a4c4","64e77d7b61f440b60e28659d","64ec9a9df1258af590cdfefa","null","null","<p style=""font-size: 60px; font-family: BACS"">LdrbvGlu</p>","","","","","","","","",""
"html-keyboard-response","82","149445","0.0-7.0-0.75","611d33d7cc16fdd812b1a4c4","64e77d7b61f440b60e28659d","64ec9a9df1258af590cdfefa","null","null","<p style=""font-size: 60px; font-family: BACS"">OQarQJUNa</p>","","","","","","","","",""
"html-keyboard-response","83","150446","0.0-7.0-0.76","611d33d7cc16fdd812b1a4c4","64e77d7b61f440b60e28659d","64ec9a9df1258af590cdfefa","null","null","<p style=""font-size: 60px; font-family: BACS"">dKRDPED</p>","","","","","","","","",""
"html-keyboard-response","84","151451","0.0-7.0-0.77","611d33d7cc16fdd812b1a4c4","64e77d7b61f440b60e28659d","64ec9a9df1258af590cdfefa","null","null","<p style=""font-size: 60px; font-family: BACS"">NbacALcO</p>","","","","","","","","",""
"html-keyboard-response","85","152463","0.0-7.0-0.78","611d33d7cc16fdd812b1a4c4","64e77d7b61f440b60e28659d","64ec9a9df1258af590cdfefa","null","null","<p style=""font-size: 60px; font-family: BACS"">CchtdhBK</p>","","","","","","","","",""
"html-keyboard-response","86","153476","0.0-7.0-0.79","611d33d7cc16fdd812b1a4c4","64e77d7b61f440b60e28659d","64ec9a9df1258af590cdfefa","null","null","<p style=""font-size: 60px; font-family: BACS"">hbkdPED</p>","","","","","","","","",""
"html-keyboard-response","87","163199","0.0-8.0","611d33d7cc16fdd812b1a4c4","64e77d7b61f440b60e28659d","64ec9a9df1258af590cdfefa","9722"," ","<p>Great, you've seen the first block of words. You may now take a short break.</p>
      <p>Press the spacebar when you're ready to continue.</p>","","","","","","","","",""
"html-keyboard-response","88","164206","0.0-9.0-0.0","611d33d7cc16fdd812b1a4c4","64e77d7b61f440b60e28659d","64ec9a9df1258af590cdfefa","null","null","<p style=""font-size: 60px; font-family: BACS"">bYuQcYUv</p>","","","","","","","","",""
"html-keyboard-response","89","165210","0.0-9.0-0.1","611d33d7cc16fdd812b1a4c4","64e77d7b61f440b60e28659d","64ec9a9df1258af590cdfefa","null","null","<p style=""font-size: 60px; font-family: BACS"">JauQLcO</p>","","","","","","","","",""
"html-keyboard-response","90","166224","0.0-9.0-0.2","611d33d7cc16fdd812b1a4c4","64e77d7b61f440b60e28659d","64ec9a9df1258af590cdfefa","null","null","<p style=""font-size: 60px; font-family: BACS"">QOLmuGlu</p>","","","","","","","","",""
"html-keyboard-response","91","167239","0.0-9.0-0.3","611d33d7cc16fdd812b1a4c4","64e77d7b61f440b60e28659d","64ec9a9df1258af590cdfefa","null","null","<p style=""font-size: 60px; font-family: BACS"">TPCbhBK</p>","","","","","","","","",""
"html-keyboard-response","92","168244","0.0-9.0-0.4","611d33d7cc16fdd812b1a4c4","64e77d7b61f440b60e28659d","64ec9a9df1258af590cdfefa","null","null","<p style=""font-size: 60px; font-family: BACS"">mBbKPED</p>","","","","","","","","",""
"html-keyboard-response","93","169257","0.0-9.0-0.5","611d33d7cc16fdd812b1a4c4","64e77d7b61f440b60e28659d","64ec9a9df1258af590cdfefa","null","null","<p style=""font-size: 60px; font-family: BACS"">hChYAlKD</p>","","","","","","","","",""
"html-keyboard-response","94","170272","0.0-9.0-0.6","611d33d7cc16fdd812b1a4c4","64e77d7b61f440b60e28659d","64ec9a9df1258af590cdfefa","null","null","<p style=""font-size: 60px; font-family: BACS"">GAcYLcO</p>","","","","","","","","",""
"html-keyboard-response","95","171282","0.0-9.0-0.7","611d33d7cc16fdd812b1a4c4","64e77d7b61f440b60e28659d","64ec9a9df1258af590cdfefa","null","null","<p style=""font-size: 60px; font-family: BACS"">Amaclkbu</p>","","","","","","","","",""
"html-keyboard-response","96","172291","0.0-9.0-0.8","611d33d7cc16fdd812b1a4c4","64e77d7b61f440b60e28659d","64ec9a9df1258af590cdfefa","null","null","<p style=""font-size: 60px; font-family: BACS"">aOLZUJUNa</p>","","","","","","","","",""
"html-keyboard-response","97","173294","0.0-9.0-0.9","611d33d7cc16fdd812b1a4c4","64e77d7b61f440b60e28659d","64ec9a9df1258af590cdfefa","null","null","<p style=""font-size: 60px; font-family: BACS"">mBbKAlKD</p>","","","","","","","","",""
"html-keyboard-response","98","174306","0.0-9.0-0.10","611d33d7cc16fdd812b1a4c4","64e77d7b61f440b60e28659d","64ec9a9df1258af590cdfefa","null","null","<p style=""font-size: 60px; font-family: BACS"">hbkdhBK</p>","","","","","","","","",""
"html-keyboard-response","99","175320","0.0-9.0-0.11","611d33d7cc16fdd812b1a4c4","64e77d7b61f440b60e28659d","64ec9a9df1258af590cdfefa","null","null","<p style=""font-size: 60px; font-family: BACS"">hTtBbABb</p>","","","","","","","","",""
"html-keyboard-response","100","176322","0.0-9.0-0.12","611d33d7cc16fdd812b1a4c4","64e77d7b61f440b60e28659d","64ec9a9df1258af590cdfefa","null","null","<p style=""font-size: 60px; font-family: BACS"">LdrbvGlu</p>","","","","","","","","",""
"html-keyboard-response","101","177323","0.0-9.0-0.13","611d33d7cc16fdd812b1a4c4","64e77d7b61f440b60e28659d","64ec9a9df1258af590cdfefa","null","null","<p style=""font-size: 60px; font-family: BACS"">bYuQJUNa</p>","","","","","","","","",""
"html-keyboard-response","102","178334","0.0-9.0-0.14","611d33d7cc16fdd812b1a4c4","64e77d7b61f440b60e28659d","64ec9a9df1258af590cdfefa","null","null","<p style=""font-size: 60px; font-family: BACS"">hTtBbhBK</p>","","","","","","","","",""
"html-keyboard-response","103","179344","0.0-9.0-0.15","611d33d7cc16fdd812b1a4c4","64e77d7b61f440b60e28659d","64ec9a9df1258af590cdfefa","null","null","<p style=""font-size: 60px; font-family: BACS"">GAcYcYUv</p>","","","","","","","","",""
"html-keyboard-response","104","180358","0.0-9.0-0.16","611d33d7cc16fdd812b1a4c4","64e77d7b61f440b60e28659d","64ec9a9df1258af590cdfefa","null","null","<p style=""font-size: 60px; font-family: BACS"">hChYABb</p>","","","","","","","","",""
"html-keyboard-response","105","181373","0.0-9.0-0.17","611d33d7cc16fdd812b1a4c4","64e77d7b61f440b60e28659d","64ec9a9df1258af590cdfefa","null","null","<p style=""font-size: 60px; font-family: BACS"">LdrbvJUNa</p>","","","","","","","","",""
"html-keyboard-response","106","182377","0.0-9.0-0.18","611d33d7cc16fdd812b1a4c4","64e77d7b61f440b60e28659d","64ec9a9df1258af590cdfefa","null","null","<p style=""font-size: 60px; font-family: BACS"">EhRmABb</p>","","","","","","","","",""
"html-keyboard-response","107","183392","0.0-9.0-0.19","611d33d7cc16fdd812b1a4c4","64e77d7b61f440b60e28659d","64ec9a9df1258af590cdfefa","null","null","<p style=""font-size: 60px; font-family: BACS"">JauQcYUv</p>","","","","","","","","",""
"html-keyboard-response","108","184399","0.0-9.0-0.20","611d33d7cc16fdd812b1a4c4","64e77d7b61f440b60e28659d","64ec9a9df1258af590cdfefa","null","null","<p style=""font-size: 60px; font-family: BACS"">QOLmuLcO</p>","","","","","","","","",""
"html-keyboard-response","109","185415","0.0-9.0-0.21","611d33d7cc16fdd812b1a4c4","64e77d7b61f440b60e28659d","64ec9a9df1258af590cdfefa","null","null","<p style=""font-size: 60px; font-family: BACS"">CchtdAlKD</p>","","","","","","","","",""
"html-keyboard-response","110","186417","0.0-9.0-0.22","611d33d7cc16fdd812b1a4c4","64e77d7b61f440b60e28659d","64ec9a9df1258af590cdfefa","null","null","<p style=""font-size: 60px; font-family: BACS"">EMYKABb</p>","","","","","","","","",""
"html-keyboard-response","111","187432","0.0-9.0-0.23","611d33d7cc16fdd812b1a4c4","64e77d7b61f440b60e28659d","64ec9a9df1258af590cdfefa","null","null","<p style=""font-size: 60px; font-family: BACS"">GAcYGlu</p>","","","","","","","","",""
"html-keyboard-response","112","188448","0.0-9.0-0.24","611d33d7cc16fdd812b1a4c4","64e77d7b61f440b60e28659d","64ec9a9df1258af590cdfefa","null","null","<p style=""font-size: 60px; font-family: BACS"">CchtdABb</p>","","","","","","","","",""
"html-keyboard-response","113","189454","0.0-9.0-0.25","611d33d7cc16fdd812b1a4c4","64e77d7b61f440b60e28659d","64ec9a9df1258af590cdfefa","null","null","<p style=""font-size: 60px; font-family: BACS"">JauQJUNa</p>","","","","","","","","",""
"html-keyboard-response","114","190468","0.0-9.0-0.26","611d33d7cc16fdd812b1a4c4","64e77d7b61f440b60e28659d","64ec9a9df1258af590cdfefa","null","null","<p style=""font-size: 60px; font-family: BACS"">hTtBbPED</p>","","","","","","","","",""
"html-keyboard-response","115","191470","0.0-9.0-0.27","611d33d7cc16fdd812b1a4c4","64e77d7b61f440b60e28659d","64ec9a9df1258af590cdfefa","null","null","<p style=""font-size: 60px; font-family: BACS"">JrGvLcO</p>","","","","","","","","",""
"html-keyboard-response","116","192472","0.0-9.0-0.28","611d33d7cc16fdd812b1a4c4","64e77d7b61f440b60e28659d","64ec9a9df1258af590cdfefa","null","null","<p style=""font-size: 60px; font-family: BACS"">McMDAlKD</p>","","","","","","","","",""
"html-keyboard-response","117","193481","0.0-9.0-0.29","611d33d7cc16fdd812b1a4c4","64e77d7b61f440b60e28659d","64ec9a9df1258af590cdfefa","null","null","<p style=""font-size: 60px; font-family: BACS"">JrGvJUNa</p>","","","","","","","","",""
"html-keyboard-response","118","194486","0.0-9.0-0.30","611d33d7cc16fdd812b1a4c4","64e77d7b61f440b60e28659d","64ec9a9df1258af590cdfefa","null","null","<p style=""font-size: 60px; font-family: BACS"">EMYKTmc</p>","","","","","","","","",""
"html-keyboard-response","119","195496","0.0-9.0-0.31","611d33d7cc16fdd812b1a4c4","64e77d7b61f440b60e28659d","64ec9a9df1258af590cdfefa","null","null","<p style=""font-size: 60px; font-family: BACS"">GAcYkbu</p>","","","","","","","","",""
"html-keyboard-response","120","196505","0.0-9.0-0.32","611d33d7cc16fdd812b1a4c4","64e77d7b61f440b60e28659d","64ec9a9df1258af590cdfefa","null","null","<p style=""font-size: 60px; font-family: BACS"">JrGvGlu</p>","","","","","","","","",""
"html-keyboard-response","121","197510","0.0-9.0-0.33","611d33d7cc16fdd812b1a4c4","64e77d7b61f440b60e28659d","64ec9a9df1258af590cdfefa","null","null","<p style=""font-size: 60px; font-family: BACS"">bYuQkbu</p>","","","","","","","","",""
"html-keyboard-response","122","198512","0.0-9.0-0.34","611d33d7cc16fdd812b1a4c4","64e77d7b61f440b60e28659d","64ec9a9df1258af590cdfefa","null","null","<p style=""font-size: 60px; font-family: BACS"">CchtdTmc</p>","","","","","","","","",""
"html-keyboard-response","123","199514","0.0-9.0-0.35","611d33d7cc16fdd812b1a4c4","64e77d7b61f440b60e28659d","64ec9a9df1258af590cdfefa","null","null","<p style=""font-size: 60px; font-family: BACS"">EhRmAlKD</p>","","","","","","","","",""
"html-keyboard-response","124","200516","0.0-9.0-0.36","611d33d7cc16fdd812b1a4c4","64e77d7b61f440b60e28659d","64ec9a9df1258af590cdfefa","null","null","<p style=""font-size: 60px; font-family: BACS"">AmaclJUNa</p>","","","","","","","","",""
"html-keyboard-response","125","201517","0.0-9.0-0.37","611d33d7cc16fdd812b1a4c4","64e77d7b61f440b60e28659d","64ec9a9df1258af590cdfefa","null","null","<p style=""font-size: 60px; font-family: BACS"">dKRDTmc</p>","","","","","","","","",""
"html-keyboard-response","126","202527","0.0-9.0-0.38","611d33d7cc16fdd812b1a4c4","64e77d7b61f440b60e28659d","64ec9a9df1258af590cdfefa","null","null","<p style=""font-size: 60px; font-family: BACS"">McMDABb</p>","","","","","","","","",""
"html-keyboard-response","127","203528","0.0-9.0-0.39","611d33d7cc16fdd812b1a4c4","64e77d7b61f440b60e28659d","64ec9a9df1258af590cdfefa","null","null","<p style=""font-size: 60px; font-family: BACS"">EMYKAlKD</p>","","","","","","","","",""
"html-keyboard-response","128","204532","0.0-9.0-0.40","611d33d7cc16fdd812b1a4c4","64e77d7b61f440b60e28659d","64ec9a9df1258af590cdfefa","null","null","<p style=""font-size: 60px; font-family: BACS"">LdrbvcYUv</p>","","","","","","","","",""
"html-keyboard-response","129","205549","0.0-9.0-0.41","611d33d7cc16fdd812b1a4c4","64e77d7b61f440b60e28659d","64ec9a9df1258af590cdfefa","null","null","<p style=""font-size: 60px; font-family: BACS"">NbacALcO</p>","","","","","","","","",""
"html-keyboard-response","130","206563","0.0-9.0-0.42","611d33d7cc16fdd812b1a4c4","64e77d7b61f440b60e28659d","64ec9a9df1258af590cdfefa","null","null","<p style=""font-size: 60px; font-family: BACS"">TPCbPED</p>","","","","","","","","",""
"html-keyboard-response","131","207576","0.0-9.0-0.43","611d33d7cc16fdd812b1a4c4","64e77d7b61f440b60e28659d","64ec9a9df1258af590cdfefa","null","null","<p style=""font-size: 60px; font-family: BACS"">dKRDAlKD</p>","","","","","","","","",""
"html-keyboard-response","132","208591","0.0-9.0-0.44","611d33d7cc16fdd812b1a4c4","64e77d7b61f440b60e28659d","64ec9a9df1258af590cdfefa","null","null","<p style=""font-size: 60px; font-family: BACS"">mBbKABb</p>","","","","","","","","",""
"html-keyboard-response","133","209605","0.0-9.0-0.45","611d33d7cc16fdd812b1a4c4","64e77d7b61f440b60e28659d","64ec9a9df1258af590cdfefa","null","null","<p style=""font-size: 60px; font-family: BACS"">NbacAJUNa</p>","","","","","","","","",""
"html-keyboard-response","134","210621","0.0-9.0-0.46","611d33d7cc16fdd812b1a4c4","64e77d7b61f440b60e28659d","64ec9a9df1258af590cdfefa","null","null","<p style=""font-size: 60px; font-family: BACS"">LdrbvLcO</p>","","","","","","","","",""
"html-keyboard-response","135","211631","0.0-9.0-0.47","611d33d7cc16fdd812b1a4c4","64e77d7b61f440b60e28659d","64ec9a9df1258af590cdfefa","null","null","<p style=""font-size: 60px; font-family: BACS"">dKRDPED</p>","","","","","","","","",""
"html-keyboard-response","136","212640","0.0-9.0-0.48","611d33d7cc16fdd812b1a4c4","64e77d7b61f440b60e28659d","64ec9a9df1258af590cdfefa","null","null","<p style=""font-size: 60px; font-family: BACS"">aOLZUcYUv</p>","","","","","","","","",""
"html-keyboard-response","137","213649","0.0-9.0-0.49","611d33d7cc16fdd812b1a4c4","64e77d7b61f440b60e28659d","64ec9a9df1258af590cdfefa","null","null","<p style=""font-size: 60px; font-family: BACS"">dKRDhBK</p>","","","","","","","","",""
"html-keyboard-response","138","214656","0.0-9.0-0.50","611d33d7cc16fdd812b1a4c4","64e77d7b61f440b60e28659d","64ec9a9df1258af590cdfefa","null","null","<p style=""font-size: 60px; font-family: BACS"">NbacAkbu</p>","","","","","","","","",""
"html-keyboard-response","139","215662","0.0-9.0-0.51","611d33d7cc16fdd812b1a4c4","64e77d7b61f440b60e28659d","64ec9a9df1258af590cdfefa","null","null","<p style=""font-size: 60px; font-family: BACS"">bYuQLcO</p>","","","","","","","","",""
"html-keyboard-response","140","216678","0.0-9.0-0.52","611d33d7cc16fdd812b1a4c4","64e77d7b61f440b60e28659d","64ec9a9df1258af590cdfefa","null","null","<p style=""font-size: 60px; font-family: BACS"">JauQkbu</p>","","","","","","","","",""
"html-keyboard-response","141","217688","0.0-9.0-0.53","611d33d7cc16fdd812b1a4c4","64e77d7b61f440b60e28659d","64ec9a9df1258af590cdfefa","null","null","<p style=""font-size: 60px; font-family: BACS"">hbkdPED</p>","","","","","","","","",""
"html-keyboard-response","142","218702","0.0-9.0-0.54","611d33d7cc16fdd812b1a4c4","64e77d7b61f440b60e28659d","64ec9a9df1258af590cdfefa","null","null","<p style=""font-size: 60px; font-family: BACS"">hTtBbTmc</p>","","","","","","","","",""
"html-keyboard-response","143","219704","0.0-9.0-0.55","611d33d7cc16fdd812b1a4c4","64e77d7b61f440b60e28659d","64ec9a9df1258af590cdfefa","null","null","<p style=""font-size: 60px; font-family: BACS"">AmaclcYUv</p>","","","","","","","","",""
"html-keyboard-response","144","220720","0.0-9.0-0.56","611d33d7cc16fdd812b1a4c4","64e77d7b61f440b60e28659d","64ec9a9df1258af590cdfefa","null","null","<p style=""font-size: 60px; font-family: BACS"">JrGvkbu</p>","","","","","","","","",""
"html-keyboard-response","145","221727","0.0-9.0-0.57","611d33d7cc16fdd812b1a4c4","64e77d7b61f440b60e28659d","64ec9a9df1258af590cdfefa","null","null","<p style=""font-size: 60px; font-family: BACS"">McMDPED</p>","","","","","","","","",""
"html-keyboard-response","146","222730","0.0-9.0-0.58","611d33d7cc16fdd812b1a4c4","64e77d7b61f440b60e28659d","64ec9a9df1258af590cdfefa","null","null","<p style=""font-size: 60px; font-family: BACS"">TPCbTmc</p>","","","","","","","","",""
"html-keyboard-response","147","223745","0.0-9.0-0.59","611d33d7cc16fdd812b1a4c4","64e77d7b61f440b60e28659d","64ec9a9df1258af590cdfefa","null","null","<p style=""font-size: 60px; font-family: BACS"">OQarQLcO</p>","","","","","","","","",""
"html-keyboard-response","148","224760","0.0-9.0-0.60","611d33d7cc16fdd812b1a4c4","64e77d7b61f440b60e28659d","64ec9a9df1258af590cdfefa","null","null","<p style=""font-size: 60px; font-family: BACS"">hbkdTmc</p>","","","","","","","","",""
"html-keyboard-response","149","225768","0.0-9.0-0.61","611d33d7cc16fdd812b1a4c4","64e77d7b61f440b60e28659d","64ec9a9df1258af590cdfefa","null","null","<p style=""font-size: 60px; font-family: BACS"">EhRmPED</p>","","","","","","","","",""
"html-keyboard-response","150","226770","0.0-9.0-0.62","611d33d7cc16fdd812b1a4c4","64e77d7b61f440b60e28659d","64ec9a9df1258af590cdfefa","null","null","<p style=""font-size: 60px; font-family: BACS"">AmaclGlu</p>","","","","","","","","",""
"html-keyboard-response","151","227786","0.0-9.0-0.63","611d33d7cc16fdd812b1a4c4","64e77d7b61f440b60e28659d","64ec9a9df1258af590cdfefa","null","null","<p style=""font-size: 60px; font-family: BACS"">QOLmukbu</p>","","","","","","","","",""
"html-keyboard-response","152","228790","0.0-9.0-0.64","611d33d7cc16fdd812b1a4c4","64e77d7b61f440b60e28659d","64ec9a9df1258af590cdfefa","null","null","<p style=""font-size: 60px; font-family: BACS"">OQarQcYUv</p>","","","","","","","","",""
"html-keyboard-response","153","229800","0.0-9.0-0.65","611d33d7cc16fdd812b1a4c4","64e77d7b61f440b60e28659d","64ec9a9df1258af590cdfefa","null","null","<p style=""font-size: 60px; font-family: BACS"">hbkdAlKD</p>","","","","","","","","",""
"html-keyboard-response","154","230802","0.0-9.0-0.66","611d33d7cc16fdd812b1a4c4","64e77d7b61f440b60e28659d","64ec9a9df1258af590cdfefa","null","null","<p style=""font-size: 60px; font-family: BACS"">aOLZUGlu</p>","","","","","","","","",""
"html-keyboard-response","155","231815","0.0-9.0-0.67","611d33d7cc16fdd812b1a4c4","64e77d7b61f440b60e28659d","64ec9a9df1258af590cdfefa","null","null","<p style=""font-size: 60px; font-family: BACS"">EMYKhBK</p>","","","","","","","","",""
"html-keyboard-response","156","232825","0.0-9.0-0.68","611d33d7cc16fdd812b1a4c4","64e77d7b61f440b60e28659d","64ec9a9df1258af590cdfefa","null","null","<p style=""font-size: 60px; font-family: BACS"">OQarQJUNa</p>","","","","","","","","",""
"html-keyboard-response","157","233832","0.0-9.0-0.69","611d33d7cc16fdd812b1a4c4","64e77d7b61f440b60e28659d","64ec9a9df1258af590cdfefa","null","null","<p style=""font-size: 60px; font-family: BACS"">EhRmhBK</p>","","","","","","","","",""
"html-keyboard-response","158","234848","0.0-9.0-0.70","611d33d7cc16fdd812b1a4c4","64e77d7b61f440b60e28659d","64ec9a9df1258af590cdfefa","null","null","<p style=""font-size: 60px; font-family: BACS"">TPCbABb</p>","","","","","","","","",""
"html-keyboard-response","159","235856","0.0-9.0-0.71","611d33d7cc16fdd812b1a4c4","64e77d7b61f440b60e28659d","64ec9a9df1258af590cdfefa","null","null","<p style=""font-size: 60px; font-family: BACS"">CchtdhBK</p>","","","","","","","","",""
"html-keyboard-response","160","236869","0.0-9.0-0.72","611d33d7cc16fdd812b1a4c4","64e77d7b61f440b60e28659d","64ec9a9df1258af590cdfefa","null","null","<p style=""font-size: 60px; font-family: BACS"">hChYPED</p>","","","","","","","","",""
"html-keyboard-response","161","237874","0.0-9.0-0.73","611d33d7cc16fdd812b1a4c4","64e77d7b61f440b60e28659d","64ec9a9df1258af590cdfefa","null","null","<p style=""font-size: 60px; font-family: BACS"">OQarQGlu</p>","","","","","","","","",""
"html-keyboard-response","162","238889","0.0-9.0-0.74","611d33d7cc16fdd812b1a4c4","64e77d7b61f440b60e28659d","64ec9a9df1258af590cdfefa","null","null","<p style=""font-size: 60px; font-family: BACS"">mBbKTmc</p>","","","","","","","","",""
"html-keyboard-response","163","239899","0.0-9.0-0.75","611d33d7cc16fdd812b1a4c4","64e77d7b61f440b60e28659d","64ec9a9df1258af590cdfefa","null","null","<p style=""font-size: 60px; font-family: BACS"">hChYhBK</p>","","","","","","","","",""
"html-keyboard-response","164","240911","0.0-9.0-0.76","611d33d7cc16fdd812b1a4c4","64e77d7b61f440b60e28659d","64ec9a9df1258af590cdfefa","null","null","<p style=""font-size: 60px; font-family: BACS"">McMDTmc</p>","","","","","","","","",""
"html-keyboard-response","165","241915","0.0-9.0-0.77","611d33d7cc16fdd812b1a4c4","64e77d7b61f440b60e28659d","64ec9a9df1258af590cdfefa","null","null","<p style=""font-size: 60px; font-family: BACS"">QOLmucYUv</p>","","","","","","","","",""
"html-keyboard-response","166","242919","0.0-9.0-0.78","611d33d7cc16fdd812b1a4c4","64e77d7b61f440b60e28659d","64ec9a9df1258af590cdfefa","null","null","<p style=""font-size: 60px; font-family: BACS"">NbacAGlu</p>","","","","","","","","",""
"html-keyboard-response","167","243921","0.0-9.0-0.79","611d33d7cc16fdd812b1a4c4","64e77d7b61f440b60e28659d","64ec9a9df1258af590cdfefa","null","null","<p style=""font-size: 60px; font-family: BACS"">aOLZUkbu</p>","","","","","","","","",""
"html-keyboard-response","168","268288","0.0-10.0","611d33d7cc16fdd812b1a4c4","64e77d7b61f440b60e28659d","64ec9a9df1258af590cdfefa","24366"," ","<p>Great, you've seen the second block of words. You may now take a short break.</p>
      <p>Press the spacebar when you're ready to continue.</p>","","","","","","","","",""
"html-keyboard-response","169","269302","0.0-11.0-0.0","611d33d7cc16fdd812b1a4c4","64e77d7b61f440b60e28659d","64ec9a9df1258af590cdfefa","null","null","<p style=""font-size: 60px; font-family: BACS"">GAcYLcO</p>","","","","","","","","",""
"html-keyboard-response","170","270305","0.0-11.0-0.1","611d33d7cc16fdd812b1a4c4","64e77d7b61f440b60e28659d","64ec9a9df1258af590cdfefa","null","null","<p style=""font-size: 60px; font-family: BACS"">aOLZUJUNa</p>","","","","","","","","",""
"html-keyboard-response","171","271312","0.0-11.0-0.2","611d33d7cc16fdd812b1a4c4","64e77d7b61f440b60e28659d","64ec9a9df1258af590cdfefa","null","null","<p style=""font-size: 60px; font-family: BACS"">AmaclcYUv</p>","","","","","","","","",""
"html-keyboard-response","172","272320","0.0-11.0-0.3","611d33d7cc16fdd812b1a4c4","64e77d7b61f440b60e28659d","64ec9a9df1258af590cdfefa","null","null","<p style=""font-size: 60px; font-family: BACS"">EhRmAlKD</p>","","","","","","","","",""
"html-keyboard-response","173","273325","0.0-11.0-0.4","611d33d7cc16fdd812b1a4c4","64e77d7b61f440b60e28659d","64ec9a9df1258af590cdfefa","null","null","<p style=""font-size: 60px; font-family: BACS"">mBbKPED</p>","","","","","","","","",""
"html-keyboard-response","174","274334","0.0-11.0-0.5","611d33d7cc16fdd812b1a4c4","64e77d7b61f440b60e28659d","64ec9a9df1258af590cdfefa","null","null","<p style=""font-size: 60px; font-family: BACS"">JrGvkbu</p>","","","","","","","","",""
"html-keyboard-response","175","275337","0.0-11.0-0.6","611d33d7cc16fdd812b1a4c4","64e77d7b61f440b60e28659d","64ec9a9df1258af590cdfefa","null","null","<p style=""font-size: 60px; font-family: BACS"">hChYhBK</p>","","","","","","","","",""
"html-keyboard-response","176","276340","0.0-11.0-0.7","611d33d7cc16fdd812b1a4c4","64e77d7b61f440b60e28659d","64ec9a9df1258af590cdfefa","null","null","<p style=""font-size: 60px; font-family: BACS"">LdrbvcYUv</p>","","","","","","","","",""
"html-keyboard-response","177","277352","0.0-11.0-0.8","611d33d7cc16fdd812b1a4c4","64e77d7b61f440b60e28659d","64ec9a9df1258af590cdfefa","null","null","<p style=""font-size: 60px; font-family: BACS"">CchtdABb</p>","","","","","","","","",""
"html-keyboard-response","178","278368","0.0-11.0-0.9","611d33d7cc16fdd812b1a4c4","64e77d7b61f440b60e28659d","64ec9a9df1258af590cdfefa","null","null","<p style=""font-size: 60px; font-family: BACS"">hbkdhBK</p>","","","","","","","","",""
"html-keyboard-response","179","279382","0.0-11.0-0.10","611d33d7cc16fdd812b1a4c4","64e77d7b61f440b60e28659d","64ec9a9df1258af590cdfefa","null","null","<p style=""font-size: 60px; font-family: BACS"">bYuQLcO</p>","","","","","","","","",""
"html-keyboard-response","180","280387","0.0-11.0-0.11","611d33d7cc16fdd812b1a4c4","64e77d7b61f440b60e28659d","64ec9a9df1258af590cdfefa","null","null","<p style=""font-size: 60px; font-family: BACS"">JrGvJUNa</p>","","","","","","","","",""
"html-keyboard-response","181","281392","0.0-11.0-0.12","611d33d7cc16fdd812b1a4c4","64e77d7b61f440b60e28659d","64ec9a9df1258af590cdfefa","null","null","<p style=""font-size: 60px; font-family: BACS"">McMDTmc</p>","","","","","","","","",""
"html-keyboard-response","182","282408","0.0-11.0-0.13","611d33d7cc16fdd812b1a4c4","64e77d7b61f440b60e28659d","64ec9a9df1258af590cdfefa","null","null","<p style=""font-size: 60px; font-family: BACS"">LdrbvLcO</p>","","","","","","","","",""
"html-keyboard-response","183","283418","0.0-11.0-0.14","611d33d7cc16fdd812b1a4c4","64e77d7b61f440b60e28659d","64ec9a9df1258af590cdfefa","null","null","<p style=""font-size: 60px; font-family: BACS"">hTtBbhBK</p>","","","","","","","","",""
"html-keyboard-response","184","284423","0.0-11.0-0.15","611d33d7cc16fdd812b1a4c4","64e77d7b61f440b60e28659d","64ec9a9df1258af590cdfefa","null","null","<p style=""font-size: 60px; font-family: BACS"">NbacAGlu</p>","","","","","","","","",""
"html-keyboard-response","185","285434","0.0-11.0-0.16","611d33d7cc16fdd812b1a4c4","64e77d7b61f440b60e28659d","64ec9a9df1258af590cdfefa","null","null","<p style=""font-size: 60px; font-family: BACS"">OQarQJUNa</p>","","","","","","","","",""
"html-keyboard-response","186","286438","0.0-11.0-0.17","611d33d7cc16fdd812b1a4c4","64e77d7b61f440b60e28659d","64ec9a9df1258af590cdfefa","null","null","<p style=""font-size: 60px; font-family: BACS"">QOLmucYUv</p>","","","","","","","","",""
"html-keyboard-response","187","287446","0.0-11.0-0.18","611d33d7cc16fdd812b1a4c4","64e77d7b61f440b60e28659d","64ec9a9df1258af590cdfefa","null","null","<p style=""font-size: 60px; font-family: BACS"">OQarQGlu</p>","","","","","","","","",""
"html-keyboard-response","188","288454","0.0-11.0-0.19","611d33d7cc16fdd812b1a4c4","64e77d7b61f440b60e28659d","64ec9a9df1258af590cdfefa","null","null","<p style=""font-size: 60px; font-family: BACS"">EhRmABb</p>","","","","","","","","",""
"html-keyboard-response","189","289463","0.0-11.0-0.20","611d33d7cc16fdd812b1a4c4","64e77d7b61f440b60e28659d","64ec9a9df1258af590cdfefa","null","null","<p style=""font-size: 60px; font-family: BACS"">McMDPED</p>","","","","","","","","",""
"html-keyboard-response","190","290465","0.0-11.0-0.21","611d33d7cc16fdd812b1a4c4","64e77d7b61f440b60e28659d","64ec9a9df1258af590cdfefa","null","null","<p style=""font-size: 60px; font-family: BACS"">hTtBbABb</p>","","","","","","","","",""
"html-keyboard-response","191","291480","0.0-11.0-0.22","611d33d7cc16fdd812b1a4c4","64e77d7b61f440b60e28659d","64ec9a9df1258af590cdfefa","null","null","<p style=""font-size: 60px; font-family: BACS"">GAcYcYUv</p>","","","","","","","","",""
"html-keyboard-response","192","292496","0.0-11.0-0.23","611d33d7cc16fdd812b1a4c4","64e77d7b61f440b60e28659d","64ec9a9df1258af590cdfefa","null","null","<p style=""font-size: 60px; font-family: BACS"">LdrbvJUNa</p>","","","","","","","","",""
"html-keyboard-response","193","293511","0.0-11.0-0.24","611d33d7cc16fdd812b1a4c4","64e77d7b61f440b60e28659d","64ec9a9df1258af590cdfefa","null","null","<p style=""font-size: 60px; font-family: BACS"">aOLZUkbu</p>","","","","","","","","",""
"html-keyboard-response","194","294528","0.0-11.0-0.25","611d33d7cc16fdd812b1a4c4","64e77d7b61f440b60e28659d","64ec9a9df1258af590cdfefa","null","null","<p style=""font-size: 60px; font-family: BACS"">TPCbABb</p>","","","","","","","","",""
"html-keyboard-response","195","295542","0.0-11.0-0.26","611d33d7cc16fdd812b1a4c4","64e77d7b61f440b60e28659d","64ec9a9df1258af590cdfefa","null","null","<p style=""font-size: 60px; font-family: BACS"">OQarQLcO</p>","","","","","","","","",""
"html-keyboard-response","196","296546","0.0-11.0-0.27","611d33d7cc16fdd812b1a4c4","64e77d7b61f440b60e28659d","64ec9a9df1258af590cdfefa","null","null","<p style=""font-size: 60px; font-family: BACS"">EMYKhBK</p>","","","","","","","","",""
"html-keyboard-response","197","297554","0.0-11.0-0.28","611d33d7cc16fdd812b1a4c4","64e77d7b61f440b60e28659d","64ec9a9df1258af590cdfefa","null","null","<p style=""font-size: 60px; font-family: BACS"">hChYABb</p>","","","","","","","","",""
"html-keyboard-response","198","298570","0.0-11.0-0.29","611d33d7cc16fdd812b1a4c4","64e77d7b61f440b60e28659d","64ec9a9df1258af590cdfefa","null","null","<p style=""font-size: 60px; font-family: BACS"">JauQJUNa</p>","","","","","","","","",""
"html-keyboard-response","199","299582","0.0-11.0-0.30","611d33d7cc16fdd812b1a4c4","64e77d7b61f440b60e28659d","64ec9a9df1258af590cdfefa","null","null","<p style=""font-size: 60px; font-family: BACS"">CchtdhBK</p>","","","","","","","","",""
"html-keyboard-response","200","300586","0.0-11.0-0.31","611d33d7cc16fdd812b1a4c4","64e77d7b61f440b60e28659d","64ec9a9df1258af590cdfefa","null","null","<p style=""font-size: 60px; font-family: BACS"">hbkdPED</p>","","","","","","","","",""
"html-keyboard-response","201","301587","0.0-11.0-0.32","611d33d7cc16fdd812b1a4c4","64e77d7b61f440b60e28659d","64ec9a9df1258af590cdfefa","null","null","<p style=""font-size: 60px; font-family: BACS"">Amaclkbu</p>","","","","","","","","",""
"html-keyboard-response","202","302599","0.0-11.0-0.33","611d33d7cc16fdd812b1a4c4","64e77d7b61f440b60e28659d","64ec9a9df1258af590cdfefa","null","null","<p style=""font-size: 60px; font-family: BACS"">TPCbTmc</p>","","","","","","","","",""
"html-keyboard-response","203","303607","0.0-11.0-0.34","611d33d7cc16fdd812b1a4c4","64e77d7b61f440b60e28659d","64ec9a9df1258af590cdfefa","null","null","<p style=""font-size: 60px; font-family: BACS"">EMYKABb</p>","","","","","","","","",""
"html-keyboard-response","204","304609","0.0-11.0-0.35","611d33d7cc16fdd812b1a4c4","64e77d7b61f440b60e28659d","64ec9a9df1258af590cdfefa","null","null","<p style=""font-size: 60px; font-family: BACS"">aOLZUcYUv</p>","","","","","","","","",""
"html-keyboard-response","205","305616","0.0-11.0-0.36","611d33d7cc16fdd812b1a4c4","64e77d7b61f440b60e28659d","64ec9a9df1258af590cdfefa","null","null","<p style=""font-size: 60px; font-family: BACS"">CchtdAlKD</p>","","","","","","","","",""
"html-keyboard-response","206","306624","0.0-11.0-0.37","611d33d7cc16fdd812b1a4c4","64e77d7b61f440b60e28659d","64ec9a9df1258af590cdfefa","null","null","<p style=""font-size: 60px; font-family: BACS"">bYuQcYUv</p>","","","","","","","","",""
"html-keyboard-response","207","307640","0.0-11.0-0.38","611d33d7cc16fdd812b1a4c4","64e77d7b61f440b60e28659d","64ec9a9df1258af590cdfefa","null","null","<p style=""font-size: 60px; font-family: BACS"">AmaclJUNa</p>","","","","","","","","",""
"html-keyboard-response","208","308641","0.0-11.0-0.39","611d33d7cc16fdd812b1a4c4","64e77d7b61f440b60e28659d","64ec9a9df1258af590cdfefa","null","null","<p style=""font-size: 60px; font-family: BACS"">hbkdTmc</p>","","","","","","","","",""
"html-keyboard-response","209","309649","0.0-11.0-0.40","611d33d7cc16fdd812b1a4c4","64e77d7b61f440b60e28659d","64ec9a9df1258af590cdfefa","null","null","<p style=""font-size: 60px; font-family: BACS"">JauQkbu</p>","","","","","","","","",""
"html-keyboard-response","210","310659","0.0-11.0-0.41","611d33d7cc16fdd812b1a4c4","64e77d7b61f440b60e28659d","64ec9a9df1258af590cdfefa","null","null","<p style=""font-size: 60px; font-family: BACS"">mBbKABb</p>","","","","","","","","",""
"html-keyboard-response","211","311672","0.0-11.0-0.42","611d33d7cc16fdd812b1a4c4","64e77d7b61f440b60e28659d","64ec9a9df1258af590cdfefa","null","null","<p style=""font-size: 60px; font-family: BACS"">TPCbPED</p>","","","","","","","","",""
"html-keyboard-response","212","312674","0.0-11.0-0.43","611d33d7cc16fdd812b1a4c4","64e77d7b61f440b60e28659d","64ec9a9df1258af590cdfefa","null","null","<p style=""font-size: 60px; font-family: BACS"">mBbKTmc</p>","","","","","","","","",""
"html-keyboard-response","213","313688","0.0-11.0-0.44","611d33d7cc16fdd812b1a4c4","64e77d7b61f440b60e28659d","64ec9a9df1258af590cdfefa","null","null","<p style=""font-size: 60px; font-family: BACS"">EhRmhBK</p>","","","","","","","","",""
"html-keyboard-response","214","314705","0.0-11.0-0.45","611d33d7cc16fdd812b1a4c4","64e77d7b61f440b60e28659d","64ec9a9df1258af590cdfefa","null","null","<p style=""font-size: 60px; font-family: BACS"">JauQcYUv</p>","","","","","","","","",""
"html-keyboard-response","215","315713","0.0-11.0-0.46","611d33d7cc16fdd812b1a4c4","64e77d7b61f440b60e28659d","64ec9a9df1258af590cdfefa","null","null","<p style=""font-size: 60px; font-family: BACS"">EMYKAlKD</p>","","","","","","","","",""
"html-keyboard-response","216","316724","0.0-11.0-0.47","611d33d7cc16fdd812b1a4c4","64e77d7b61f440b60e28659d","64ec9a9df1258af590cdfefa","null","null","<p style=""font-size: 60px; font-family: BACS"">OQarQcYUv</p>","","","","","","","","",""
"html-keyboard-response","217","317729","0.0-11.0-0.48","611d33d7cc16fdd812b1a4c4","64e77d7b61f440b60e28659d","64ec9a9df1258af590cdfefa","null","null","<p style=""font-size: 60px; font-family: BACS"">GAcYGlu</p>","","","","","","","","",""
"html-keyboard-response","218","318736","0.0-11.0-0.49","611d33d7cc16fdd812b1a4c4","64e77d7b61f440b60e28659d","64ec9a9df1258af590cdfefa","null","null","<p style=""font-size: 60px; font-family: BACS"">TPCbhBK</p>","","","","","","","","",""
"html-keyboard-response","219","319740","0.0-11.0-0.50","611d33d7cc16fdd812b1a4c4","64e77d7b61f440b60e28659d","64ec9a9df1258af590cdfefa","null","null","<p style=""font-size: 60px; font-family: BACS"">LdrbvGlu</p>","","","","","","","","",""
"html-keyboard-response","220","320754","0.0-11.0-0.51","611d33d7cc16fdd812b1a4c4","64e77d7b61f440b60e28659d","64ec9a9df1258af590cdfefa","null","null","<p style=""font-size: 60px; font-family: BACS"">mBbKAlKD</p>","","","","","","","","",""
"html-keyboard-response","221","321760","0.0-11.0-0.52","611d33d7cc16fdd812b1a4c4","64e77d7b61f440b60e28659d","64ec9a9df1258af590cdfefa","null","null","<p style=""font-size: 60px; font-family: BACS"">dKRDTmc</p>","","","","","","","","",""
"html-keyboard-response","222","322777","0.0-11.0-0.53","611d33d7cc16fdd812b1a4c4","64e77d7b61f440b60e28659d","64ec9a9df1258af590cdfefa","null","null","<p style=""font-size: 60px; font-family: BACS"">NbacALcO</p>","","","","","","","","",""
"html-keyboard-response","223","323792","0.0-11.0-0.54","611d33d7cc16fdd812b1a4c4","64e77d7b61f440b60e28659d","64ec9a9df1258af590cdfefa","null","null","<p style=""font-size: 60px; font-family: BACS"">dKRDhBK</p>","","","","","","","","",""
"html-keyboard-response","224","324802","0.0-11.0-0.55","611d33d7cc16fdd812b1a4c4","64e77d7b61f440b60e28659d","64ec9a9df1258af590cdfefa","null","null","<p style=""font-size: 60px; font-family: BACS"">hChYPED</p>","","","","","","","","",""
"html-keyboard-response","225","325808","0.0-11.0-0.56","611d33d7cc16fdd812b1a4c4","64e77d7b61f440b60e28659d","64ec9a9df1258af590cdfefa","null","null","<p style=""font-size: 60px; font-family: BACS"">QOLmuGlu</p>","","","","","","","","",""
"html-keyboard-response","226","326824","0.0-11.0-0.57","611d33d7cc16fdd812b1a4c4","64e77d7b61f440b60e28659d","64ec9a9df1258af590cdfefa","null","null","<p style=""font-size: 60px; font-family: BACS"">GAcYkbu</p>","","","","","","","","",""
"html-keyboard-response","227","327840","0.0-11.0-0.58","611d33d7cc16fdd812b1a4c4","64e77d7b61f440b60e28659d","64ec9a9df1258af590cdfefa","null","null","<p style=""font-size: 60px; font-family: BACS"">McMDAlKD</p>","","","","","","","","",""
"html-keyboard-response","228","328853","0.0-11.0-0.59","611d33d7cc16fdd812b1a4c4","64e77d7b61f440b60e28659d","64ec9a9df1258af590cdfefa","null","null","<p style=""font-size: 60px; font-family: BACS"">hTtBbPED</p>","","","","","","","","",""
"html-keyboard-response","229","329857","0.0-11.0-0.60","611d33d7cc16fdd812b1a4c4","64e77d7b61f440b60e28659d","64ec9a9df1258af590cdfefa","null","null","<p style=""font-size: 60px; font-family: BACS"">QOLmuLcO</p>","","","","","","","","",""
"html-keyboard-response","230","330866","0.0-11.0-0.61","611d33d7cc16fdd812b1a4c4","64e77d7b61f440b60e28659d","64ec9a9df1258af590cdfefa","null","null","<p style=""font-size: 60px; font-family: BACS"">AmaclGlu</p>","","","","","","","","",""
"html-keyboard-response","231","331882","0.0-11.0-0.62","611d33d7cc16fdd812b1a4c4","64e77d7b61f440b60e28659d","64ec9a9df1258af590cdfefa","null","null","<p style=""font-size: 60px; font-family: BACS"">bYuQJUNa</p>","","","","","","","","",""
"html-keyboard-response","232","332885","0.0-11.0-0.63","611d33d7cc16fdd812b1a4c4","64e77d7b61f440b60e28659d","64ec9a9df1258af590cdfefa","null","null","<p style=""font-size: 60px; font-family: BACS"">hbkdAlKD</p>","","","","","","","","",""
"html-keyboard-response","233","333895","0.0-11.0-0.64","611d33d7cc16fdd812b1a4c4","64e77d7b61f440b60e28659d","64ec9a9df1258af590cdfefa","null","null","<p style=""font-size: 60px; font-family: BACS"">hTtBbTmc</p>","","","","","","","","",""
"html-keyboard-response","234","334907","0.0-11.0-0.65","611d33d7cc16fdd812b1a4c4","64e77d7b61f440b60e28659d","64ec9a9df1258af590cdfefa","null","null","<p style=""font-size: 60px; font-family: BACS"">QOLmukbu</p>","","","","","","","","",""
"html-keyboard-response","235","335923","0.0-11.0-0.66","611d33d7cc16fdd812b1a4c4","64e77d7b61f440b60e28659d","64ec9a9df1258af590cdfefa","null","null","<p style=""font-size: 60px; font-family: BACS"">JauQLcO</p>","","","","","","","","",""
"html-keyboard-response","236","336932","0.0-11.0-0.67","611d33d7cc16fdd812b1a4c4","64e77d7b61f440b60e28659d","64ec9a9df1258af590cdfefa","null","null","<p style=""font-size: 60px; font-family: BACS"">dKRDAlKD</p>","","","","","","","","",""
"html-keyboard-response","237","337947","0.0-11.0-0.68","611d33d7cc16fdd812b1a4c4","64e77d7b61f440b60e28659d","64ec9a9df1258af590cdfefa","null","null","<p style=""font-size: 60px; font-family: BACS"">bYuQkbu</p>","","","","","","","","",""
"html-keyboard-response","238","338963","0.0-11.0-0.69","611d33d7cc16fdd812b1a4c4","64e77d7b61f440b60e28659d","64ec9a9df1258af590cdfefa","null","null","<p style=""font-size: 60px; font-family: BACS"">aOLZUGlu</p>","","","","","","","","",""
"html-keyboard-response","239","339979","0.0-11.0-0.70","611d33d7cc16fdd812b1a4c4","64e77d7b61f440b60e28659d","64ec9a9df1258af590cdfefa","null","null","<p style=""font-size: 60px; font-family: BACS"">NbacAkbu</p>","","","","","","","","",""
"html-keyboard-response","240","340987","0.0-11.0-0.71","611d33d7cc16fdd812b1a4c4","64e77d7b61f440b60e28659d","64ec9a9df1258af590cdfefa","null","null","<p style=""font-size: 60px; font-family: BACS"">CchtdTmc</p>","","","","","","","","",""
"html-keyboard-response","241","341995","0.0-11.0-0.72","611d33d7cc16fdd812b1a4c4","64e77d7b61f440b60e28659d","64ec9a9df1258af590cdfefa","null","null","<p style=""font-size: 60px; font-family: BACS"">McMDABb</p>","","","","","","","","",""
"html-keyboard-response","242","343011","0.0-11.0-0.73","611d33d7cc16fdd812b1a4c4","64e77d7b61f440b60e28659d","64ec9a9df1258af590cdfefa","null","null","<p style=""font-size: 60px; font-family: BACS"">EhRmPED</p>","","","","","","","","",""
"html-keyboard-response","243","344016","0.0-11.0-0.74","611d33d7cc16fdd812b1a4c4","64e77d7b61f440b60e28659d","64ec9a9df1258af590cdfefa","null","null","<p style=""font-size: 60px; font-family: BACS"">JrGvGlu</p>","","","","","","","","",""
"html-keyboard-response","244","345027","0.0-11.0-0.75","611d33d7cc16fdd812b1a4c4","64e77d7b61f440b60e28659d","64ec9a9df1258af590cdfefa","null","null","<p style=""font-size: 60px; font-family: BACS"">hChYAlKD</p>","","","","","","","","",""
"html-keyboard-response","245","346034","0.0-11.0-0.76","611d33d7cc16fdd812b1a4c4","64e77d7b61f440b60e28659d","64ec9a9df1258af590cdfefa","null","null","<p style=""font-size: 60px; font-family: BACS"">NbacAJUNa</p>","","","","","","","","",""
"html-keyboard-response","246","347037","0.0-11.0-0.77","611d33d7cc16fdd812b1a4c4","64e77d7b61f440b60e28659d","64ec9a9df1258af590cdfefa","null","null","<p style=""font-size: 60px; font-family: BACS"">dKRDPED</p>","","","","","","","","",""
"html-keyboard-response","247","348047","0.0-11.0-0.78","611d33d7cc16fdd812b1a4c4","64e77d7b61f440b60e28659d","64ec9a9df1258af590cdfefa","null","null","<p style=""font-size: 60px; font-family: BACS"">EMYKTmc</p>","","","","","","","","",""
"html-keyboard-response","248","349060","0.0-11.0-0.79","611d33d7cc16fdd812b1a4c4","64e77d7b61f440b60e28659d","64ec9a9df1258af590cdfefa","null","null","<p style=""font-size: 60px; font-family: BACS"">JrGvLcO</p>","","","","","","","","",""
"html-keyboard-response","249","423833","0.0-12.0","611d33d7cc16fdd812b1a4c4","64e77d7b61f440b60e28659d","64ec9a9df1258af590cdfefa","74782"," ","<p>Great, you've seen the third block of words. You may now take a short break.</p>
      <p>Press the spacebar when you're ready to continue.</p>","","","","","","","","",""
"html-keyboard-response","250","424848","0.0-13.0-0.0","611d33d7cc16fdd812b1a4c4","64e77d7b61f440b60e28659d","64ec9a9df1258af590cdfefa","null","null","<p style=""font-size: 60px; font-family: BACS"">NbacAJUNa</p>","","","","","","","","",""
"html-keyboard-response","251","425857","0.0-13.0-0.1","611d33d7cc16fdd812b1a4c4","64e77d7b61f440b60e28659d","64ec9a9df1258af590cdfefa","null","null","<p style=""font-size: 60px; font-family: BACS"">McMDPED</p>","","","","","","","","",""
"html-keyboard-response","252","426864","0.0-13.0-0.2","611d33d7cc16fdd812b1a4c4","64e77d7b61f440b60e28659d","64ec9a9df1258af590cdfefa","null","null","<p style=""font-size: 60px; font-family: BACS"">EhRmhBK</p>","","","","","","","","",""
"html-keyboard-response","253","427879","0.0-13.0-0.3","611d33d7cc16fdd812b1a4c4","64e77d7b61f440b60e28659d","64ec9a9df1258af590cdfefa","null","null","<p style=""font-size: 60px; font-family: BACS"">EMYKAlKD</p>","","","","","","","","",""
"html-keyboard-response","254","428888","0.0-13.0-0.4","611d33d7cc16fdd812b1a4c4","64e77d7b61f440b60e28659d","64ec9a9df1258af590cdfefa","null","null","<p style=""font-size: 60px; font-family: BACS"">mBbKABb</p>","","","","","","","","",""
"html-keyboard-response","255","429896","0.0-13.0-0.5","611d33d7cc16fdd812b1a4c4","64e77d7b61f440b60e28659d","64ec9a9df1258af590cdfefa","null","null","<p style=""font-size: 60px; font-family: BACS"">bYuQLcO</p>","","","","","","","","",""
"html-keyboard-response","256","430911","0.0-13.0-0.6","611d33d7cc16fdd812b1a4c4","64e77d7b61f440b60e28659d","64ec9a9df1258af590cdfefa","null","null","<p style=""font-size: 60px; font-family: BACS"">AmaclGlu</p>","","","","","","","","",""
"html-keyboard-response","257","431921","0.0-13.0-0.7","611d33d7cc16fdd812b1a4c4","64e77d7b61f440b60e28659d","64ec9a9df1258af590cdfefa","null","null","<p style=""font-size: 60px; font-family: BACS"">QOLmukbu</p>","","","","","","","","",""
"html-keyboard-response","258","432922","0.0-13.0-0.8","611d33d7cc16fdd812b1a4c4","64e77d7b61f440b60e28659d","64ec9a9df1258af590cdfefa","null","null","<p style=""font-size: 60px; font-family: BACS"">mBbKAlKD</p>","","","","","","","","",""
"html-keyboard-response","259","433928","0.0-13.0-0.9","611d33d7cc16fdd812b1a4c4","64e77d7b61f440b60e28659d","64ec9a9df1258af590cdfefa","null","null","<p style=""font-size: 60px; font-family: BACS"">McMDTmc</p>","","","","","","","","",""
"html-keyboard-response","260","434945","0.0-13.0-0.10","611d33d7cc16fdd812b1a4c4","64e77d7b61f440b60e28659d","64ec9a9df1258af590cdfefa","null","null","<p style=""font-size: 60px; font-family: BACS"">TPCbPED</p>","","","","","","","","",""
"html-keyboard-response","261","435952","0.0-13.0-0.11","611d33d7cc16fdd812b1a4c4","64e77d7b61f440b60e28659d","64ec9a9df1258af590cdfefa","null","null","<p style=""font-size: 60px; font-family: BACS"">CchtdAlKD</p>","","","","","","","","",""
"html-keyboard-response","262","436961","0.0-13.0-0.12","611d33d7cc16fdd812b1a4c4","64e77d7b61f440b60e28659d","64ec9a9df1258af590cdfefa","null","null","<p style=""font-size: 60px; font-family: BACS"">dKRDhBK</p>","","","","","","","","",""
"html-keyboard-response","263","437975","0.0-13.0-0.13","611d33d7cc16fdd812b1a4c4","64e77d7b61f440b60e28659d","64ec9a9df1258af590cdfefa","null","null","<p style=""font-size: 60px; font-family: BACS"">TPCbABb</p>","","","","","","","","",""
"html-keyboard-response","264","438992","0.0-13.0-0.14","611d33d7cc16fdd812b1a4c4","64e77d7b61f440b60e28659d","64ec9a9df1258af590cdfefa","null","null","<p style=""font-size: 60px; font-family: BACS"">JrGvGlu</p>","","","","","","","","",""
"html-keyboard-response","265","440002","0.0-13.0-0.15","611d33d7cc16fdd812b1a4c4","64e77d7b61f440b60e28659d","64ec9a9df1258af590cdfefa","null","null","<p style=""font-size: 60px; font-family: BACS"">CchtdhBK</p>","","","","","","","","",""
"html-keyboard-response","266","441008","0.0-13.0-0.16","611d33d7cc16fdd812b1a4c4","64e77d7b61f440b60e28659d","64ec9a9df1258af590cdfefa","null","null","<p style=""font-size: 60px; font-family: BACS"">JauQLcO</p>","","","","","","","","",""
"html-keyboard-response","267","442011","0.0-13.0-0.17","611d33d7cc16fdd812b1a4c4","64e77d7b61f440b60e28659d","64ec9a9df1258af590cdfefa","null","null","<p style=""font-size: 60px; font-family: BACS"">hbkdAlKD</p>","","","","","","","","",""
"html-keyboard-response","268","443018","0.0-13.0-0.18","611d33d7cc16fdd812b1a4c4","64e77d7b61f440b60e28659d","64ec9a9df1258af590cdfefa","null","null","<p style=""font-size: 60px; font-family: BACS"">EhRmPED</p>","","","","","","","","",""
"html-keyboard-response","269","444023","0.0-13.0-0.19","611d33d7cc16fdd812b1a4c4","64e77d7b61f440b60e28659d","64ec9a9df1258af590cdfefa","null","null","<p style=""font-size: 60px; font-family: BACS"">GAcYkbu</p>","","","","","","","","",""
"html-keyboard-response","270","445033","0.0-13.0-0.20","611d33d7cc16fdd812b1a4c4","64e77d7b61f440b60e28659d","64ec9a9df1258af590cdfefa","null","null","<p style=""font-size: 60px; font-family: BACS"">mBbKTmc</p>","","","","","","","","",""
"html-keyboard-response","271","446044","0.0-13.0-0.21","611d33d7cc16fdd812b1a4c4","64e77d7b61f440b60e28659d","64ec9a9df1258af590cdfefa","null","null","<p style=""font-size: 60px; font-family: BACS"">QOLmucYUv</p>","","","","","","","","",""
"html-keyboard-response","272","447055","0.0-13.0-0.22","611d33d7cc16fdd812b1a4c4","64e77d7b61f440b60e28659d","64ec9a9df1258af590cdfefa","null","null","<p style=""font-size: 60px; font-family: BACS"">McMDAlKD</p>","","","","","","","","",""
"html-keyboard-response","273","448057","0.0-13.0-0.23","611d33d7cc16fdd812b1a4c4","64e77d7b61f440b60e28659d","64ec9a9df1258af590cdfefa","null","null","<p style=""font-size: 60px; font-family: BACS"">OQarQcYUv</p>","","","","","","","","",""
"html-keyboard-response","274","449066","0.0-13.0-0.24","611d33d7cc16fdd812b1a4c4","64e77d7b61f440b60e28659d","64ec9a9df1258af590cdfefa","null","null","<p style=""font-size: 60px; font-family: BACS"">EMYKABb</p>","","","","","","","","",""
"html-keyboard-response","275","450069","0.0-13.0-0.25","611d33d7cc16fdd812b1a4c4","64e77d7b61f440b60e28659d","64ec9a9df1258af590cdfefa","null","null","<p style=""font-size: 60px; font-family: BACS"">QOLmuLcO</p>","","","","","","","","",""
"html-keyboard-response","276","451081","0.0-13.0-0.26","611d33d7cc16fdd812b1a4c4","64e77d7b61f440b60e28659d","64ec9a9df1258af590cdfefa","null","null","<p style=""font-size: 60px; font-family: BACS"">JauQcYUv</p>","","","","","","","","",""
"html-keyboard-response","277","452095","0.0-13.0-0.27","611d33d7cc16fdd812b1a4c4","64e77d7b61f440b60e28659d","64ec9a9df1258af590cdfefa","null","null","<p style=""font-size: 60px; font-family: BACS"">dKRDPED</p>","","","","","","","","",""
"html-keyboard-response","278","453099","0.0-13.0-0.28","611d33d7cc16fdd812b1a4c4","64e77d7b61f440b60e28659d","64ec9a9df1258af590cdfefa","null","null","<p style=""font-size: 60px; font-family: BACS"">TPCbhBK</p>","","","","","","","","",""
"html-keyboard-response","279","454115","0.0-13.0-0.29","611d33d7cc16fdd812b1a4c4","64e77d7b61f440b60e28659d","64ec9a9df1258af590cdfefa","null","null","<p style=""font-size: 60px; font-family: BACS"">hbkdTmc</p>","","","","","","","","",""
"html-keyboard-response","280","455122","0.0-13.0-0.30","611d33d7cc16fdd812b1a4c4","64e77d7b61f440b60e28659d","64ec9a9df1258af590cdfefa","null","null","<p style=""font-size: 60px; font-family: BACS"">JrGvLcO</p>","","","","","","","","",""
"html-keyboard-response","281","456128","0.0-13.0-0.31","611d33d7cc16fdd812b1a4c4","64e77d7b61f440b60e28659d","64ec9a9df1258af590cdfefa","null","null","<p style=""font-size: 60px; font-family: BACS"">JauQJUNa</p>","","","","","","","","",""
"html-keyboard-response","282","457130","0.0-13.0-0.32","611d33d7cc16fdd812b1a4c4","64e77d7b61f440b60e28659d","64ec9a9df1258af590cdfefa","null","null","<p style=""font-size: 60px; font-family: BACS"">hbkdhBK</p>","","","","","","","","",""
"html-keyboard-response","283","458146","0.0-13.0-0.33","611d33d7cc16fdd812b1a4c4","64e77d7b61f440b60e28659d","64ec9a9df1258af590cdfefa","null","null","<p style=""font-size: 60px; font-family: BACS"">GAcYGlu</p>","","","","","","","","",""
"html-keyboard-response","284","459148","0.0-13.0-0.34","611d33d7cc16fdd812b1a4c4","64e77d7b61f440b60e28659d","64ec9a9df1258af590cdfefa","null","null","<p style=""font-size: 60px; font-family: BACS"">JrGvkbu</p>","","","","","","","","",""
"html-keyboard-response","285","460159","0.0-13.0-0.35","611d33d7cc16fdd812b1a4c4","64e77d7b61f440b60e28659d","64ec9a9df1258af590cdfefa","null","null","<p style=""font-size: 60px; font-family: BACS"">OQarQGlu</p>","","","","","","","","",""
"html-keyboard-response","286","461161","0.0-13.0-0.36","611d33d7cc16fdd812b1a4c4","64e77d7b61f440b60e28659d","64ec9a9df1258af590cdfefa","null","null","<p style=""font-size: 60px; font-family: BACS"">NbacAkbu</p>","","","","","","","","",""
"html-keyboard-response","287","462175","0.0-13.0-0.37","611d33d7cc16fdd812b1a4c4","64e77d7b61f440b60e28659d","64ec9a9df1258af590cdfefa","null","null","<p style=""font-size: 60px; font-family: BACS"">OQarQJUNa</p>","","","","","","","","",""
"html-keyboard-response","288","463179","0.0-13.0-0.38","611d33d7cc16fdd812b1a4c4","64e77d7b61f440b60e28659d","64ec9a9df1258af590cdfefa","null","null","<p style=""font-size: 60px; font-family: BACS"">hChYhBK</p>","","","","","","","","",""
"html-keyboard-response","289","464196","0.0-13.0-0.39","611d33d7cc16fdd812b1a4c4","64e77d7b61f440b60e28659d","64ec9a9df1258af590cdfefa","null","null","<p style=""font-size: 60px; font-family: BACS"">GAcYcYUv</p>","","","","","","","","",""
"html-keyboard-response","290","465211","0.0-13.0-0.40","611d33d7cc16fdd812b1a4c4","64e77d7b61f440b60e28659d","64ec9a9df1258af590cdfefa","null","null","<p style=""font-size: 60px; font-family: BACS"">dKRDAlKD</p>","","","","","","","","",""
"html-keyboard-response","291","466225","0.0-13.0-0.41","611d33d7cc16fdd812b1a4c4","64e77d7b61f440b60e28659d","64ec9a9df1258af590cdfefa","null","null","<p style=""font-size: 60px; font-family: BACS"">EhRmABb</p>","","","","","","","","",""
"html-keyboard-response","292","467242","0.0-13.0-0.42","611d33d7cc16fdd812b1a4c4","64e77d7b61f440b60e28659d","64ec9a9df1258af590cdfefa","null","null","<p style=""font-size: 60px; font-family: BACS"">GAcYLcO</p>","","","","","","","","",""
"html-keyboard-response","293","468244","0.0-13.0-0.43","611d33d7cc16fdd812b1a4c4","64e77d7b61f440b60e28659d","64ec9a9df1258af590cdfefa","null","null","<p style=""font-size: 60px; font-family: BACS"">mBbKPED</p>","","","","","","","","",""
"html-keyboard-response","294","469256","0.0-13.0-0.44","611d33d7cc16fdd812b1a4c4","64e77d7b61f440b60e28659d","64ec9a9df1258af590cdfefa","null","null","<p style=""font-size: 60px; font-family: BACS"">CchtdTmc</p>","","","","","","","","",""
"html-keyboard-response","295","470259","0.0-13.0-0.45","611d33d7cc16fdd812b1a4c4","64e77d7b61f440b60e28659d","64ec9a9df1258af590cdfefa","null","null","<p style=""font-size: 60px; font-family: BACS"">bYuQcYUv</p>","","","","","","","","",""
"html-keyboard-response","296","471266","0.0-13.0-0.46","611d33d7cc16fdd812b1a4c4","64e77d7b61f440b60e28659d","64ec9a9df1258af590cdfefa","null","null","<p style=""font-size: 60px; font-family: BACS"">hChYPED</p>","","","","","","","","",""
"html-keyboard-response","297","472273","0.0-13.0-0.47","611d33d7cc16fdd812b1a4c4","64e77d7b61f440b60e28659d","64ec9a9df1258af590cdfefa","null","null","<p style=""font-size: 60px; font-family: BACS"">McMDABb</p>","","","","","","","","",""
"html-keyboard-response","298","473274","0.0-13.0-0.48","611d33d7cc16fdd812b1a4c4","64e77d7b61f440b60e28659d","64ec9a9df1258af590cdfefa","null","null","<p style=""font-size: 60px; font-family: BACS"">hChYAlKD</p>","","","","","","","","",""
"html-keyboard-response","299","474289","0.0-13.0-0.49","611d33d7cc16fdd812b1a4c4","64e77d7b61f440b60e28659d","64ec9a9df1258af590cdfefa","null","null","<p style=""font-size: 60px; font-family: BACS"">bYuQJUNa</p>","","","","","","","","",""
"html-keyboard-response","300","475297","0.0-13.0-0.50","611d33d7cc16fdd812b1a4c4","64e77d7b61f440b60e28659d","64ec9a9df1258af590cdfefa","null","null","<p style=""font-size: 60px; font-family: BACS"">AmaclcYUv</p>","","","","","","","","",""
"html-keyboard-response","301","476308","0.0-13.0-0.51","611d33d7cc16fdd812b1a4c4","64e77d7b61f440b60e28659d","64ec9a9df1258af590cdfefa","null","null","<p style=""font-size: 60px; font-family: BACS"">NbacAGlu</p>","","","","","","","","",""
"html-keyboard-response","302","477323","0.0-13.0-0.52","611d33d7cc16fdd812b1a4c4","64e77d7b61f440b60e28659d","64ec9a9df1258af590cdfefa","null","null","<p style=""font-size: 60px; font-family: BACS"">LdrbvJUNa</p>","","","","","","","","",""
"html-keyboard-response","303","478338","0.0-13.0-0.53","611d33d7cc16fdd812b1a4c4","64e77d7b61f440b60e28659d","64ec9a9df1258af590cdfefa","null","null","<p style=""font-size: 60px; font-family: BACS"">TPCbTmc</p>","","","","","","","","",""
"html-keyboard-response","304","479346","0.0-13.0-0.54","611d33d7cc16fdd812b1a4c4","64e77d7b61f440b60e28659d","64ec9a9df1258af590cdfefa","null","null","<p style=""font-size: 60px; font-family: BACS"">aOLZUGlu</p>","","","","","","","","",""
"html-keyboard-response","305","480362","0.0-13.0-0.55","611d33d7cc16fdd812b1a4c4","64e77d7b61f440b60e28659d","64ec9a9df1258af590cdfefa","null","null","<p style=""font-size: 60px; font-family: BACS"">EhRmAlKD</p>","","","","","","","","",""
"html-keyboard-response","306","481363","0.0-13.0-0.56","611d33d7cc16fdd812b1a4c4","64e77d7b61f440b60e28659d","64ec9a9df1258af590cdfefa","null","null","<p style=""font-size: 60px; font-family: BACS"">AmaclJUNa</p>","","","","","","","","",""
"html-keyboard-response","307","482377","0.0-13.0-0.57","611d33d7cc16fdd812b1a4c4","64e77d7b61f440b60e28659d","64ec9a9df1258af590cdfefa","null","null","<p style=""font-size: 60px; font-family: BACS"">EMYKTmc</p>","","","","","","","","",""
"html-keyboard-response","308","483378","0.0-13.0-0.58","611d33d7cc16fdd812b1a4c4","64e77d7b61f440b60e28659d","64ec9a9df1258af590cdfefa","null","null","<p style=""font-size: 60px; font-family: BACS"">JauQkbu</p>","","","","","","","","",""
"html-keyboard-response","309","484391","0.0-13.0-0.59","611d33d7cc16fdd812b1a4c4","64e77d7b61f440b60e28659d","64ec9a9df1258af590cdfefa","null","null","<p style=""font-size: 60px; font-family: BACS"">hTtBbPED</p>","","","","","","","","",""
"html-keyboard-response","310","485396","0.0-13.0-0.60","611d33d7cc16fdd812b1a4c4","64e77d7b61f440b60e28659d","64ec9a9df1258af590cdfefa","null","null","<p style=""font-size: 60px; font-family: BACS"">EMYKhBK</p>","","","","","","","","",""
"html-keyboard-response","311","486407","0.0-13.0-0.61","611d33d7cc16fdd812b1a4c4","64e77d7b61f440b60e28659d","64ec9a9df1258af590cdfefa","null","null","<p style=""font-size: 60px; font-family: BACS"">aOLZUcYUv</p>","","","","","","","","",""
"html-keyboard-response","312","487422","0.0-13.0-0.62","611d33d7cc16fdd812b1a4c4","64e77d7b61f440b60e28659d","64ec9a9df1258af590cdfefa","null","null","<p style=""font-size: 60px; font-family: BACS"">hTtBbTmc</p>","","","","","","","","",""
"html-keyboard-response","313","488437","0.0-13.0-0.63","611d33d7cc16fdd812b1a4c4","64e77d7b61f440b60e28659d","64ec9a9df1258af590cdfefa","null","null","<p style=""font-size: 60px; font-family: BACS"">aOLZUkbu</p>","","","","","","","","",""
"html-keyboard-response","314","489447","0.0-13.0-0.64","611d33d7cc16fdd812b1a4c4","64e77d7b61f440b60e28659d","64ec9a9df1258af590cdfefa","null","null","<p style=""font-size: 60px; font-family: BACS"">NbacALcO</p>","","","","","","","","",""
"html-keyboard-response","315","490454","0.0-13.0-0.65","611d33d7cc16fdd812b1a4c4","64e77d7b61f440b60e28659d","64ec9a9df1258af590cdfefa","null","null","<p style=""font-size: 60px; font-family: BACS"">bYuQkbu</p>","","","","","","","","",""
"html-keyboard-response","316","491465","0.0-13.0-0.66","611d33d7cc16fdd812b1a4c4","64e77d7b61f440b60e28659d","64ec9a9df1258af590cdfefa","null","null","<p style=""font-size: 60px; font-family: BACS"">dKRDTmc</p>","","","","","","","","",""
"html-keyboard-response","317","492480","0.0-13.0-0.67","611d33d7cc16fdd812b1a4c4","64e77d7b61f440b60e28659d","64ec9a9df1258af590cdfefa","null","null","<p style=""font-size: 60px; font-family: BACS"">LdrbvcYUv</p>","","","","","","","","",""
"html-keyboard-response","318","493485","0.0-13.0-0.68","611d33d7cc16fdd812b1a4c4","64e77d7b61f440b60e28659d","64ec9a9df1258af590cdfefa","null","null","<p style=""font-size: 60px; font-family: BACS"">hbkdPED</p>","","","","","","","","",""
"html-keyboard-response","319","494496","0.0-13.0-0.69","611d33d7cc16fdd812b1a4c4","64e77d7b61f440b60e28659d","64ec9a9df1258af590cdfefa","null","null","<p style=""font-size: 60px; font-family: BACS"">QOLmuGlu</p>","","","","","","","","",""
"html-keyboard-response","320","495510","0.0-13.0-0.70","611d33d7cc16fdd812b1a4c4","64e77d7b61f440b60e28659d","64ec9a9df1258af590cdfefa","null","null","<p style=""font-size: 60px; font-family: BACS"">hTtBbhBK</p>","","","","","","","","",""
"html-keyboard-response","321","496526","0.0-13.0-0.71","611d33d7cc16fdd812b1a4c4","64e77d7b61f440b60e28659d","64ec9a9df1258af590cdfefa","null","null","<p style=""font-size: 60px; font-family: BACS"">LdrbvLcO</p>","","","","","","","","",""
"html-keyboard-response","322","497535","0.0-13.0-0.72","611d33d7cc16fdd812b1a4c4","64e77d7b61f440b60e28659d","64ec9a9df1258af590cdfefa","null","null","<p style=""font-size: 60px; font-family: BACS"">Amaclkbu</p>","","","","","","","","",""
"html-keyboard-response","323","498543","0.0-13.0-0.73","611d33d7cc16fdd812b1a4c4","64e77d7b61f440b60e28659d","64ec9a9df1258af590cdfefa","null","null","<p style=""font-size: 60px; font-family: BACS"">aOLZUJUNa</p>","","","","","","","","",""
"html-keyboard-response","324","499557","0.0-13.0-0.74","611d33d7cc16fdd812b1a4c4","64e77d7b61f440b60e28659d","64ec9a9df1258af590cdfefa","null","null","<p style=""font-size: 60px; font-family: BACS"">LdrbvGlu</p>","","","","","","","","",""
"html-keyboard-response","325","500572","0.0-13.0-0.75","611d33d7cc16fdd812b1a4c4","64e77d7b61f440b60e28659d","64ec9a9df1258af590cdfefa","null","null","<p style=""font-size: 60px; font-family: BACS"">CchtdABb</p>","","","","","","","","",""
"html-keyboard-response","326","501574","0.0-13.0-0.76","611d33d7cc16fdd812b1a4c4","64e77d7b61f440b60e28659d","64ec9a9df1258af590cdfefa","null","null","<p style=""font-size: 60px; font-family: BACS"">JrGvJUNa</p>","","","","","","","","",""
"html-keyboard-response","327","502579","0.0-13.0-0.77","611d33d7cc16fdd812b1a4c4","64e77d7b61f440b60e28659d","64ec9a9df1258af590cdfefa","null","null","<p style=""font-size: 60px; font-family: BACS"">hChYABb</p>","","","","","","","","",""
"html-keyboard-response","328","503590","0.0-13.0-0.78","611d33d7cc16fdd812b1a4c4","64e77d7b61f440b60e28659d","64ec9a9df1258af590cdfefa","null","null","<p style=""font-size: 60px; font-family: BACS"">OQarQLcO</p>","","","","","","","","",""
"html-keyboard-response","329","504606","0.0-13.0-0.79","611d33d7cc16fdd812b1a4c4","64e77d7b61f440b60e28659d","64ec9a9df1258af590cdfefa","null","null","<p style=""font-size: 60px; font-family: BACS"">hTtBbABb</p>","","","","","","","","",""
"html-keyboard-response","330","508283","0.0-14.0","611d33d7cc16fdd812b1a4c4","64e77d7b61f440b60e28659d","64ec9a9df1258af590cdfefa","3676"," ","<p>Great, you've seen the fourth block of words. You may now take a short break.</p>
      <p>Press the spacebar when you're ready to continue.</p>","","","","","","","","",""
"html-keyboard-response","331","509288","0.0-15.0-0.0","611d33d7cc16fdd812b1a4c4","64e77d7b61f440b60e28659d","64ec9a9df1258af590cdfefa","null","null","<p style=""font-size: 60px; font-family: BACS"">hbkdPED</p>","","","","","","","","",""
"html-keyboard-response","332","510290","0.0-15.0-0.1","611d33d7cc16fdd812b1a4c4","64e77d7b61f440b60e28659d","64ec9a9df1258af590cdfefa","null","null","<p style=""font-size: 60px; font-family: BACS"">hbkdPED</p>","","","","","","","","",""
"html-keyboard-response","333","511305","0.0-15.0-0.2","611d33d7cc16fdd812b1a4c4","64e77d7b61f440b60e28659d","64ec9a9df1258af590cdfefa","null","null","<p style=""font-size: 60px; font-family: BACS"">hbkdPED</p>","","","","","","","","",""
"html-keyboard-response","334","512322","0.0-15.0-0.3","611d33d7cc16fdd812b1a4c4","64e77d7b61f440b60e28659d","64ec9a9df1258af590cdfefa","null","null","<p style=""font-size: 60px; font-family: BACS"">hbkdPED</p>","","","","","","","","",""
"html-keyboard-response","335","513337","0.0-15.0-0.4","611d33d7cc16fdd812b1a4c4","64e77d7b61f440b60e28659d","64ec9a9df1258af590cdfefa","null","null","<p style=""font-size: 60px; font-family: BACS"">hbkdPED</p>","","","","","","","","",""
"html-keyboard-response","336","514354","0.0-15.0-0.5","611d33d7cc16fdd812b1a4c4","64e77d7b61f440b60e28659d","64ec9a9df1258af590cdfefa","null","null","<p style=""font-size: 60px; font-family: BACS"">hbkdPED</p>","","","","","","","","",""
"html-keyboard-response","337","515371","0.0-15.0-0.6","611d33d7cc16fdd812b1a4c4","64e77d7b61f440b60e28659d","64ec9a9df1258af590cdfefa","null","null","<p style=""font-size: 60px; font-family: BACS"">hbkdPED</p>","","","","","","","","",""
"html-keyboard-response","338","516386","0.0-15.0-0.7","611d33d7cc16fdd812b1a4c4","64e77d7b61f440b60e28659d","64ec9a9df1258af590cdfefa","null","null","<p style=""font-size: 60px; font-family: BACS"">hbkdPED</p>","","","","","","","","",""
"html-keyboard-response","339","517402","0.0-15.0-0.8","611d33d7cc16fdd812b1a4c4","64e77d7b61f440b60e28659d","64ec9a9df1258af590cdfefa","null","null","<p style=""font-size: 60px; font-family: BACS"">hbkdPED</p>","","","","","","","","",""
"html-keyboard-response","340","518410","0.0-15.0-0.9","611d33d7cc16fdd812b1a4c4","64e77d7b61f440b60e28659d","64ec9a9df1258af590cdfefa","null","null","<p style=""font-size: 60px; font-family: BACS"">hbkdPED</p>","","","","","","","","",""
"html-keyboard-response","341","519419","0.0-15.0-0.10","611d33d7cc16fdd812b1a4c4","64e77d7b61f440b60e28659d","64ec9a9df1258af590cdfefa","null","null","<p style=""font-size: 60px; font-family: BACS"">hbkdPED</p>","","","","","","","","",""
"html-keyboard-response","342","520429","0.0-15.0-0.11","611d33d7cc16fdd812b1a4c4","64e77d7b61f440b60e28659d","64ec9a9df1258af590cdfefa","null","null","<p style=""font-size: 60px; font-family: BACS"">hbkdPED</p>","","","","","","","","",""
"html-keyboard-response","343","521441","0.0-15.0-0.12","611d33d7cc16fdd812b1a4c4","64e77d7b61f440b60e28659d","64ec9a9df1258af590cdfefa","null","null","<p style=""font-size: 60px; font-family: BACS"">hbkdPED</p>","","","","","","","","",""
"html-keyboard-response","344","522452","0.0-15.0-0.13","611d33d7cc16fdd812b1a4c4","64e77d7b61f440b60e28659d","64ec9a9df1258af590cdfefa","null","null","<p style=""font-size: 60px; font-family: BACS"">hbkdPED</p>","","","","","","","","",""
"html-keyboard-response","345","523460","0.0-15.0-0.14","611d33d7cc16fdd812b1a4c4","64e77d7b61f440b60e28659d","64ec9a9df1258af590cdfefa","null","null","<p style=""font-size: 60px; font-family: BACS"">hbkdPED</p>","","","","","","","","",""
"html-keyboard-response","346","524469","0.0-15.0-0.15","611d33d7cc16fdd812b1a4c4","64e77d7b61f440b60e28659d","64ec9a9df1258af590cdfefa","null","null","<p style=""font-size: 60px; font-family: BACS"">hbkdPED</p>","","","","","","","","",""
"html-keyboard-response","347","525485","0.0-15.0-0.16","611d33d7cc16fdd812b1a4c4","64e77d7b61f440b60e28659d","64ec9a9df1258af590cdfefa","null","null","<p style=""font-size: 60px; font-family: BACS"">hbkdPED</p>","","","","","","","","",""
"html-keyboard-response","348","526501","0.0-15.0-0.17","611d33d7cc16fdd812b1a4c4","64e77d7b61f440b60e28659d","64ec9a9df1258af590cdfefa","null","null","<p style=""font-size: 60px; font-family: BACS"">hbkdPED</p>","","","","","","","","",""
"html-keyboard-response","349","527506","0.0-15.0-0.18","611d33d7cc16fdd812b1a4c4","64e77d7b61f440b60e28659d","64ec9a9df1258af590cdfefa","null","null","<p style=""font-size: 60px; font-family: BACS"">hbkdPED</p>","","","","","","","","",""
"html-keyboard-response","350","528515","0.0-15.0-0.19","611d33d7cc16fdd812b1a4c4","64e77d7b61f440b60e28659d","64ec9a9df1258af590cdfefa","null","null","<p style=""font-size: 60px; font-family: BACS"">hbkdPED</p>","","","","","","","","",""
"html-keyboard-response","351","529524","0.0-15.0-0.20","611d33d7cc16fdd812b1a4c4","64e77d7b61f440b60e28659d","64ec9a9df1258af590cdfefa","null","null","<p style=""font-size: 60px; font-family: BACS"">hbkdPED</p>","","","","","","","","",""
"html-keyboard-response","352","530531","0.0-15.0-0.21","611d33d7cc16fdd812b1a4c4","64e77d7b61f440b60e28659d","64ec9a9df1258af590cdfefa","null","null","<p style=""font-size: 60px; font-family: BACS"">hbkdPED</p>","","","","","","","","",""
"html-keyboard-response","353","531547","0.0-15.0-0.22","611d33d7cc16fdd812b1a4c4","64e77d7b61f440b60e28659d","64ec9a9df1258af590cdfefa","null","null","<p style=""font-size: 60px; font-family: BACS"">hbkdPED</p>","","","","","","","","",""
"html-keyboard-response","354","532562","0.0-15.0-0.23","611d33d7cc16fdd812b1a4c4","64e77d7b61f440b60e28659d","64ec9a9df1258af590cdfefa","null","null","<p style=""font-size: 60px; font-family: BACS"">hbkdPED</p>","","","","","","","","",""
"html-keyboard-response","355","533571","0.0-15.0-0.24","611d33d7cc16fdd812b1a4c4","64e77d7b61f440b60e28659d","64ec9a9df1258af590cdfefa","null","null","<p style=""font-size: 60px; font-family: BACS"">hbkdPED</p>","","","","","","","","",""
"html-keyboard-response","356","534583","0.0-15.0-0.25","611d33d7cc16fdd812b1a4c4","64e77d7b61f440b60e28659d","64ec9a9df1258af590cdfefa","null","null","<p style=""font-size: 60px; font-family: BACS"">hbkdPED</p>","","","","","","","","",""
"html-keyboard-response","357","535600","0.0-15.0-0.26","611d33d7cc16fdd812b1a4c4","64e77d7b61f440b60e28659d","64ec9a9df1258af590cdfefa","null","null","<p style=""font-size: 60px; font-family: BACS"">hbkdPED</p>","","","","","","","","",""
"html-keyboard-response","358","536611","0.0-15.0-0.27","611d33d7cc16fdd812b1a4c4","64e77d7b61f440b60e28659d","64ec9a9df1258af590cdfefa","null","null","<p style=""font-size: 60px; font-family: BACS"">hbkdPED</p>","","","","","","","","",""
"html-keyboard-response","359","537620","0.0-15.0-0.28","611d33d7cc16fdd812b1a4c4","64e77d7b61f440b60e28659d","64ec9a9df1258af590cdfefa","null","null","<p style=""font-size: 60px; font-family: BACS"">hbkdPED</p>","","","","","","","","",""
"html-keyboard-response","360","538634","0.0-15.0-0.29","611d33d7cc16fdd812b1a4c4","64e77d7b61f440b60e28659d","64ec9a9df1258af590cdfefa","null","null","<p style=""font-size: 60px; font-family: BACS"">hbkdPED</p>","","","","","","","","",""
"html-keyboard-response","361","539641","0.0-15.0-0.30","611d33d7cc16fdd812b1a4c4","64e77d7b61f440b60e28659d","64ec9a9df1258af590cdfefa","null","null","<p style=""font-size: 60px; font-family: BACS"">hbkdPED</p>","","","","","","","","",""
"html-keyboard-response","362","540650","0.0-15.0-0.31","611d33d7cc16fdd812b1a4c4","64e77d7b61f440b60e28659d","64ec9a9df1258af590cdfefa","null","null","<p style=""font-size: 60px; font-family: BACS"">hbkdPED</p>","","","","","","","","",""
"html-keyboard-response","363","541665","0.0-15.0-0.32","611d33d7cc16fdd812b1a4c4","64e77d7b61f440b60e28659d","64ec9a9df1258af590cdfefa","null","null","<p style=""font-size: 60px; font-family: BACS"">hbkdPED</p>","","","","","","","","",""
"html-keyboard-response","364","542666","0.0-15.0-0.33","611d33d7cc16fdd812b1a4c4","64e77d7b61f440b60e28659d","64ec9a9df1258af590cdfefa","null","null","<p style=""font-size: 60px; font-family: BACS"">hbkdPED</p>","","","","","","","","",""
"html-keyboard-response","365","543668","0.0-15.0-0.34","611d33d7cc16fdd812b1a4c4","64e77d7b61f440b60e28659d","64ec9a9df1258af590cdfefa","null","null","<p style=""font-size: 60px; font-family: BACS"">hbkdPED</p>","","","","","","","","",""
"html-keyboard-response","366","544683","0.0-15.0-0.35","611d33d7cc16fdd812b1a4c4","64e77d7b61f440b60e28659d","64ec9a9df1258af590cdfefa","null","null","<p style=""font-size: 60px; font-family: BACS"">hbkdPED</p>","","","","","","","","",""
"html-keyboard-response","367","545685","0.0-15.0-0.36","611d33d7cc16fdd812b1a4c4","64e77d7b61f440b60e28659d","64ec9a9df1258af590cdfefa","null","null","<p style=""font-size: 60px; font-family: BACS"">hbkdPED</p>","","","","","","","","",""
"html-keyboard-response","368","546690","0.0-15.0-0.37","611d33d7cc16fdd812b1a4c4","64e77d7b61f440b60e28659d","64ec9a9df1258af590cdfefa","null","null","<p style=""font-size: 60px; font-family: BACS"">hbkdPED</p>","","","","","","","","",""
"html-keyboard-response","369","547695","0.0-15.0-0.38","611d33d7cc16fdd812b1a4c4","64e77d7b61f440b60e28659d","64ec9a9df1258af590cdfefa","null","null","<p style=""font-size: 60px; font-family: BACS"">hbkdPED</p>","","","","","","","","",""
"html-keyboard-response","370","548712","0.0-15.0-0.39","611d33d7cc16fdd812b1a4c4","64e77d7b61f440b60e28659d","64ec9a9df1258af590cdfefa","null","null","<p style=""font-size: 60px; font-family: BACS"">hbkdPED</p>","","","","","","","","",""
"html-keyboard-response","371","549724","0.0-15.0-0.40","611d33d7cc16fdd812b1a4c4","64e77d7b61f440b60e28659d","64ec9a9df1258af590cdfefa","null","null","<p style=""font-size: 60px; font-family: BACS"">hbkdPED</p>","","","","","","","","",""
"html-keyboard-response","372","550725","0.0-15.0-0.41","611d33d7cc16fdd812b1a4c4","64e77d7b61f440b60e28659d","64ec9a9df1258af590cdfefa","null","null","<p style=""font-size: 60px; font-family: BACS"">hbkdPED</p>","","","","","","","","",""
"html-keyboard-response","373","551730","0.0-15.0-0.42","611d33d7cc16fdd812b1a4c4","64e77d7b61f440b60e28659d","64ec9a9df1258af590cdfefa","null","null","<p style=""font-size: 60px; font-family: BACS"">hbkdPED</p>","","","","","","","","",""
"html-keyboard-response","374","552746","0.0-15.0-0.43","611d33d7cc16fdd812b1a4c4","64e77d7b61f440b60e28659d","64ec9a9df1258af590cdfefa","null","null","<p style=""font-size: 60px; font-family: BACS"">hbkdPED</p>","","","","","","","","",""
"html-keyboard-response","375","553758","0.0-15.0-0.44","611d33d7cc16fdd812b1a4c4","64e77d7b61f440b60e28659d","64ec9a9df1258af590cdfefa","null","null","<p style=""font-size: 60px; font-family: BACS"">hbkdPED</p>","","","","","","","","",""
"html-keyboard-response","376","554763","0.0-15.0-0.45","611d33d7cc16fdd812b1a4c4","64e77d7b61f440b60e28659d","64ec9a9df1258af590cdfefa","null","null","<p style=""font-size: 60px; font-family: BACS"">hbkdPED</p>","","","","","","","","",""
"html-keyboard-response","377","555778","0.0-15.0-0.46","611d33d7cc16fdd812b1a4c4","64e77d7b61f440b60e28659d","64ec9a9df1258af590cdfefa","null","null","<p style=""font-size: 60px; font-family: BACS"">hbkdPED</p>","","","","","","","","",""
"html-keyboard-response","378","556778","0.0-15.0-0.47","611d33d7cc16fdd812b1a4c4","64e77d7b61f440b60e28659d","64ec9a9df1258af590cdfefa","null","null","<p style=""font-size: 60px; font-family: BACS"">hbkdPED</p>","","","","","","","","",""
"html-keyboard-response","379","557794","0.0-15.0-0.48","611d33d7cc16fdd812b1a4c4","64e77d7b61f440b60e28659d","64ec9a9df1258af590cdfefa","null","null","<p style=""font-size: 60px; font-family: BACS"">hbkdPED</p>","","","","","","","","",""
"html-keyboard-response","380","558810","0.0-15.0-0.49","611d33d7cc16fdd812b1a4c4","64e77d7b61f440b60e28659d","64ec9a9df1258af590cdfefa","null","null","<p style=""font-size: 60px; font-family: BACS"">hbkdPED</p>","","","","","","","","",""
"html-keyboard-response","381","559819","0.0-15.0-0.50","611d33d7cc16fdd812b1a4c4","64e77d7b61f440b60e28659d","64ec9a9df1258af590cdfefa","null","null","<p style=""font-size: 60px; font-family: BACS"">hbkdPED</p>","","","","","","","","",""
"html-keyboard-response","382","560826","0.0-15.0-0.51","611d33d7cc16fdd812b1a4c4","64e77d7b61f440b60e28659d","64ec9a9df1258af590cdfefa","null","null","<p style=""font-size: 60px; font-family: BACS"">hbkdPED</p>","","","","","","","","",""
"html-keyboard-response","383","561827","0.0-15.0-0.52","611d33d7cc16fdd812b1a4c4","64e77d7b61f440b60e28659d","64ec9a9df1258af590cdfefa","null","null","<p style=""font-size: 60px; font-family: BACS"">hbkdPED</p>","","","","","","","","",""
"html-keyboard-response","384","562842","0.0-15.0-0.53","611d33d7cc16fdd812b1a4c4","64e77d7b61f440b60e28659d","64ec9a9df1258af590cdfefa","null","null","<p style=""font-size: 60px; font-family: BACS"">hbkdPED</p>","","","","","","","","",""
"html-keyboard-response","385","563858","0.0-15.0-0.54","611d33d7cc16fdd812b1a4c4","64e77d7b61f440b60e28659d","64ec9a9df1258af590cdfefa","null","null","<p style=""font-size: 60px; font-family: BACS"">hbkdPED</p>","","","","","","","","",""
"html-keyboard-response","386","564859","0.0-15.0-0.55","611d33d7cc16fdd812b1a4c4","64e77d7b61f440b60e28659d","64ec9a9df1258af590cdfefa","null","null","<p style=""font-size: 60px; font-family: BACS"">hbkdPED</p>","","","","","","","","",""
"html-keyboard-response","387","565869","0.0-15.0-0.56","611d33d7cc16fdd812b1a4c4","64e77d7b61f440b60e28659d","64ec9a9df1258af590cdfefa","null","null","<p style=""font-size: 60px; font-family: BACS"">hbkdPED</p>","","","","","","","","",""
"html-keyboard-response","388","566884","0.0-15.0-0.57","611d33d7cc16fdd812b1a4c4","64e77d7b61f440b60e28659d","64ec9a9df1258af590cdfefa","null","null","<p style=""font-size: 60px; font-family: BACS"">hbkdPED</p>","","","","","","","","",""
"html-keyboard-response","389","567887","0.0-15.0-0.58","611d33d7cc16fdd812b1a4c4","64e77d7b61f440b60e28659d","64ec9a9df1258af590cdfefa","null","null","<p style=""font-size: 60px; font-family: BACS"">hbkdPED</p>","","","","","","","","",""
"html-keyboard-response","390","568891","0.0-15.0-0.59","611d33d7cc16fdd812b1a4c4","64e77d7b61f440b60e28659d","64ec9a9df1258af590cdfefa","null","null","<p style=""font-size: 60px; font-family: BACS"">hbkdPED</p>","","","","","","","","",""
"html-keyboard-response","391","569906","0.0-15.0-0.60","611d33d7cc16fdd812b1a4c4","64e77d7b61f440b60e28659d","64ec9a9df1258af590cdfefa","null","null","<p style=""font-size: 60px; font-family: BACS"">hbkdPED</p>","","","","","","","","",""
"html-keyboard-response","392","570922","0.0-15.0-0.61","611d33d7cc16fdd812b1a4c4","64e77d7b61f440b60e28659d","64ec9a9df1258af590cdfefa","null","null","<p style=""font-size: 60px; font-family: BACS"">hbkdPED</p>","","","","","","","","",""
"html-keyboard-response","393","571923","0.0-15.0-0.62","611d33d7cc16fdd812b1a4c4","64e77d7b61f440b60e28659d","64ec9a9df1258af590cdfefa","null","null","<p style=""font-size: 60px; font-family: BACS"">hbkdPED</p>","","","","","","","","",""
"html-keyboard-response","394","572938","0.0-15.0-0.63","611d33d7cc16fdd812b1a4c4","64e77d7b61f440b60e28659d","64ec9a9df1258af590cdfefa","null","null","<p style=""font-size: 60px; font-family: BACS"">hbkdPED</p>","","","","","","","","",""
"html-keyboard-response","395","573939","0.0-15.0-0.64","611d33d7cc16fdd812b1a4c4","64e77d7b61f440b60e28659d","64ec9a9df1258af590cdfefa","null","null","<p style=""font-size: 60px; font-family: BACS"">hbkdPED</p>","","","","","","","","",""
"html-keyboard-response","396","574955","0.0-15.0-0.65","611d33d7cc16fdd812b1a4c4","64e77d7b61f440b60e28659d","64ec9a9df1258af590cdfefa","null","null","<p style=""font-size: 60px; font-family: BACS"">hbkdPED</p>","","","","","","","","",""
"html-keyboard-response","397","575956","0.0-15.0-0.66","611d33d7cc16fdd812b1a4c4","64e77d7b61f440b60e28659d","64ec9a9df1258af590cdfefa","null","null","<p style=""font-size: 60px; font-family: BACS"">hbkdPED</p>","","","","","","","","",""
"html-keyboard-response","398","576964","0.0-15.0-0.67","611d33d7cc16fdd812b1a4c4","64e77d7b61f440b60e28659d","64ec9a9df1258af590cdfefa","null","null","<p style=""font-size: 60px; font-family: BACS"">hbkdPED</p>","","","","","","","","",""
"html-keyboard-response","399","577971","0.0-15.0-0.68","611d33d7cc16fdd812b1a4c4","64e77d7b61f440b60e28659d","64ec9a9df1258af590cdfefa","null","null","<p style=""font-size: 60px; font-family: BACS"">hbkdPED</p>","","","","","","","","",""
