"trial_type","trial_index","time_elapsed","internal_node_id","subject_id","study_id","session_id","rt","response","stimulus","success","item","task","correct_response","testing_condition","correct","target","confound","name","view_history"
"pavlovia","0","1882","0.0-0.0","61275a3158c67415afb971ff","650c16f0f2faf8d7a0d14c09","651c1b7ff05d9dfa800068d0","","","","","","","","","","","","",""
"survey-html-form","1","34127","0.0-1.0","61275a3158c67415afb971ff","650c16f0f2faf8d7a0d14c09","651c1b7ff05d9dfa800068d0","32241","{""ID"":""61275a3158c67415afb971ff""}","","","","","","","","","","",""
"html-keyboard-response","2","35354","0.0-2.0","61275a3158c67415afb971ff","650c16f0f2faf8d7a0d14c09","651c1b7ff05d9dfa800068d0","1223"," ","<p style=""font-size: 15px;"">Before beginning, we ask that you read the consent information and confirm your agreement to participate in the experiment.</p>
      <p style=""font-size: 15px;""> We ask that you remember that this is a research project and that your participation is entirely voluntary. You can stop your participation at any time, without needing to provide any explanation. The study we're asking you to participate in aims at examining how readers process written words. You will be engaged in a session of apprximately 20 minutes, followed by a brief questionnaire. You will have the opportunity to take a few breaks during the experiment. You will be paid £4 for your participation, corresponding to a rate of £8/hour. While this experiment looks at cognitive faculties, this experiment doesn't constitute clinical proof of eventual pathologies.</p>
      <p style=""font-size: 15px;"">All of the information collected thanks to yours and others' participation will be held in a secure password-protected server, and will not be shared with anyone not authorised to view it. Your personal information will be kept with an arbitrary participant ID. Thanks to this data anonymity process, any researcher analysing the data won't be able to track the information back to a specific participant. Therefore, this process will make identifying you impossibile, even when results from the study will be published in scientific reviews, presented at congresses, or at any other public forum. More generally, the collected data will be treated in accordance with the laws on privacy and conformity to the Legislative Degree n. 196 ""Code regarding the protection of personal data"" of the 30th of June 2003 and to the European Regulation 2016/670 (General Data Protection Regulation - GDPR). The Data Protection Officer is Avv. Valentina Carollo, who can be contacted at the following email addresses: <a href=""mailto:dpo@sissa.it"">dpo@sissa.it</a> or <a href=""mailto:rpd@sissa.it"">rpd@sissa.it</a> - PEC: <a href=""mailto:protocollo@pec.sissa.it"">protocollo@pec.sissa.it</a>.</p>
      <p style=""font-size: 15px;""> Before expressing your consent to participate, we would like to remind you again that in case you need explanations on any aspect of the experimental procedure, the researcher is at your disposition (<a href=""mailto:aliebelt@sissa.it"">aliebelt@sissa.it</a>, <a href=""mailto:davide.crepaldi@sissa.it"">davide.crepaldi@sissa.it</a>).</p>
      <p style=""font-size: 15px;"">If you would like to download the informed consent form, you can do so here: <a href=""BASL-Informed_Consent.pdf"" download>informed consent form</a>.</p>
      <p style=""font-size: 15px;"">We ask that you press the spacebar to proceed to the consent section.</p>","","","","","","","","","",""
"survey-html-form","3","40721","0.0-3.0","61275a3158c67415afb971ff","650c16f0f2faf8d7a0d14c09","651c1b7ff05d9dfa800068d0","5363","{""consent1"":""YES"",""consent2"":""YES"",""consent3"":""YES"",""consent4"":""YES"",""consent5"":""YES"",""consent6"":""YES""}","","","","","","","","","","",""
"fullscreen","4","43173","0.0-4.0","61275a3158c67415afb971ff","650c16f0f2faf8d7a0d14c09","651c1b7ff05d9dfa800068d0","","","","true","","","","","","","","",""
"html-keyboard-response","5","43607","0.0-5.0","61275a3158c67415afb971ff","650c16f0f2faf8d7a0d14c09","651c1b7ff05d9dfa800068d0","431"," ","<p>Welcome, and thank you very much for your time!</p>
      <p>In this experiment, you'll be a language expert who's been asked to take a look at words that Earth has received in its first communication with aliens. Your task, in this first part of the experiment, is to pay close attention to the words you'll be shown; later, world leaders will ask you questions on what you saw. The words will be shown to you quite quickly; it seems that the aliens were in a hurry :-)</p>
      <p>Press the spacebar to continue.<p>","","","","","","","","","",""
"html-keyboard-response","6","43663","0.0-6.0","61275a3158c67415afb971ff","650c16f0f2faf8d7a0d14c09","651c1b7ff05d9dfa800068d0","null","null","<p style=""font-size: 120px; font-family: BACS""> </p>","","","","","","","","","",""
"html-keyboard-response","7","43862","0.0-7.0","61275a3158c67415afb971ff","650c16f0f2faf8d7a0d14c09","651c1b7ff05d9dfa800068d0","198"," ","<p>Here is an example of the words you'll see:</p>
      <img src='esempio.png' height='400px'>
      <p>When you're ready to begin, press the spacebar.</p></div>","","","","","","","","","",""
"html-keyboard-response","8","44873","0.0-8.0-0.0","61275a3158c67415afb971ff","650c16f0f2faf8d7a0d14c09","651c1b7ff05d9dfa800068d0","null","null","<p style=""font-size: 60px; font-family: BACS"">EdBbTAm</p>","","","","","","","","","",""
"html-keyboard-response","9","45891","0.0-8.0-0.1","61275a3158c67415afb971ff","650c16f0f2faf8d7a0d14c09","651c1b7ff05d9dfa800068d0","null","null","<p style=""font-size: 60px; font-family: BACS"">YQbcukbY</p>","","","","","","","","","",""
"html-keyboard-response","10","46894","0.0-8.0-0.2","61275a3158c67415afb971ff","650c16f0f2faf8d7a0d14c09","651c1b7ff05d9dfa800068d0","null","null","<p style=""font-size: 60px; font-family: BACS"">GLluAQGb</p>","","","","","","","","","",""
"html-keyboard-response","11","47911","0.0-8.0-0.3","61275a3158c67415afb971ff","650c16f0f2faf8d7a0d14c09","651c1b7ff05d9dfa800068d0","null","null","<p style=""font-size: 60px; font-family: BACS"">KABATAm</p>","","","","","","","","","",""
"html-keyboard-response","12","48913","0.0-8.0-0.4","61275a3158c67415afb971ff","650c16f0f2faf8d7a0d14c09","651c1b7ff05d9dfa800068d0","null","null","<p style=""font-size: 60px; font-family: BACS"">EdBbDOk</p>","","","","","","","","","",""
"html-keyboard-response","13","49932","0.0-8.0-0.5","61275a3158c67415afb971ff","650c16f0f2faf8d7a0d14c09","651c1b7ff05d9dfa800068d0","null","null","<p style=""font-size: 60px; font-family: BACS"">KABATRK</p>","","","","","","","","","",""
"html-keyboard-response","14","50939","0.0-8.0-0.6","61275a3158c67415afb971ff","650c16f0f2faf8d7a0d14c09","651c1b7ff05d9dfa800068d0","null","null","<p style=""font-size: 60px; font-family: BACS"">GLluAukbY</p>","","","","","","","","","",""
"html-keyboard-response","15","51942","0.0-8.0-0.7","61275a3158c67415afb971ff","650c16f0f2faf8d7a0d14c09","651c1b7ff05d9dfa800068d0","null","null","<p style=""font-size: 60px; font-family: BACS"">aUZAJud</p>","","","","","","","","","",""
"html-keyboard-response","16","52949","0.0-8.0-0.8","61275a3158c67415afb971ff","650c16f0f2faf8d7a0d14c09","651c1b7ff05d9dfa800068d0","null","null","<p style=""font-size: 60px; font-family: BACS"">CDEmYCKOb</p>","","","","","","","","","",""
"html-keyboard-response","17","53966","0.0-8.0-0.9","61275a3158c67415afb971ff","650c16f0f2faf8d7a0d14c09","651c1b7ff05d9dfa800068d0","null","null","<p style=""font-size: 60px; font-family: BACS"">BKDRYDOk</p>","","","","","","","","","",""
"html-keyboard-response","18","54986","0.0-8.0-0.10","61275a3158c67415afb971ff","650c16f0f2faf8d7a0d14c09","651c1b7ff05d9dfa800068d0","null","null","<p style=""font-size: 60px; font-family: BACS"">ldAaQGb</p>","","","","","","","","","",""
"html-keyboard-response","19","55990","0.0-8.0-0.11","61275a3158c67415afb971ff","650c16f0f2faf8d7a0d14c09","651c1b7ff05d9dfa800068d0","null","null","<p style=""font-size: 60px; font-family: BACS"">TPCbDOk</p>","","","","","","","","","",""
"html-keyboard-response","20","57007","0.0-8.0-0.12","61275a3158c67415afb971ff","650c16f0f2faf8d7a0d14c09","651c1b7ff05d9dfa800068d0","null","null","<p style=""font-size: 60px; font-family: BACS"">GLluAuZc</p>","","","","","","","","","",""
"html-keyboard-response","21","58022","0.0-8.0-0.13","61275a3158c67415afb971ff","650c16f0f2faf8d7a0d14c09","651c1b7ff05d9dfa800068d0","null","null","<p style=""font-size: 60px; font-family: BACS"">alJYJud</p>","","","","","","","","","",""
"html-keyboard-response","22","59035","0.0-8.0-0.14","61275a3158c67415afb971ff","650c16f0f2faf8d7a0d14c09","651c1b7ff05d9dfa800068d0","null","null","<p style=""font-size: 60px; font-family: BACS"">CRdBdDOk</p>","","","","","","","","","",""
"html-keyboard-response","23","60042","0.0-8.0-0.15","61275a3158c67415afb971ff","650c16f0f2faf8d7a0d14c09","651c1b7ff05d9dfa800068d0","null","null","<p style=""font-size: 60px; font-family: BACS"">auYAkJud</p>","","","","","","","","","",""
"html-keyboard-response","24","61056","0.0-8.0-0.16","61275a3158c67415afb971ff","650c16f0f2faf8d7a0d14c09","651c1b7ff05d9dfa800068d0","null","null","<p style=""font-size: 60px; font-family: BACS"">BKDRYTAm</p>","","","","","","","","","",""
"html-keyboard-response","25","62074","0.0-8.0-0.17","61275a3158c67415afb971ff","650c16f0f2faf8d7a0d14c09","651c1b7ff05d9dfa800068d0","null","null","<p style=""font-size: 60px; font-family: BACS"">YQbcJud</p>","","","","","","","","","",""
"html-keyboard-response","26","63080","0.0-8.0-0.18","61275a3158c67415afb971ff","650c16f0f2faf8d7a0d14c09","651c1b7ff05d9dfa800068d0","null","null","<p style=""font-size: 60px; font-family: BACS"">advYOrAm</p>","","","","","","","","","",""
"html-keyboard-response","27","64083","0.0-8.0-0.19","61275a3158c67415afb971ff","650c16f0f2faf8d7a0d14c09","651c1b7ff05d9dfa800068d0","null","null","<p style=""font-size: 60px; font-family: BACS"">CRdBdTRK</p>","","","","","","","","","",""
"html-keyboard-response","28","65090","0.0-8.0-0.20","61275a3158c67415afb971ff","650c16f0f2faf8d7a0d14c09","651c1b7ff05d9dfa800068d0","null","null","<p style=""font-size: 60px; font-family: BACS"">TPCbTAm</p>","","","","","","","","","",""
"html-keyboard-response","29","66097","0.0-8.0-0.21","61275a3158c67415afb971ff","650c16f0f2faf8d7a0d14c09","651c1b7ff05d9dfa800068d0","null","null","<p style=""font-size: 60px; font-family: BACS"">lrZGJud</p>","","","","","","","","","",""
"html-keyboard-response","30","67103","0.0-8.0-0.22","61275a3158c67415afb971ff","650c16f0f2faf8d7a0d14c09","651c1b7ff05d9dfa800068d0","null","null","<p style=""font-size: 60px; font-family: BACS"">aUZAukbY</p>","","","","","","","","","",""
"html-keyboard-response","31","68106","0.0-8.0-0.23","61275a3158c67415afb971ff","650c16f0f2faf8d7a0d14c09","651c1b7ff05d9dfa800068d0","null","null","<p style=""font-size: 60px; font-family: BACS"">CDEmYTRK</p>","","","","","","","","","",""
"html-keyboard-response","32","69121","0.0-8.0-0.24","61275a3158c67415afb971ff","650c16f0f2faf8d7a0d14c09","651c1b7ff05d9dfa800068d0","null","null","<p style=""font-size: 60px; font-family: BACS"">PhktkTAm</p>","","","","","","","","","",""
"html-keyboard-response","33","70140","0.0-8.0-0.25","61275a3158c67415afb971ff","650c16f0f2faf8d7a0d14c09","651c1b7ff05d9dfa800068d0","null","null","<p style=""font-size: 60px; font-family: BACS"">vclYQGb</p>","","","","","","","","","",""
"html-keyboard-response","34","71155","0.0-8.0-0.26","61275a3158c67415afb971ff","650c16f0f2faf8d7a0d14c09","651c1b7ff05d9dfa800068d0","null","null","<p style=""font-size: 60px; font-family: BACS"">DMRPTAm</p>","","","","","","","","","",""
"html-keyboard-response","35","72172","0.0-8.0-0.27","61275a3158c67415afb971ff","650c16f0f2faf8d7a0d14c09","651c1b7ff05d9dfa800068d0","null","null","<p style=""font-size: 60px; font-family: BACS"">alJYQGb</p>","","","","","","","","","",""
"html-keyboard-response","36","73176","0.0-8.0-0.28","61275a3158c67415afb971ff","650c16f0f2faf8d7a0d14c09","651c1b7ff05d9dfa800068d0","null","null","<p style=""font-size: 60px; font-family: BACS"">lrZGrAm</p>","","","","","","","","","",""
"html-keyboard-response","37","74191","0.0-8.0-0.29","61275a3158c67415afb971ff","650c16f0f2faf8d7a0d14c09","651c1b7ff05d9dfa800068d0","null","null","<p style=""font-size: 60px; font-family: BACS"">KABACKOb</p>","","","","","","","","","",""
"html-keyboard-response","38","75208","0.0-8.0-0.30","61275a3158c67415afb971ff","650c16f0f2faf8d7a0d14c09","651c1b7ff05d9dfa800068d0","null","null","<p style=""font-size: 60px; font-family: BACS"">PhktkTRK</p>","","","","","","","","","",""
"html-keyboard-response","39","76215","0.0-8.0-0.31","61275a3158c67415afb971ff","650c16f0f2faf8d7a0d14c09","651c1b7ff05d9dfa800068d0","null","null","<p style=""font-size: 60px; font-family: BACS"">TPCbcDR</p>","","","","","","","","","",""
"html-keyboard-response","40","77217","0.0-8.0-0.32","61275a3158c67415afb971ff","650c16f0f2faf8d7a0d14c09","651c1b7ff05d9dfa800068d0","null","null","<p style=""font-size: 60px; font-family: BACS"">aUZAuZc</p>","","","","","","","","","",""
"html-keyboard-response","41","78235","0.0-8.0-0.33","61275a3158c67415afb971ff","650c16f0f2faf8d7a0d14c09","651c1b7ff05d9dfa800068d0","null","null","<p style=""font-size: 60px; font-family: BACS"">advYOJud</p>","","","","","","","","","",""
"html-keyboard-response","42","79251","0.0-8.0-0.34","61275a3158c67415afb971ff","650c16f0f2faf8d7a0d14c09","651c1b7ff05d9dfa800068d0","null","null","<p style=""font-size: 60px; font-family: BACS"">aUZArAm</p>","","","","","","","","","",""
"html-keyboard-response","43","80272","0.0-8.0-0.35","61275a3158c67415afb971ff","650c16f0f2faf8d7a0d14c09","651c1b7ff05d9dfa800068d0","null","null","<p style=""font-size: 60px; font-family: BACS"">lrZGQGb</p>","","","","","","","","","",""
"html-keyboard-response","44","81292","0.0-8.0-0.36","61275a3158c67415afb971ff","650c16f0f2faf8d7a0d14c09","651c1b7ff05d9dfa800068d0","null","null","<p style=""font-size: 60px; font-family: BACS"">hCktDOk</p>","","","","","","","","","",""
"html-keyboard-response","45","82308","0.0-8.0-0.37","61275a3158c67415afb971ff","650c16f0f2faf8d7a0d14c09","651c1b7ff05d9dfa800068d0","null","null","<p style=""font-size: 60px; font-family: BACS"">YQbcuZc</p>","","","","","","","","","",""
"html-keyboard-response","46","83312","0.0-8.0-0.38","61275a3158c67415afb971ff","650c16f0f2faf8d7a0d14c09","651c1b7ff05d9dfa800068d0","null","null","<p style=""font-size: 60px; font-family: BACS"">PhktkCKOb</p>","","","","","","","","","",""
"html-keyboard-response","47","84315","0.0-8.0-0.39","61275a3158c67415afb971ff","650c16f0f2faf8d7a0d14c09","651c1b7ff05d9dfa800068d0","null","null","<p style=""font-size: 60px; font-family: BACS"">KABAcDR</p>","","","","","","","","","",""
"html-keyboard-response","48","85318","0.0-8.0-0.40","61275a3158c67415afb971ff","650c16f0f2faf8d7a0d14c09","651c1b7ff05d9dfa800068d0","null","null","<p style=""font-size: 60px; font-family: BACS"">GLluArAm</p>","","","","","","","","","",""
"html-keyboard-response","49","86323","0.0-8.0-0.41","61275a3158c67415afb971ff","650c16f0f2faf8d7a0d14c09","651c1b7ff05d9dfa800068d0","null","null","<p style=""font-size: 60px; font-family: BACS"">ZcGdNukbY</p>","","","","","","","","","",""
"html-keyboard-response","50","87341","0.0-8.0-0.42","61275a3158c67415afb971ff","650c16f0f2faf8d7a0d14c09","651c1b7ff05d9dfa800068d0","null","null","<p style=""font-size: 60px; font-family: BACS"">hCktTRK</p>","","","","","","","","","",""
"html-keyboard-response","51","88345","0.0-8.0-0.43","61275a3158c67415afb971ff","650c16f0f2faf8d7a0d14c09","651c1b7ff05d9dfa800068d0","null","null","<p style=""font-size: 60px; font-family: BACS"">DMRPDOk</p>","","","","","","","","","",""
"html-keyboard-response","52","89352","0.0-8.0-0.44","61275a3158c67415afb971ff","650c16f0f2faf8d7a0d14c09","651c1b7ff05d9dfa800068d0","null","null","<p style=""font-size: 60px; font-family: BACS"">vclYukbY</p>","","","","","","","","","",""
"html-keyboard-response","53","90372","0.0-8.0-0.45","61275a3158c67415afb971ff","650c16f0f2faf8d7a0d14c09","651c1b7ff05d9dfa800068d0","null","null","<p style=""font-size: 60px; font-family: BACS"">CRdBdCKOb</p>","","","","","","","","","",""
"html-keyboard-response","54","91387","0.0-8.0-0.46","61275a3158c67415afb971ff","650c16f0f2faf8d7a0d14c09","651c1b7ff05d9dfa800068d0","null","null","<p style=""font-size: 60px; font-family: BACS"">auYAkrAm</p>","","","","","","","","","",""
"html-keyboard-response","55","92391","0.0-8.0-0.47","61275a3158c67415afb971ff","650c16f0f2faf8d7a0d14c09","651c1b7ff05d9dfa800068d0","null","null","<p style=""font-size: 60px; font-family: BACS"">EdBbTRK</p>","","","","","","","","","",""
"html-keyboard-response","56","93403","0.0-8.0-0.48","61275a3158c67415afb971ff","650c16f0f2faf8d7a0d14c09","651c1b7ff05d9dfa800068d0","null","null","<p style=""font-size: 60px; font-family: BACS"">YlCPBcDR</p>","","","","","","","","","",""
"html-keyboard-response","57","94408","0.0-8.0-0.49","61275a3158c67415afb971ff","650c16f0f2faf8d7a0d14c09","651c1b7ff05d9dfa800068d0","null","null","<p style=""font-size: 60px; font-family: BACS"">EdBbCKOb</p>","","","","","","","","","",""
"html-keyboard-response","58","95425","0.0-8.0-0.50","61275a3158c67415afb971ff","650c16f0f2faf8d7a0d14c09","651c1b7ff05d9dfa800068d0","null","null","<p style=""font-size: 60px; font-family: BACS"">alJYukbY</p>","","","","","","","","","",""
"html-keyboard-response","59","96440","0.0-8.0-0.51","61275a3158c67415afb971ff","650c16f0f2faf8d7a0d14c09","651c1b7ff05d9dfa800068d0","null","null","<p style=""font-size: 60px; font-family: BACS"">ZcGdNQGb</p>","","","","","","","","","",""
"html-keyboard-response","60","97457","0.0-8.0-0.52","61275a3158c67415afb971ff","650c16f0f2faf8d7a0d14c09","651c1b7ff05d9dfa800068d0","null","null","<p style=""font-size: 60px; font-family: BACS"">TPCbTRK</p>","","","","","","","","","",""
"html-keyboard-response","61","98464","0.0-8.0-0.53","61275a3158c67415afb971ff","650c16f0f2faf8d7a0d14c09","651c1b7ff05d9dfa800068d0","null","null","<p style=""font-size: 60px; font-family: BACS"">BKDRYCKOb</p>","","","","","","","","","",""
"html-keyboard-response","62","99469","0.0-8.0-0.54","61275a3158c67415afb971ff","650c16f0f2faf8d7a0d14c09","651c1b7ff05d9dfa800068d0","null","null","<p style=""font-size: 60px; font-family: BACS"">YlCPBTAm</p>","","","","","","","","","",""
"html-keyboard-response","63","100486","0.0-8.0-0.55","61275a3158c67415afb971ff","650c16f0f2faf8d7a0d14c09","651c1b7ff05d9dfa800068d0","null","null","<p style=""font-size: 60px; font-family: BACS"">CDEmYDOk</p>","","","","","","","","","",""
"html-keyboard-response","64","101493","0.0-8.0-0.56","61275a3158c67415afb971ff","650c16f0f2faf8d7a0d14c09","651c1b7ff05d9dfa800068d0","null","null","<p style=""font-size: 60px; font-family: BACS"">DMRPcDR</p>","","","","","","","","","",""
"html-keyboard-response","65","102499","0.0-8.0-0.57","61275a3158c67415afb971ff","650c16f0f2faf8d7a0d14c09","651c1b7ff05d9dfa800068d0","null","null","<p style=""font-size: 60px; font-family: BACS"">auYAkQGb</p>","","","","","","","","","",""
"html-keyboard-response","66","103509","0.0-8.0-0.58","61275a3158c67415afb971ff","650c16f0f2faf8d7a0d14c09","651c1b7ff05d9dfa800068d0","null","null","<p style=""font-size: 60px; font-family: BACS"">lrZGukbY</p>","","","","","","","","","",""
"html-keyboard-response","67","104513","0.0-8.0-0.59","61275a3158c67415afb971ff","650c16f0f2faf8d7a0d14c09","651c1b7ff05d9dfa800068d0","null","null","<p style=""font-size: 60px; font-family: BACS"">YlCPBTRK</p>","","","","","","","","","",""
"html-keyboard-response","68","105529","0.0-8.0-0.60","61275a3158c67415afb971ff","650c16f0f2faf8d7a0d14c09","651c1b7ff05d9dfa800068d0","null","null","<p style=""font-size: 60px; font-family: BACS"">advYOuZc</p>","","","","","","","","","",""
"html-keyboard-response","69","106544","0.0-8.0-0.61","61275a3158c67415afb971ff","650c16f0f2faf8d7a0d14c09","651c1b7ff05d9dfa800068d0","null","null","<p style=""font-size: 60px; font-family: BACS"">BKDRYcDR</p>","","","","","","","","","",""
"html-keyboard-response","70","107564","0.0-8.0-0.62","61275a3158c67415afb971ff","650c16f0f2faf8d7a0d14c09","651c1b7ff05d9dfa800068d0","null","null","<p style=""font-size: 60px; font-family: BACS"">ZcGdNJud</p>","","","","","","","","","",""
"html-keyboard-response","71","108579","0.0-8.0-0.63","61275a3158c67415afb971ff","650c16f0f2faf8d7a0d14c09","651c1b7ff05d9dfa800068d0","null","null","<p style=""font-size: 60px; font-family: BACS"">vclYuZc</p>","","","","","","","","","",""
"html-keyboard-response","72","109598","0.0-8.0-0.64","61275a3158c67415afb971ff","650c16f0f2faf8d7a0d14c09","651c1b7ff05d9dfa800068d0","null","null","<p style=""font-size: 60px; font-family: BACS"">ldAaukbY</p>","","","","","","","","","",""
"html-keyboard-response","73","110614","0.0-8.0-0.65","61275a3158c67415afb971ff","650c16f0f2faf8d7a0d14c09","651c1b7ff05d9dfa800068d0","null","null","<p style=""font-size: 60px; font-family: BACS"">auYAkuZc</p>","","","","","","","","","",""
"html-keyboard-response","74","111618","0.0-8.0-0.66","61275a3158c67415afb971ff","650c16f0f2faf8d7a0d14c09","651c1b7ff05d9dfa800068d0","null","null","<p style=""font-size: 60px; font-family: BACS"">ldAaJud</p>","","","","","","","","","",""
"html-keyboard-response","75","112623","0.0-8.0-0.67","61275a3158c67415afb971ff","650c16f0f2faf8d7a0d14c09","651c1b7ff05d9dfa800068d0","null","null","<p style=""font-size: 60px; font-family: BACS"">hCktTAm</p>","","","","","","","","","",""
"html-keyboard-response","76","113636","0.0-8.0-0.68","61275a3158c67415afb971ff","650c16f0f2faf8d7a0d14c09","651c1b7ff05d9dfa800068d0","null","null","<p style=""font-size: 60px; font-family: BACS"">CRdBdcDR</p>","","","","","","","","","",""
"html-keyboard-response","77","114651","0.0-8.0-0.69","61275a3158c67415afb971ff","650c16f0f2faf8d7a0d14c09","651c1b7ff05d9dfa800068d0","null","null","<p style=""font-size: 60px; font-family: BACS"">ZcGdNuZc</p>","","","","","","","","","",""
"html-keyboard-response","78","115655","0.0-8.0-0.70","61275a3158c67415afb971ff","650c16f0f2faf8d7a0d14c09","651c1b7ff05d9dfa800068d0","null","null","<p style=""font-size: 60px; font-family: BACS"">advYOQGb</p>","","","","","","","","","",""
"html-keyboard-response","79","116659","0.0-8.0-0.71","61275a3158c67415afb971ff","650c16f0f2faf8d7a0d14c09","651c1b7ff05d9dfa800068d0","null","null","<p style=""font-size: 60px; font-family: BACS"">YQbcrAm</p>","","","","","","","","","",""
"html-keyboard-response","80","117666","0.0-8.0-0.72","61275a3158c67415afb971ff","650c16f0f2faf8d7a0d14c09","651c1b7ff05d9dfa800068d0","null","null","<p style=""font-size: 60px; font-family: BACS"">YlCPBDOk</p>","","","","","","","","","",""
"html-keyboard-response","81","118672","0.0-8.0-0.73","61275a3158c67415afb971ff","650c16f0f2faf8d7a0d14c09","651c1b7ff05d9dfa800068d0","null","null","<p style=""font-size: 60px; font-family: BACS"">DMRPCKOb</p>","","","","","","","","","",""
"html-keyboard-response","82","119679","0.0-8.0-0.74","61275a3158c67415afb971ff","650c16f0f2faf8d7a0d14c09","651c1b7ff05d9dfa800068d0","null","null","<p style=""font-size: 60px; font-family: BACS"">ldAarAm</p>","","","","","","","","","",""
"html-keyboard-response","83","120694","0.0-8.0-0.75","61275a3158c67415afb971ff","650c16f0f2faf8d7a0d14c09","651c1b7ff05d9dfa800068d0","null","null","<p style=""font-size: 60px; font-family: BACS"">PhktkcDR</p>","","","","","","","","","",""
"html-keyboard-response","84","121699","0.0-8.0-0.76","61275a3158c67415afb971ff","650c16f0f2faf8d7a0d14c09","651c1b7ff05d9dfa800068d0","null","null","<p style=""font-size: 60px; font-family: BACS"">vclYrAm</p>","","","","","","","","","",""
"html-keyboard-response","85","122702","0.0-8.0-0.77","61275a3158c67415afb971ff","650c16f0f2faf8d7a0d14c09","651c1b7ff05d9dfa800068d0","null","null","<p style=""font-size: 60px; font-family: BACS"">alJYuZc</p>","","","","","","","","","",""
"html-keyboard-response","86","123709","0.0-8.0-0.78","61275a3158c67415afb971ff","650c16f0f2faf8d7a0d14c09","651c1b7ff05d9dfa800068d0","null","null","<p style=""font-size: 60px; font-family: BACS"">CDEmYcDR</p>","","","","","","","","","",""
"html-keyboard-response","87","124719","0.0-8.0-0.79","61275a3158c67415afb971ff","650c16f0f2faf8d7a0d14c09","651c1b7ff05d9dfa800068d0","null","null","<p style=""font-size: 60px; font-family: BACS"">hCktCKOb</p>","","","","","","","","","",""
"html-keyboard-response","88","148866","0.0-9.0","61275a3158c67415afb971ff","650c16f0f2faf8d7a0d14c09","651c1b7ff05d9dfa800068d0","24144"," ","<p>Great, you've seen the first block of words. You may now take a short break.</p>
      <p>Press the spacebar when you're ready to continue.</p>","","","","","","","","","",""
"html-keyboard-response","89","149878","0.0-10.0-0.0","61275a3158c67415afb971ff","650c16f0f2faf8d7a0d14c09","651c1b7ff05d9dfa800068d0","null","null","<p style=""font-size: 60px; font-family: BACS"">EdBbTRK</p>","","","","","","","","","",""
"html-keyboard-response","90","150880","0.0-10.0-0.1","61275a3158c67415afb971ff","650c16f0f2faf8d7a0d14c09","651c1b7ff05d9dfa800068d0","null","null","<p style=""font-size: 60px; font-family: BACS"">ZcGdNuZc</p>","","","","","","","","","",""
"html-keyboard-response","91","151884","0.0-10.0-0.2","61275a3158c67415afb971ff","650c16f0f2faf8d7a0d14c09","651c1b7ff05d9dfa800068d0","null","null","<p style=""font-size: 60px; font-family: BACS"">EdBbDOk</p>","","","","","","","","","",""
"html-keyboard-response","92","152886","0.0-10.0-0.3","61275a3158c67415afb971ff","650c16f0f2faf8d7a0d14c09","651c1b7ff05d9dfa800068d0","null","null","<p style=""font-size: 60px; font-family: BACS"">DMRPcDR</p>","","","","","","","","","",""
"html-keyboard-response","93","153893","0.0-10.0-0.4","61275a3158c67415afb971ff","650c16f0f2faf8d7a0d14c09","651c1b7ff05d9dfa800068d0","null","null","<p style=""font-size: 60px; font-family: BACS"">TPCbDOk</p>","","","","","","","","","",""
"html-keyboard-response","94","154901","0.0-10.0-0.5","61275a3158c67415afb971ff","650c16f0f2faf8d7a0d14c09","651c1b7ff05d9dfa800068d0","null","null","<p style=""font-size: 60px; font-family: BACS"">CRdBdcDR</p>","","","","","","","","","",""
"html-keyboard-response","95","155916","0.0-10.0-0.6","61275a3158c67415afb971ff","650c16f0f2faf8d7a0d14c09","651c1b7ff05d9dfa800068d0","null","null","<p style=""font-size: 60px; font-family: BACS"">YlCPBTRK</p>","","","","","","","","","",""
"html-keyboard-response","96","156934","0.0-10.0-0.7","61275a3158c67415afb971ff","650c16f0f2faf8d7a0d14c09","651c1b7ff05d9dfa800068d0","null","null","<p style=""font-size: 60px; font-family: BACS"">GLluAuZc</p>","","","","","","","","","",""
"html-keyboard-response","97","157938","0.0-10.0-0.8","61275a3158c67415afb971ff","650c16f0f2faf8d7a0d14c09","651c1b7ff05d9dfa800068d0","null","null","<p style=""font-size: 60px; font-family: BACS"">aUZAukbY</p>","","","","","","","","","",""
"html-keyboard-response","98","158944","0.0-10.0-0.9","61275a3158c67415afb971ff","650c16f0f2faf8d7a0d14c09","651c1b7ff05d9dfa800068d0","null","null","<p style=""font-size: 60px; font-family: BACS"">alJYJud</p>","","","","","","","","","",""
"html-keyboard-response","99","159958","0.0-10.0-0.10","61275a3158c67415afb971ff","650c16f0f2faf8d7a0d14c09","651c1b7ff05d9dfa800068d0","null","null","<p style=""font-size: 60px; font-family: BACS"">BKDRYDOk</p>","","","","","","","","","",""
"html-keyboard-response","100","160967","0.0-10.0-0.11","61275a3158c67415afb971ff","650c16f0f2faf8d7a0d14c09","651c1b7ff05d9dfa800068d0","null","null","<p style=""font-size: 60px; font-family: BACS"">EdBbCKOb</p>","","","","","","","","","",""
"html-keyboard-response","101","161978","0.0-10.0-0.12","61275a3158c67415afb971ff","650c16f0f2faf8d7a0d14c09","651c1b7ff05d9dfa800068d0","null","null","<p style=""font-size: 60px; font-family: BACS"">YQbcrAm</p>","","","","","","","","","",""
"html-keyboard-response","102","162994","0.0-10.0-0.13","61275a3158c67415afb971ff","650c16f0f2faf8d7a0d14c09","651c1b7ff05d9dfa800068d0","null","null","<p style=""font-size: 60px; font-family: BACS"">DMRPDOk</p>","","","","","","","","","",""
"html-keyboard-response","103","164016","0.0-10.0-0.14","61275a3158c67415afb971ff","650c16f0f2faf8d7a0d14c09","651c1b7ff05d9dfa800068d0","null","null","<p style=""font-size: 60px; font-family: BACS"">advYOrAm</p>","","","","","","","","","",""
"html-keyboard-response","104","165030","0.0-10.0-0.15","61275a3158c67415afb971ff","650c16f0f2faf8d7a0d14c09","651c1b7ff05d9dfa800068d0","null","null","<p style=""font-size: 60px; font-family: BACS"">PhktkTRK</p>","","","","","","","","","",""
"html-keyboard-response","105","166034","0.0-10.0-0.16","61275a3158c67415afb971ff","650c16f0f2faf8d7a0d14c09","651c1b7ff05d9dfa800068d0","null","null","<p style=""font-size: 60px; font-family: BACS"">BKDRYTAm</p>","","","","","","","","","",""
"html-keyboard-response","106","167042","0.0-10.0-0.17","61275a3158c67415afb971ff","650c16f0f2faf8d7a0d14c09","651c1b7ff05d9dfa800068d0","null","null","<p style=""font-size: 60px; font-family: BACS"">ZcGdNukbY</p>","","","","","","","","","",""
"html-keyboard-response","107","168045","0.0-10.0-0.18","61275a3158c67415afb971ff","650c16f0f2faf8d7a0d14c09","651c1b7ff05d9dfa800068d0","null","null","<p style=""font-size: 60px; font-family: BACS"">auYAkuZc</p>","","","","","","","","","",""
"html-keyboard-response","108","169060","0.0-10.0-0.19","61275a3158c67415afb971ff","650c16f0f2faf8d7a0d14c09","651c1b7ff05d9dfa800068d0","null","null","<p style=""font-size: 60px; font-family: BACS"">hCktTAm</p>","","","","","","","","","",""
"html-keyboard-response","109","170078","0.0-10.0-0.20","61275a3158c67415afb971ff","650c16f0f2faf8d7a0d14c09","651c1b7ff05d9dfa800068d0","null","null","<p style=""font-size: 60px; font-family: BACS"">YQbcukbY</p>","","","","","","","","","",""
"html-keyboard-response","110","171082","0.0-10.0-0.21","61275a3158c67415afb971ff","650c16f0f2faf8d7a0d14c09","651c1b7ff05d9dfa800068d0","null","null","<p style=""font-size: 60px; font-family: BACS"">auYAkQGb</p>","","","","","","","","","",""
"html-keyboard-response","111","172098","0.0-10.0-0.22","61275a3158c67415afb971ff","650c16f0f2faf8d7a0d14c09","651c1b7ff05d9dfa800068d0","null","null","<p style=""font-size: 60px; font-family: BACS"">GLluArAm</p>","","","","","","","","","",""
"html-keyboard-response","112","173116","0.0-10.0-0.23","61275a3158c67415afb971ff","650c16f0f2faf8d7a0d14c09","651c1b7ff05d9dfa800068d0","null","null","<p style=""font-size: 60px; font-family: BACS"">KABATRK</p>","","","","","","","","","",""
"html-keyboard-response","113","174135","0.0-10.0-0.24","61275a3158c67415afb971ff","650c16f0f2faf8d7a0d14c09","651c1b7ff05d9dfa800068d0","null","null","<p style=""font-size: 60px; font-family: BACS"">ldAaJud</p>","","","","","","","","","",""
"html-keyboard-response","114","175154","0.0-10.0-0.25","61275a3158c67415afb971ff","650c16f0f2faf8d7a0d14c09","651c1b7ff05d9dfa800068d0","null","null","<p style=""font-size: 60px; font-family: BACS"">lrZGQGb</p>","","","","","","","","","",""
"html-keyboard-response","115","176170","0.0-10.0-0.26","61275a3158c67415afb971ff","650c16f0f2faf8d7a0d14c09","651c1b7ff05d9dfa800068d0","null","null","<p style=""font-size: 60px; font-family: BACS"">CDEmYTRK</p>","","","","","","","","","",""
"html-keyboard-response","116","177186","0.0-10.0-0.27","61275a3158c67415afb971ff","650c16f0f2faf8d7a0d14c09","651c1b7ff05d9dfa800068d0","null","null","<p style=""font-size: 60px; font-family: BACS"">YlCPBDOk</p>","","","","","","","","","",""
"html-keyboard-response","117","178199","0.0-10.0-0.28","61275a3158c67415afb971ff","650c16f0f2faf8d7a0d14c09","651c1b7ff05d9dfa800068d0","null","null","<p style=""font-size: 60px; font-family: BACS"">lrZGJud</p>","","","","","","","","","",""
"html-keyboard-response","118","179214","0.0-10.0-0.29","61275a3158c67415afb971ff","650c16f0f2faf8d7a0d14c09","651c1b7ff05d9dfa800068d0","null","null","<p style=""font-size: 60px; font-family: BACS"">PhktkcDR</p>","","","","","","","","","",""
"html-keyboard-response","119","180226","0.0-10.0-0.30","61275a3158c67415afb971ff","650c16f0f2faf8d7a0d14c09","651c1b7ff05d9dfa800068d0","null","null","<p style=""font-size: 60px; font-family: BACS"">vclYQGb</p>","","","","","","","","","",""
"html-keyboard-response","120","181236","0.0-10.0-0.31","61275a3158c67415afb971ff","650c16f0f2faf8d7a0d14c09","651c1b7ff05d9dfa800068d0","null","null","<p style=""font-size: 60px; font-family: BACS"">CDEmYDOk</p>","","","","","","","","","",""
"html-keyboard-response","121","182254","0.0-10.0-0.32","61275a3158c67415afb971ff","650c16f0f2faf8d7a0d14c09","651c1b7ff05d9dfa800068d0","null","null","<p style=""font-size: 60px; font-family: BACS"">ldAaukbY</p>","","","","","","","","","",""
"html-keyboard-response","122","183265","0.0-10.0-0.33","61275a3158c67415afb971ff","650c16f0f2faf8d7a0d14c09","651c1b7ff05d9dfa800068d0","null","null","<p style=""font-size: 60px; font-family: BACS"">TPCbTAm</p>","","","","","","","","","",""
"html-keyboard-response","123","184279","0.0-10.0-0.34","61275a3158c67415afb971ff","650c16f0f2faf8d7a0d14c09","651c1b7ff05d9dfa800068d0","null","null","<p style=""font-size: 60px; font-family: BACS"">YQbcuZc</p>","","","","","","","","","",""
"html-keyboard-response","124","185284","0.0-10.0-0.35","61275a3158c67415afb971ff","650c16f0f2faf8d7a0d14c09","651c1b7ff05d9dfa800068d0","null","null","<p style=""font-size: 60px; font-family: BACS"">CDEmYcDR</p>","","","","","","","","","",""
"html-keyboard-response","125","186296","0.0-10.0-0.36","61275a3158c67415afb971ff","650c16f0f2faf8d7a0d14c09","651c1b7ff05d9dfa800068d0","null","null","<p style=""font-size: 60px; font-family: BACS"">auYAkJud</p>","","","","","","","","","",""
"html-keyboard-response","126","187309","0.0-10.0-0.37","61275a3158c67415afb971ff","650c16f0f2faf8d7a0d14c09","651c1b7ff05d9dfa800068d0","null","null","<p style=""font-size: 60px; font-family: BACS"">ZcGdNQGb</p>","","","","","","","","","",""
"html-keyboard-response","127","188314","0.0-10.0-0.38","61275a3158c67415afb971ff","650c16f0f2faf8d7a0d14c09","651c1b7ff05d9dfa800068d0","null","null","<p style=""font-size: 60px; font-family: BACS"">alJYuZc</p>","","","","","","","","","",""
"html-keyboard-response","128","189316","0.0-10.0-0.39","61275a3158c67415afb971ff","650c16f0f2faf8d7a0d14c09","651c1b7ff05d9dfa800068d0","null","null","<p style=""font-size: 60px; font-family: BACS"">TPCbcDR</p>","","","","","","","","","",""
"html-keyboard-response","129","190319","0.0-10.0-0.40","61275a3158c67415afb971ff","650c16f0f2faf8d7a0d14c09","651c1b7ff05d9dfa800068d0","null","null","<p style=""font-size: 60px; font-family: BACS"">PhktkCKOb</p>","","","","","","","","","",""
"html-keyboard-response","130","191338","0.0-10.0-0.41","61275a3158c67415afb971ff","650c16f0f2faf8d7a0d14c09","651c1b7ff05d9dfa800068d0","null","null","<p style=""font-size: 60px; font-family: BACS"">ldAarAm</p>","","","","","","","","","",""
"html-keyboard-response","131","192350","0.0-10.0-0.42","61275a3158c67415afb971ff","650c16f0f2faf8d7a0d14c09","651c1b7ff05d9dfa800068d0","null","null","<p style=""font-size: 60px; font-family: BACS"">lrZGukbY</p>","","","","","","","","","",""
"html-keyboard-response","132","193365","0.0-10.0-0.43","61275a3158c67415afb971ff","650c16f0f2faf8d7a0d14c09","651c1b7ff05d9dfa800068d0","null","null","<p style=""font-size: 60px; font-family: BACS"">GLluAQGb</p>","","","","","","","","","",""
"html-keyboard-response","133","194381","0.0-10.0-0.44","61275a3158c67415afb971ff","650c16f0f2faf8d7a0d14c09","651c1b7ff05d9dfa800068d0","null","null","<p style=""font-size: 60px; font-family: BACS"">vclYrAm</p>","","","","","","","","","",""
"html-keyboard-response","134","195386","0.0-10.0-0.45","61275a3158c67415afb971ff","650c16f0f2faf8d7a0d14c09","651c1b7ff05d9dfa800068d0","null","null","<p style=""font-size: 60px; font-family: BACS"">DMRPCKOb</p>","","","","","","","","","",""
"html-keyboard-response","135","196405","0.0-10.0-0.46","61275a3158c67415afb971ff","650c16f0f2faf8d7a0d14c09","651c1b7ff05d9dfa800068d0","null","null","<p style=""font-size: 60px; font-family: BACS"">auYAkrAm</p>","","","","","","","","","",""
"html-keyboard-response","136","197408","0.0-10.0-0.47","61275a3158c67415afb971ff","650c16f0f2faf8d7a0d14c09","651c1b7ff05d9dfa800068d0","null","null","<p style=""font-size: 60px; font-family: BACS"">advYOuZc</p>","","","","","","","","","",""
"html-keyboard-response","137","198424","0.0-10.0-0.48","61275a3158c67415afb971ff","650c16f0f2faf8d7a0d14c09","651c1b7ff05d9dfa800068d0","null","null","<p style=""font-size: 60px; font-family: BACS"">KABATAm</p>","","","","","","","","","",""
"html-keyboard-response","138","199439","0.0-10.0-0.49","61275a3158c67415afb971ff","650c16f0f2faf8d7a0d14c09","651c1b7ff05d9dfa800068d0","null","null","<p style=""font-size: 60px; font-family: BACS"">CRdBdDOk</p>","","","","","","","","","",""
"html-keyboard-response","139","200456","0.0-10.0-0.50","61275a3158c67415afb971ff","650c16f0f2faf8d7a0d14c09","651c1b7ff05d9dfa800068d0","null","null","<p style=""font-size: 60px; font-family: BACS"">DMRPTAm</p>","","","","","","","","","",""
"html-keyboard-response","140","201470","0.0-10.0-0.51","61275a3158c67415afb971ff","650c16f0f2faf8d7a0d14c09","651c1b7ff05d9dfa800068d0","null","null","<p style=""font-size: 60px; font-family: BACS"">vclYuZc</p>","","","","","","","","","",""
"html-keyboard-response","141","202486","0.0-10.0-0.52","61275a3158c67415afb971ff","650c16f0f2faf8d7a0d14c09","651c1b7ff05d9dfa800068d0","null","null","<p style=""font-size: 60px; font-family: BACS"">hCktDOk</p>","","","","","","","","","",""
"html-keyboard-response","142","203499","0.0-10.0-0.53","61275a3158c67415afb971ff","650c16f0f2faf8d7a0d14c09","651c1b7ff05d9dfa800068d0","null","null","<p style=""font-size: 60px; font-family: BACS"">YlCPBcDR</p>","","","","","","","","","",""
"html-keyboard-response","143","204519","0.0-10.0-0.54","61275a3158c67415afb971ff","650c16f0f2faf8d7a0d14c09","651c1b7ff05d9dfa800068d0","null","null","<p style=""font-size: 60px; font-family: BACS"">hCktCKOb</p>","","","","","","","","","",""
"html-keyboard-response","144","205523","0.0-10.0-0.55","61275a3158c67415afb971ff","650c16f0f2faf8d7a0d14c09","651c1b7ff05d9dfa800068d0","null","null","<p style=""font-size: 60px; font-family: BACS"">KABAcDR</p>","","","","","","","","","",""
"html-keyboard-response","145","206535","0.0-10.0-0.56","61275a3158c67415afb971ff","650c16f0f2faf8d7a0d14c09","651c1b7ff05d9dfa800068d0","null","null","<p style=""font-size: 60px; font-family: BACS"">advYOQGb</p>","","","","","","","","","",""
"html-keyboard-response","146","207540","0.0-10.0-0.57","61275a3158c67415afb971ff","650c16f0f2faf8d7a0d14c09","651c1b7ff05d9dfa800068d0","null","null","<p style=""font-size: 60px; font-family: BACS"">aUZAuZc</p>","","","","","","","","","",""
"html-keyboard-response","147","208552","0.0-10.0-0.58","61275a3158c67415afb971ff","650c16f0f2faf8d7a0d14c09","651c1b7ff05d9dfa800068d0","null","null","<p style=""font-size: 60px; font-family: BACS"">advYOJud</p>","","","","","","","","","",""
"html-keyboard-response","148","209558","0.0-10.0-0.59","61275a3158c67415afb971ff","650c16f0f2faf8d7a0d14c09","651c1b7ff05d9dfa800068d0","null","null","<p style=""font-size: 60px; font-family: BACS"">CRdBdCKOb</p>","","","","","","","","","",""
"html-keyboard-response","149","210571","0.0-10.0-0.60","61275a3158c67415afb971ff","650c16f0f2faf8d7a0d14c09","651c1b7ff05d9dfa800068d0","null","null","<p style=""font-size: 60px; font-family: BACS"">YlCPBTAm</p>","","","","","","","","","",""
"html-keyboard-response","150","211577","0.0-10.0-0.61","61275a3158c67415afb971ff","650c16f0f2faf8d7a0d14c09","651c1b7ff05d9dfa800068d0","null","null","<p style=""font-size: 60px; font-family: BACS"">CDEmYCKOb</p>","","","","","","","","","",""
"html-keyboard-response","151","212594","0.0-10.0-0.62","61275a3158c67415afb971ff","650c16f0f2faf8d7a0d14c09","651c1b7ff05d9dfa800068d0","null","null","<p style=""font-size: 60px; font-family: BACS"">BKDRYcDR</p>","","","","","","","","","",""
"html-keyboard-response","152","213614","0.0-10.0-0.63","61275a3158c67415afb971ff","650c16f0f2faf8d7a0d14c09","651c1b7ff05d9dfa800068d0","null","null","<p style=""font-size: 60px; font-family: BACS"">aUZAJud</p>","","","","","","","","","",""
"html-keyboard-response","153","214627","0.0-10.0-0.64","61275a3158c67415afb971ff","650c16f0f2faf8d7a0d14c09","651c1b7ff05d9dfa800068d0","null","null","<p style=""font-size: 60px; font-family: BACS"">alJYukbY</p>","","","","","","","","","",""
"html-keyboard-response","154","215647","0.0-10.0-0.65","61275a3158c67415afb971ff","650c16f0f2faf8d7a0d14c09","651c1b7ff05d9dfa800068d0","null","null","<p style=""font-size: 60px; font-family: BACS"">CRdBdTRK</p>","","","","","","","","","",""
"html-keyboard-response","155","216664","0.0-10.0-0.66","61275a3158c67415afb971ff","650c16f0f2faf8d7a0d14c09","651c1b7ff05d9dfa800068d0","null","null","<p style=""font-size: 60px; font-family: BACS"">PhktkTAm</p>","","","","","","","","","",""
"html-keyboard-response","156","217678","0.0-10.0-0.67","61275a3158c67415afb971ff","650c16f0f2faf8d7a0d14c09","651c1b7ff05d9dfa800068d0","null","null","<p style=""font-size: 60px; font-family: BACS"">ldAaQGb</p>","","","","","","","","","",""
"html-keyboard-response","157","218680","0.0-10.0-0.68","61275a3158c67415afb971ff","650c16f0f2faf8d7a0d14c09","651c1b7ff05d9dfa800068d0","null","null","<p style=""font-size: 60px; font-family: BACS"">aUZArAm</p>","","","","","","","","","",""
"html-keyboard-response","158","219687","0.0-10.0-0.69","61275a3158c67415afb971ff","650c16f0f2faf8d7a0d14c09","651c1b7ff05d9dfa800068d0","null","null","<p style=""font-size: 60px; font-family: BACS"">GLluAukbY</p>","","","","","","","","","",""
"html-keyboard-response","159","220695","0.0-10.0-0.70","61275a3158c67415afb971ff","650c16f0f2faf8d7a0d14c09","651c1b7ff05d9dfa800068d0","null","null","<p style=""font-size: 60px; font-family: BACS"">lrZGrAm</p>","","","","","","","","","",""
"html-keyboard-response","160","221711","0.0-10.0-0.71","61275a3158c67415afb971ff","650c16f0f2faf8d7a0d14c09","651c1b7ff05d9dfa800068d0","null","null","<p style=""font-size: 60px; font-family: BACS"">ZcGdNJud</p>","","","","","","","","","",""
"html-keyboard-response","161","222727","0.0-10.0-0.72","61275a3158c67415afb971ff","650c16f0f2faf8d7a0d14c09","651c1b7ff05d9dfa800068d0","null","null","<p style=""font-size: 60px; font-family: BACS"">KABACKOb</p>","","","","","","","","","",""
"html-keyboard-response","162","223730","0.0-10.0-0.73","61275a3158c67415afb971ff","650c16f0f2faf8d7a0d14c09","651c1b7ff05d9dfa800068d0","null","null","<p style=""font-size: 60px; font-family: BACS"">YQbcJud</p>","","","","","","","","","",""
"html-keyboard-response","163","224735","0.0-10.0-0.74","61275a3158c67415afb971ff","650c16f0f2faf8d7a0d14c09","651c1b7ff05d9dfa800068d0","null","null","<p style=""font-size: 60px; font-family: BACS"">TPCbTRK</p>","","","","","","","","","",""
"html-keyboard-response","164","225740","0.0-10.0-0.75","61275a3158c67415afb971ff","650c16f0f2faf8d7a0d14c09","651c1b7ff05d9dfa800068d0","null","null","<p style=""font-size: 60px; font-family: BACS"">alJYQGb</p>","","","","","","","","","",""
"html-keyboard-response","165","226757","0.0-10.0-0.76","61275a3158c67415afb971ff","650c16f0f2faf8d7a0d14c09","651c1b7ff05d9dfa800068d0","null","null","<p style=""font-size: 60px; font-family: BACS"">BKDRYCKOb</p>","","","","","","","","","",""
"html-keyboard-response","166","227763","0.0-10.0-0.77","61275a3158c67415afb971ff","650c16f0f2faf8d7a0d14c09","651c1b7ff05d9dfa800068d0","null","null","<p style=""font-size: 60px; font-family: BACS"">EdBbTAm</p>","","","","","","","","","",""
"html-keyboard-response","167","228766","0.0-10.0-0.78","61275a3158c67415afb971ff","650c16f0f2faf8d7a0d14c09","651c1b7ff05d9dfa800068d0","null","null","<p style=""font-size: 60px; font-family: BACS"">hCktTRK</p>","","","","","","","","","",""
"html-keyboard-response","168","229772","0.0-10.0-0.79","61275a3158c67415afb971ff","650c16f0f2faf8d7a0d14c09","651c1b7ff05d9dfa800068d0","null","null","<p style=""font-size: 60px; font-family: BACS"">vclYukbY</p>","","","","","","","","","",""
"html-keyboard-response","169","235280","0.0-11.0","61275a3158c67415afb971ff","650c16f0f2faf8d7a0d14c09","651c1b7ff05d9dfa800068d0","5506"," ","<p>Great, you've seen the second block of words. You may now take a short break.</p>
      <p>Press the spacebar when you're ready to continue.</p>","","","","","","","","","",""
"html-keyboard-response","170","236291","0.0-12.0-0.0","61275a3158c67415afb971ff","650c16f0f2faf8d7a0d14c09","651c1b7ff05d9dfa800068d0","null","null","<p style=""font-size: 60px; font-family: BACS"">YQbcuZc</p>","","","","","","","","","",""
"html-keyboard-response","171","237296","0.0-12.0-0.1","61275a3158c67415afb971ff","650c16f0f2faf8d7a0d14c09","651c1b7ff05d9dfa800068d0","null","null","<p style=""font-size: 60px; font-family: BACS"">TPCbTRK</p>","","","","","","","","","",""
"html-keyboard-response","172","238315","0.0-12.0-0.2","61275a3158c67415afb971ff","650c16f0f2faf8d7a0d14c09","651c1b7ff05d9dfa800068d0","null","null","<p style=""font-size: 60px; font-family: BACS"">GLluAuZc</p>","","","","","","","","","",""
"html-keyboard-response","173","239331","0.0-12.0-0.3","61275a3158c67415afb971ff","650c16f0f2faf8d7a0d14c09","651c1b7ff05d9dfa800068d0","null","null","<p style=""font-size: 60px; font-family: BACS"">CDEmYTRK</p>","","","","","","","","","",""
"html-keyboard-response","174","240348","0.0-12.0-0.4","61275a3158c67415afb971ff","650c16f0f2faf8d7a0d14c09","651c1b7ff05d9dfa800068d0","null","null","<p style=""font-size: 60px; font-family: BACS"">BKDRYCKOb</p>","","","","","","","","","",""
"html-keyboard-response","175","241354","0.0-12.0-0.5","61275a3158c67415afb971ff","650c16f0f2faf8d7a0d14c09","651c1b7ff05d9dfa800068d0","null","null","<p style=""font-size: 60px; font-family: BACS"">KABATAm</p>","","","","","","","","","",""
"html-keyboard-response","176","242368","0.0-12.0-0.6","61275a3158c67415afb971ff","650c16f0f2faf8d7a0d14c09","651c1b7ff05d9dfa800068d0","null","null","<p style=""font-size: 60px; font-family: BACS"">hCktDOk</p>","","","","","","","","","",""
"html-keyboard-response","177","243385","0.0-12.0-0.7","61275a3158c67415afb971ff","650c16f0f2faf8d7a0d14c09","651c1b7ff05d9dfa800068d0","null","null","<p style=""font-size: 60px; font-family: BACS"">CDEmYcDR</p>","","","","","","","","","",""
"html-keyboard-response","178","244399","0.0-12.0-0.8","61275a3158c67415afb971ff","650c16f0f2faf8d7a0d14c09","651c1b7ff05d9dfa800068d0","null","null","<p style=""font-size: 60px; font-family: BACS"">EdBbTRK</p>","","","","","","","","","",""
"html-keyboard-response","179","245403","0.0-12.0-0.9","61275a3158c67415afb971ff","650c16f0f2faf8d7a0d14c09","651c1b7ff05d9dfa800068d0","null","null","<p style=""font-size: 60px; font-family: BACS"">BKDRYcDR</p>","","","","","","","","","",""
"html-keyboard-response","180","246417","0.0-12.0-0.10","61275a3158c67415afb971ff","650c16f0f2faf8d7a0d14c09","651c1b7ff05d9dfa800068d0","null","null","<p style=""font-size: 60px; font-family: BACS"">EdBbTAm</p>","","","","","","","","","",""
"html-keyboard-response","181","247426","0.0-12.0-0.11","61275a3158c67415afb971ff","650c16f0f2faf8d7a0d14c09","651c1b7ff05d9dfa800068d0","null","null","<p style=""font-size: 60px; font-family: BACS"">DMRPcDR</p>","","","","","","","","","",""
"html-keyboard-response","182","248431","0.0-12.0-0.12","61275a3158c67415afb971ff","650c16f0f2faf8d7a0d14c09","651c1b7ff05d9dfa800068d0","null","null","<p style=""font-size: 60px; font-family: BACS"">auYAkrAm</p>","","","","","","","","","",""
"html-keyboard-response","183","249449","0.0-12.0-0.13","61275a3158c67415afb971ff","650c16f0f2faf8d7a0d14c09","651c1b7ff05d9dfa800068d0","null","null","<p style=""font-size: 60px; font-family: BACS"">EdBbDOk</p>","","","","","","","","","",""
"html-keyboard-response","184","250467","0.0-12.0-0.14","61275a3158c67415afb971ff","650c16f0f2faf8d7a0d14c09","651c1b7ff05d9dfa800068d0","null","null","<p style=""font-size: 60px; font-family: BACS"">advYOJud</p>","","","","","","","","","",""
"html-keyboard-response","185","251490","0.0-12.0-0.15","61275a3158c67415afb971ff","650c16f0f2faf8d7a0d14c09","651c1b7ff05d9dfa800068d0","null","null","<p style=""font-size: 60px; font-family: BACS"">KABAcDR</p>","","","","","","","","","",""
"html-keyboard-response","186","252508","0.0-12.0-0.16","61275a3158c67415afb971ff","650c16f0f2faf8d7a0d14c09","651c1b7ff05d9dfa800068d0","null","null","<p style=""font-size: 60px; font-family: BACS"">advYOrAm</p>","","","","","","","","","",""
"html-keyboard-response","187","253512","0.0-12.0-0.17","61275a3158c67415afb971ff","650c16f0f2faf8d7a0d14c09","651c1b7ff05d9dfa800068d0","null","null","<p style=""font-size: 60px; font-family: BACS"">ldAaQGb</p>","","","","","","","","","",""
"html-keyboard-response","188","254530","0.0-12.0-0.18","61275a3158c67415afb971ff","650c16f0f2faf8d7a0d14c09","651c1b7ff05d9dfa800068d0","null","null","<p style=""font-size: 60px; font-family: BACS"">vclYrAm</p>","","","","","","","","","",""
"html-keyboard-response","189","255547","0.0-12.0-0.19","61275a3158c67415afb971ff","650c16f0f2faf8d7a0d14c09","651c1b7ff05d9dfa800068d0","null","null","<p style=""font-size: 60px; font-family: BACS"">DMRPCKOb</p>","","","","","","","","","",""
"html-keyboard-response","190","256550","0.0-12.0-0.20","61275a3158c67415afb971ff","650c16f0f2faf8d7a0d14c09","651c1b7ff05d9dfa800068d0","null","null","<p style=""font-size: 60px; font-family: BACS"">advYOQGb</p>","","","","","","","","","",""
"html-keyboard-response","191","257567","0.0-12.0-0.21","61275a3158c67415afb971ff","650c16f0f2faf8d7a0d14c09","651c1b7ff05d9dfa800068d0","null","null","<p style=""font-size: 60px; font-family: BACS"">lrZGukbY</p>","","","","","","","","","",""
"html-keyboard-response","192","258575","0.0-12.0-0.22","61275a3158c67415afb971ff","650c16f0f2faf8d7a0d14c09","651c1b7ff05d9dfa800068d0","null","null","<p style=""font-size: 60px; font-family: BACS"">CRdBdcDR</p>","","","","","","","","","",""
"html-keyboard-response","193","259581","0.0-12.0-0.23","61275a3158c67415afb971ff","650c16f0f2faf8d7a0d14c09","651c1b7ff05d9dfa800068d0","null","null","<p style=""font-size: 60px; font-family: BACS"">lrZGJud</p>","","","","","","","","","",""
"html-keyboard-response","194","260589","0.0-12.0-0.24","61275a3158c67415afb971ff","650c16f0f2faf8d7a0d14c09","651c1b7ff05d9dfa800068d0","null","null","<p style=""font-size: 60px; font-family: BACS"">TPCbDOk</p>","","","","","","","","","",""
"html-keyboard-response","195","261605","0.0-12.0-0.25","61275a3158c67415afb971ff","650c16f0f2faf8d7a0d14c09","651c1b7ff05d9dfa800068d0","null","null","<p style=""font-size: 60px; font-family: BACS"">GLluArAm</p>","","","","","","","","","",""
"html-keyboard-response","196","262622","0.0-12.0-0.26","61275a3158c67415afb971ff","650c16f0f2faf8d7a0d14c09","651c1b7ff05d9dfa800068d0","null","null","<p style=""font-size: 60px; font-family: BACS"">CDEmYDOk</p>","","","","","","","","","",""
"html-keyboard-response","197","263641","0.0-12.0-0.27","61275a3158c67415afb971ff","650c16f0f2faf8d7a0d14c09","651c1b7ff05d9dfa800068d0","null","null","<p style=""font-size: 60px; font-family: BACS"">YlCPBcDR</p>","","","","","","","","","",""
"html-keyboard-response","198","264653","0.0-12.0-0.28","61275a3158c67415afb971ff","650c16f0f2faf8d7a0d14c09","651c1b7ff05d9dfa800068d0","null","null","<p style=""font-size: 60px; font-family: BACS"">vclYukbY</p>","","","","","","","","","",""
"html-keyboard-response","199","265676","0.0-12.0-0.29","61275a3158c67415afb971ff","650c16f0f2faf8d7a0d14c09","651c1b7ff05d9dfa800068d0","null","null","<p style=""font-size: 60px; font-family: BACS"">ZcGdNQGb</p>","","","","","","","","","",""
"html-keyboard-response","200","266692","0.0-12.0-0.30","61275a3158c67415afb971ff","650c16f0f2faf8d7a0d14c09","651c1b7ff05d9dfa800068d0","null","null","<p style=""font-size: 60px; font-family: BACS"">BKDRYDOk</p>","","","","","","","","","",""
"html-keyboard-response","201","267707","0.0-12.0-0.31","61275a3158c67415afb971ff","650c16f0f2faf8d7a0d14c09","651c1b7ff05d9dfa800068d0","null","null","<p style=""font-size: 60px; font-family: BACS"">EdBbCKOb</p>","","","","","","","","","",""
"html-keyboard-response","202","268721","0.0-12.0-0.32","61275a3158c67415afb971ff","650c16f0f2faf8d7a0d14c09","651c1b7ff05d9dfa800068d0","null","null","<p style=""font-size: 60px; font-family: BACS"">lrZGQGb</p>","","","","","","","","","",""
"html-keyboard-response","203","269725","0.0-12.0-0.33","61275a3158c67415afb971ff","650c16f0f2faf8d7a0d14c09","651c1b7ff05d9dfa800068d0","null","null","<p style=""font-size: 60px; font-family: BACS"">PhktkTAm</p>","","","","","","","","","",""
"html-keyboard-response","204","270736","0.0-12.0-0.34","61275a3158c67415afb971ff","650c16f0f2faf8d7a0d14c09","651c1b7ff05d9dfa800068d0","null","null","<p style=""font-size: 60px; font-family: BACS"">alJYuZc</p>","","","","","","","","","",""
"html-keyboard-response","205","271752","0.0-12.0-0.35","61275a3158c67415afb971ff","650c16f0f2faf8d7a0d14c09","651c1b7ff05d9dfa800068d0","null","null","<p style=""font-size: 60px; font-family: BACS"">DMRPDOk</p>","","","","","","","","","",""
"html-keyboard-response","206","272758","0.0-12.0-0.36","61275a3158c67415afb971ff","650c16f0f2faf8d7a0d14c09","651c1b7ff05d9dfa800068d0","null","null","<p style=""font-size: 60px; font-family: BACS"">ldAaJud</p>","","","","","","","","","",""
"html-keyboard-response","207","273760","0.0-12.0-0.37","61275a3158c67415afb971ff","650c16f0f2faf8d7a0d14c09","651c1b7ff05d9dfa800068d0","null","null","<p style=""font-size: 60px; font-family: BACS"">hCktCKOb</p>","","","","","","","","","",""
"html-keyboard-response","208","274778","0.0-12.0-0.38","61275a3158c67415afb971ff","650c16f0f2faf8d7a0d14c09","651c1b7ff05d9dfa800068d0","null","null","<p style=""font-size: 60px; font-family: BACS"">GLluAQGb</p>","","","","","","","","","",""
"html-keyboard-response","209","275790","0.0-12.0-0.39","61275a3158c67415afb971ff","650c16f0f2faf8d7a0d14c09","651c1b7ff05d9dfa800068d0","null","null","<p style=""font-size: 60px; font-family: BACS"">auYAkuZc</p>","","","","","","","","","",""
"html-keyboard-response","210","276807","0.0-12.0-0.40","61275a3158c67415afb971ff","650c16f0f2faf8d7a0d14c09","651c1b7ff05d9dfa800068d0","null","null","<p style=""font-size: 60px; font-family: BACS"">YQbcrAm</p>","","","","","","","","","",""
"html-keyboard-response","211","277823","0.0-12.0-0.41","61275a3158c67415afb971ff","650c16f0f2faf8d7a0d14c09","651c1b7ff05d9dfa800068d0","null","null","<p style=""font-size: 60px; font-family: BACS"">KABATRK</p>","","","","","","","","","",""
"html-keyboard-response","212","278838","0.0-12.0-0.42","61275a3158c67415afb971ff","650c16f0f2faf8d7a0d14c09","651c1b7ff05d9dfa800068d0","null","null","<p style=""font-size: 60px; font-family: BACS"">ldAaukbY</p>","","","","","","","","","",""
"html-keyboard-response","213","279843","0.0-12.0-0.43","61275a3158c67415afb971ff","650c16f0f2faf8d7a0d14c09","651c1b7ff05d9dfa800068d0","null","null","<p style=""font-size: 60px; font-family: BACS"">auYAkJud</p>","","","","","","","","","",""
"html-keyboard-response","214","280845","0.0-12.0-0.44","61275a3158c67415afb971ff","650c16f0f2faf8d7a0d14c09","651c1b7ff05d9dfa800068d0","null","null","<p style=""font-size: 60px; font-family: BACS"">hCktTRK</p>","","","","","","","","","",""
"html-keyboard-response","215","281863","0.0-12.0-0.45","61275a3158c67415afb971ff","650c16f0f2faf8d7a0d14c09","651c1b7ff05d9dfa800068d0","null","null","<p style=""font-size: 60px; font-family: BACS"">PhktkcDR</p>","","","","","","","","","",""
"html-keyboard-response","216","282876","0.0-12.0-0.46","61275a3158c67415afb971ff","650c16f0f2faf8d7a0d14c09","651c1b7ff05d9dfa800068d0","null","null","<p style=""font-size: 60px; font-family: BACS"">CRdBdDOk</p>","","","","","","","","","",""
"html-keyboard-response","217","283896","0.0-12.0-0.47","61275a3158c67415afb971ff","650c16f0f2faf8d7a0d14c09","651c1b7ff05d9dfa800068d0","null","null","<p style=""font-size: 60px; font-family: BACS"">TPCbcDR</p>","","","","","","","","","",""
"html-keyboard-response","218","284908","0.0-12.0-0.48","61275a3158c67415afb971ff","650c16f0f2faf8d7a0d14c09","651c1b7ff05d9dfa800068d0","null","null","<p style=""font-size: 60px; font-family: BACS"">GLluAukbY</p>","","","","","","","","","",""
"html-keyboard-response","219","285924","0.0-12.0-0.49","61275a3158c67415afb971ff","650c16f0f2faf8d7a0d14c09","651c1b7ff05d9dfa800068d0","null","null","<p style=""font-size: 60px; font-family: BACS"">PhktkTRK</p>","","","","","","","","","",""
"html-keyboard-response","220","286940","0.0-12.0-0.50","61275a3158c67415afb971ff","650c16f0f2faf8d7a0d14c09","651c1b7ff05d9dfa800068d0","null","null","<p style=""font-size: 60px; font-family: BACS"">KABACKOb</p>","","","","","","","","","",""
"html-keyboard-response","221","287959","0.0-12.0-0.51","61275a3158c67415afb971ff","650c16f0f2faf8d7a0d14c09","651c1b7ff05d9dfa800068d0","null","null","<p style=""font-size: 60px; font-family: BACS"">alJYJud</p>","","","","","","","","","",""
"html-keyboard-response","222","288966","0.0-12.0-0.52","61275a3158c67415afb971ff","650c16f0f2faf8d7a0d14c09","651c1b7ff05d9dfa800068d0","null","null","<p style=""font-size: 60px; font-family: BACS"">TPCbTAm</p>","","","","","","","","","",""
"html-keyboard-response","223","289969","0.0-12.0-0.53","61275a3158c67415afb971ff","650c16f0f2faf8d7a0d14c09","651c1b7ff05d9dfa800068d0","null","null","<p style=""font-size: 60px; font-family: BACS"">ZcGdNJud</p>","","","","","","","","","",""
"html-keyboard-response","224","290976","0.0-12.0-0.54","61275a3158c67415afb971ff","650c16f0f2faf8d7a0d14c09","651c1b7ff05d9dfa800068d0","null","null","<p style=""font-size: 60px; font-family: BACS"">vclYQGb</p>","","","","","","","","","",""
"html-keyboard-response","225","291995","0.0-12.0-0.55","61275a3158c67415afb971ff","650c16f0f2faf8d7a0d14c09","651c1b7ff05d9dfa800068d0","null","null","<p style=""font-size: 60px; font-family: BACS"">YQbcJud</p>","","","","","","","","","",""
"html-keyboard-response","226","293009","0.0-12.0-0.56","61275a3158c67415afb971ff","650c16f0f2faf8d7a0d14c09","651c1b7ff05d9dfa800068d0","null","null","<p style=""font-size: 60px; font-family: BACS"">YlCPBDOk</p>","","","","","","","","","",""
"html-keyboard-response","227","294031","0.0-12.0-0.57","61275a3158c67415afb971ff","650c16f0f2faf8d7a0d14c09","651c1b7ff05d9dfa800068d0","null","null","<p style=""font-size: 60px; font-family: BACS"">DMRPTAm</p>","","","","","","","","","",""
"html-keyboard-response","228","295039","0.0-12.0-0.58","61275a3158c67415afb971ff","650c16f0f2faf8d7a0d14c09","651c1b7ff05d9dfa800068d0","null","null","<p style=""font-size: 60px; font-family: BACS"">aUZAukbY</p>","","","","","","","","","",""
"html-keyboard-response","229","296054","0.0-12.0-0.59","61275a3158c67415afb971ff","650c16f0f2faf8d7a0d14c09","651c1b7ff05d9dfa800068d0","null","null","<p style=""font-size: 60px; font-family: BACS"">lrZGrAm</p>","","","","","","","","","",""
"html-keyboard-response","230","297058","0.0-12.0-0.60","61275a3158c67415afb971ff","650c16f0f2faf8d7a0d14c09","651c1b7ff05d9dfa800068d0","null","null","<p style=""font-size: 60px; font-family: BACS"">ZcGdNukbY</p>","","","","","","","","","",""
"html-keyboard-response","231","298067","0.0-12.0-0.61","61275a3158c67415afb971ff","650c16f0f2faf8d7a0d14c09","651c1b7ff05d9dfa800068d0","null","null","<p style=""font-size: 60px; font-family: BACS"">CRdBdTRK</p>","","","","","","","","","",""
"html-keyboard-response","232","299084","0.0-12.0-0.62","61275a3158c67415afb971ff","650c16f0f2faf8d7a0d14c09","651c1b7ff05d9dfa800068d0","null","null","<p style=""font-size: 60px; font-family: BACS"">aUZAJud</p>","","","","","","","","","",""
"html-keyboard-response","233","300100","0.0-12.0-0.63","61275a3158c67415afb971ff","650c16f0f2faf8d7a0d14c09","651c1b7ff05d9dfa800068d0","null","null","<p style=""font-size: 60px; font-family: BACS"">YlCPBTAm</p>","","","","","","","","","",""
"html-keyboard-response","234","301118","0.0-12.0-0.64","61275a3158c67415afb971ff","650c16f0f2faf8d7a0d14c09","651c1b7ff05d9dfa800068d0","null","null","<p style=""font-size: 60px; font-family: BACS"">YQbcukbY</p>","","","","","","","","","",""
"html-keyboard-response","235","302137","0.0-12.0-0.65","61275a3158c67415afb971ff","650c16f0f2faf8d7a0d14c09","651c1b7ff05d9dfa800068d0","null","null","<p style=""font-size: 60px; font-family: BACS"">CRdBdCKOb</p>","","","","","","","","","",""
"html-keyboard-response","236","303141","0.0-12.0-0.66","61275a3158c67415afb971ff","650c16f0f2faf8d7a0d14c09","651c1b7ff05d9dfa800068d0","null","null","<p style=""font-size: 60px; font-family: BACS"">BKDRYTAm</p>","","","","","","","","","",""
"html-keyboard-response","237","304158","0.0-12.0-0.67","61275a3158c67415afb971ff","650c16f0f2faf8d7a0d14c09","651c1b7ff05d9dfa800068d0","null","null","<p style=""font-size: 60px; font-family: BACS"">auYAkQGb</p>","","","","","","","","","",""
"html-keyboard-response","238","305162","0.0-12.0-0.68","61275a3158c67415afb971ff","650c16f0f2faf8d7a0d14c09","651c1b7ff05d9dfa800068d0","null","null","<p style=""font-size: 60px; font-family: BACS"">YlCPBTRK</p>","","","","","","","","","",""
"html-keyboard-response","239","306169","0.0-12.0-0.69","61275a3158c67415afb971ff","650c16f0f2faf8d7a0d14c09","651c1b7ff05d9dfa800068d0","null","null","<p style=""font-size: 60px; font-family: BACS"">CDEmYCKOb</p>","","","","","","","","","",""
"html-keyboard-response","240","307188","0.0-12.0-0.70","61275a3158c67415afb971ff","650c16f0f2faf8d7a0d14c09","651c1b7ff05d9dfa800068d0","null","null","<p style=""font-size: 60px; font-family: BACS"">aUZAuZc</p>","","","","","","","","","",""
"html-keyboard-response","241","308192","0.0-12.0-0.71","61275a3158c67415afb971ff","650c16f0f2faf8d7a0d14c09","651c1b7ff05d9dfa800068d0","null","null","<p style=""font-size: 60px; font-family: BACS"">ldAarAm</p>","","","","","","","","","",""
"html-keyboard-response","242","309197","0.0-12.0-0.72","61275a3158c67415afb971ff","650c16f0f2faf8d7a0d14c09","651c1b7ff05d9dfa800068d0","null","null","<p style=""font-size: 60px; font-family: BACS"">ZcGdNuZc</p>","","","","","","","","","",""
"html-keyboard-response","243","310201","0.0-12.0-0.73","61275a3158c67415afb971ff","650c16f0f2faf8d7a0d14c09","651c1b7ff05d9dfa800068d0","null","null","<p style=""font-size: 60px; font-family: BACS"">hCktTAm</p>","","","","","","","","","",""
"html-keyboard-response","244","311217","0.0-12.0-0.74","61275a3158c67415afb971ff","650c16f0f2faf8d7a0d14c09","651c1b7ff05d9dfa800068d0","null","null","<p style=""font-size: 60px; font-family: BACS"">PhktkCKOb</p>","","","","","","","","","",""
"html-keyboard-response","245","312222","0.0-12.0-0.75","61275a3158c67415afb971ff","650c16f0f2faf8d7a0d14c09","651c1b7ff05d9dfa800068d0","null","null","<p style=""font-size: 60px; font-family: BACS"">vclYuZc</p>","","","","","","","","","",""
"html-keyboard-response","246","313230","0.0-12.0-0.76","61275a3158c67415afb971ff","650c16f0f2faf8d7a0d14c09","651c1b7ff05d9dfa800068d0","null","null","<p style=""font-size: 60px; font-family: BACS"">alJYukbY</p>","","","","","","","","","",""
"html-keyboard-response","247","314244","0.0-12.0-0.77","61275a3158c67415afb971ff","650c16f0f2faf8d7a0d14c09","651c1b7ff05d9dfa800068d0","null","null","<p style=""font-size: 60px; font-family: BACS"">advYOuZc</p>","","","","","","","","","",""
"html-keyboard-response","248","315263","0.0-12.0-0.78","61275a3158c67415afb971ff","650c16f0f2faf8d7a0d14c09","651c1b7ff05d9dfa800068d0","null","null","<p style=""font-size: 60px; font-family: BACS"">alJYQGb</p>","","","","","","","","","",""
"html-keyboard-response","249","316279","0.0-12.0-0.79","61275a3158c67415afb971ff","650c16f0f2faf8d7a0d14c09","651c1b7ff05d9dfa800068d0","null","null","<p style=""font-size: 60px; font-family: BACS"">aUZArAm</p>","","","","","","","","","",""
"html-keyboard-response","250","321970","0.0-13.0","61275a3158c67415afb971ff","650c16f0f2faf8d7a0d14c09","651c1b7ff05d9dfa800068d0","5690"," ","<p>Great, you've seen the third block of words. You may now take a short break.</p>
      <p>Press the spacebar when you're ready to continue.</p>","","","","","","","","","",""
"html-keyboard-response","251","322980","0.0-14.0-0.0","61275a3158c67415afb971ff","650c16f0f2faf8d7a0d14c09","651c1b7ff05d9dfa800068d0","null","null","<p style=""font-size: 60px; font-family: BACS"">vclYrAm</p>","","","","","","","","","",""
"html-keyboard-response","252","323998","0.0-14.0-0.1","61275a3158c67415afb971ff","650c16f0f2faf8d7a0d14c09","651c1b7ff05d9dfa800068d0","null","null","<p style=""font-size: 60px; font-family: BACS"">EdBbDOk</p>","","","","","","","","","",""
"html-keyboard-response","253","325004","0.0-14.0-0.2","61275a3158c67415afb971ff","650c16f0f2faf8d7a0d14c09","651c1b7ff05d9dfa800068d0","null","null","<p style=""font-size: 60px; font-family: BACS"">BKDRYcDR</p>","","","","","","","","","",""
"html-keyboard-response","254","326022","0.0-14.0-0.3","61275a3158c67415afb971ff","650c16f0f2faf8d7a0d14c09","651c1b7ff05d9dfa800068d0","null","null","<p style=""font-size: 60px; font-family: BACS"">vclYQGb</p>","","","","","","","","","",""
"html-keyboard-response","255","327030","0.0-14.0-0.4","61275a3158c67415afb971ff","650c16f0f2faf8d7a0d14c09","651c1b7ff05d9dfa800068d0","null","null","<p style=""font-size: 60px; font-family: BACS"">ZcGdNukbY</p>","","","","","","","","","",""
"html-keyboard-response","256","328034","0.0-14.0-0.5","61275a3158c67415afb971ff","650c16f0f2faf8d7a0d14c09","651c1b7ff05d9dfa800068d0","null","null","<p style=""font-size: 60px; font-family: BACS"">TPCbTRK</p>","","","","","","","","","",""
"html-keyboard-response","257","329045","0.0-14.0-0.6","61275a3158c67415afb971ff","650c16f0f2faf8d7a0d14c09","651c1b7ff05d9dfa800068d0","null","null","<p style=""font-size: 60px; font-family: BACS"">lrZGQGb</p>","","","","","","","","","",""
"html-keyboard-response","258","330050","0.0-14.0-0.7","61275a3158c67415afb971ff","650c16f0f2faf8d7a0d14c09","651c1b7ff05d9dfa800068d0","null","null","<p style=""font-size: 60px; font-family: BACS"">CDEmYTRK</p>","","","","","","","","","",""
"html-keyboard-response","259","331066","0.0-14.0-0.8","61275a3158c67415afb971ff","650c16f0f2faf8d7a0d14c09","651c1b7ff05d9dfa800068d0","null","null","<p style=""font-size: 60px; font-family: BACS"">auYAkJud</p>","","","","","","","","","",""
"html-keyboard-response","260","332086","0.0-14.0-0.9","61275a3158c67415afb971ff","650c16f0f2faf8d7a0d14c09","651c1b7ff05d9dfa800068d0","null","null","<p style=""font-size: 60px; font-family: BACS"">ldAaQGb</p>","","","","","","","","","",""
"html-keyboard-response","261","333093","0.0-14.0-0.10","61275a3158c67415afb971ff","650c16f0f2faf8d7a0d14c09","651c1b7ff05d9dfa800068d0","null","null","<p style=""font-size: 60px; font-family: BACS"">YQbcukbY</p>","","","","","","","","","",""
"html-keyboard-response","262","334115","0.0-14.0-0.11","61275a3158c67415afb971ff","650c16f0f2faf8d7a0d14c09","651c1b7ff05d9dfa800068d0","null","null","<p style=""font-size: 60px; font-family: BACS"">hCktTRK</p>","","","","","","","","","",""
"html-keyboard-response","263","335123","0.0-14.0-0.12","61275a3158c67415afb971ff","650c16f0f2faf8d7a0d14c09","651c1b7ff05d9dfa800068d0","null","null","<p style=""font-size: 60px; font-family: BACS"">CDEmYCKOb</p>","","","","","","","","","",""
"html-keyboard-response","264","336130","0.0-14.0-0.13","61275a3158c67415afb971ff","650c16f0f2faf8d7a0d14c09","651c1b7ff05d9dfa800068d0","null","null","<p style=""font-size: 60px; font-family: BACS"">BKDRYDOk</p>","","","","","","","","","",""
"html-keyboard-response","265","337148","0.0-14.0-0.14","61275a3158c67415afb971ff","650c16f0f2faf8d7a0d14c09","651c1b7ff05d9dfa800068d0","null","null","<p style=""font-size: 60px; font-family: BACS"">ldAarAm</p>","","","","","","","","","",""
"html-keyboard-response","266","338153","0.0-14.0-0.15","61275a3158c67415afb971ff","650c16f0f2faf8d7a0d14c09","651c1b7ff05d9dfa800068d0","null","null","<p style=""font-size: 60px; font-family: BACS"">CRdBdcDR</p>","","","","","","","","","",""
"html-keyboard-response","267","339171","0.0-14.0-0.16","61275a3158c67415afb971ff","650c16f0f2faf8d7a0d14c09","651c1b7ff05d9dfa800068d0","null","null","<p style=""font-size: 60px; font-family: BACS"">aUZArAm</p>","","","","","","","","","",""
"html-keyboard-response","268","340179","0.0-14.0-0.17","61275a3158c67415afb971ff","650c16f0f2faf8d7a0d14c09","651c1b7ff05d9dfa800068d0","null","null","<p style=""font-size: 60px; font-family: BACS"">PhktkCKOb</p>","","","","","","","","","",""
"html-keyboard-response","269","341195","0.0-14.0-0.18","61275a3158c67415afb971ff","650c16f0f2faf8d7a0d14c09","651c1b7ff05d9dfa800068d0","null","null","<p style=""font-size: 60px; font-family: BACS"">DMRPTAm</p>","","","","","","","","","",""
"html-keyboard-response","270","342210","0.0-14.0-0.19","61275a3158c67415afb971ff","650c16f0f2faf8d7a0d14c09","651c1b7ff05d9dfa800068d0","null","null","<p style=""font-size: 60px; font-family: BACS"">YlCPBDOk</p>","","","","","","","","","",""
"html-keyboard-response","271","343212","0.0-14.0-0.20","61275a3158c67415afb971ff","650c16f0f2faf8d7a0d14c09","651c1b7ff05d9dfa800068d0","null","null","<p style=""font-size: 60px; font-family: BACS"">ldAaukbY</p>","","","","","","","","","",""
"html-keyboard-response","272","344230","0.0-14.0-0.21","61275a3158c67415afb971ff","650c16f0f2faf8d7a0d14c09","651c1b7ff05d9dfa800068d0","null","null","<p style=""font-size: 60px; font-family: BACS"">TPCbcDR</p>","","","","","","","","","",""
"html-keyboard-response","273","345233","0.0-14.0-0.22","61275a3158c67415afb971ff","650c16f0f2faf8d7a0d14c09","651c1b7ff05d9dfa800068d0","null","null","<p style=""font-size: 60px; font-family: BACS"">KABATAm</p>","","","","","","","","","",""
"html-keyboard-response","274","346250","0.0-14.0-0.23","61275a3158c67415afb971ff","650c16f0f2faf8d7a0d14c09","651c1b7ff05d9dfa800068d0","null","null","<p style=""font-size: 60px; font-family: BACS"">hCktCKOb</p>","","","","","","","","","",""
"html-keyboard-response","275","347253","0.0-14.0-0.24","61275a3158c67415afb971ff","650c16f0f2faf8d7a0d14c09","651c1b7ff05d9dfa800068d0","null","null","<p style=""font-size: 60px; font-family: BACS"">KABATRK</p>","","","","","","","","","",""
"html-keyboard-response","276","348264","0.0-14.0-0.25","61275a3158c67415afb971ff","650c16f0f2faf8d7a0d14c09","651c1b7ff05d9dfa800068d0","null","null","<p style=""font-size: 60px; font-family: BACS"">DMRPcDR</p>","","","","","","","","","",""
"html-keyboard-response","277","349284","0.0-14.0-0.26","61275a3158c67415afb971ff","650c16f0f2faf8d7a0d14c09","651c1b7ff05d9dfa800068d0","null","null","<p style=""font-size: 60px; font-family: BACS"">PhktkTAm</p>","","","","","","","","","",""
"html-keyboard-response","278","350302","0.0-14.0-0.27","61275a3158c67415afb971ff","650c16f0f2faf8d7a0d14c09","651c1b7ff05d9dfa800068d0","null","null","<p style=""font-size: 60px; font-family: BACS"">aUZAukbY</p>","","","","","","","","","",""
"html-keyboard-response","279","351306","0.0-14.0-0.28","61275a3158c67415afb971ff","650c16f0f2faf8d7a0d14c09","651c1b7ff05d9dfa800068d0","null","null","<p style=""font-size: 60px; font-family: BACS"">YlCPBTAm</p>","","","","","","","","","",""
"html-keyboard-response","280","352311","0.0-14.0-0.29","61275a3158c67415afb971ff","650c16f0f2faf8d7a0d14c09","651c1b7ff05d9dfa800068d0","null","null","<p style=""font-size: 60px; font-family: BACS"">advYOQGb</p>","","","","","","","","","",""
"html-keyboard-response","281","353329","0.0-14.0-0.30","61275a3158c67415afb971ff","650c16f0f2faf8d7a0d14c09","651c1b7ff05d9dfa800068d0","null","null","<p style=""font-size: 60px; font-family: BACS"">PhktkcDR</p>","","","","","","","","","",""
"html-keyboard-response","282","354333","0.0-14.0-0.31","61275a3158c67415afb971ff","650c16f0f2faf8d7a0d14c09","651c1b7ff05d9dfa800068d0","null","null","<p style=""font-size: 60px; font-family: BACS"">aUZAuZc</p>","","","","","","","","","",""
"html-keyboard-response","283","355344","0.0-14.0-0.32","61275a3158c67415afb971ff","650c16f0f2faf8d7a0d14c09","651c1b7ff05d9dfa800068d0","null","null","<p style=""font-size: 60px; font-family: BACS"">CRdBdCKOb</p>","","","","","","","","","",""
"html-keyboard-response","284","356360","0.0-14.0-0.33","61275a3158c67415afb971ff","650c16f0f2faf8d7a0d14c09","651c1b7ff05d9dfa800068d0","null","null","<p style=""font-size: 60px; font-family: BACS"">ldAaJud</p>","","","","","","","","","",""
"html-keyboard-response","285","357366","0.0-14.0-0.34","61275a3158c67415afb971ff","650c16f0f2faf8d7a0d14c09","651c1b7ff05d9dfa800068d0","null","null","<p style=""font-size: 60px; font-family: BACS"">EdBbTAm</p>","","","","","","","","","",""
"html-keyboard-response","286","358372","0.0-14.0-0.35","61275a3158c67415afb971ff","650c16f0f2faf8d7a0d14c09","651c1b7ff05d9dfa800068d0","null","null","<p style=""font-size: 60px; font-family: BACS"">GLluAuZc</p>","","","","","","","","","",""
"html-keyboard-response","287","359393","0.0-14.0-0.36","61275a3158c67415afb971ff","650c16f0f2faf8d7a0d14c09","651c1b7ff05d9dfa800068d0","null","null","<p style=""font-size: 60px; font-family: BACS"">hCktDOk</p>","","","","","","","","","",""
"html-keyboard-response","288","360399","0.0-14.0-0.37","61275a3158c67415afb971ff","650c16f0f2faf8d7a0d14c09","651c1b7ff05d9dfa800068d0","null","null","<p style=""font-size: 60px; font-family: BACS"">advYOuZc</p>","","","","","","","","","",""
"html-keyboard-response","289","361420","0.0-14.0-0.38","61275a3158c67415afb971ff","650c16f0f2faf8d7a0d14c09","651c1b7ff05d9dfa800068d0","null","null","<p style=""font-size: 60px; font-family: BACS"">ZcGdNJud</p>","","","","","","","","","",""
"html-keyboard-response","290","362435","0.0-14.0-0.39","61275a3158c67415afb971ff","650c16f0f2faf8d7a0d14c09","651c1b7ff05d9dfa800068d0","null","null","<p style=""font-size: 60px; font-family: BACS"">YQbcrAm</p>","","","","","","","","","",""
"html-keyboard-response","291","363453","0.0-14.0-0.40","61275a3158c67415afb971ff","650c16f0f2faf8d7a0d14c09","651c1b7ff05d9dfa800068d0","null","null","<p style=""font-size: 60px; font-family: BACS"">YlCPBTRK</p>","","","","","","","","","",""
"html-keyboard-response","292","364457","0.0-14.0-0.41","61275a3158c67415afb971ff","650c16f0f2faf8d7a0d14c09","651c1b7ff05d9dfa800068d0","null","null","<p style=""font-size: 60px; font-family: BACS"">CRdBdDOk</p>","","","","","","","","","",""
"html-keyboard-response","293","365472","0.0-14.0-0.42","61275a3158c67415afb971ff","650c16f0f2faf8d7a0d14c09","651c1b7ff05d9dfa800068d0","null","null","<p style=""font-size: 60px; font-family: BACS"">lrZGukbY</p>","","","","","","","","","",""
"html-keyboard-response","294","366487","0.0-14.0-0.43","61275a3158c67415afb971ff","650c16f0f2faf8d7a0d14c09","651c1b7ff05d9dfa800068d0","null","null","<p style=""font-size: 60px; font-family: BACS"">hCktTAm</p>","","","","","","","","","",""
"html-keyboard-response","295","367501","0.0-14.0-0.44","61275a3158c67415afb971ff","650c16f0f2faf8d7a0d14c09","651c1b7ff05d9dfa800068d0","null","null","<p style=""font-size: 60px; font-family: BACS"">GLluAukbY</p>","","","","","","","","","",""
"html-keyboard-response","296","368505","0.0-14.0-0.45","61275a3158c67415afb971ff","650c16f0f2faf8d7a0d14c09","651c1b7ff05d9dfa800068d0","null","null","<p style=""font-size: 60px; font-family: BACS"">alJYuZc</p>","","","","","","","","","",""
"html-keyboard-response","297","369523","0.0-14.0-0.46","61275a3158c67415afb971ff","650c16f0f2faf8d7a0d14c09","651c1b7ff05d9dfa800068d0","null","null","<p style=""font-size: 60px; font-family: BACS"">KABAcDR</p>","","","","","","","","","",""
"html-keyboard-response","298","370536","0.0-14.0-0.47","61275a3158c67415afb971ff","650c16f0f2faf8d7a0d14c09","651c1b7ff05d9dfa800068d0","null","null","<p style=""font-size: 60px; font-family: BACS"">DMRPDOk</p>","","","","","","","","","",""
"html-keyboard-response","299","371551","0.0-14.0-0.48","61275a3158c67415afb971ff","650c16f0f2faf8d7a0d14c09","651c1b7ff05d9dfa800068d0","null","null","<p style=""font-size: 60px; font-family: BACS"">TPCbTAm</p>","","","","","","","","","",""
"html-keyboard-response","300","372556","0.0-14.0-0.49","61275a3158c67415afb971ff","650c16f0f2faf8d7a0d14c09","651c1b7ff05d9dfa800068d0","null","null","<p style=""font-size: 60px; font-family: BACS"">alJYQGb</p>","","","","","","","","","",""
"html-keyboard-response","301","373565","0.0-14.0-0.50","61275a3158c67415afb971ff","650c16f0f2faf8d7a0d14c09","651c1b7ff05d9dfa800068d0","null","null","<p style=""font-size: 60px; font-family: BACS"">BKDRYTAm</p>","","","","","","","","","",""
"html-keyboard-response","302","374584","0.0-14.0-0.51","61275a3158c67415afb971ff","650c16f0f2faf8d7a0d14c09","651c1b7ff05d9dfa800068d0","null","null","<p style=""font-size: 60px; font-family: BACS"">auYAkuZc</p>","","","","","","","","","",""
"html-keyboard-response","303","375604","0.0-14.0-0.52","61275a3158c67415afb971ff","650c16f0f2faf8d7a0d14c09","651c1b7ff05d9dfa800068d0","null","null","<p style=""font-size: 60px; font-family: BACS"">lrZGrAm</p>","","","","","","","","","",""
"html-keyboard-response","304","376608","0.0-14.0-0.53","61275a3158c67415afb971ff","650c16f0f2faf8d7a0d14c09","651c1b7ff05d9dfa800068d0","null","null","<p style=""font-size: 60px; font-family: BACS"">YlCPBcDR</p>","","","","","","","","","",""
"html-keyboard-response","305","377622","0.0-14.0-0.54","61275a3158c67415afb971ff","650c16f0f2faf8d7a0d14c09","651c1b7ff05d9dfa800068d0","null","null","<p style=""font-size: 60px; font-family: BACS"">DMRPCKOb</p>","","","","","","","","","",""
"html-keyboard-response","306","378626","0.0-14.0-0.55","61275a3158c67415afb971ff","650c16f0f2faf8d7a0d14c09","651c1b7ff05d9dfa800068d0","null","null","<p style=""font-size: 60px; font-family: BACS"">YQbcuZc</p>","","","","","","","","","",""
"html-keyboard-response","307","379644","0.0-14.0-0.56","61275a3158c67415afb971ff","650c16f0f2faf8d7a0d14c09","651c1b7ff05d9dfa800068d0","null","null","<p style=""font-size: 60px; font-family: BACS"">advYOrAm</p>","","","","","","","","","",""
"html-keyboard-response","308","380650","0.0-14.0-0.57","61275a3158c67415afb971ff","650c16f0f2faf8d7a0d14c09","651c1b7ff05d9dfa800068d0","null","null","<p style=""font-size: 60px; font-family: BACS"">ZcGdNQGb</p>","","","","","","","","","",""
"html-keyboard-response","309","381653","0.0-14.0-0.58","61275a3158c67415afb971ff","650c16f0f2faf8d7a0d14c09","651c1b7ff05d9dfa800068d0","null","null","<p style=""font-size: 60px; font-family: BACS"">aUZAJud</p>","","","","","","","","","",""
"html-keyboard-response","310","382659","0.0-14.0-0.59","61275a3158c67415afb971ff","650c16f0f2faf8d7a0d14c09","651c1b7ff05d9dfa800068d0","null","null","<p style=""font-size: 60px; font-family: BACS"">EdBbCKOb</p>","","","","","","","","","",""
"html-keyboard-response","311","383662","0.0-14.0-0.60","61275a3158c67415afb971ff","650c16f0f2faf8d7a0d14c09","651c1b7ff05d9dfa800068d0","null","null","<p style=""font-size: 60px; font-family: BACS"">PhktkTRK</p>","","","","","","","","","",""
"html-keyboard-response","312","384667","0.0-14.0-0.61","61275a3158c67415afb971ff","650c16f0f2faf8d7a0d14c09","651c1b7ff05d9dfa800068d0","null","null","<p style=""font-size: 60px; font-family: BACS"">TPCbDOk</p>","","","","","","","","","",""
"html-keyboard-response","313","385681","0.0-14.0-0.62","61275a3158c67415afb971ff","650c16f0f2faf8d7a0d14c09","651c1b7ff05d9dfa800068d0","null","null","<p style=""font-size: 60px; font-family: BACS"">CDEmYcDR</p>","","","","","","","","","",""
"html-keyboard-response","314","386685","0.0-14.0-0.63","61275a3158c67415afb971ff","650c16f0f2faf8d7a0d14c09","651c1b7ff05d9dfa800068d0","null","null","<p style=""font-size: 60px; font-family: BACS"">alJYukbY</p>","","","","","","","","","",""
"html-keyboard-response","315","387690","0.0-14.0-0.64","61275a3158c67415afb971ff","650c16f0f2faf8d7a0d14c09","651c1b7ff05d9dfa800068d0","null","null","<p style=""font-size: 60px; font-family: BACS"">advYOJud</p>","","","","","","","","","",""
"html-keyboard-response","316","388702","0.0-14.0-0.65","61275a3158c67415afb971ff","650c16f0f2faf8d7a0d14c09","651c1b7ff05d9dfa800068d0","null","null","<p style=""font-size: 60px; font-family: BACS"">GLluAQGb</p>","","","","","","","","","",""
"html-keyboard-response","317","389715","0.0-14.0-0.66","61275a3158c67415afb971ff","650c16f0f2faf8d7a0d14c09","651c1b7ff05d9dfa800068d0","null","null","<p style=""font-size: 60px; font-family: BACS"">CRdBdTRK</p>","","","","","","","","","",""
"html-keyboard-response","318","390731","0.0-14.0-0.67","61275a3158c67415afb971ff","650c16f0f2faf8d7a0d14c09","651c1b7ff05d9dfa800068d0","null","null","<p style=""font-size: 60px; font-family: BACS"">auYAkQGb</p>","","","","","","","","","",""
"html-keyboard-response","319","391743","0.0-14.0-0.68","61275a3158c67415afb971ff","650c16f0f2faf8d7a0d14c09","651c1b7ff05d9dfa800068d0","null","null","<p style=""font-size: 60px; font-family: BACS"">YQbcJud</p>","","","","","","","","","",""
"html-keyboard-response","320","392746","0.0-14.0-0.69","61275a3158c67415afb971ff","650c16f0f2faf8d7a0d14c09","651c1b7ff05d9dfa800068d0","null","null","<p style=""font-size: 60px; font-family: BACS"">EdBbTRK</p>","","","","","","","","","",""
"html-keyboard-response","321","393754","0.0-14.0-0.70","61275a3158c67415afb971ff","650c16f0f2faf8d7a0d14c09","651c1b7ff05d9dfa800068d0","null","null","<p style=""font-size: 60px; font-family: BACS"">GLluArAm</p>","","","","","","","","","",""
"html-keyboard-response","322","394756","0.0-14.0-0.71","61275a3158c67415afb971ff","650c16f0f2faf8d7a0d14c09","651c1b7ff05d9dfa800068d0","null","null","<p style=""font-size: 60px; font-family: BACS"">KABACKOb</p>","","","","","","","","","",""
"html-keyboard-response","323","395773","0.0-14.0-0.72","61275a3158c67415afb971ff","650c16f0f2faf8d7a0d14c09","651c1b7ff05d9dfa800068d0","null","null","<p style=""font-size: 60px; font-family: BACS"">lrZGJud</p>","","","","","","","","","",""
"html-keyboard-response","324","396776","0.0-14.0-0.73","61275a3158c67415afb971ff","650c16f0f2faf8d7a0d14c09","651c1b7ff05d9dfa800068d0","null","null","<p style=""font-size: 60px; font-family: BACS"">vclYukbY</p>","","","","","","","","","",""
"html-keyboard-response","325","397791","0.0-14.0-0.74","61275a3158c67415afb971ff","650c16f0f2faf8d7a0d14c09","651c1b7ff05d9dfa800068d0","null","null","<p style=""font-size: 60px; font-family: BACS"">alJYJud</p>","","","","","","","","","",""
"html-keyboard-response","326","398797","0.0-14.0-0.75","61275a3158c67415afb971ff","650c16f0f2faf8d7a0d14c09","651c1b7ff05d9dfa800068d0","null","null","<p style=""font-size: 60px; font-family: BACS"">BKDRYCKOb</p>","","","","","","","","","",""
"html-keyboard-response","327","399803","0.0-14.0-0.76","61275a3158c67415afb971ff","650c16f0f2faf8d7a0d14c09","651c1b7ff05d9dfa800068d0","null","null","<p style=""font-size: 60px; font-family: BACS"">ZcGdNuZc</p>","","","","","","","","","",""
"html-keyboard-response","328","400817","0.0-14.0-0.77","61275a3158c67415afb971ff","650c16f0f2faf8d7a0d14c09","651c1b7ff05d9dfa800068d0","null","null","<p style=""font-size: 60px; font-family: BACS"">CDEmYDOk</p>","","","","","","","","","",""
"html-keyboard-response","329","401829","0.0-14.0-0.78","61275a3158c67415afb971ff","650c16f0f2faf8d7a0d14c09","651c1b7ff05d9dfa800068d0","null","null","<p style=""font-size: 60px; font-family: BACS"">auYAkrAm</p>","","","","","","","","","",""
"html-keyboard-response","330","402840","0.0-14.0-0.79","61275a3158c67415afb971ff","650c16f0f2faf8d7a0d14c09","651c1b7ff05d9dfa800068d0","null","null","<p style=""font-size: 60px; font-family: BACS"">vclYuZc</p>","","","","","","","","","",""
"html-keyboard-response","331","403963","0.0-15.0","61275a3158c67415afb971ff","650c16f0f2faf8d7a0d14c09","651c1b7ff05d9dfa800068d0","1122"," ","<p>Great, you've seen the fourth block of words. You may now take a short break.</p>
      <p>Press the spacebar when you're ready to continue.</p>","","","","","","","","","",""
"html-keyboard-response","332","404980","0.0-16.0-0.0","61275a3158c67415afb971ff","650c16f0f2faf8d7a0d14c09","651c1b7ff05d9dfa800068d0","null","null","<p style=""font-size: 60px; font-family: BACS"">hCktCKOb</p>","","","","","","","","","",""
"html-keyboard-response","333","405993","0.0-16.0-0.1","61275a3158c67415afb971ff","650c16f0f2faf8d7a0d14c09","651c1b7ff05d9dfa800068d0","null","null","<p style=""font-size: 60px; font-family: BACS"">hCktCKOb</p>","","","","","","","","","",""
"html-keyboard-response","334","406998","0.0-16.0-0.2","61275a3158c67415afb971ff","650c16f0f2faf8d7a0d14c09","651c1b7ff05d9dfa800068d0","null","null","<p style=""font-size: 60px; font-family: BACS"">hCktCKOb</p>","","","","","","","","","",""
"html-keyboard-response","335","408013","0.0-16.0-0.3","61275a3158c67415afb971ff","650c16f0f2faf8d7a0d14c09","651c1b7ff05d9dfa800068d0","null","null","<p style=""font-size: 60px; font-family: BACS"">hCktCKOb</p>","","","","","","","","","",""
"html-keyboard-response","336","409025","0.0-16.0-0.4","61275a3158c67415afb971ff","650c16f0f2faf8d7a0d14c09","651c1b7ff05d9dfa800068d0","null","null","<p style=""font-size: 60px; font-family: BACS"">hCktCKOb</p>","","","","","","","","","",""
"html-keyboard-response","337","410044","0.0-16.0-0.5","61275a3158c67415afb971ff","650c16f0f2faf8d7a0d14c09","651c1b7ff05d9dfa800068d0","null","null","<p style=""font-size: 60px; font-family: BACS"">hCktCKOb</p>","","","","","","","","","",""
"html-keyboard-response","338","411061","0.0-16.0-0.6","61275a3158c67415afb971ff","650c16f0f2faf8d7a0d14c09","651c1b7ff05d9dfa800068d0","null","null","<p style=""font-size: 60px; font-family: BACS"">hCktCKOb</p>","","","","","","","","","",""
"html-keyboard-response","339","412069","0.0-16.0-0.7","61275a3158c67415afb971ff","650c16f0f2faf8d7a0d14c09","651c1b7ff05d9dfa800068d0","null","null","<p style=""font-size: 60px; font-family: BACS"">hCktCKOb</p>","","","","","","","","","",""
"html-keyboard-response","340","413086","0.0-16.0-0.8","61275a3158c67415afb971ff","650c16f0f2faf8d7a0d14c09","651c1b7ff05d9dfa800068d0","null","null","<p style=""font-size: 60px; font-family: BACS"">hCktCKOb</p>","","","","","","","","","",""
"html-keyboard-response","341","414089","0.0-16.0-0.9","61275a3158c67415afb971ff","650c16f0f2faf8d7a0d14c09","651c1b7ff05d9dfa800068d0","null","null","<p style=""font-size: 60px; font-family: BACS"">hCktCKOb</p>","","","","","","","","","",""
"html-keyboard-response","342","415093","0.0-16.0-0.10","61275a3158c67415afb971ff","650c16f0f2faf8d7a0d14c09","651c1b7ff05d9dfa800068d0","null","null","<p style=""font-size: 60px; font-family: BACS"">hCktCKOb</p>","","","","","","","","","",""
"html-keyboard-response","343","416096","0.0-16.0-0.11","61275a3158c67415afb971ff","650c16f0f2faf8d7a0d14c09","651c1b7ff05d9dfa800068d0","null","null","<p style=""font-size: 60px; font-family: BACS"">hCktCKOb</p>","","","","","","","","","",""
"html-keyboard-response","344","417112","0.0-16.0-0.12","61275a3158c67415afb971ff","650c16f0f2faf8d7a0d14c09","651c1b7ff05d9dfa800068d0","null","null","<p style=""font-size: 60px; font-family: BACS"">hCktCKOb</p>","","","","","","","","","",""
"html-keyboard-response","345","418114","0.0-16.0-0.13","61275a3158c67415afb971ff","650c16f0f2faf8d7a0d14c09","651c1b7ff05d9dfa800068d0","null","null","<p style=""font-size: 60px; font-family: BACS"">hCktCKOb</p>","","","","","","","","","",""
"html-keyboard-response","346","419121","0.0-16.0-0.14","61275a3158c67415afb971ff","650c16f0f2faf8d7a0d14c09","651c1b7ff05d9dfa800068d0","null","null","<p style=""font-size: 60px; font-family: BACS"">hCktCKOb</p>","","","","","","","","","",""
"html-keyboard-response","347","420133","0.0-16.0-0.15","61275a3158c67415afb971ff","650c16f0f2faf8d7a0d14c09","651c1b7ff05d9dfa800068d0","null","null","<p style=""font-size: 60px; font-family: BACS"">hCktCKOb</p>","","","","","","","","","",""
"html-keyboard-response","348","421145","0.0-16.0-0.16","61275a3158c67415afb971ff","650c16f0f2faf8d7a0d14c09","651c1b7ff05d9dfa800068d0","null","null","<p style=""font-size: 60px; font-family: BACS"">hCktCKOb</p>","","","","","","","","","",""
"html-keyboard-response","349","422164","0.0-16.0-0.17","61275a3158c67415afb971ff","650c16f0f2faf8d7a0d14c09","651c1b7ff05d9dfa800068d0","null","null","<p style=""font-size: 60px; font-family: BACS"">hCktCKOb</p>","","","","","","","","","",""
"html-keyboard-response","350","423168","0.0-16.0-0.18","61275a3158c67415afb971ff","650c16f0f2faf8d7a0d14c09","651c1b7ff05d9dfa800068d0","null","null","<p style=""font-size: 60px; font-family: BACS"">hCktCKOb</p>","","","","","","","","","",""
"html-keyboard-response","351","424184","0.0-16.0-0.19","61275a3158c67415afb971ff","650c16f0f2faf8d7a0d14c09","651c1b7ff05d9dfa800068d0","null","null","<p style=""font-size: 60px; font-family: BACS"">hCktCKOb</p>","","","","","","","","","",""
"html-keyboard-response","352","425187","0.0-16.0-0.20","61275a3158c67415afb971ff","650c16f0f2faf8d7a0d14c09","651c1b7ff05d9dfa800068d0","null","null","<p style=""font-size: 60px; font-family: BACS"">hCktCKOb</p>","","","","","","","","","",""
"html-keyboard-response","353","426194","0.0-16.0-0.21","61275a3158c67415afb971ff","650c16f0f2faf8d7a0d14c09","651c1b7ff05d9dfa800068d0","null","null","<p style=""font-size: 60px; font-family: BACS"">hCktCKOb</p>","","","","","","","","","",""
"html-keyboard-response","354","427211","0.0-16.0-0.22","61275a3158c67415afb971ff","650c16f0f2faf8d7a0d14c09","651c1b7ff05d9dfa800068d0","null","null","<p style=""font-size: 60px; font-family: BACS"">hCktCKOb</p>","","","","","","","","","",""
"html-keyboard-response","355","428219","0.0-16.0-0.23","61275a3158c67415afb971ff","650c16f0f2faf8d7a0d14c09","651c1b7ff05d9dfa800068d0","null","null","<p style=""font-size: 60px; font-family: BACS"">hCktCKOb</p>","","","","","","","","","",""
"html-keyboard-response","356","429234","0.0-16.0-0.24","61275a3158c67415afb971ff","650c16f0f2faf8d7a0d14c09","651c1b7ff05d9dfa800068d0","null","null","<p style=""font-size: 60px; font-family: BACS"">hCktCKOb</p>","","","","","","","","","",""
"html-keyboard-response","357","430249","0.0-16.0-0.25","61275a3158c67415afb971ff","650c16f0f2faf8d7a0d14c09","651c1b7ff05d9dfa800068d0","null","null","<p style=""font-size: 60px; font-family: BACS"">hCktCKOb</p>","","","","","","","","","",""
"html-keyboard-response","358","431256","0.0-16.0-0.26","61275a3158c67415afb971ff","650c16f0f2faf8d7a0d14c09","651c1b7ff05d9dfa800068d0","null","null","<p style=""font-size: 60px; font-family: BACS"">hCktCKOb</p>","","","","","","","","","",""
"html-keyboard-response","359","432272","0.0-16.0-0.27","61275a3158c67415afb971ff","650c16f0f2faf8d7a0d14c09","651c1b7ff05d9dfa800068d0","null","null","<p style=""font-size: 60px; font-family: BACS"">hCktCKOb</p>","","","","","","","","","",""
"html-keyboard-response","360","433289","0.0-16.0-0.28","61275a3158c67415afb971ff","650c16f0f2faf8d7a0d14c09","651c1b7ff05d9dfa800068d0","null","null","<p style=""font-size: 60px; font-family: BACS"">hCktCKOb</p>","","","","","","","","","",""
"html-keyboard-response","361","434294","0.0-16.0-0.29","61275a3158c67415afb971ff","650c16f0f2faf8d7a0d14c09","651c1b7ff05d9dfa800068d0","null","null","<p style=""font-size: 60px; font-family: BACS"">hCktCKOb</p>","","","","","","","","","",""
"html-keyboard-response","362","435297","0.0-16.0-0.30","61275a3158c67415afb971ff","650c16f0f2faf8d7a0d14c09","651c1b7ff05d9dfa800068d0","null","null","<p style=""font-size: 60px; font-family: BACS"">hCktCKOb</p>","","","","","","","","","",""
"html-keyboard-response","363","436306","0.0-16.0-0.31","61275a3158c67415afb971ff","650c16f0f2faf8d7a0d14c09","651c1b7ff05d9dfa800068d0","null","null","<p style=""font-size: 60px; font-family: BACS"">hCktCKOb</p>","","","","","","","","","",""
"html-keyboard-response","364","437308","0.0-16.0-0.32","61275a3158c67415afb971ff","650c16f0f2faf8d7a0d14c09","651c1b7ff05d9dfa800068d0","null","null","<p style=""font-size: 60px; font-family: BACS"">hCktCKOb</p>","","","","","","","","","",""
"html-keyboard-response","365","438311","0.0-16.0-0.33","61275a3158c67415afb971ff","650c16f0f2faf8d7a0d14c09","651c1b7ff05d9dfa800068d0","null","null","<p style=""font-size: 60px; font-family: BACS"">hCktCKOb</p>","","","","","","","","","",""
"html-keyboard-response","366","439315","0.0-16.0-0.34","61275a3158c67415afb971ff","650c16f0f2faf8d7a0d14c09","651c1b7ff05d9dfa800068d0","null","null","<p style=""font-size: 60px; font-family: BACS"">hCktCKOb</p>","","","","","","","","","",""
"html-keyboard-response","367","440317","0.0-16.0-0.35","61275a3158c67415afb971ff","650c16f0f2faf8d7a0d14c09","651c1b7ff05d9dfa800068d0","null","null","<p style=""font-size: 60px; font-family: BACS"">hCktCKOb</p>","","","","","","","","","",""
"html-keyboard-response","368","441320","0.0-16.0-0.36","61275a3158c67415afb971ff","650c16f0f2faf8d7a0d14c09","651c1b7ff05d9dfa800068d0","null","null","<p style=""font-size: 60px; font-family: BACS"">hCktCKOb</p>","","","","","","","","","",""
"html-keyboard-response","369","442324","0.0-16.0-0.37","61275a3158c67415afb971ff","650c16f0f2faf8d7a0d14c09","651c1b7ff05d9dfa800068d0","null","null","<p style=""font-size: 60px; font-family: BACS"">hCktCKOb</p>","","","","","","","","","",""
"html-keyboard-response","370","443330","0.0-16.0-0.38","61275a3158c67415afb971ff","650c16f0f2faf8d7a0d14c09","651c1b7ff05d9dfa800068d0","null","null","<p style=""font-size: 60px; font-family: BACS"">hCktCKOb</p>","","","","","","","","","",""
"html-keyboard-response","371","444346","0.0-16.0-0.39","61275a3158c67415afb971ff","650c16f0f2faf8d7a0d14c09","651c1b7ff05d9dfa800068d0","null","null","<p style=""font-size: 60px; font-family: BACS"">hCktCKOb</p>","","","","","","","","","",""
"html-keyboard-response","372","445360","0.0-16.0-0.40","61275a3158c67415afb971ff","650c16f0f2faf8d7a0d14c09","651c1b7ff05d9dfa800068d0","null","null","<p style=""font-size: 60px; font-family: BACS"">hCktCKOb</p>","","","","","","","","","",""
"html-keyboard-response","373","446377","0.0-16.0-0.41","61275a3158c67415afb971ff","650c16f0f2faf8d7a0d14c09","651c1b7ff05d9dfa800068d0","null","null","<p style=""font-size: 60px; font-family: BACS"">hCktCKOb</p>","","","","","","","","","",""
"html-keyboard-response","374","447389","0.0-16.0-0.42","61275a3158c67415afb971ff","650c16f0f2faf8d7a0d14c09","651c1b7ff05d9dfa800068d0","null","null","<p style=""font-size: 60px; font-family: BACS"">hCktCKOb</p>","","","","","","","","","",""
"html-keyboard-response","375","448403","0.0-16.0-0.43","61275a3158c67415afb971ff","650c16f0f2faf8d7a0d14c09","651c1b7ff05d9dfa800068d0","null","null","<p style=""font-size: 60px; font-family: BACS"">hCktCKOb</p>","","","","","","","","","",""
"html-keyboard-response","376","449420","0.0-16.0-0.44","61275a3158c67415afb971ff","650c16f0f2faf8d7a0d14c09","651c1b7ff05d9dfa800068d0","null","null","<p style=""font-size: 60px; font-family: BACS"">hCktCKOb</p>","","","","","","","","","",""
"html-keyboard-response","377","450435","0.0-16.0-0.45","61275a3158c67415afb971ff","650c16f0f2faf8d7a0d14c09","651c1b7ff05d9dfa800068d0","null","null","<p style=""font-size: 60px; font-family: BACS"">hCktCKOb</p>","","","","","","","","","",""
"html-keyboard-response","378","451451","0.0-16.0-0.46","61275a3158c67415afb971ff","650c16f0f2faf8d7a0d14c09","651c1b7ff05d9dfa800068d0","null","null","<p style=""font-size: 60px; font-family: BACS"">hCktCKOb</p>","","","","","","","","","",""
"html-keyboard-response","379","452466","0.0-16.0-0.47","61275a3158c67415afb971ff","650c16f0f2faf8d7a0d14c09","651c1b7ff05d9dfa800068d0","null","null","<p style=""font-size: 60px; font-family: BACS"">hCktCKOb</p>","","","","","","","","","",""
"html-keyboard-response","380","453470","0.0-16.0-0.48","61275a3158c67415afb971ff","650c16f0f2faf8d7a0d14c09","651c1b7ff05d9dfa800068d0","null","null","<p style=""font-size: 60px; font-family: BACS"">hCktCKOb</p>","","","","","","","","","",""
"html-keyboard-response","381","454477","0.0-16.0-0.49","61275a3158c67415afb971ff","650c16f0f2faf8d7a0d14c09","651c1b7ff05d9dfa800068d0","null","null","<p style=""font-size: 60px; font-family: BACS"">hCktCKOb</p>","","","","","","","","","",""
"html-keyboard-response","382","455493","0.0-16.0-0.50","61275a3158c67415afb971ff","650c16f0f2faf8d7a0d14c09","651c1b7ff05d9dfa800068d0","null","null","<p style=""font-size: 60px; font-family: BACS"">hCktCKOb</p>","","","","","","","","","",""
"html-keyboard-response","383","456509","0.0-16.0-0.51","61275a3158c67415afb971ff","650c16f0f2faf8d7a0d14c09","651c1b7ff05d9dfa800068d0","null","null","<p style=""font-size: 60px; font-family: BACS"">hCktCKOb</p>","","","","","","","","","",""
"html-keyboard-response","384","457520","0.0-16.0-0.52","61275a3158c67415afb971ff","650c16f0f2faf8d7a0d14c09","651c1b7ff05d9dfa800068d0","null","null","<p style=""font-size: 60px; font-family: BACS"">hCktCKOb</p>","","","","","","","","","",""
"html-keyboard-response","385","458568","0.0-16.0-0.53","61275a3158c67415afb971ff","650c16f0f2faf8d7a0d14c09","651c1b7ff05d9dfa800068d0","null","null","<p style=""font-size: 60px; font-family: BACS"">hCktCKOb</p>","","","","","","","","","",""
"html-keyboard-response","386","459578","0.0-16.0-0.54","61275a3158c67415afb971ff","650c16f0f2faf8d7a0d14c09","651c1b7ff05d9dfa800068d0","null","null","<p style=""font-size: 60px; font-family: BACS"">hCktCKOb</p>","","","","","","","","","",""
"html-keyboard-response","387","460592","0.0-16.0-0.55","61275a3158c67415afb971ff","650c16f0f2faf8d7a0d14c09","651c1b7ff05d9dfa800068d0","null","null","<p style=""font-size: 60px; font-family: BACS"">hCktCKOb</p>","","","","","","","","","",""
"html-keyboard-response","388","461598","0.0-16.0-0.56","61275a3158c67415afb971ff","650c16f0f2faf8d7a0d14c09","651c1b7ff05d9dfa800068d0","null","null","<p style=""font-size: 60px; font-family: BACS"">hCktCKOb</p>","","","","","","","","","",""
"html-keyboard-response","389","462602","0.0-16.0-0.57","61275a3158c67415afb971ff","650c16f0f2faf8d7a0d14c09","651c1b7ff05d9dfa800068d0","null","null","<p style=""font-size: 60px; font-family: BACS"">hCktCKOb</p>","","","","","","","","","",""
"html-keyboard-response","390","463622","0.0-16.0-0.58","61275a3158c67415afb971ff","650c16f0f2faf8d7a0d14c09","651c1b7ff05d9dfa800068d0","null","null","<p style=""font-size: 60px; font-family: BACS"">hCktCKOb</p>","","","","","","","","","",""
"html-keyboard-response","391","464627","0.0-16.0-0.59","61275a3158c67415afb971ff","650c16f0f2faf8d7a0d14c09","651c1b7ff05d9dfa800068d0","null","null","<p style=""font-size: 60px; font-family: BACS"">hCktCKOb</p>","","","","","","","","","",""
"html-keyboard-response","392","465642","0.0-16.0-0.60","61275a3158c67415afb971ff","650c16f0f2faf8d7a0d14c09","651c1b7ff05d9dfa800068d0","null","null","<p style=""font-size: 60px; font-family: BACS"">hCktCKOb</p>","","","","","","","","","",""
"html-keyboard-response","393","466660","0.0-16.0-0.61","61275a3158c67415afb971ff","650c16f0f2faf8d7a0d14c09","651c1b7ff05d9dfa800068d0","null","null","<p style=""font-size: 60px; font-family: BACS"">hCktCKOb</p>","","","","","","","","","",""
