"trial_type","trial_index","time_elapsed","internal_node_id","subject_id","study_id","session_id","rt","response","stimulus","success","item","task","correct_response","testing_condition","correct","target","confound","name","view_history"
"pavlovia","0","628","0.0-0.0","61548fa2b637194e04c9bc09","650c16f0f2faf8d7a0d14c09","651c1bb2897652dd74ce968d","","","","","","","","","","","","",""
"survey-html-form","1","3457","0.0-1.0","61548fa2b637194e04c9bc09","650c16f0f2faf8d7a0d14c09","651c1bb2897652dd74ce968d","2828","{""ID"":""61548fa2b637194e04c9bc09""}","","","","","","","","","","",""
"html-keyboard-response","2","6139","0.0-2.0","61548fa2b637194e04c9bc09","650c16f0f2faf8d7a0d14c09","651c1bb2897652dd74ce968d","2682"," ","<p style=""font-size: 15px;"">Before beginning, we ask that you read the consent information and confirm your agreement to participate in the experiment.</p>
      <p style=""font-size: 15px;""> We ask that you remember that this is a research project and that your participation is entirely voluntary. You can stop your participation at any time, without needing to provide any explanation. The study we're asking you to participate in aims at examining how readers process written words. You will be engaged in a session of apprximately 20 minutes, followed by a brief questionnaire. You will have the opportunity to take a few breaks during the experiment. You will be paid £4 for your participation, corresponding to a rate of £8/hour. While this experiment looks at cognitive faculties, this experiment doesn't constitute clinical proof of eventual pathologies.</p>
      <p style=""font-size: 15px;"">All of the information collected thanks to yours and others' participation will be held in a secure password-protected server, and will not be shared with anyone not authorised to view it. Your personal information will be kept with an arbitrary participant ID. Thanks to this data anonymity process, any researcher analysing the data won't be able to track the information back to a specific participant. Therefore, this process will make identifying you impossibile, even when results from the study will be published in scientific reviews, presented at congresses, or at any other public forum. More generally, the collected data will be treated in accordance with the laws on privacy and conformity to the Legislative Degree n. 196 ""Code regarding the protection of personal data"" of the 30th of June 2003 and to the European Regulation 2016/670 (General Data Protection Regulation - GDPR). The Data Protection Officer is Avv. Valentina Carollo, who can be contacted at the following email addresses: <a href=""mailto:dpo@sissa.it"">dpo@sissa.it</a> or <a href=""mailto:rpd@sissa.it"">rpd@sissa.it</a> - PEC: <a href=""mailto:protocollo@pec.sissa.it"">protocollo@pec.sissa.it</a>.</p>
      <p style=""font-size: 15px;""> Before expressing your consent to participate, we would like to remind you again that in case you need explanations on any aspect of the experimental procedure, the researcher is at your disposition (<a href=""mailto:aliebelt@sissa.it"">aliebelt@sissa.it</a>, <a href=""mailto:davide.crepaldi@sissa.it"">davide.crepaldi@sissa.it</a>).</p>
      <p style=""font-size: 15px;"">If you would like to download the informed consent form, you can do so here: <a href=""BASL-Informed_Consent.pdf"" download>informed consent form</a>.</p>
      <p style=""font-size: 15px;"">We ask that you press the spacebar to proceed to the consent section.</p>","","","","","","","","","",""
"survey-html-form","3","27125","0.0-3.0","61548fa2b637194e04c9bc09","650c16f0f2faf8d7a0d14c09","651c1bb2897652dd74ce968d","20985","{""consent1"":""YES"",""consent2"":""YES"",""consent3"":""YES"",""consent4"":""YES"",""consent5"":""YES"",""consent6"":""YES""}","","","","","","","","","","",""
"fullscreen","4","30704","0.0-4.0","61548fa2b637194e04c9bc09","650c16f0f2faf8d7a0d14c09","651c1bb2897652dd74ce968d","","","","true","","","","","","","","",""
"html-keyboard-response","5","48893","0.0-5.0","61548fa2b637194e04c9bc09","650c16f0f2faf8d7a0d14c09","651c1bb2897652dd74ce968d","18188"," ","<p>Welcome, and thank you very much for your time!</p>
      <p>In this experiment, you'll be a language expert who's been asked to take a look at words that Earth has received in its first communication with aliens. Your task, in this first part of the experiment, is to pay close attention to the words you'll be shown; later, world leaders will ask you questions on what you saw. The words will be shown to you quite quickly; it seems that the aliens were in a hurry :-)</p>
      <p>Press the spacebar to continue.<p>","","","","","","","","","",""
"html-keyboard-response","6","48946","0.0-6.0","61548fa2b637194e04c9bc09","650c16f0f2faf8d7a0d14c09","651c1bb2897652dd74ce968d","null","null","<p style=""font-size: 120px; font-family: BACS""> </p>","","","","","","","","","",""
"html-keyboard-response","7","56428","0.0-7.0","61548fa2b637194e04c9bc09","650c16f0f2faf8d7a0d14c09","651c1bb2897652dd74ce968d","7481"," ","<p>Here is an example of the words you'll see:</p>
      <img src='esempio.png' height='400px'>
      <p>When you're ready to begin, press the spacebar.</p></div>","","","","","","","","","",""
"html-keyboard-response","8","57435","0.0-8.0-0.0","61548fa2b637194e04c9bc09","650c16f0f2faf8d7a0d14c09","651c1bb2897652dd74ce968d","null","null","<p style=""font-size: 60px; font-family: BACS"">MkmEdCkbd</p>","","","","","","","","","",""
"html-keyboard-response","9","58452","0.0-8.0-0.1","61548fa2b637194e04c9bc09","650c16f0f2faf8d7a0d14c09","651c1bb2897652dd74ce968d","null","null","<p style=""font-size: 60px; font-family: BACS"">vAarYmb</p>","","","","","","","","","",""
"html-keyboard-response","10","59468","0.0-8.0-0.2","61548fa2b637194e04c9bc09","650c16f0f2faf8d7a0d14c09","651c1bb2897652dd74ce968d","null","null","<p style=""font-size: 60px; font-family: BACS"">MkmEdYbBT</p>","","","","","","","","","",""
"html-keyboard-response","11","60484","0.0-8.0-0.3","61548fa2b637194e04c9bc09","650c16f0f2faf8d7a0d14c09","651c1bb2897652dd74ce968d","null","null","<p style=""font-size: 60px; font-family: BACS"">dYdACkbd</p>","","","","","","","","","",""
"html-keyboard-response","12","61486","0.0-8.0-0.4","61548fa2b637194e04c9bc09","650c16f0f2faf8d7a0d14c09","651c1bb2897652dd74ce968d","null","null","<p style=""font-size: 60px; font-family: BACS"">bvuZYmb</p>","","","","","","","","","",""
"html-keyboard-response","13","62500","0.0-8.0-0.5","61548fa2b637194e04c9bc09","650c16f0f2faf8d7a0d14c09","651c1bb2897652dd74ce968d","null","null","<p style=""font-size: 60px; font-family: BACS"">chEDOYbBT</p>","","","","","","","","","",""
"html-keyboard-response","14","63502","0.0-8.0-0.6","61548fa2b637194e04c9bc09","650c16f0f2faf8d7a0d14c09","651c1bb2897652dd74ce968d","null","null","<p style=""font-size: 60px; font-family: BACS"">MkmEdYBO</p>","","","","","","","","","",""
"html-keyboard-response","15","64516","0.0-8.0-0.7","61548fa2b637194e04c9bc09","650c16f0f2faf8d7a0d14c09","651c1bb2897652dd74ce968d","null","null","<p style=""font-size: 60px; font-family: BACS"">UvOGYmb</p>","","","","","","","","","",""
"html-keyboard-response","16","65532","0.0-8.0-0.8","61548fa2b637194e04c9bc09","650c16f0f2faf8d7a0d14c09","651c1bb2897652dd74ce968d","null","null","<p style=""font-size: 60px; font-family: BACS"">YlCPBbRC</p>","","","","","","","","","",""
"html-keyboard-response","17","66548","0.0-8.0-0.9","61548fa2b637194e04c9bc09","650c16f0f2faf8d7a0d14c09","651c1bb2897652dd74ce968d","null","null","<p style=""font-size: 60px; font-family: BACS"">TdmAYBO</p>","","","","","","","","","",""
"html-keyboard-response","18","67565","0.0-8.0-0.10","61548fa2b637194e04c9bc09","650c16f0f2faf8d7a0d14c09","651c1bb2897652dd74ce968d","null","null","<p style=""font-size: 60px; font-family: BACS"">YdudYNu</p>","","","","","","","","","",""
"html-keyboard-response","19","68581","0.0-8.0-0.11","61548fa2b637194e04c9bc09","650c16f0f2faf8d7a0d14c09","651c1bb2897652dd74ce968d","null","null","<p style=""font-size: 60px; font-family: BACS"">MlthYbBT</p>","","","","","","","","","",""
"html-keyboard-response","20","69582","0.0-8.0-0.12","61548fa2b637194e04c9bc09","650c16f0f2faf8d7a0d14c09","651c1bb2897652dd74ce968d","null","null","<p style=""font-size: 60px; font-family: BACS"">uQuZcYmb</p>","","","","","","","","","",""
"html-keyboard-response","21","70597","0.0-8.0-0.13","61548fa2b637194e04c9bc09","650c16f0f2faf8d7a0d14c09","651c1bb2897652dd74ce968d","null","null","<p style=""font-size: 60px; font-family: BACS"">vAarLkNc</p>","","","","","","","","","",""
"html-keyboard-response","22","71613","0.0-8.0-0.14","61548fa2b637194e04c9bc09","650c16f0f2faf8d7a0d14c09","651c1bb2897652dd74ce968d","null","null","<p style=""font-size: 60px; font-family: BACS"">uQuZcvJQ</p>","","","","","","","","","",""
"html-keyboard-response","23","72630","0.0-8.0-0.15","61548fa2b637194e04c9bc09","650c16f0f2faf8d7a0d14c09","651c1bb2897652dd74ce968d","null","null","<p style=""font-size: 60px; font-family: BACS"">TdmAcMRl</p>","","","","","","","","","",""
"html-keyboard-response","24","73646","0.0-8.0-0.16","61548fa2b637194e04c9bc09","650c16f0f2faf8d7a0d14c09","651c1bb2897652dd74ce968d","null","null","<p style=""font-size: 60px; font-family: BACS"">YlCPBYbBT</p>","","","","","","","","","",""
"html-keyboard-response","25","74662","0.0-8.0-0.17","61548fa2b637194e04c9bc09","650c16f0f2faf8d7a0d14c09","651c1bb2897652dd74ce968d","null","null","<p style=""font-size: 60px; font-family: BACS"">DkTCPYBO</p>","","","","","","","","","",""
"html-keyboard-response","26","75679","0.0-8.0-0.18","61548fa2b637194e04c9bc09","650c16f0f2faf8d7a0d14c09","651c1bb2897652dd74ce968d","null","null","<p style=""font-size: 60px; font-family: BACS"">uQuZcYNu</p>","","","","","","","","","",""
"html-keyboard-response","27","76695","0.0-8.0-0.19","61548fa2b637194e04c9bc09","650c16f0f2faf8d7a0d14c09","651c1bb2897652dd74ce968d","null","null","<p style=""font-size: 60px; font-family: BACS"">UvOGvJQ</p>","","","","","","","","","",""
"html-keyboard-response","28","77711","0.0-8.0-0.20","61548fa2b637194e04c9bc09","650c16f0f2faf8d7a0d14c09","651c1bb2897652dd74ce968d","null","null","<p style=""font-size: 60px; font-family: BACS"">krGuLkNc</p>","","","","","","","","","",""
"html-keyboard-response","29","78728","0.0-8.0-0.21","61548fa2b637194e04c9bc09","650c16f0f2faf8d7a0d14c09","651c1bb2897652dd74ce968d","null","null","<p style=""font-size: 60px; font-family: BACS"">bcbMbRC</p>","","","","","","","","","",""
"html-keyboard-response","30","79744","0.0-8.0-0.22","61548fa2b637194e04c9bc09","650c16f0f2faf8d7a0d14c09","651c1bb2897652dd74ce968d","null","null","<p style=""font-size: 60px; font-family: BACS"">kGamNYNu</p>","","","","","","","","","",""
"html-keyboard-response","31","80760","0.0-8.0-0.23","61548fa2b637194e04c9bc09","650c16f0f2faf8d7a0d14c09","651c1bb2897652dd74ce968d","null","null","<p style=""font-size: 60px; font-family: BACS"">krGuvJQ</p>","","","","","","","","","",""
"html-keyboard-response","32","81777","0.0-8.0-0.24","61548fa2b637194e04c9bc09","650c16f0f2faf8d7a0d14c09","651c1bb2897652dd74ce968d","null","null","<p style=""font-size: 60px; font-family: BACS"">YlCPBYBO</p>","","","","","","","","","",""
"html-keyboard-response","33","82778","0.0-8.0-0.25","61548fa2b637194e04c9bc09","650c16f0f2faf8d7a0d14c09","651c1bb2897652dd74ce968d","null","null","<p style=""font-size: 60px; font-family: BACS"">bvuZYNu</p>","","","","","","","","","",""
"html-keyboard-response","34","83792","0.0-8.0-0.26","61548fa2b637194e04c9bc09","650c16f0f2faf8d7a0d14c09","651c1bb2897652dd74ce968d","null","null","<p style=""font-size: 60px; font-family: BACS"">PMPtkCkbd</p>","","","","","","","","","",""
"html-keyboard-response","35","84809","0.0-8.0-0.27","61548fa2b637194e04c9bc09","650c16f0f2faf8d7a0d14c09","651c1bb2897652dd74ce968d","null","null","<p style=""font-size: 60px; font-family: BACS"">dYdAbRC</p>","","","","","","","","","",""
"html-keyboard-response","36","85825","0.0-8.0-0.28","61548fa2b637194e04c9bc09","650c16f0f2faf8d7a0d14c09","651c1bb2897652dd74ce968d","null","null","<p style=""font-size: 60px; font-family: BACS"">GLYrAYNu</p>","","","","","","","","","",""
"html-keyboard-response","37","86841","0.0-8.0-0.29","61548fa2b637194e04c9bc09","650c16f0f2faf8d7a0d14c09","651c1bb2897652dd74ce968d","null","null","<p style=""font-size: 60px; font-family: BACS"">YlCPBcMRl</p>","","","","","","","","","",""
"html-keyboard-response","38","87858","0.0-8.0-0.30","61548fa2b637194e04c9bc09","650c16f0f2faf8d7a0d14c09","651c1bb2897652dd74ce968d","null","null","<p style=""font-size: 60px; font-family: BACS"">dYdAYBO</p>","","","","","","","","","",""
"html-keyboard-response","39","88874","0.0-8.0-0.31","61548fa2b637194e04c9bc09","650c16f0f2faf8d7a0d14c09","651c1bb2897652dd74ce968d","null","null","<p style=""font-size: 60px; font-family: BACS"">GLYrAmvG</p>","","","","","","","","","",""
"html-keyboard-response","40","89890","0.0-8.0-0.32","61548fa2b637194e04c9bc09","650c16f0f2faf8d7a0d14c09","651c1bb2897652dd74ce968d","null","null","<p style=""font-size: 60px; font-family: BACS"">kGamNLkNc</p>","","","","","","","","","",""
"html-keyboard-response","41","90907","0.0-8.0-0.33","61548fa2b637194e04c9bc09","650c16f0f2faf8d7a0d14c09","651c1bb2897652dd74ce968d","null","null","<p style=""font-size: 60px; font-family: BACS"">PMPtkbRC</p>","","","","","","","","","",""
"html-keyboard-response","42","91923","0.0-8.0-0.34","61548fa2b637194e04c9bc09","650c16f0f2faf8d7a0d14c09","651c1bb2897652dd74ce968d","null","null","<p style=""font-size: 60px; font-family: BACS"">aLNlkYmb</p>","","","","","","","","","",""
"html-keyboard-response","43","92939","0.0-8.0-0.35","61548fa2b637194e04c9bc09","650c16f0f2faf8d7a0d14c09","651c1bb2897652dd74ce968d","null","null","<p style=""font-size: 60px; font-family: BACS"">adYrcYNu</p>","","","","","","","","","",""
"html-keyboard-response","44","93956","0.0-8.0-0.36","61548fa2b637194e04c9bc09","650c16f0f2faf8d7a0d14c09","651c1bb2897652dd74ce968d","null","null","<p style=""font-size: 60px; font-family: BACS"">UvOGLkNc</p>","","","","","","","","","",""
"html-keyboard-response","45","94972","0.0-8.0-0.37","61548fa2b637194e04c9bc09","650c16f0f2faf8d7a0d14c09","651c1bb2897652dd74ce968d","null","null","<p style=""font-size: 60px; font-family: BACS"">bvuZmvG</p>","","","","","","","","","",""
"html-keyboard-response","46","95974","0.0-8.0-0.38","61548fa2b637194e04c9bc09","650c16f0f2faf8d7a0d14c09","651c1bb2897652dd74ce968d","null","null","<p style=""font-size: 60px; font-family: BACS"">bcbMCkbd</p>","","","","","","","","","",""
"html-keyboard-response","47","96988","0.0-8.0-0.39","61548fa2b637194e04c9bc09","650c16f0f2faf8d7a0d14c09","651c1bb2897652dd74ce968d","null","null","<p style=""font-size: 60px; font-family: BACS"">GLYrAYmb</p>","","","","","","","","","",""
"html-keyboard-response","48","98004","0.0-8.0-0.40","61548fa2b637194e04c9bc09","650c16f0f2faf8d7a0d14c09","651c1bb2897652dd74ce968d","null","null","<p style=""font-size: 60px; font-family: BACS"">DkTCPCkbd</p>","","","","","","","","","",""
"html-keyboard-response","49","99021","0.0-8.0-0.41","61548fa2b637194e04c9bc09","650c16f0f2faf8d7a0d14c09","651c1bb2897652dd74ce968d","null","null","<p style=""font-size: 60px; font-family: BACS"">bcbMYbBT</p>","","","","","","","","","",""
"html-keyboard-response","50","100037","0.0-8.0-0.42","61548fa2b637194e04c9bc09","650c16f0f2faf8d7a0d14c09","651c1bb2897652dd74ce968d","null","null","<p style=""font-size: 60px; font-family: BACS"">DkTCPcMRl</p>","","","","","","","","","",""
"html-keyboard-response","51","101053","0.0-8.0-0.43","61548fa2b637194e04c9bc09","650c16f0f2faf8d7a0d14c09","651c1bb2897652dd74ce968d","null","null","<p style=""font-size: 60px; font-family: BACS"">vAarYNu</p>","","","","","","","","","",""
"html-keyboard-response","52","102070","0.0-8.0-0.44","61548fa2b637194e04c9bc09","650c16f0f2faf8d7a0d14c09","651c1bb2897652dd74ce968d","null","null","<p style=""font-size: 60px; font-family: BACS"">adYrcLkNc</p>","","","","","","","","","",""
"html-keyboard-response","53","103086","0.0-8.0-0.45","61548fa2b637194e04c9bc09","650c16f0f2faf8d7a0d14c09","651c1bb2897652dd74ce968d","null","null","<p style=""font-size: 60px; font-family: BACS"">TdmAYbBT</p>","","","","","","","","","",""
"html-keyboard-response","54","104102","0.0-8.0-0.46","61548fa2b637194e04c9bc09","650c16f0f2faf8d7a0d14c09","651c1bb2897652dd74ce968d","null","null","<p style=""font-size: 60px; font-family: BACS"">PDPhlCkbd</p>","","","","","","","","","",""
"html-keyboard-response","55","105119","0.0-8.0-0.47","61548fa2b637194e04c9bc09","650c16f0f2faf8d7a0d14c09","651c1bb2897652dd74ce968d","null","null","<p style=""font-size: 60px; font-family: BACS"">chEDOYBO</p>","","","","","","","","","",""
"html-keyboard-response","56","106135","0.0-8.0-0.48","61548fa2b637194e04c9bc09","650c16f0f2faf8d7a0d14c09","651c1bb2897652dd74ce968d","null","null","<p style=""font-size: 60px; font-family: BACS"">adYrcvJQ</p>","","","","","","","","","",""
"html-keyboard-response","57","107136","0.0-8.0-0.49","61548fa2b637194e04c9bc09","650c16f0f2faf8d7a0d14c09","651c1bb2897652dd74ce968d","null","null","<p style=""font-size: 60px; font-family: BACS"">chEDOcMRl</p>","","","","","","","","","",""
"html-keyboard-response","58","108151","0.0-8.0-0.50","61548fa2b637194e04c9bc09","650c16f0f2faf8d7a0d14c09","651c1bb2897652dd74ce968d","null","null","<p style=""font-size: 60px; font-family: BACS"">aLNlkvJQ</p>","","","","","","","","","",""
"html-keyboard-response","59","109152","0.0-8.0-0.51","61548fa2b637194e04c9bc09","650c16f0f2faf8d7a0d14c09","651c1bb2897652dd74ce968d","null","null","<p style=""font-size: 60px; font-family: BACS"">PDPhlYbBT</p>","","","","","","","","","",""
"html-keyboard-response","60","110167","0.0-8.0-0.52","61548fa2b637194e04c9bc09","650c16f0f2faf8d7a0d14c09","651c1bb2897652dd74ce968d","null","null","<p style=""font-size: 60px; font-family: BACS"">aLNlkmvG</p>","","","","","","","","","",""
"html-keyboard-response","61","111183","0.0-8.0-0.53","61548fa2b637194e04c9bc09","650c16f0f2faf8d7a0d14c09","651c1bb2897652dd74ce968d","null","null","<p style=""font-size: 60px; font-family: BACS"">PMPtkYBO</p>","","","","","","","","","",""
"html-keyboard-response","62","112199","0.0-8.0-0.54","61548fa2b637194e04c9bc09","650c16f0f2faf8d7a0d14c09","651c1bb2897652dd74ce968d","null","null","<p style=""font-size: 60px; font-family: BACS"">bcbMcMRl</p>","","","","","","","","","",""
"html-keyboard-response","63","113216","0.0-8.0-0.55","61548fa2b637194e04c9bc09","650c16f0f2faf8d7a0d14c09","651c1bb2897652dd74ce968d","null","null","<p style=""font-size: 60px; font-family: BACS"">krGuYmb</p>","","","","","","","","","",""
"html-keyboard-response","64","114232","0.0-8.0-0.56","61548fa2b637194e04c9bc09","650c16f0f2faf8d7a0d14c09","651c1bb2897652dd74ce968d","null","null","<p style=""font-size: 60px; font-family: BACS"">TdmAbRC</p>","","","","","","","","","",""
"html-keyboard-response","65","115248","0.0-8.0-0.57","61548fa2b637194e04c9bc09","650c16f0f2faf8d7a0d14c09","651c1bb2897652dd74ce968d","null","null","<p style=""font-size: 60px; font-family: BACS"">vAarmvG</p>","","","","","","","","","",""
"html-keyboard-response","66","116265","0.0-8.0-0.58","61548fa2b637194e04c9bc09","650c16f0f2faf8d7a0d14c09","651c1bb2897652dd74ce968d","null","null","<p style=""font-size: 60px; font-family: BACS"">GLYrAvJQ</p>","","","","","","","","","",""
"html-keyboard-response","67","117281","0.0-8.0-0.59","61548fa2b637194e04c9bc09","650c16f0f2faf8d7a0d14c09","651c1bb2897652dd74ce968d","null","null","<p style=""font-size: 60px; font-family: BACS"">MlthbRC</p>","","","","","","","","","",""
"html-keyboard-response","68","118297","0.0-8.0-0.60","61548fa2b637194e04c9bc09","650c16f0f2faf8d7a0d14c09","651c1bb2897652dd74ce968d","null","null","<p style=""font-size: 60px; font-family: BACS"">PMPtkcMRl</p>","","","","","","","","","",""
"html-keyboard-response","69","119314","0.0-8.0-0.61","61548fa2b637194e04c9bc09","650c16f0f2faf8d7a0d14c09","651c1bb2897652dd74ce968d","null","null","<p style=""font-size: 60px; font-family: BACS"">UvOGmvG</p>","","","","","","","","","",""
"html-keyboard-response","70","120330","0.0-8.0-0.62","61548fa2b637194e04c9bc09","650c16f0f2faf8d7a0d14c09","651c1bb2897652dd74ce968d","null","null","<p style=""font-size: 60px; font-family: BACS"">PDPhlYBO</p>","","","","","","","","","",""
"html-keyboard-response","71","121346","0.0-8.0-0.63","61548fa2b637194e04c9bc09","650c16f0f2faf8d7a0d14c09","651c1bb2897652dd74ce968d","null","null","<p style=""font-size: 60px; font-family: BACS"">bvuZLkNc</p>","","","","","","","","","",""
"html-keyboard-response","72","122348","0.0-8.0-0.64","61548fa2b637194e04c9bc09","650c16f0f2faf8d7a0d14c09","651c1bb2897652dd74ce968d","null","null","<p style=""font-size: 60px; font-family: BACS"">adYrcmvG</p>","","","","","","","","","",""
"html-keyboard-response","73","123362","0.0-8.0-0.65","61548fa2b637194e04c9bc09","650c16f0f2faf8d7a0d14c09","651c1bb2897652dd74ce968d","null","null","<p style=""font-size: 60px; font-family: BACS"">YdudvJQ</p>","","","","","","","","","",""
"html-keyboard-response","74","124363","0.0-8.0-0.66","61548fa2b637194e04c9bc09","650c16f0f2faf8d7a0d14c09","651c1bb2897652dd74ce968d","null","null","<p style=""font-size: 60px; font-family: BACS"">MkmEdbRC</p>","","","","","","","","","",""
"html-keyboard-response","75","125378","0.0-8.0-0.67","61548fa2b637194e04c9bc09","650c16f0f2faf8d7a0d14c09","651c1bb2897652dd74ce968d","null","null","<p style=""font-size: 60px; font-family: BACS"">chEDOCkbd</p>","","","","","","","","","",""
"html-keyboard-response","76","126379","0.0-8.0-0.68","61548fa2b637194e04c9bc09","650c16f0f2faf8d7a0d14c09","651c1bb2897652dd74ce968d","null","null","<p style=""font-size: 60px; font-family: BACS"">uQuZcLkNc</p>","","","","","","","","","",""
"html-keyboard-response","77","127394","0.0-8.0-0.69","61548fa2b637194e04c9bc09","650c16f0f2faf8d7a0d14c09","651c1bb2897652dd74ce968d","null","null","<p style=""font-size: 60px; font-family: BACS"">aLNlkYNu</p>","","","","","","","","","",""
"html-keyboard-response","78","128396","0.0-8.0-0.70","61548fa2b637194e04c9bc09","650c16f0f2faf8d7a0d14c09","651c1bb2897652dd74ce968d","null","null","<p style=""font-size: 60px; font-family: BACS"">krGumvG</p>","","","","","","","","","",""
"html-keyboard-response","79","129410","0.0-8.0-0.71","61548fa2b637194e04c9bc09","650c16f0f2faf8d7a0d14c09","651c1bb2897652dd74ce968d","null","null","<p style=""font-size: 60px; font-family: BACS"">MlthCkbd</p>","","","","","","","","","",""
"html-keyboard-response","80","130427","0.0-8.0-0.72","61548fa2b637194e04c9bc09","650c16f0f2faf8d7a0d14c09","651c1bb2897652dd74ce968d","null","null","<p style=""font-size: 60px; font-family: BACS"">PDPhlcMRl</p>","","","","","","","","","",""
"html-keyboard-response","81","131443","0.0-8.0-0.73","61548fa2b637194e04c9bc09","650c16f0f2faf8d7a0d14c09","651c1bb2897652dd74ce968d","null","null","<p style=""font-size: 60px; font-family: BACS"">YdudLkNc</p>","","","","","","","","","",""
"html-keyboard-response","82","132459","0.0-8.0-0.74","61548fa2b637194e04c9bc09","650c16f0f2faf8d7a0d14c09","651c1bb2897652dd74ce968d","null","null","<p style=""font-size: 60px; font-family: BACS"">kGamNvJQ</p>","","","","","","","","","",""
"html-keyboard-response","83","133476","0.0-8.0-0.75","61548fa2b637194e04c9bc09","650c16f0f2faf8d7a0d14c09","651c1bb2897652dd74ce968d","null","null","<p style=""font-size: 60px; font-family: BACS"">YdudmvG</p>","","","","","","","","","",""
"html-keyboard-response","84","134492","0.0-8.0-0.76","61548fa2b637194e04c9bc09","650c16f0f2faf8d7a0d14c09","651c1bb2897652dd74ce968d","null","null","<p style=""font-size: 60px; font-family: BACS"">dYdAYbBT</p>","","","","","","","","","",""
"html-keyboard-response","85","135508","0.0-8.0-0.77","61548fa2b637194e04c9bc09","650c16f0f2faf8d7a0d14c09","651c1bb2897652dd74ce968d","null","null","<p style=""font-size: 60px; font-family: BACS"">kGamNYmb</p>","","","","","","","","","",""
"html-keyboard-response","86","136525","0.0-8.0-0.78","61548fa2b637194e04c9bc09","650c16f0f2faf8d7a0d14c09","651c1bb2897652dd74ce968d","null","null","<p style=""font-size: 60px; font-family: BACS"">DkTCPbRC</p>","","","","","","","","","",""
"html-keyboard-response","87","137541","0.0-8.0-0.79","61548fa2b637194e04c9bc09","650c16f0f2faf8d7a0d14c09","651c1bb2897652dd74ce968d","null","null","<p style=""font-size: 60px; font-family: BACS"">MlthcMRl</p>","","","","","","","","","",""
"html-keyboard-response","88","141353","0.0-9.0","61548fa2b637194e04c9bc09","650c16f0f2faf8d7a0d14c09","651c1bb2897652dd74ce968d","3812"," ","<p>Great, you've seen the first block of words. You may now take a short break.</p>
      <p>Press the spacebar when you're ready to continue.</p>","","","","","","","","","",""
"html-keyboard-response","89","142357","0.0-10.0-0.0","61548fa2b637194e04c9bc09","650c16f0f2faf8d7a0d14c09","651c1bb2897652dd74ce968d","null","null","<p style=""font-size: 60px; font-family: BACS"">krGuYmb</p>","","","","","","","","","",""
"html-keyboard-response","90","143372","0.0-10.0-0.1","61548fa2b637194e04c9bc09","650c16f0f2faf8d7a0d14c09","651c1bb2897652dd74ce968d","null","null","<p style=""font-size: 60px; font-family: BACS"">DkTCPcMRl</p>","","","","","","","","","",""
"html-keyboard-response","91","144389","0.0-10.0-0.2","61548fa2b637194e04c9bc09","650c16f0f2faf8d7a0d14c09","651c1bb2897652dd74ce968d","null","null","<p style=""font-size: 60px; font-family: BACS"">UvOGLkNc</p>","","","","","","","","","",""
"html-keyboard-response","92","145390","0.0-10.0-0.3","61548fa2b637194e04c9bc09","650c16f0f2faf8d7a0d14c09","651c1bb2897652dd74ce968d","null","null","<p style=""font-size: 60px; font-family: BACS"">kGamNvJQ</p>","","","","","","","","","",""
"html-keyboard-response","93","146405","0.0-10.0-0.4","61548fa2b637194e04c9bc09","650c16f0f2faf8d7a0d14c09","651c1bb2897652dd74ce968d","null","null","<p style=""font-size: 60px; font-family: BACS"">aLNlkmvG</p>","","","","","","","","","",""
"html-keyboard-response","94","147421","0.0-10.0-0.5","61548fa2b637194e04c9bc09","650c16f0f2faf8d7a0d14c09","651c1bb2897652dd74ce968d","null","null","<p style=""font-size: 60px; font-family: BACS"">bvuZYmb</p>","","","","","","","","","",""
"html-keyboard-response","95","148422","0.0-10.0-0.6","61548fa2b637194e04c9bc09","650c16f0f2faf8d7a0d14c09","651c1bb2897652dd74ce968d","null","null","<p style=""font-size: 60px; font-family: BACS"">PDPhlCkbd</p>","","","","","","","","","",""
"html-keyboard-response","96","149437","0.0-10.0-0.7","61548fa2b637194e04c9bc09","650c16f0f2faf8d7a0d14c09","651c1bb2897652dd74ce968d","null","null","<p style=""font-size: 60px; font-family: BACS"">TdmAbRC</p>","","","","","","","","","",""
"html-keyboard-response","97","150453","0.0-10.0-0.8","61548fa2b637194e04c9bc09","650c16f0f2faf8d7a0d14c09","651c1bb2897652dd74ce968d","null","null","<p style=""font-size: 60px; font-family: BACS"">bvuZLkNc</p>","","","","","","","","","",""
"html-keyboard-response","98","151470","0.0-10.0-0.9","61548fa2b637194e04c9bc09","650c16f0f2faf8d7a0d14c09","651c1bb2897652dd74ce968d","null","null","<p style=""font-size: 60px; font-family: BACS"">PDPhlYBO</p>","","","","","","","","","",""
"html-keyboard-response","99","152486","0.0-10.0-0.10","61548fa2b637194e04c9bc09","650c16f0f2faf8d7a0d14c09","651c1bb2897652dd74ce968d","null","null","<p style=""font-size: 60px; font-family: BACS"">GLYrAYmb</p>","","","","","","","","","",""
"html-keyboard-response","100","153502","0.0-10.0-0.11","61548fa2b637194e04c9bc09","650c16f0f2faf8d7a0d14c09","651c1bb2897652dd74ce968d","null","null","<p style=""font-size: 60px; font-family: BACS"">MkmEdbRC</p>","","","","","","","","","",""
"html-keyboard-response","101","154518","0.0-10.0-0.12","61548fa2b637194e04c9bc09","650c16f0f2faf8d7a0d14c09","651c1bb2897652dd74ce968d","null","null","<p style=""font-size: 60px; font-family: BACS"">adYrcvJQ</p>","","","","","","","","","",""
"html-keyboard-response","102","155535","0.0-10.0-0.13","61548fa2b637194e04c9bc09","650c16f0f2faf8d7a0d14c09","651c1bb2897652dd74ce968d","null","null","<p style=""font-size: 60px; font-family: BACS"">uQuZcLkNc</p>","","","","","","","","","",""
"html-keyboard-response","103","156536","0.0-10.0-0.14","61548fa2b637194e04c9bc09","650c16f0f2faf8d7a0d14c09","651c1bb2897652dd74ce968d","null","null","<p style=""font-size: 60px; font-family: BACS"">YlCPBYbBT</p>","","","","","","","","","",""
"html-keyboard-response","104","157551","0.0-10.0-0.15","61548fa2b637194e04c9bc09","650c16f0f2faf8d7a0d14c09","651c1bb2897652dd74ce968d","null","null","<p style=""font-size: 60px; font-family: BACS"">DkTCPYBO</p>","","","","","","","","","",""
"html-keyboard-response","105","158567","0.0-10.0-0.16","61548fa2b637194e04c9bc09","650c16f0f2faf8d7a0d14c09","651c1bb2897652dd74ce968d","null","null","<p style=""font-size: 60px; font-family: BACS"">bvuZYNu</p>","","","","","","","","","",""
"html-keyboard-response","106","159583","0.0-10.0-0.17","61548fa2b637194e04c9bc09","650c16f0f2faf8d7a0d14c09","651c1bb2897652dd74ce968d","null","null","<p style=""font-size: 60px; font-family: BACS"">kGamNYmb</p>","","","","","","","","","",""
"html-keyboard-response","107","160600","0.0-10.0-0.18","61548fa2b637194e04c9bc09","650c16f0f2faf8d7a0d14c09","651c1bb2897652dd74ce968d","null","null","<p style=""font-size: 60px; font-family: BACS"">adYrcLkNc</p>","","","","","","","","","",""
"html-keyboard-response","108","161616","0.0-10.0-0.19","61548fa2b637194e04c9bc09","650c16f0f2faf8d7a0d14c09","651c1bb2897652dd74ce968d","null","null","<p style=""font-size: 60px; font-family: BACS"">GLYrAmvG</p>","","","","","","","","","",""
"html-keyboard-response","109","162632","0.0-10.0-0.20","61548fa2b637194e04c9bc09","650c16f0f2faf8d7a0d14c09","651c1bb2897652dd74ce968d","null","null","<p style=""font-size: 60px; font-family: BACS"">YlCPBbRC</p>","","","","","","","","","",""
"html-keyboard-response","110","163649","0.0-10.0-0.21","61548fa2b637194e04c9bc09","650c16f0f2faf8d7a0d14c09","651c1bb2897652dd74ce968d","null","null","<p style=""font-size: 60px; font-family: BACS"">chEDOCkbd</p>","","","","","","","","","",""
"html-keyboard-response","111","164665","0.0-10.0-0.22","61548fa2b637194e04c9bc09","650c16f0f2faf8d7a0d14c09","651c1bb2897652dd74ce968d","null","null","<p style=""font-size: 60px; font-family: BACS"">dYdAbRC</p>","","","","","","","","","",""
"html-keyboard-response","112","165681","0.0-10.0-0.23","61548fa2b637194e04c9bc09","650c16f0f2faf8d7a0d14c09","651c1bb2897652dd74ce968d","null","null","<p style=""font-size: 60px; font-family: BACS"">UvOGmvG</p>","","","","","","","","","",""
"html-keyboard-response","113","166697","0.0-10.0-0.24","61548fa2b637194e04c9bc09","650c16f0f2faf8d7a0d14c09","651c1bb2897652dd74ce968d","null","null","<p style=""font-size: 60px; font-family: BACS"">YlCPBcMRl</p>","","","","","","","","","",""
"html-keyboard-response","114","167714","0.0-10.0-0.25","61548fa2b637194e04c9bc09","650c16f0f2faf8d7a0d14c09","651c1bb2897652dd74ce968d","null","null","<p style=""font-size: 60px; font-family: BACS"">krGumvG</p>","","","","","","","","","",""
"html-keyboard-response","115","168715","0.0-10.0-0.26","61548fa2b637194e04c9bc09","650c16f0f2faf8d7a0d14c09","651c1bb2897652dd74ce968d","null","null","<p style=""font-size: 60px; font-family: BACS"">aLNlkYNu</p>","","","","","","","","","",""
"html-keyboard-response","116","169730","0.0-10.0-0.27","61548fa2b637194e04c9bc09","650c16f0f2faf8d7a0d14c09","651c1bb2897652dd74ce968d","null","null","<p style=""font-size: 60px; font-family: BACS"">UvOGYmb</p>","","","","","","","","","",""
"html-keyboard-response","117","170747","0.0-10.0-0.28","61548fa2b637194e04c9bc09","650c16f0f2faf8d7a0d14c09","651c1bb2897652dd74ce968d","null","null","<p style=""font-size: 60px; font-family: BACS"">MkmEdYbBT</p>","","","","","","","","","",""
"html-keyboard-response","118","171763","0.0-10.0-0.29","61548fa2b637194e04c9bc09","650c16f0f2faf8d7a0d14c09","651c1bb2897652dd74ce968d","null","null","<p style=""font-size: 60px; font-family: BACS"">vAarYNu</p>","","","","","","","","","",""
"html-keyboard-response","119","172779","0.0-10.0-0.30","61548fa2b637194e04c9bc09","650c16f0f2faf8d7a0d14c09","651c1bb2897652dd74ce968d","null","null","<p style=""font-size: 60px; font-family: BACS"">PDPhlcMRl</p>","","","","","","","","","",""
"html-keyboard-response","120","173795","0.0-10.0-0.31","61548fa2b637194e04c9bc09","650c16f0f2faf8d7a0d14c09","651c1bb2897652dd74ce968d","null","null","<p style=""font-size: 60px; font-family: BACS"">uQuZcYmb</p>","","","","","","","","","",""
"html-keyboard-response","121","174811","0.0-10.0-0.32","61548fa2b637194e04c9bc09","650c16f0f2faf8d7a0d14c09","651c1bb2897652dd74ce968d","null","null","<p style=""font-size: 60px; font-family: BACS"">TdmAYBO</p>","","","","","","","","","",""
"html-keyboard-response","122","175828","0.0-10.0-0.33","61548fa2b637194e04c9bc09","650c16f0f2faf8d7a0d14c09","651c1bb2897652dd74ce968d","null","null","<p style=""font-size: 60px; font-family: BACS"">bcbMYbBT</p>","","","","","","","","","",""
"html-keyboard-response","123","176844","0.0-10.0-0.34","61548fa2b637194e04c9bc09","650c16f0f2faf8d7a0d14c09","651c1bb2897652dd74ce968d","null","null","<p style=""font-size: 60px; font-family: BACS"">adYrcYNu</p>","","","","","","","","","",""
"html-keyboard-response","124","177860","0.0-10.0-0.35","61548fa2b637194e04c9bc09","650c16f0f2faf8d7a0d14c09","651c1bb2897652dd74ce968d","null","null","<p style=""font-size: 60px; font-family: BACS"">UvOGvJQ</p>","","","","","","","","","",""
"html-keyboard-response","125","178877","0.0-10.0-0.36","61548fa2b637194e04c9bc09","650c16f0f2faf8d7a0d14c09","651c1bb2897652dd74ce968d","null","null","<p style=""font-size: 60px; font-family: BACS"">YlCPBYBO</p>","","","","","","","","","",""
"html-keyboard-response","126","179893","0.0-10.0-0.37","61548fa2b637194e04c9bc09","650c16f0f2faf8d7a0d14c09","651c1bb2897652dd74ce968d","null","null","<p style=""font-size: 60px; font-family: BACS"">chEDOYbBT</p>","","","","","","","","","",""
"html-keyboard-response","127","180909","0.0-10.0-0.38","61548fa2b637194e04c9bc09","650c16f0f2faf8d7a0d14c09","651c1bb2897652dd74ce968d","null","null","<p style=""font-size: 60px; font-family: BACS"">TdmAcMRl</p>","","","","","","","","","",""
"html-keyboard-response","128","181926","0.0-10.0-0.39","61548fa2b637194e04c9bc09","650c16f0f2faf8d7a0d14c09","651c1bb2897652dd74ce968d","null","null","<p style=""font-size: 60px; font-family: BACS"">bvuZmvG</p>","","","","","","","","","",""
"html-keyboard-response","129","182942","0.0-10.0-0.40","61548fa2b637194e04c9bc09","650c16f0f2faf8d7a0d14c09","651c1bb2897652dd74ce968d","null","null","<p style=""font-size: 60px; font-family: BACS"">krGuLkNc</p>","","","","","","","","","",""
"html-keyboard-response","130","183944","0.0-10.0-0.41","61548fa2b637194e04c9bc09","650c16f0f2faf8d7a0d14c09","651c1bb2897652dd74ce968d","null","null","<p style=""font-size: 60px; font-family: BACS"">TdmAYbBT</p>","","","","","","","","","",""
"html-keyboard-response","131","184958","0.0-10.0-0.42","61548fa2b637194e04c9bc09","650c16f0f2faf8d7a0d14c09","651c1bb2897652dd74ce968d","null","null","<p style=""font-size: 60px; font-family: BACS"">YdudLkNc</p>","","","","","","","","","",""
"html-keyboard-response","132","185975","0.0-10.0-0.43","61548fa2b637194e04c9bc09","650c16f0f2faf8d7a0d14c09","651c1bb2897652dd74ce968d","null","null","<p style=""font-size: 60px; font-family: BACS"">kGamNYNu</p>","","","","","","","","","",""
"html-keyboard-response","133","186991","0.0-10.0-0.44","61548fa2b637194e04c9bc09","650c16f0f2faf8d7a0d14c09","651c1bb2897652dd74ce968d","null","null","<p style=""font-size: 60px; font-family: BACS"">GLYrAvJQ</p>","","","","","","","","","",""
"html-keyboard-response","134","188007","0.0-10.0-0.45","61548fa2b637194e04c9bc09","650c16f0f2faf8d7a0d14c09","651c1bb2897652dd74ce968d","null","null","<p style=""font-size: 60px; font-family: BACS"">bcbMcMRl</p>","","","","","","","","","",""
"html-keyboard-response","135","189023","0.0-10.0-0.46","61548fa2b637194e04c9bc09","650c16f0f2faf8d7a0d14c09","651c1bb2897652dd74ce968d","null","null","<p style=""font-size: 60px; font-family: BACS"">chEDOYBO</p>","","","","","","","","","",""
"html-keyboard-response","136","190024","0.0-10.0-0.47","61548fa2b637194e04c9bc09","650c16f0f2faf8d7a0d14c09","651c1bb2897652dd74ce968d","null","null","<p style=""font-size: 60px; font-family: BACS"">adYrcmvG</p>","","","","","","","","","",""
"html-keyboard-response","137","191039","0.0-10.0-0.48","61548fa2b637194e04c9bc09","650c16f0f2faf8d7a0d14c09","651c1bb2897652dd74ce968d","null","null","<p style=""font-size: 60px; font-family: BACS"">PMPtkCkbd</p>","","","","","","","","","",""
"html-keyboard-response","138","192056","0.0-10.0-0.49","61548fa2b637194e04c9bc09","650c16f0f2faf8d7a0d14c09","651c1bb2897652dd74ce968d","null","null","<p style=""font-size: 60px; font-family: BACS"">krGuvJQ</p>","","","","","","","","","",""
"html-keyboard-response","139","193072","0.0-10.0-0.50","61548fa2b637194e04c9bc09","650c16f0f2faf8d7a0d14c09","651c1bb2897652dd74ce968d","null","null","<p style=""font-size: 60px; font-family: BACS"">YdudYNu</p>","","","","","","","","","",""
"html-keyboard-response","140","194088","0.0-10.0-0.51","61548fa2b637194e04c9bc09","650c16f0f2faf8d7a0d14c09","651c1bb2897652dd74ce968d","null","null","<p style=""font-size: 60px; font-family: BACS"">aLNlkvJQ</p>","","","","","","","","","",""
"html-keyboard-response","141","195105","0.0-10.0-0.52","61548fa2b637194e04c9bc09","650c16f0f2faf8d7a0d14c09","651c1bb2897652dd74ce968d","null","null","<p style=""font-size: 60px; font-family: BACS"">bcbMbRC</p>","","","","","","","","","",""
"html-keyboard-response","142","196121","0.0-10.0-0.53","61548fa2b637194e04c9bc09","650c16f0f2faf8d7a0d14c09","651c1bb2897652dd74ce968d","null","null","<p style=""font-size: 60px; font-family: BACS"">aLNlkYmb</p>","","","","","","","","","",""
"html-keyboard-response","143","197137","0.0-10.0-0.54","61548fa2b637194e04c9bc09","650c16f0f2faf8d7a0d14c09","651c1bb2897652dd74ce968d","null","null","<p style=""font-size: 60px; font-family: BACS"">vAarmvG</p>","","","","","","","","","",""
"html-keyboard-response","144","198138","0.0-10.0-0.55","61548fa2b637194e04c9bc09","650c16f0f2faf8d7a0d14c09","651c1bb2897652dd74ce968d","null","null","<p style=""font-size: 60px; font-family: BACS"">MlthbRC</p>","","","","","","","","","",""
"html-keyboard-response","145","199153","0.0-10.0-0.56","61548fa2b637194e04c9bc09","650c16f0f2faf8d7a0d14c09","651c1bb2897652dd74ce968d","null","null","<p style=""font-size: 60px; font-family: BACS"">DkTCPCkbd</p>","","","","","","","","","",""
"html-keyboard-response","146","200170","0.0-10.0-0.57","61548fa2b637194e04c9bc09","650c16f0f2faf8d7a0d14c09","651c1bb2897652dd74ce968d","null","null","<p style=""font-size: 60px; font-family: BACS"">PMPtkYBO</p>","","","","","","","","","",""
"html-keyboard-response","147","201186","0.0-10.0-0.58","61548fa2b637194e04c9bc09","650c16f0f2faf8d7a0d14c09","651c1bb2897652dd74ce968d","null","null","<p style=""font-size: 60px; font-family: BACS"">YdudvJQ</p>","","","","","","","","","",""
"html-keyboard-response","148","202202","0.0-10.0-0.59","61548fa2b637194e04c9bc09","650c16f0f2faf8d7a0d14c09","651c1bb2897652dd74ce968d","null","null","<p style=""font-size: 60px; font-family: BACS"">kGamNLkNc</p>","","","","","","","","","",""
"html-keyboard-response","149","203204","0.0-10.0-0.60","61548fa2b637194e04c9bc09","650c16f0f2faf8d7a0d14c09","651c1bb2897652dd74ce968d","null","null","<p style=""font-size: 60px; font-family: BACS"">PMPtkbRC</p>","","","","","","","","","",""
"html-keyboard-response","150","204218","0.0-10.0-0.61","61548fa2b637194e04c9bc09","650c16f0f2faf8d7a0d14c09","651c1bb2897652dd74ce968d","null","null","<p style=""font-size: 60px; font-family: BACS"">dYdAYbBT</p>","","","","","","","","","",""
"html-keyboard-response","151","205234","0.0-10.0-0.62","61548fa2b637194e04c9bc09","650c16f0f2faf8d7a0d14c09","651c1bb2897652dd74ce968d","null","null","<p style=""font-size: 60px; font-family: BACS"">MkmEdYBO</p>","","","","","","","","","",""
"html-keyboard-response","152","206251","0.0-10.0-0.63","61548fa2b637194e04c9bc09","650c16f0f2faf8d7a0d14c09","651c1bb2897652dd74ce968d","null","null","<p style=""font-size: 60px; font-family: BACS"">MlthYbBT</p>","","","","","","","","","",""
"html-keyboard-response","153","207267","0.0-10.0-0.64","61548fa2b637194e04c9bc09","650c16f0f2faf8d7a0d14c09","651c1bb2897652dd74ce968d","null","null","<p style=""font-size: 60px; font-family: BACS"">vAarYmb</p>","","","","","","","","","",""
"html-keyboard-response","154","208284","0.0-10.0-0.65","61548fa2b637194e04c9bc09","650c16f0f2faf8d7a0d14c09","651c1bb2897652dd74ce968d","null","null","<p style=""font-size: 60px; font-family: BACS"">chEDOcMRl</p>","","","","","","","","","",""
"html-keyboard-response","155","209300","0.0-10.0-0.66","61548fa2b637194e04c9bc09","650c16f0f2faf8d7a0d14c09","651c1bb2897652dd74ce968d","null","null","<p style=""font-size: 60px; font-family: BACS"">uQuZcYNu</p>","","","","","","","","","",""
"html-keyboard-response","156","210302","0.0-10.0-0.67","61548fa2b637194e04c9bc09","650c16f0f2faf8d7a0d14c09","651c1bb2897652dd74ce968d","null","null","<p style=""font-size: 60px; font-family: BACS"">PMPtkcMRl</p>","","","","","","","","","",""
"html-keyboard-response","157","211317","0.0-10.0-0.68","61548fa2b637194e04c9bc09","650c16f0f2faf8d7a0d14c09","651c1bb2897652dd74ce968d","null","null","<p style=""font-size: 60px; font-family: BACS"">uQuZcvJQ</p>","","","","","","","","","",""
"html-keyboard-response","158","212332","0.0-10.0-0.69","61548fa2b637194e04c9bc09","650c16f0f2faf8d7a0d14c09","651c1bb2897652dd74ce968d","null","null","<p style=""font-size: 60px; font-family: BACS"">YdudmvG</p>","","","","","","","","","",""
"html-keyboard-response","159","213348","0.0-10.0-0.70","61548fa2b637194e04c9bc09","650c16f0f2faf8d7a0d14c09","651c1bb2897652dd74ce968d","null","null","<p style=""font-size: 60px; font-family: BACS"">PDPhlYbBT</p>","","","","","","","","","",""
"html-keyboard-response","160","214365","0.0-10.0-0.71","61548fa2b637194e04c9bc09","650c16f0f2faf8d7a0d14c09","651c1bb2897652dd74ce968d","null","null","<p style=""font-size: 60px; font-family: BACS"">GLYrAYNu</p>","","","","","","","","","",""
"html-keyboard-response","161","215381","0.0-10.0-0.72","61548fa2b637194e04c9bc09","650c16f0f2faf8d7a0d14c09","651c1bb2897652dd74ce968d","null","null","<p style=""font-size: 60px; font-family: BACS"">bcbMCkbd</p>","","","","","","","","","",""
"html-keyboard-response","162","216397","0.0-10.0-0.73","61548fa2b637194e04c9bc09","650c16f0f2faf8d7a0d14c09","651c1bb2897652dd74ce968d","null","null","<p style=""font-size: 60px; font-family: BACS"">dYdAYBO</p>","","","","","","","","","",""
"html-keyboard-response","163","217414","0.0-10.0-0.74","61548fa2b637194e04c9bc09","650c16f0f2faf8d7a0d14c09","651c1bb2897652dd74ce968d","null","null","<p style=""font-size: 60px; font-family: BACS"">MkmEdCkbd</p>","","","","","","","","","",""
"html-keyboard-response","164","218430","0.0-10.0-0.75","61548fa2b637194e04c9bc09","650c16f0f2faf8d7a0d14c09","651c1bb2897652dd74ce968d","null","null","<p style=""font-size: 60px; font-family: BACS"">MlthcMRl</p>","","","","","","","","","",""
"html-keyboard-response","165","219447","0.0-10.0-0.76","61548fa2b637194e04c9bc09","650c16f0f2faf8d7a0d14c09","651c1bb2897652dd74ce968d","null","null","<p style=""font-size: 60px; font-family: BACS"">dYdACkbd</p>","","","","","","","","","",""
"html-keyboard-response","166","220463","0.0-10.0-0.77","61548fa2b637194e04c9bc09","650c16f0f2faf8d7a0d14c09","651c1bb2897652dd74ce968d","null","null","<p style=""font-size: 60px; font-family: BACS"">vAarLkNc</p>","","","","","","","","","",""
"html-keyboard-response","167","221479","0.0-10.0-0.78","61548fa2b637194e04c9bc09","650c16f0f2faf8d7a0d14c09","651c1bb2897652dd74ce968d","null","null","<p style=""font-size: 60px; font-family: BACS"">DkTCPbRC</p>","","","","","","","","","",""
"html-keyboard-response","168","222495","0.0-10.0-0.79","61548fa2b637194e04c9bc09","650c16f0f2faf8d7a0d14c09","651c1bb2897652dd74ce968d","null","null","<p style=""font-size: 60px; font-family: BACS"">MlthCkbd</p>","","","","","","","","","",""
"html-keyboard-response","169","230828","0.0-11.0","61548fa2b637194e04c9bc09","650c16f0f2faf8d7a0d14c09","651c1bb2897652dd74ce968d","8333"," ","<p>Great, you've seen the second block of words. You may now take a short break.</p>
      <p>Press the spacebar when you're ready to continue.</p>","","","","","","","","","",""
"html-keyboard-response","170","231843","0.0-12.0-0.0","61548fa2b637194e04c9bc09","650c16f0f2faf8d7a0d14c09","651c1bb2897652dd74ce968d","null","null","<p style=""font-size: 60px; font-family: BACS"">YdudmvG</p>","","","","","","","","","",""
"html-keyboard-response","171","232859","0.0-12.0-0.1","61548fa2b637194e04c9bc09","650c16f0f2faf8d7a0d14c09","651c1bb2897652dd74ce968d","null","null","<p style=""font-size: 60px; font-family: BACS"">bcbMbRC</p>","","","","","","","","","",""
"html-keyboard-response","172","233875","0.0-12.0-0.2","61548fa2b637194e04c9bc09","650c16f0f2faf8d7a0d14c09","651c1bb2897652dd74ce968d","null","null","<p style=""font-size: 60px; font-family: BACS"">YdudLkNc</p>","","","","","","","","","",""
"html-keyboard-response","173","234891","0.0-12.0-0.3","61548fa2b637194e04c9bc09","650c16f0f2faf8d7a0d14c09","651c1bb2897652dd74ce968d","null","null","<p style=""font-size: 60px; font-family: BACS"">DkTCPcMRl</p>","","","","","","","","","",""
"html-keyboard-response","174","235907","0.0-12.0-0.4","61548fa2b637194e04c9bc09","650c16f0f2faf8d7a0d14c09","651c1bb2897652dd74ce968d","null","null","<p style=""font-size: 60px; font-family: BACS"">YlCPBYBO</p>","","","","","","","","","",""
"html-keyboard-response","175","236924","0.0-12.0-0.5","61548fa2b637194e04c9bc09","650c16f0f2faf8d7a0d14c09","651c1bb2897652dd74ce968d","null","null","<p style=""font-size: 60px; font-family: BACS"">MlthbRC</p>","","","","","","","","","",""
"html-keyboard-response","176","237925","0.0-12.0-0.6","61548fa2b637194e04c9bc09","650c16f0f2faf8d7a0d14c09","651c1bb2897652dd74ce968d","null","null","<p style=""font-size: 60px; font-family: BACS"">MkmEdYbBT</p>","","","","","","","","","",""
"html-keyboard-response","177","238940","0.0-12.0-0.7","61548fa2b637194e04c9bc09","650c16f0f2faf8d7a0d14c09","651c1bb2897652dd74ce968d","null","null","<p style=""font-size: 60px; font-family: BACS"">uQuZcLkNc</p>","","","","","","","","","",""
"html-keyboard-response","178","239956","0.0-12.0-0.8","61548fa2b637194e04c9bc09","650c16f0f2faf8d7a0d14c09","651c1bb2897652dd74ce968d","null","null","<p style=""font-size: 60px; font-family: BACS"">MkmEdbRC</p>","","","","","","","","","",""
"html-keyboard-response","179","240973","0.0-12.0-0.9","61548fa2b637194e04c9bc09","650c16f0f2faf8d7a0d14c09","651c1bb2897652dd74ce968d","null","null","<p style=""font-size: 60px; font-family: BACS"">uQuZcYmb</p>","","","","","","","","","",""
"html-keyboard-response","180","241989","0.0-12.0-0.10","61548fa2b637194e04c9bc09","650c16f0f2faf8d7a0d14c09","651c1bb2897652dd74ce968d","null","null","<p style=""font-size: 60px; font-family: BACS"">GLYrAYNu</p>","","","","","","","","","",""
"html-keyboard-response","181","243005","0.0-12.0-0.11","61548fa2b637194e04c9bc09","650c16f0f2faf8d7a0d14c09","651c1bb2897652dd74ce968d","null","null","<p style=""font-size: 60px; font-family: BACS"">adYrcmvG</p>","","","","","","","","","",""
"html-keyboard-response","182","244021","0.0-12.0-0.12","61548fa2b637194e04c9bc09","650c16f0f2faf8d7a0d14c09","651c1bb2897652dd74ce968d","null","null","<p style=""font-size: 60px; font-family: BACS"">krGuYmb</p>","","","","","","","","","",""
"html-keyboard-response","183","245038","0.0-12.0-0.13","61548fa2b637194e04c9bc09","650c16f0f2faf8d7a0d14c09","651c1bb2897652dd74ce968d","null","null","<p style=""font-size: 60px; font-family: BACS"">YlCPBcMRl</p>","","","","","","","","","",""
"html-keyboard-response","184","246054","0.0-12.0-0.14","61548fa2b637194e04c9bc09","650c16f0f2faf8d7a0d14c09","651c1bb2897652dd74ce968d","null","null","<p style=""font-size: 60px; font-family: BACS"">vAarYmb</p>","","","","","","","","","",""
"html-keyboard-response","185","247055","0.0-12.0-0.15","61548fa2b637194e04c9bc09","650c16f0f2faf8d7a0d14c09","651c1bb2897652dd74ce968d","null","null","<p style=""font-size: 60px; font-family: BACS"">aLNlkYNu</p>","","","","","","","","","",""
"html-keyboard-response","186","248070","0.0-12.0-0.16","61548fa2b637194e04c9bc09","650c16f0f2faf8d7a0d14c09","651c1bb2897652dd74ce968d","null","null","<p style=""font-size: 60px; font-family: BACS"">PDPhlYBO</p>","","","","","","","","","",""
"html-keyboard-response","187","249086","0.0-12.0-0.17","61548fa2b637194e04c9bc09","650c16f0f2faf8d7a0d14c09","651c1bb2897652dd74ce968d","null","null","<p style=""font-size: 60px; font-family: BACS"">vAarYNu</p>","","","","","","","","","",""
"html-keyboard-response","188","250087","0.0-12.0-0.18","61548fa2b637194e04c9bc09","650c16f0f2faf8d7a0d14c09","651c1bb2897652dd74ce968d","null","null","<p style=""font-size: 60px; font-family: BACS"">DkTCPYBO</p>","","","","","","","","","",""
"html-keyboard-response","189","251103","0.0-12.0-0.19","61548fa2b637194e04c9bc09","650c16f0f2faf8d7a0d14c09","651c1bb2897652dd74ce968d","null","null","<p style=""font-size: 60px; font-family: BACS"">vAarLkNc</p>","","","","","","","","","",""
"html-keyboard-response","190","252119","0.0-12.0-0.20","61548fa2b637194e04c9bc09","650c16f0f2faf8d7a0d14c09","651c1bb2897652dd74ce968d","null","null","<p style=""font-size: 60px; font-family: BACS"">GLYrAmvG</p>","","","","","","","","","",""
"html-keyboard-response","191","253135","0.0-12.0-0.21","61548fa2b637194e04c9bc09","650c16f0f2faf8d7a0d14c09","651c1bb2897652dd74ce968d","null","null","<p style=""font-size: 60px; font-family: BACS"">chEDOYBO</p>","","","","","","","","","",""
"html-keyboard-response","192","254137","0.0-12.0-0.22","61548fa2b637194e04c9bc09","650c16f0f2faf8d7a0d14c09","651c1bb2897652dd74ce968d","null","null","<p style=""font-size: 60px; font-family: BACS"">GLYrAvJQ</p>","","","","","","","","","",""
"html-keyboard-response","193","255151","0.0-12.0-0.23","61548fa2b637194e04c9bc09","650c16f0f2faf8d7a0d14c09","651c1bb2897652dd74ce968d","null","null","<p style=""font-size: 60px; font-family: BACS"">YdudYNu</p>","","","","","","","","","",""
"html-keyboard-response","194","256167","0.0-12.0-0.24","61548fa2b637194e04c9bc09","650c16f0f2faf8d7a0d14c09","651c1bb2897652dd74ce968d","null","null","<p style=""font-size: 60px; font-family: BACS"">krGuLkNc</p>","","","","","","","","","",""
"html-keyboard-response","195","257184","0.0-12.0-0.25","61548fa2b637194e04c9bc09","650c16f0f2faf8d7a0d14c09","651c1bb2897652dd74ce968d","null","null","<p style=""font-size: 60px; font-family: BACS"">MlthCkbd</p>","","","","","","","","","",""
"html-keyboard-response","196","258200","0.0-12.0-0.26","61548fa2b637194e04c9bc09","650c16f0f2faf8d7a0d14c09","651c1bb2897652dd74ce968d","null","null","<p style=""font-size: 60px; font-family: BACS"">aLNlkYmb</p>","","","","","","","","","",""
"html-keyboard-response","197","259216","0.0-12.0-0.27","61548fa2b637194e04c9bc09","650c16f0f2faf8d7a0d14c09","651c1bb2897652dd74ce968d","null","null","<p style=""font-size: 60px; font-family: BACS"">YlCPBbRC</p>","","","","","","","","","",""
"html-keyboard-response","198","260233","0.0-12.0-0.28","61548fa2b637194e04c9bc09","650c16f0f2faf8d7a0d14c09","651c1bb2897652dd74ce968d","null","null","<p style=""font-size: 60px; font-family: BACS"">PMPtkCkbd</p>","","","","","","","","","",""
"html-keyboard-response","199","261249","0.0-12.0-0.29","61548fa2b637194e04c9bc09","650c16f0f2faf8d7a0d14c09","651c1bb2897652dd74ce968d","null","null","<p style=""font-size: 60px; font-family: BACS"">kGamNYNu</p>","","","","","","","","","",""
"html-keyboard-response","200","262265","0.0-12.0-0.30","61548fa2b637194e04c9bc09","650c16f0f2faf8d7a0d14c09","651c1bb2897652dd74ce968d","null","null","<p style=""font-size: 60px; font-family: BACS"">TdmAYBO</p>","","","","","","","","","",""
"html-keyboard-response","201","263282","0.0-12.0-0.31","61548fa2b637194e04c9bc09","650c16f0f2faf8d7a0d14c09","651c1bb2897652dd74ce968d","null","null","<p style=""font-size: 60px; font-family: BACS"">aLNlkmvG</p>","","","","","","","","","",""
"html-keyboard-response","202","264298","0.0-12.0-0.32","61548fa2b637194e04c9bc09","650c16f0f2faf8d7a0d14c09","651c1bb2897652dd74ce968d","null","null","<p style=""font-size: 60px; font-family: BACS"">uQuZcvJQ</p>","","","","","","","","","",""
"html-keyboard-response","203","265315","0.0-12.0-0.33","61548fa2b637194e04c9bc09","650c16f0f2faf8d7a0d14c09","651c1bb2897652dd74ce968d","null","null","<p style=""font-size: 60px; font-family: BACS"">bvuZYmb</p>","","","","","","","","","",""
"html-keyboard-response","204","266316","0.0-12.0-0.34","61548fa2b637194e04c9bc09","650c16f0f2faf8d7a0d14c09","651c1bb2897652dd74ce968d","null","null","<p style=""font-size: 60px; font-family: BACS"">PDPhlCkbd</p>","","","","","","","","","",""
"html-keyboard-response","205","267330","0.0-12.0-0.35","61548fa2b637194e04c9bc09","650c16f0f2faf8d7a0d14c09","651c1bb2897652dd74ce968d","null","null","<p style=""font-size: 60px; font-family: BACS"">krGuvJQ</p>","","","","","","","","","",""
"html-keyboard-response","206","268347","0.0-12.0-0.36","61548fa2b637194e04c9bc09","650c16f0f2faf8d7a0d14c09","651c1bb2897652dd74ce968d","null","null","<p style=""font-size: 60px; font-family: BACS"">GLYrAYmb</p>","","","","","","","","","",""
"html-keyboard-response","207","269363","0.0-12.0-0.37","61548fa2b637194e04c9bc09","650c16f0f2faf8d7a0d14c09","651c1bb2897652dd74ce968d","null","null","<p style=""font-size: 60px; font-family: BACS"">UvOGLkNc</p>","","","","","","","","","",""
"html-keyboard-response","208","270379","0.0-12.0-0.38","61548fa2b637194e04c9bc09","650c16f0f2faf8d7a0d14c09","651c1bb2897652dd74ce968d","null","null","<p style=""font-size: 60px; font-family: BACS"">aLNlkvJQ</p>","","","","","","","","","",""
"html-keyboard-response","209","271396","0.0-12.0-0.39","61548fa2b637194e04c9bc09","650c16f0f2faf8d7a0d14c09","651c1bb2897652dd74ce968d","null","null","<p style=""font-size: 60px; font-family: BACS"">TdmAbRC</p>","","","","","","","","","",""
"html-keyboard-response","210","272412","0.0-12.0-0.40","61548fa2b637194e04c9bc09","650c16f0f2faf8d7a0d14c09","651c1bb2897652dd74ce968d","null","null","<p style=""font-size: 60px; font-family: BACS"">bvuZmvG</p>","","","","","","","","","",""
"html-keyboard-response","211","273413","0.0-12.0-0.41","61548fa2b637194e04c9bc09","650c16f0f2faf8d7a0d14c09","651c1bb2897652dd74ce968d","null","null","<p style=""font-size: 60px; font-family: BACS"">UvOGvJQ</p>","","","","","","","","","",""
"html-keyboard-response","212","274428","0.0-12.0-0.42","61548fa2b637194e04c9bc09","650c16f0f2faf8d7a0d14c09","651c1bb2897652dd74ce968d","null","null","<p style=""font-size: 60px; font-family: BACS"">adYrcLkNc</p>","","","","","","","","","",""
"html-keyboard-response","213","275444","0.0-12.0-0.43","61548fa2b637194e04c9bc09","650c16f0f2faf8d7a0d14c09","651c1bb2897652dd74ce968d","null","null","<p style=""font-size: 60px; font-family: BACS"">uQuZcYNu</p>","","","","","","","","","",""
"html-keyboard-response","214","276460","0.0-12.0-0.44","61548fa2b637194e04c9bc09","650c16f0f2faf8d7a0d14c09","651c1bb2897652dd74ce968d","null","null","<p style=""font-size: 60px; font-family: BACS"">PDPhlYbBT</p>","","","","","","","","","",""
"html-keyboard-response","215","277477","0.0-12.0-0.45","61548fa2b637194e04c9bc09","650c16f0f2faf8d7a0d14c09","651c1bb2897652dd74ce968d","null","null","<p style=""font-size: 60px; font-family: BACS"">PMPtkbRC</p>","","","","","","","","","",""
"html-keyboard-response","216","278493","0.0-12.0-0.46","61548fa2b637194e04c9bc09","650c16f0f2faf8d7a0d14c09","651c1bb2897652dd74ce968d","null","null","<p style=""font-size: 60px; font-family: BACS"">bvuZYNu</p>","","","","","","","","","",""
"html-keyboard-response","217","279509","0.0-12.0-0.47","61548fa2b637194e04c9bc09","650c16f0f2faf8d7a0d14c09","651c1bb2897652dd74ce968d","null","null","<p style=""font-size: 60px; font-family: BACS"">bcbMCkbd</p>","","","","","","","","","",""
"html-keyboard-response","218","280526","0.0-12.0-0.48","61548fa2b637194e04c9bc09","650c16f0f2faf8d7a0d14c09","651c1bb2897652dd74ce968d","null","null","<p style=""font-size: 60px; font-family: BACS"">kGamNvJQ</p>","","","","","","","","","",""
"html-keyboard-response","219","281542","0.0-12.0-0.49","61548fa2b637194e04c9bc09","650c16f0f2faf8d7a0d14c09","651c1bb2897652dd74ce968d","null","null","<p style=""font-size: 60px; font-family: BACS"">UvOGmvG</p>","","","","","","","","","",""
"html-keyboard-response","220","282558","0.0-12.0-0.50","61548fa2b637194e04c9bc09","650c16f0f2faf8d7a0d14c09","651c1bb2897652dd74ce968d","null","null","<p style=""font-size: 60px; font-family: BACS"">bcbMcMRl</p>","","","","","","","","","",""
"html-keyboard-response","221","283575","0.0-12.0-0.51","61548fa2b637194e04c9bc09","650c16f0f2faf8d7a0d14c09","651c1bb2897652dd74ce968d","null","null","<p style=""font-size: 60px; font-family: BACS"">PMPtkYBO</p>","","","","","","","","","",""
"html-keyboard-response","222","284591","0.0-12.0-0.52","61548fa2b637194e04c9bc09","650c16f0f2faf8d7a0d14c09","651c1bb2897652dd74ce968d","null","null","<p style=""font-size: 60px; font-family: BACS"">chEDOYbBT</p>","","","","","","","","","",""
"html-keyboard-response","223","285607","0.0-12.0-0.53","61548fa2b637194e04c9bc09","650c16f0f2faf8d7a0d14c09","651c1bb2897652dd74ce968d","null","null","<p style=""font-size: 60px; font-family: BACS"">adYrcYNu</p>","","","","","","","","","",""
"html-keyboard-response","224","286608","0.0-12.0-0.54","61548fa2b637194e04c9bc09","650c16f0f2faf8d7a0d14c09","651c1bb2897652dd74ce968d","null","null","<p style=""font-size: 60px; font-family: BACS"">dYdAYBO</p>","","","","","","","","","",""
"html-keyboard-response","225","287623","0.0-12.0-0.55","61548fa2b637194e04c9bc09","650c16f0f2faf8d7a0d14c09","651c1bb2897652dd74ce968d","null","null","<p style=""font-size: 60px; font-family: BACS"">kGamNYmb</p>","","","","","","","","","",""
"html-keyboard-response","226","288640","0.0-12.0-0.56","61548fa2b637194e04c9bc09","650c16f0f2faf8d7a0d14c09","651c1bb2897652dd74ce968d","null","null","<p style=""font-size: 60px; font-family: BACS"">bvuZLkNc</p>","","","","","","","","","",""
"html-keyboard-response","227","289641","0.0-12.0-0.57","61548fa2b637194e04c9bc09","650c16f0f2faf8d7a0d14c09","651c1bb2897652dd74ce968d","null","null","<p style=""font-size: 60px; font-family: BACS"">UvOGYmb</p>","","","","","","","","","",""
"html-keyboard-response","228","290656","0.0-12.0-0.58","61548fa2b637194e04c9bc09","650c16f0f2faf8d7a0d14c09","651c1bb2897652dd74ce968d","null","null","<p style=""font-size: 60px; font-family: BACS"">dYdAbRC</p>","","","","","","","","","",""
"html-keyboard-response","229","291672","0.0-12.0-0.59","61548fa2b637194e04c9bc09","650c16f0f2faf8d7a0d14c09","651c1bb2897652dd74ce968d","null","null","<p style=""font-size: 60px; font-family: BACS"">YdudvJQ</p>","","","","","","","","","",""
"html-keyboard-response","230","292673","0.0-12.0-0.60","61548fa2b637194e04c9bc09","650c16f0f2faf8d7a0d14c09","651c1bb2897652dd74ce968d","null","null","<p style=""font-size: 60px; font-family: BACS"">kGamNLkNc</p>","","","","","","","","","",""
"html-keyboard-response","231","293688","0.0-12.0-0.61","61548fa2b637194e04c9bc09","650c16f0f2faf8d7a0d14c09","651c1bb2897652dd74ce968d","null","null","<p style=""font-size: 60px; font-family: BACS"">DkTCPCkbd</p>","","","","","","","","","",""
"html-keyboard-response","232","294704","0.0-12.0-0.62","61548fa2b637194e04c9bc09","650c16f0f2faf8d7a0d14c09","651c1bb2897652dd74ce968d","null","null","<p style=""font-size: 60px; font-family: BACS"">TdmAYbBT</p>","","","","","","","","","",""
"html-keyboard-response","233","295721","0.0-12.0-0.63","61548fa2b637194e04c9bc09","650c16f0f2faf8d7a0d14c09","651c1bb2897652dd74ce968d","null","null","<p style=""font-size: 60px; font-family: BACS"">vAarmvG</p>","","","","","","","","","",""
"html-keyboard-response","234","296737","0.0-12.0-0.64","61548fa2b637194e04c9bc09","650c16f0f2faf8d7a0d14c09","651c1bb2897652dd74ce968d","null","null","<p style=""font-size: 60px; font-family: BACS"">MkmEdCkbd</p>","","","","","","","","","",""
"html-keyboard-response","235","297753","0.0-12.0-0.65","61548fa2b637194e04c9bc09","650c16f0f2faf8d7a0d14c09","651c1bb2897652dd74ce968d","null","null","<p style=""font-size: 60px; font-family: BACS"">bcbMYbBT</p>","","","","","","","","","",""
"html-keyboard-response","236","298770","0.0-12.0-0.66","61548fa2b637194e04c9bc09","650c16f0f2faf8d7a0d14c09","651c1bb2897652dd74ce968d","null","null","<p style=""font-size: 60px; font-family: BACS"">TdmAcMRl</p>","","","","","","","","","",""
"html-keyboard-response","237","299786","0.0-12.0-0.67","61548fa2b637194e04c9bc09","650c16f0f2faf8d7a0d14c09","651c1bb2897652dd74ce968d","null","null","<p style=""font-size: 60px; font-family: BACS"">dYdACkbd</p>","","","","","","","","","",""
"html-keyboard-response","238","300802","0.0-12.0-0.68","61548fa2b637194e04c9bc09","650c16f0f2faf8d7a0d14c09","651c1bb2897652dd74ce968d","null","null","<p style=""font-size: 60px; font-family: BACS"">chEDOcMRl</p>","","","","","","","","","",""
"html-keyboard-response","239","301819","0.0-12.0-0.69","61548fa2b637194e04c9bc09","650c16f0f2faf8d7a0d14c09","651c1bb2897652dd74ce968d","null","null","<p style=""font-size: 60px; font-family: BACS"">dYdAYbBT</p>","","","","","","","","","",""
"html-keyboard-response","240","302835","0.0-12.0-0.70","61548fa2b637194e04c9bc09","650c16f0f2faf8d7a0d14c09","651c1bb2897652dd74ce968d","null","null","<p style=""font-size: 60px; font-family: BACS"">adYrcvJQ</p>","","","","","","","","","",""
"html-keyboard-response","241","303851","0.0-12.0-0.71","61548fa2b637194e04c9bc09","650c16f0f2faf8d7a0d14c09","651c1bb2897652dd74ce968d","null","null","<p style=""font-size: 60px; font-family: BACS"">MlthYbBT</p>","","","","","","","","","",""
"html-keyboard-response","242","304868","0.0-12.0-0.72","61548fa2b637194e04c9bc09","650c16f0f2faf8d7a0d14c09","651c1bb2897652dd74ce968d","null","null","<p style=""font-size: 60px; font-family: BACS"">PDPhlcMRl</p>","","","","","","","","","",""
"html-keyboard-response","243","305884","0.0-12.0-0.73","61548fa2b637194e04c9bc09","650c16f0f2faf8d7a0d14c09","651c1bb2897652dd74ce968d","null","null","<p style=""font-size: 60px; font-family: BACS"">chEDOCkbd</p>","","","","","","","","","",""
"html-keyboard-response","244","306900","0.0-12.0-0.74","61548fa2b637194e04c9bc09","650c16f0f2faf8d7a0d14c09","651c1bb2897652dd74ce968d","null","null","<p style=""font-size: 60px; font-family: BACS"">MkmEdYBO</p>","","","","","","","","","",""
"html-keyboard-response","245","307915","0.0-12.0-0.75","61548fa2b637194e04c9bc09","650c16f0f2faf8d7a0d14c09","651c1bb2897652dd74ce968d","null","null","<p style=""font-size: 60px; font-family: BACS"">krGumvG</p>","","","","","","","","","",""
"html-keyboard-response","246","308917","0.0-12.0-0.76","61548fa2b637194e04c9bc09","650c16f0f2faf8d7a0d14c09","651c1bb2897652dd74ce968d","null","null","<p style=""font-size: 60px; font-family: BACS"">PMPtkcMRl</p>","","","","","","","","","",""
"html-keyboard-response","247","309933","0.0-12.0-0.77","61548fa2b637194e04c9bc09","650c16f0f2faf8d7a0d14c09","651c1bb2897652dd74ce968d","null","null","<p style=""font-size: 60px; font-family: BACS"">YlCPBYbBT</p>","","","","","","","","","",""
"html-keyboard-response","248","310949","0.0-12.0-0.78","61548fa2b637194e04c9bc09","650c16f0f2faf8d7a0d14c09","651c1bb2897652dd74ce968d","null","null","<p style=""font-size: 60px; font-family: BACS"">DkTCPbRC</p>","","","","","","","","","",""
"html-keyboard-response","249","311965","0.0-12.0-0.79","61548fa2b637194e04c9bc09","650c16f0f2faf8d7a0d14c09","651c1bb2897652dd74ce968d","null","null","<p style=""font-size: 60px; font-family: BACS"">MlthcMRl</p>","","","","","","","","","",""
"html-keyboard-response","250","316100","0.0-13.0","61548fa2b637194e04c9bc09","650c16f0f2faf8d7a0d14c09","651c1bb2897652dd74ce968d","4134"," ","<p>Great, you've seen the third block of words. You may now take a short break.</p>
      <p>Press the spacebar when you're ready to continue.</p>","","","","","","","","","",""
"html-keyboard-response","251","317113","0.0-14.0-0.0","61548fa2b637194e04c9bc09","650c16f0f2faf8d7a0d14c09","651c1bb2897652dd74ce968d","null","null","<p style=""font-size: 60px; font-family: BACS"">MlthbRC</p>","","","","","","","","","",""
"html-keyboard-response","252","318130","0.0-14.0-0.1","61548fa2b637194e04c9bc09","650c16f0f2faf8d7a0d14c09","651c1bb2897652dd74ce968d","null","null","<p style=""font-size: 60px; font-family: BACS"">vAarLkNc</p>","","","","","","","","","",""
"html-keyboard-response","253","319146","0.0-14.0-0.2","61548fa2b637194e04c9bc09","650c16f0f2faf8d7a0d14c09","651c1bb2897652dd74ce968d","null","null","<p style=""font-size: 60px; font-family: BACS"">uQuZcvJQ</p>","","","","","","","","","",""
"html-keyboard-response","254","320147","0.0-14.0-0.3","61548fa2b637194e04c9bc09","650c16f0f2faf8d7a0d14c09","651c1bb2897652dd74ce968d","null","null","<p style=""font-size: 60px; font-family: BACS"">PMPtkCkbd</p>","","","","","","","","","",""
"html-keyboard-response","255","321162","0.0-14.0-0.4","61548fa2b637194e04c9bc09","650c16f0f2faf8d7a0d14c09","651c1bb2897652dd74ce968d","null","null","<p style=""font-size: 60px; font-family: BACS"">DkTCPbRC</p>","","","","","","","","","",""
"html-keyboard-response","256","322178","0.0-14.0-0.5","61548fa2b637194e04c9bc09","650c16f0f2faf8d7a0d14c09","651c1bb2897652dd74ce968d","null","null","<p style=""font-size: 60px; font-family: BACS"">kGamNYNu</p>","","","","","","","","","",""
"html-keyboard-response","257","323195","0.0-14.0-0.6","61548fa2b637194e04c9bc09","650c16f0f2faf8d7a0d14c09","651c1bb2897652dd74ce968d","null","null","<p style=""font-size: 60px; font-family: BACS"">PDPhlYBO</p>","","","","","","","","","",""
"html-keyboard-response","258","324196","0.0-14.0-0.7","61548fa2b637194e04c9bc09","650c16f0f2faf8d7a0d14c09","651c1bb2897652dd74ce968d","null","null","<p style=""font-size: 60px; font-family: BACS"">PMPtkbRC</p>","","","","","","","","","",""
"html-keyboard-response","259","325211","0.0-14.0-0.8","61548fa2b637194e04c9bc09","650c16f0f2faf8d7a0d14c09","651c1bb2897652dd74ce968d","null","null","<p style=""font-size: 60px; font-family: BACS"">uQuZcYmb</p>","","","","","","","","","",""
"html-keyboard-response","260","326227","0.0-14.0-0.9","61548fa2b637194e04c9bc09","650c16f0f2faf8d7a0d14c09","651c1bb2897652dd74ce968d","null","null","<p style=""font-size: 60px; font-family: BACS"">YlCPBcMRl</p>","","","","","","","","","",""
"html-keyboard-response","261","327244","0.0-14.0-0.10","61548fa2b637194e04c9bc09","650c16f0f2faf8d7a0d14c09","651c1bb2897652dd74ce968d","null","null","<p style=""font-size: 60px; font-family: BACS"">aLNlkvJQ</p>","","","","","","","","","",""
"html-keyboard-response","262","328245","0.0-14.0-0.11","61548fa2b637194e04c9bc09","650c16f0f2faf8d7a0d14c09","651c1bb2897652dd74ce968d","null","null","<p style=""font-size: 60px; font-family: BACS"">DkTCPCkbd</p>","","","","","","","","","",""
"html-keyboard-response","263","329259","0.0-14.0-0.12","61548fa2b637194e04c9bc09","650c16f0f2faf8d7a0d14c09","651c1bb2897652dd74ce968d","null","null","<p style=""font-size: 60px; font-family: BACS"">GLYrAYmb</p>","","","","","","","","","",""
"html-keyboard-response","264","330276","0.0-14.0-0.13","61548fa2b637194e04c9bc09","650c16f0f2faf8d7a0d14c09","651c1bb2897652dd74ce968d","null","null","<p style=""font-size: 60px; font-family: BACS"">vAarmvG</p>","","","","","","","","","",""
"html-keyboard-response","265","331292","0.0-14.0-0.14","61548fa2b637194e04c9bc09","650c16f0f2faf8d7a0d14c09","651c1bb2897652dd74ce968d","null","null","<p style=""font-size: 60px; font-family: BACS"">MlthYbBT</p>","","","","","","","","","",""
"html-keyboard-response","266","332308","0.0-14.0-0.15","61548fa2b637194e04c9bc09","650c16f0f2faf8d7a0d14c09","651c1bb2897652dd74ce968d","null","null","<p style=""font-size: 60px; font-family: BACS"">GLYrAmvG</p>","","","","","","","","","",""
"html-keyboard-response","267","333325","0.0-14.0-0.16","61548fa2b637194e04c9bc09","650c16f0f2faf8d7a0d14c09","651c1bb2897652dd74ce968d","null","null","<p style=""font-size: 60px; font-family: BACS"">uQuZcLkNc</p>","","","","","","","","","",""
"html-keyboard-response","268","334341","0.0-14.0-0.17","61548fa2b637194e04c9bc09","650c16f0f2faf8d7a0d14c09","651c1bb2897652dd74ce968d","null","null","<p style=""font-size: 60px; font-family: BACS"">YlCPBbRC</p>","","","","","","","","","",""
"html-keyboard-response","269","335358","0.0-14.0-0.18","61548fa2b637194e04c9bc09","650c16f0f2faf8d7a0d14c09","651c1bb2897652dd74ce968d","null","null","<p style=""font-size: 60px; font-family: BACS"">kGamNvJQ</p>","","","","","","","","","",""
"html-keyboard-response","270","336374","0.0-14.0-0.19","61548fa2b637194e04c9bc09","650c16f0f2faf8d7a0d14c09","651c1bb2897652dd74ce968d","null","null","<p style=""font-size: 60px; font-family: BACS"">aLNlkYNu</p>","","","","","","","","","",""
"html-keyboard-response","271","337390","0.0-14.0-0.20","61548fa2b637194e04c9bc09","650c16f0f2faf8d7a0d14c09","651c1bb2897652dd74ce968d","null","null","<p style=""font-size: 60px; font-family: BACS"">YlCPBYBO</p>","","","","","","","","","",""
"html-keyboard-response","272","338391","0.0-14.0-0.21","61548fa2b637194e04c9bc09","650c16f0f2faf8d7a0d14c09","651c1bb2897652dd74ce968d","null","null","<p style=""font-size: 60px; font-family: BACS"">GLYrAvJQ</p>","","","","","","","","","",""
"html-keyboard-response","273","339406","0.0-14.0-0.22","61548fa2b637194e04c9bc09","650c16f0f2faf8d7a0d14c09","651c1bb2897652dd74ce968d","null","null","<p style=""font-size: 60px; font-family: BACS"">PMPtkcMRl</p>","","","","","","","","","",""
"html-keyboard-response","274","340422","0.0-14.0-0.23","61548fa2b637194e04c9bc09","650c16f0f2faf8d7a0d14c09","651c1bb2897652dd74ce968d","null","null","<p style=""font-size: 60px; font-family: BACS"">bvuZYNu</p>","","","","","","","","","",""
"html-keyboard-response","275","341439","0.0-14.0-0.24","61548fa2b637194e04c9bc09","650c16f0f2faf8d7a0d14c09","651c1bb2897652dd74ce968d","null","null","<p style=""font-size: 60px; font-family: BACS"">dYdAYbBT</p>","","","","","","","","","",""
"html-keyboard-response","276","342455","0.0-14.0-0.25","61548fa2b637194e04c9bc09","650c16f0f2faf8d7a0d14c09","651c1bb2897652dd74ce968d","null","null","<p style=""font-size: 60px; font-family: BACS"">UvOGYmb</p>","","","","","","","","","",""
"html-keyboard-response","277","343471","0.0-14.0-0.26","61548fa2b637194e04c9bc09","650c16f0f2faf8d7a0d14c09","651c1bb2897652dd74ce968d","null","null","<p style=""font-size: 60px; font-family: BACS"">YlCPBYbBT</p>","","","","","","","","","",""
"html-keyboard-response","278","344472","0.0-14.0-0.27","61548fa2b637194e04c9bc09","650c16f0f2faf8d7a0d14c09","651c1bb2897652dd74ce968d","null","null","<p style=""font-size: 60px; font-family: BACS"">MlthCkbd</p>","","","","","","","","","",""
"html-keyboard-response","279","345487","0.0-14.0-0.28","61548fa2b637194e04c9bc09","650c16f0f2faf8d7a0d14c09","651c1bb2897652dd74ce968d","null","null","<p style=""font-size: 60px; font-family: BACS"">krGuLkNc</p>","","","","","","","","","",""
"html-keyboard-response","280","346488","0.0-14.0-0.29","61548fa2b637194e04c9bc09","650c16f0f2faf8d7a0d14c09","651c1bb2897652dd74ce968d","null","null","<p style=""font-size: 60px; font-family: BACS"">UvOGmvG</p>","","","","","","","","","",""
"html-keyboard-response","281","347503","0.0-14.0-0.30","61548fa2b637194e04c9bc09","650c16f0f2faf8d7a0d14c09","651c1bb2897652dd74ce968d","null","null","<p style=""font-size: 60px; font-family: BACS"">TdmAbRC</p>","","","","","","","","","",""
"html-keyboard-response","282","348520","0.0-14.0-0.31","61548fa2b637194e04c9bc09","650c16f0f2faf8d7a0d14c09","651c1bb2897652dd74ce968d","null","null","<p style=""font-size: 60px; font-family: BACS"">PDPhlcMRl</p>","","","","","","","","","",""
"html-keyboard-response","283","349536","0.0-14.0-0.32","61548fa2b637194e04c9bc09","650c16f0f2faf8d7a0d14c09","651c1bb2897652dd74ce968d","null","null","<p style=""font-size: 60px; font-family: BACS"">UvOGLkNc</p>","","","","","","","","","",""
"html-keyboard-response","284","350552","0.0-14.0-0.33","61548fa2b637194e04c9bc09","650c16f0f2faf8d7a0d14c09","651c1bb2897652dd74ce968d","null","null","<p style=""font-size: 60px; font-family: BACS"">YdudmvG</p>","","","","","","","","","",""
"html-keyboard-response","285","351569","0.0-14.0-0.34","61548fa2b637194e04c9bc09","650c16f0f2faf8d7a0d14c09","651c1bb2897652dd74ce968d","null","null","<p style=""font-size: 60px; font-family: BACS"">bvuZYmb</p>","","","","","","","","","",""
"html-keyboard-response","286","352585","0.0-14.0-0.35","61548fa2b637194e04c9bc09","650c16f0f2faf8d7a0d14c09","651c1bb2897652dd74ce968d","null","null","<p style=""font-size: 60px; font-family: BACS"">chEDOCkbd</p>","","","","","","","","","",""
"html-keyboard-response","287","353601","0.0-14.0-0.36","61548fa2b637194e04c9bc09","650c16f0f2faf8d7a0d14c09","651c1bb2897652dd74ce968d","null","null","<p style=""font-size: 60px; font-family: BACS"">dYdAYBO</p>","","","","","","","","","",""
"html-keyboard-response","288","354618","0.0-14.0-0.37","61548fa2b637194e04c9bc09","650c16f0f2faf8d7a0d14c09","651c1bb2897652dd74ce968d","null","null","<p style=""font-size: 60px; font-family: BACS"">bvuZmvG</p>","","","","","","","","","",""
"html-keyboard-response","289","355634","0.0-14.0-0.38","61548fa2b637194e04c9bc09","650c16f0f2faf8d7a0d14c09","651c1bb2897652dd74ce968d","null","null","<p style=""font-size: 60px; font-family: BACS"">MkmEdCkbd</p>","","","","","","","","","",""
"html-keyboard-response","290","356650","0.0-14.0-0.39","61548fa2b637194e04c9bc09","650c16f0f2faf8d7a0d14c09","651c1bb2897652dd74ce968d","null","null","<p style=""font-size: 60px; font-family: BACS"">chEDOYBO</p>","","","","","","","","","",""
"html-keyboard-response","291","357667","0.0-14.0-0.40","61548fa2b637194e04c9bc09","650c16f0f2faf8d7a0d14c09","651c1bb2897652dd74ce968d","null","null","<p style=""font-size: 60px; font-family: BACS"">kGamNYmb</p>","","","","","","","","","",""
"html-keyboard-response","292","358683","0.0-14.0-0.41","61548fa2b637194e04c9bc09","650c16f0f2faf8d7a0d14c09","651c1bb2897652dd74ce968d","null","null","<p style=""font-size: 60px; font-family: BACS"">PMPtkYBO</p>","","","","","","","","","",""
"html-keyboard-response","293","359684","0.0-14.0-0.42","61548fa2b637194e04c9bc09","650c16f0f2faf8d7a0d14c09","651c1bb2897652dd74ce968d","null","null","<p style=""font-size: 60px; font-family: BACS"">krGuvJQ</p>","","","","","","","","","",""
"html-keyboard-response","294","360699","0.0-14.0-0.43","61548fa2b637194e04c9bc09","650c16f0f2faf8d7a0d14c09","651c1bb2897652dd74ce968d","null","null","<p style=""font-size: 60px; font-family: BACS"">dYdAbRC</p>","","","","","","","","","",""
"html-keyboard-response","295","361715","0.0-14.0-0.44","61548fa2b637194e04c9bc09","650c16f0f2faf8d7a0d14c09","651c1bb2897652dd74ce968d","null","null","<p style=""font-size: 60px; font-family: BACS"">vAarYmb</p>","","","","","","","","","",""
"html-keyboard-response","296","362732","0.0-14.0-0.45","61548fa2b637194e04c9bc09","650c16f0f2faf8d7a0d14c09","651c1bb2897652dd74ce968d","null","null","<p style=""font-size: 60px; font-family: BACS"">uQuZcYNu</p>","","","","","","","","","",""
"html-keyboard-response","297","363748","0.0-14.0-0.46","61548fa2b637194e04c9bc09","650c16f0f2faf8d7a0d14c09","651c1bb2897652dd74ce968d","null","null","<p style=""font-size: 60px; font-family: BACS"">aLNlkYmb</p>","","","","","","","","","",""
"html-keyboard-response","298","364764","0.0-14.0-0.47","61548fa2b637194e04c9bc09","650c16f0f2faf8d7a0d14c09","651c1bb2897652dd74ce968d","null","null","<p style=""font-size: 60px; font-family: BACS"">MlthcMRl</p>","","","","","","","","","",""
"html-keyboard-response","299","365780","0.0-14.0-0.48","61548fa2b637194e04c9bc09","650c16f0f2faf8d7a0d14c09","651c1bb2897652dd74ce968d","null","null","<p style=""font-size: 60px; font-family: BACS"">UvOGvJQ</p>","","","","","","","","","",""
"html-keyboard-response","300","366797","0.0-14.0-0.49","61548fa2b637194e04c9bc09","650c16f0f2faf8d7a0d14c09","651c1bb2897652dd74ce968d","null","null","<p style=""font-size: 60px; font-family: BACS"">PDPhlCkbd</p>","","","","","","","","","",""
"html-keyboard-response","301","367813","0.0-14.0-0.50","61548fa2b637194e04c9bc09","650c16f0f2faf8d7a0d14c09","651c1bb2897652dd74ce968d","null","null","<p style=""font-size: 60px; font-family: BACS"">YdudYNu</p>","","","","","","","","","",""
"html-keyboard-response","302","368829","0.0-14.0-0.51","61548fa2b637194e04c9bc09","650c16f0f2faf8d7a0d14c09","651c1bb2897652dd74ce968d","null","null","<p style=""font-size: 60px; font-family: BACS"">dYdACkbd</p>","","","","","","","","","",""
"html-keyboard-response","303","369846","0.0-14.0-0.52","61548fa2b637194e04c9bc09","650c16f0f2faf8d7a0d14c09","651c1bb2897652dd74ce968d","null","null","<p style=""font-size: 60px; font-family: BACS"">DkTCPcMRl</p>","","","","","","","","","",""
"html-keyboard-response","304","370847","0.0-14.0-0.53","61548fa2b637194e04c9bc09","650c16f0f2faf8d7a0d14c09","651c1bb2897652dd74ce968d","null","null","<p style=""font-size: 60px; font-family: BACS"">PDPhlYbBT</p>","","","","","","","","","",""
"html-keyboard-response","305","371862","0.0-14.0-0.54","61548fa2b637194e04c9bc09","650c16f0f2faf8d7a0d14c09","651c1bb2897652dd74ce968d","null","null","<p style=""font-size: 60px; font-family: BACS"">adYrcmvG</p>","","","","","","","","","",""
"html-keyboard-response","306","372878","0.0-14.0-0.55","61548fa2b637194e04c9bc09","650c16f0f2faf8d7a0d14c09","651c1bb2897652dd74ce968d","null","null","<p style=""font-size: 60px; font-family: BACS"">YdudvJQ</p>","","","","","","","","","",""
"html-keyboard-response","307","373895","0.0-14.0-0.56","61548fa2b637194e04c9bc09","650c16f0f2faf8d7a0d14c09","651c1bb2897652dd74ce968d","null","null","<p style=""font-size: 60px; font-family: BACS"">bcbMbRC</p>","","","","","","","","","",""
"html-keyboard-response","308","374911","0.0-14.0-0.57","61548fa2b637194e04c9bc09","650c16f0f2faf8d7a0d14c09","651c1bb2897652dd74ce968d","null","null","<p style=""font-size: 60px; font-family: BACS"">adYrcvJQ</p>","","","","","","","","","",""
"html-keyboard-response","309","375927","0.0-14.0-0.58","61548fa2b637194e04c9bc09","650c16f0f2faf8d7a0d14c09","651c1bb2897652dd74ce968d","null","null","<p style=""font-size: 60px; font-family: BACS"">TdmAYBO</p>","","","","","","","","","",""
"html-keyboard-response","310","376944","0.0-14.0-0.59","61548fa2b637194e04c9bc09","650c16f0f2faf8d7a0d14c09","651c1bb2897652dd74ce968d","null","null","<p style=""font-size: 60px; font-family: BACS"">bcbMcMRl</p>","","","","","","","","","",""
"html-keyboard-response","311","377960","0.0-14.0-0.60","61548fa2b637194e04c9bc09","650c16f0f2faf8d7a0d14c09","651c1bb2897652dd74ce968d","null","null","<p style=""font-size: 60px; font-family: BACS"">aLNlkmvG</p>","","","","","","","","","",""
"html-keyboard-response","312","378976","0.0-14.0-0.61","61548fa2b637194e04c9bc09","650c16f0f2faf8d7a0d14c09","651c1bb2897652dd74ce968d","null","null","<p style=""font-size: 60px; font-family: BACS"">kGamNLkNc</p>","","","","","","","","","",""
"html-keyboard-response","313","379992","0.0-14.0-0.62","61548fa2b637194e04c9bc09","650c16f0f2faf8d7a0d14c09","651c1bb2897652dd74ce968d","null","null","<p style=""font-size: 60px; font-family: BACS"">GLYrAYNu</p>","","","","","","","","","",""
"html-keyboard-response","314","381009","0.0-14.0-0.63","61548fa2b637194e04c9bc09","650c16f0f2faf8d7a0d14c09","651c1bb2897652dd74ce968d","null","null","<p style=""font-size: 60px; font-family: BACS"">TdmAcMRl</p>","","","","","","","","","",""
"html-keyboard-response","315","382025","0.0-14.0-0.64","61548fa2b637194e04c9bc09","650c16f0f2faf8d7a0d14c09","651c1bb2897652dd74ce968d","null","null","<p style=""font-size: 60px; font-family: BACS"">chEDOYbBT</p>","","","","","","","","","",""
"html-keyboard-response","316","383041","0.0-14.0-0.65","61548fa2b637194e04c9bc09","650c16f0f2faf8d7a0d14c09","651c1bb2897652dd74ce968d","null","null","<p style=""font-size: 60px; font-family: BACS"">adYrcYNu</p>","","","","","","","","","",""
"html-keyboard-response","317","384058","0.0-14.0-0.66","61548fa2b637194e04c9bc09","650c16f0f2faf8d7a0d14c09","651c1bb2897652dd74ce968d","null","null","<p style=""font-size: 60px; font-family: BACS"">krGumvG</p>","","","","","","","","","",""
"html-keyboard-response","318","385059","0.0-14.0-0.67","61548fa2b637194e04c9bc09","650c16f0f2faf8d7a0d14c09","651c1bb2897652dd74ce968d","null","null","<p style=""font-size: 60px; font-family: BACS"">vAarYNu</p>","","","","","","","","","",""
"html-keyboard-response","319","386074","0.0-14.0-0.68","61548fa2b637194e04c9bc09","650c16f0f2faf8d7a0d14c09","651c1bb2897652dd74ce968d","null","null","<p style=""font-size: 60px; font-family: BACS"">DkTCPYBO</p>","","","","","","","","","",""
"html-keyboard-response","320","387090","0.0-14.0-0.69","61548fa2b637194e04c9bc09","650c16f0f2faf8d7a0d14c09","651c1bb2897652dd74ce968d","null","null","<p style=""font-size: 60px; font-family: BACS"">YdudLkNc</p>","","","","","","","","","",""
"html-keyboard-response","321","388106","0.0-14.0-0.70","61548fa2b637194e04c9bc09","650c16f0f2faf8d7a0d14c09","651c1bb2897652dd74ce968d","null","null","<p style=""font-size: 60px; font-family: BACS"">MkmEdYbBT</p>","","","","","","","","","",""
"html-keyboard-response","322","389123","0.0-14.0-0.71","61548fa2b637194e04c9bc09","650c16f0f2faf8d7a0d14c09","651c1bb2897652dd74ce968d","null","null","<p style=""font-size: 60px; font-family: BACS"">krGuYmb</p>","","","","","","","","","",""
"html-keyboard-response","323","390139","0.0-14.0-0.72","61548fa2b637194e04c9bc09","650c16f0f2faf8d7a0d14c09","651c1bb2897652dd74ce968d","null","null","<p style=""font-size: 60px; font-family: BACS"">MkmEdYBO</p>","","","","","","","","","",""
"html-keyboard-response","324","391140","0.0-14.0-0.73","61548fa2b637194e04c9bc09","650c16f0f2faf8d7a0d14c09","651c1bb2897652dd74ce968d","null","null","<p style=""font-size: 60px; font-family: BACS"">bcbMYbBT</p>","","","","","","","","","",""
"html-keyboard-response","325","392155","0.0-14.0-0.74","61548fa2b637194e04c9bc09","650c16f0f2faf8d7a0d14c09","651c1bb2897652dd74ce968d","null","null","<p style=""font-size: 60px; font-family: BACS"">MkmEdbRC</p>","","","","","","","","","",""
"html-keyboard-response","326","393171","0.0-14.0-0.75","61548fa2b637194e04c9bc09","650c16f0f2faf8d7a0d14c09","651c1bb2897652dd74ce968d","null","null","<p style=""font-size: 60px; font-family: BACS"">bvuZLkNc</p>","","","","","","","","","",""
"html-keyboard-response","327","394188","0.0-14.0-0.76","61548fa2b637194e04c9bc09","650c16f0f2faf8d7a0d14c09","651c1bb2897652dd74ce968d","null","null","<p style=""font-size: 60px; font-family: BACS"">chEDOcMRl</p>","","","","","","","","","",""
"html-keyboard-response","328","395204","0.0-14.0-0.77","61548fa2b637194e04c9bc09","650c16f0f2faf8d7a0d14c09","651c1bb2897652dd74ce968d","null","null","<p style=""font-size: 60px; font-family: BACS"">bcbMCkbd</p>","","","","","","","","","",""
"html-keyboard-response","329","396220","0.0-14.0-0.78","61548fa2b637194e04c9bc09","650c16f0f2faf8d7a0d14c09","651c1bb2897652dd74ce968d","null","null","<p style=""font-size: 60px; font-family: BACS"">TdmAYbBT</p>","","","","","","","","","",""
"html-keyboard-response","330","397236","0.0-14.0-0.79","61548fa2b637194e04c9bc09","650c16f0f2faf8d7a0d14c09","651c1bb2897652dd74ce968d","null","null","<p style=""font-size: 60px; font-family: BACS"">adYrcLkNc</p>","","","","","","","","","",""
"html-keyboard-response","331","401997","0.0-15.0","61548fa2b637194e04c9bc09","650c16f0f2faf8d7a0d14c09","651c1bb2897652dd74ce968d","4760"," ","<p>Great, you've seen the fourth block of words. You may now take a short break.</p>
      <p>Press the spacebar when you're ready to continue.</p>","","","","","","","","","",""
"html-keyboard-response","332","403002","0.0-16.0-0.0","61548fa2b637194e04c9bc09","650c16f0f2faf8d7a0d14c09","651c1bb2897652dd74ce968d","null","null","<p style=""font-size: 60px; font-family: BACS"">MlthcMRl</p>","","","","","","","","","",""
"html-keyboard-response","333","404017","0.0-16.0-0.1","61548fa2b637194e04c9bc09","650c16f0f2faf8d7a0d14c09","651c1bb2897652dd74ce968d","null","null","<p style=""font-size: 60px; font-family: BACS"">MlthcMRl</p>","","","","","","","","","",""
"html-keyboard-response","334","405034","0.0-16.0-0.2","61548fa2b637194e04c9bc09","650c16f0f2faf8d7a0d14c09","651c1bb2897652dd74ce968d","null","null","<p style=""font-size: 60px; font-family: BACS"">MlthcMRl</p>","","","","","","","","","",""
"html-keyboard-response","335","406050","0.0-16.0-0.3","61548fa2b637194e04c9bc09","650c16f0f2faf8d7a0d14c09","651c1bb2897652dd74ce968d","null","null","<p style=""font-size: 60px; font-family: BACS"">MlthcMRl</p>","","","","","","","","","",""
"html-keyboard-response","336","407052","0.0-16.0-0.4","61548fa2b637194e04c9bc09","650c16f0f2faf8d7a0d14c09","651c1bb2897652dd74ce968d","null","null","<p style=""font-size: 60px; font-family: BACS"">MlthcMRl</p>","","","","","","","","","",""
"html-keyboard-response","337","408067","0.0-16.0-0.5","61548fa2b637194e04c9bc09","650c16f0f2faf8d7a0d14c09","651c1bb2897652dd74ce968d","null","null","<p style=""font-size: 60px; font-family: BACS"">MlthcMRl</p>","","","","","","","","","",""
"html-keyboard-response","338","409082","0.0-16.0-0.6","61548fa2b637194e04c9bc09","650c16f0f2faf8d7a0d14c09","651c1bb2897652dd74ce968d","null","null","<p style=""font-size: 60px; font-family: BACS"">MlthcMRl</p>","","","","","","","","","",""
"html-keyboard-response","339","410099","0.0-16.0-0.7","61548fa2b637194e04c9bc09","650c16f0f2faf8d7a0d14c09","651c1bb2897652dd74ce968d","null","null","<p style=""font-size: 60px; font-family: BACS"">MlthcMRl</p>","","","","","","","","","",""
"html-keyboard-response","340","411115","0.0-16.0-0.8","61548fa2b637194e04c9bc09","650c16f0f2faf8d7a0d14c09","651c1bb2897652dd74ce968d","null","null","<p style=""font-size: 60px; font-family: BACS"">MlthcMRl</p>","","","","","","","","","",""
"html-keyboard-response","341","412131","0.0-16.0-0.9","61548fa2b637194e04c9bc09","650c16f0f2faf8d7a0d14c09","651c1bb2897652dd74ce968d","null","null","<p style=""font-size: 60px; font-family: BACS"">MlthcMRl</p>","","","","","","","","","",""
"html-keyboard-response","342","413148","0.0-16.0-0.10","61548fa2b637194e04c9bc09","650c16f0f2faf8d7a0d14c09","651c1bb2897652dd74ce968d","null","null","<p style=""font-size: 60px; font-family: BACS"">MlthcMRl</p>","","","","","","","","","",""
"html-keyboard-response","343","414164","0.0-16.0-0.11","61548fa2b637194e04c9bc09","650c16f0f2faf8d7a0d14c09","651c1bb2897652dd74ce968d","null","null","<p style=""font-size: 60px; font-family: BACS"">MlthcMRl</p>","","","","","","","","","",""
"html-keyboard-response","344","415180","0.0-16.0-0.12","61548fa2b637194e04c9bc09","650c16f0f2faf8d7a0d14c09","651c1bb2897652dd74ce968d","null","null","<p style=""font-size: 60px; font-family: BACS"">MlthcMRl</p>","","","","","","","","","",""
"html-keyboard-response","345","416197","0.0-16.0-0.13","61548fa2b637194e04c9bc09","650c16f0f2faf8d7a0d14c09","651c1bb2897652dd74ce968d","null","null","<p style=""font-size: 60px; font-family: BACS"">MlthcMRl</p>","","","","","","","","","",""
"html-keyboard-response","346","417213","0.0-16.0-0.14","61548fa2b637194e04c9bc09","650c16f0f2faf8d7a0d14c09","651c1bb2897652dd74ce968d","null","null","<p style=""font-size: 60px; font-family: BACS"">MlthcMRl</p>","","","","","","","","","",""
"html-keyboard-response","347","418229","0.0-16.0-0.15","61548fa2b637194e04c9bc09","650c16f0f2faf8d7a0d14c09","651c1bb2897652dd74ce968d","null","null","<p style=""font-size: 60px; font-family: BACS"">MlthcMRl</p>","","","","","","","","","",""
"html-keyboard-response","348","419246","0.0-16.0-0.16","61548fa2b637194e04c9bc09","650c16f0f2faf8d7a0d14c09","651c1bb2897652dd74ce968d","null","null","<p style=""font-size: 60px; font-family: BACS"">MlthcMRl</p>","","","","","","","","","",""
"html-keyboard-response","349","420262","0.0-16.0-0.17","61548fa2b637194e04c9bc09","650c16f0f2faf8d7a0d14c09","651c1bb2897652dd74ce968d","null","null","<p style=""font-size: 60px; font-family: BACS"">MlthcMRl</p>","","","","","","","","","",""
"html-keyboard-response","350","421278","0.0-16.0-0.18","61548fa2b637194e04c9bc09","650c16f0f2faf8d7a0d14c09","651c1bb2897652dd74ce968d","null","null","<p style=""font-size: 60px; font-family: BACS"">MlthcMRl</p>","","","","","","","","","",""
"html-keyboard-response","351","422294","0.0-16.0-0.19","61548fa2b637194e04c9bc09","650c16f0f2faf8d7a0d14c09","651c1bb2897652dd74ce968d","null","null","<p style=""font-size: 60px; font-family: BACS"">MlthcMRl</p>","","","","","","","","","",""
"html-keyboard-response","352","423295","0.0-16.0-0.20","61548fa2b637194e04c9bc09","650c16f0f2faf8d7a0d14c09","651c1bb2897652dd74ce968d","null","null","<p style=""font-size: 60px; font-family: BACS"">MlthcMRl</p>","","","","","","","","","",""
"html-keyboard-response","353","424310","0.0-16.0-0.21","61548fa2b637194e04c9bc09","650c16f0f2faf8d7a0d14c09","651c1bb2897652dd74ce968d","null","null","<p style=""font-size: 60px; font-family: BACS"">MlthcMRl</p>","","","","","","","","","",""
"html-keyboard-response","354","425327","0.0-16.0-0.22","61548fa2b637194e04c9bc09","650c16f0f2faf8d7a0d14c09","651c1bb2897652dd74ce968d","null","null","<p style=""font-size: 60px; font-family: BACS"">MlthcMRl</p>","","","","","","","","","",""
"html-keyboard-response","355","426328","0.0-16.0-0.23","61548fa2b637194e04c9bc09","650c16f0f2faf8d7a0d14c09","651c1bb2897652dd74ce968d","null","null","<p style=""font-size: 60px; font-family: BACS"">MlthcMRl</p>","","","","","","","","","",""
"html-keyboard-response","356","427343","0.0-16.0-0.24","61548fa2b637194e04c9bc09","650c16f0f2faf8d7a0d14c09","651c1bb2897652dd74ce968d","null","null","<p style=""font-size: 60px; font-family: BACS"">MlthcMRl</p>","","","","","","","","","",""
"html-keyboard-response","357","428344","0.0-16.0-0.25","61548fa2b637194e04c9bc09","650c16f0f2faf8d7a0d14c09","651c1bb2897652dd74ce968d","null","null","<p style=""font-size: 60px; font-family: BACS"">MlthcMRl</p>","","","","","","","","","",""
"html-keyboard-response","358","429359","0.0-16.0-0.26","61548fa2b637194e04c9bc09","650c16f0f2faf8d7a0d14c09","651c1bb2897652dd74ce968d","null","null","<p style=""font-size: 60px; font-family: BACS"">MlthcMRl</p>","","","","","","","","","",""
"html-keyboard-response","359","430375","0.0-16.0-0.27","61548fa2b637194e04c9bc09","650c16f0f2faf8d7a0d14c09","651c1bb2897652dd74ce968d","null","null","<p style=""font-size: 60px; font-family: BACS"">MlthcMRl</p>","","","","","","","","","",""
"html-keyboard-response","360","431392","0.0-16.0-0.28","61548fa2b637194e04c9bc09","650c16f0f2faf8d7a0d14c09","651c1bb2897652dd74ce968d","null","null","<p style=""font-size: 60px; font-family: BACS"">MlthcMRl</p>","","","","","","","","","",""
"html-keyboard-response","361","432408","0.0-16.0-0.29","61548fa2b637194e04c9bc09","650c16f0f2faf8d7a0d14c09","651c1bb2897652dd74ce968d","null","null","<p style=""font-size: 60px; font-family: BACS"">MlthcMRl</p>","","","","","","","","","",""
"html-keyboard-response","362","433424","0.0-16.0-0.30","61548fa2b637194e04c9bc09","650c16f0f2faf8d7a0d14c09","651c1bb2897652dd74ce968d","null","null","<p style=""font-size: 60px; font-family: BACS"">MlthcMRl</p>","","","","","","","","","",""
"html-keyboard-response","363","434425","0.0-16.0-0.31","61548fa2b637194e04c9bc09","650c16f0f2faf8d7a0d14c09","651c1bb2897652dd74ce968d","null","null","<p style=""font-size: 60px; font-family: BACS"">MlthcMRl</p>","","","","","","","","","",""
"html-keyboard-response","364","435440","0.0-16.0-0.32","61548fa2b637194e04c9bc09","650c16f0f2faf8d7a0d14c09","651c1bb2897652dd74ce968d","null","null","<p style=""font-size: 60px; font-family: BACS"">MlthcMRl</p>","","","","","","","","","",""
"html-keyboard-response","365","436456","0.0-16.0-0.33","61548fa2b637194e04c9bc09","650c16f0f2faf8d7a0d14c09","651c1bb2897652dd74ce968d","null","null","<p style=""font-size: 60px; font-family: BACS"">MlthcMRl</p>","","","","","","","","","",""
"html-keyboard-response","366","437458","0.0-16.0-0.34","61548fa2b637194e04c9bc09","650c16f0f2faf8d7a0d14c09","651c1bb2897652dd74ce968d","null","null","<p style=""font-size: 60px; font-family: BACS"">MlthcMRl</p>","","","","","","","","","",""
"html-keyboard-response","367","438472","0.0-16.0-0.35","61548fa2b637194e04c9bc09","650c16f0f2faf8d7a0d14c09","651c1bb2897652dd74ce968d","null","null","<p style=""font-size: 60px; font-family: BACS"">MlthcMRl</p>","","","","","","","","","",""
"html-keyboard-response","368","439489","0.0-16.0-0.36","61548fa2b637194e04c9bc09","650c16f0f2faf8d7a0d14c09","651c1bb2897652dd74ce968d","null","null","<p style=""font-size: 60px; font-family: BACS"">MlthcMRl</p>","","","","","","","","","",""
"html-keyboard-response","369","440505","0.0-16.0-0.37","61548fa2b637194e04c9bc09","650c16f0f2faf8d7a0d14c09","651c1bb2897652dd74ce968d","null","null","<p style=""font-size: 60px; font-family: BACS"">MlthcMRl</p>","","","","","","","","","",""
"html-keyboard-response","370","441521","0.0-16.0-0.38","61548fa2b637194e04c9bc09","650c16f0f2faf8d7a0d14c09","651c1bb2897652dd74ce968d","null","null","<p style=""font-size: 60px; font-family: BACS"">MlthcMRl</p>","","","","","","","","","",""
"html-keyboard-response","371","442538","0.0-16.0-0.39","61548fa2b637194e04c9bc09","650c16f0f2faf8d7a0d14c09","651c1bb2897652dd74ce968d","null","null","<p style=""font-size: 60px; font-family: BACS"">MlthcMRl</p>","","","","","","","","","",""
"html-keyboard-response","372","443554","0.0-16.0-0.40","61548fa2b637194e04c9bc09","650c16f0f2faf8d7a0d14c09","651c1bb2897652dd74ce968d","null","null","<p style=""font-size: 60px; font-family: BACS"">MlthcMRl</p>","","","","","","","","","",""
"html-keyboard-response","373","444570","0.0-16.0-0.41","61548fa2b637194e04c9bc09","650c16f0f2faf8d7a0d14c09","651c1bb2897652dd74ce968d","null","null","<p style=""font-size: 60px; font-family: BACS"">MlthcMRl</p>","","","","","","","","","",""
"html-keyboard-response","374","445587","0.0-16.0-0.42","61548fa2b637194e04c9bc09","650c16f0f2faf8d7a0d14c09","651c1bb2897652dd74ce968d","null","null","<p style=""font-size: 60px; font-family: BACS"">MlthcMRl</p>","","","","","","","","","",""
"html-keyboard-response","375","446603","0.0-16.0-0.43","61548fa2b637194e04c9bc09","650c16f0f2faf8d7a0d14c09","651c1bb2897652dd74ce968d","null","null","<p style=""font-size: 60px; font-family: BACS"">MlthcMRl</p>","","","","","","","","","",""
"html-keyboard-response","376","447619","0.0-16.0-0.44","61548fa2b637194e04c9bc09","650c16f0f2faf8d7a0d14c09","651c1bb2897652dd74ce968d","null","null","<p style=""font-size: 60px; font-family: BACS"">MlthcMRl</p>","","","","","","","","","",""
"html-keyboard-response","377","448636","0.0-16.0-0.45","61548fa2b637194e04c9bc09","650c16f0f2faf8d7a0d14c09","651c1bb2897652dd74ce968d","null","null","<p style=""font-size: 60px; font-family: BACS"">MlthcMRl</p>","","","","","","","","","",""
"html-keyboard-response","378","449652","0.0-16.0-0.46","61548fa2b637194e04c9bc09","650c16f0f2faf8d7a0d14c09","651c1bb2897652dd74ce968d","null","null","<p style=""font-size: 60px; font-family: BACS"">MlthcMRl</p>","","","","","","","","","",""
"html-keyboard-response","379","450668","0.0-16.0-0.47","61548fa2b637194e04c9bc09","650c16f0f2faf8d7a0d14c09","651c1bb2897652dd74ce968d","null","null","<p style=""font-size: 60px; font-family: BACS"">MlthcMRl</p>","","","","","","","","","",""
"html-keyboard-response","380","451684","0.0-16.0-0.48","61548fa2b637194e04c9bc09","650c16f0f2faf8d7a0d14c09","651c1bb2897652dd74ce968d","null","null","<p style=""font-size: 60px; font-family: BACS"">MlthcMRl</p>","","","","","","","","","",""
"html-keyboard-response","381","452701","0.0-16.0-0.49","61548fa2b637194e04c9bc09","650c16f0f2faf8d7a0d14c09","651c1bb2897652dd74ce968d","null","null","<p style=""font-size: 60px; font-family: BACS"">MlthcMRl</p>","","","","","","","","","",""
"html-keyboard-response","382","453701","0.0-16.0-0.50","61548fa2b637194e04c9bc09","650c16f0f2faf8d7a0d14c09","651c1bb2897652dd74ce968d","null","null","<p style=""font-size: 60px; font-family: BACS"">MlthcMRl</p>","","","","","","","","","",""
"html-keyboard-response","383","454717","0.0-16.0-0.51","61548fa2b637194e04c9bc09","650c16f0f2faf8d7a0d14c09","651c1bb2897652dd74ce968d","null","null","<p style=""font-size: 60px; font-family: BACS"">MlthcMRl</p>","","","","","","","","","",""
"html-keyboard-response","384","455733","0.0-16.0-0.52","61548fa2b637194e04c9bc09","650c16f0f2faf8d7a0d14c09","651c1bb2897652dd74ce968d","null","null","<p style=""font-size: 60px; font-family: BACS"">MlthcMRl</p>","","","","","","","","","",""
"html-keyboard-response","385","456750","0.0-16.0-0.53","61548fa2b637194e04c9bc09","650c16f0f2faf8d7a0d14c09","651c1bb2897652dd74ce968d","null","null","<p style=""font-size: 60px; font-family: BACS"">MlthcMRl</p>","","","","","","","","","",""
"html-keyboard-response","386","457766","0.0-16.0-0.54","61548fa2b637194e04c9bc09","650c16f0f2faf8d7a0d14c09","651c1bb2897652dd74ce968d","null","null","<p style=""font-size: 60px; font-family: BACS"">MlthcMRl</p>","","","","","","","","","",""
"html-keyboard-response","387","458782","0.0-16.0-0.55","61548fa2b637194e04c9bc09","650c16f0f2faf8d7a0d14c09","651c1bb2897652dd74ce968d","null","null","<p style=""font-size: 60px; font-family: BACS"">MlthcMRl</p>","","","","","","","","","",""
"html-keyboard-response","388","459798","0.0-16.0-0.56","61548fa2b637194e04c9bc09","650c16f0f2faf8d7a0d14c09","651c1bb2897652dd74ce968d","null","null","<p style=""font-size: 60px; font-family: BACS"">MlthcMRl</p>","","","","","","","","","",""
"html-keyboard-response","389","460815","0.0-16.0-0.57","61548fa2b637194e04c9bc09","650c16f0f2faf8d7a0d14c09","651c1bb2897652dd74ce968d","null","null","<p style=""font-size: 60px; font-family: BACS"">MlthcMRl</p>","","","","","","","","","",""
"html-keyboard-response","390","461831","0.0-16.0-0.58","61548fa2b637194e04c9bc09","650c16f0f2faf8d7a0d14c09","651c1bb2897652dd74ce968d","null","null","<p style=""font-size: 60px; font-family: BACS"">MlthcMRl</p>","","","","","","","","","",""
"html-keyboard-response","391","462848","0.0-16.0-0.59","61548fa2b637194e04c9bc09","650c16f0f2faf8d7a0d14c09","651c1bb2897652dd74ce968d","null","null","<p style=""font-size: 60px; font-family: BACS"">MlthcMRl</p>","","","","","","","","","",""
"html-keyboard-response","392","463864","0.0-16.0-0.60","61548fa2b637194e04c9bc09","650c16f0f2faf8d7a0d14c09","651c1bb2897652dd74ce968d","null","null","<p style=""font-size: 60px; font-family: BACS"">MlthcMRl</p>","","","","","","","","","",""
"html-keyboard-response","393","464880","0.0-16.0-0.61","61548fa2b637194e04c9bc09","650c16f0f2faf8d7a0d14c09","651c1bb2897652dd74ce968d","null","null","<p style=""font-size: 60px; font-family: BACS"">MlthcMRl</p>","","","","","","","","","",""
