"trial_type","trial_index","time_elapsed","internal_node_id","subject_id","study_id","session_id","rt","response","stimulus","success","item","task","correct_response","testing_condition","correct","target","confound","name"
"pavlovia","0","776","0.0-0.0","5dab6e7d80e1780016d5bc9b","650c16f0f2faf8d7a0d14c09","651c0a65569882f3c1b0355b","","","","","","","","","","","",""
"survey-html-form","1","805952","0.0-1.0","5dab6e7d80e1780016d5bc9b","650c16f0f2faf8d7a0d14c09","651c0a65569882f3c1b0355b","805176","{""ID"":""5dab6e7d80e1780016d5bc9b""}","","","","","","","","","",""
"html-keyboard-response","2","811474","0.0-2.0","5dab6e7d80e1780016d5bc9b","650c16f0f2faf8d7a0d14c09","651c0a65569882f3c1b0355b","5522"," ","<p style=""font-size: 15px;"">Before beginning, we ask that you read the consent information and confirm your agreement to participate in the experiment.</p>
      <p style=""font-size: 15px;""> We ask that you remember that this is a research project and that your participation is entirely voluntary. You can stop your participation at any time, without needing to provide any explanation. The study we're asking you to participate in aims at examining how readers process written words. You will be engaged in a session of apprximately 20 minutes, followed by a brief questionnaire. You will have the opportunity to take a few breaks during the experiment. You will be paid £4 for your participation, corresponding to a rate of £8/hour. While this experiment looks at cognitive faculties, this experiment doesn't constitute clinical proof of eventual pathologies.</p>
      <p style=""font-size: 15px;"">All of the information collected thanks to yours and others' participation will be held in a secure password-protected server, and will not be shared with anyone not authorised to view it. Your personal information will be kept with an arbitrary participant ID. Thanks to this data anonymity process, any researcher analysing the data won't be able to track the information back to a specific participant. Therefore, this process will make identifying you impossibile, even when results from the study will be published in scientific reviews, presented at congresses, or at any other public forum. More generally, the collected data will be treated in accordance with the laws on privacy and conformity to the Legislative Degree n. 196 ""Code regarding the protection of personal data"" of the 30th of June 2003 and to the European Regulation 2016/670 (General Data Protection Regulation - GDPR). The Data Protection Officer is Avv. Valentina Carollo, who can be contacted at the following email addresses: <a href=""mailto:dpo@sissa.it"">dpo@sissa.it</a> or <a href=""mailto:rpd@sissa.it"">rpd@sissa.it</a> - PEC: <a href=""mailto:protocollo@pec.sissa.it"">protocollo@pec.sissa.it</a>.</p>
      <p style=""font-size: 15px;""> Before expressing your consent to participate, we would like to remind you again that in case you need explanations on any aspect of the experimental procedure, the researcher is at your disposition (<a href=""mailto:aliebelt@sissa.it"">aliebelt@sissa.it</a>, <a href=""mailto:davide.crepaldi@sissa.it"">davide.crepaldi@sissa.it</a>).</p>
      <p style=""font-size: 15px;"">If you would like to download the informed consent form, you can do so here: <a href=""BASL-Informed_Consent.pdf"" download>informed consent form</a>.</p>
      <p style=""font-size: 15px;"">We ask that you press the spacebar to proceed to the consent section.</p>","","","","","","","","",""
"survey-html-form","3","821350","0.0-3.0","5dab6e7d80e1780016d5bc9b","650c16f0f2faf8d7a0d14c09","651c0a65569882f3c1b0355b","9875","{""consent1"":""YES"",""consent2"":""YES"",""consent3"":""YES"",""consent4"":""YES"",""consent5"":""YES"",""consent6"":""YES""}","","","","","","","","","",""
"fullscreen","4","827173","0.0-4.0","5dab6e7d80e1780016d5bc9b","650c16f0f2faf8d7a0d14c09","651c0a65569882f3c1b0355b","","","","true","","","","","","","",""
"html-keyboard-response","5","901920","0.0-5.0","5dab6e7d80e1780016d5bc9b","650c16f0f2faf8d7a0d14c09","651c0a65569882f3c1b0355b","74746"," ","<p>Welcome, and thank you very much for your time!</p>
      <p>In this experiment, you'll be a language expert who's been asked to take a look at words that Earth has received in its first communication with aliens. Your task, in this first part of the experiment, is to pay close attention to the words you'll be shown; later, world leaders will ask you questions on what you saw. The words will be shown to you quite quickly; it seems that the aliens were in a hurry :-)</p>
      <p>Press the spacebar to continue.<p>","","","","","","","","",""
"html-keyboard-response","6","901972","0.0-6.0","5dab6e7d80e1780016d5bc9b","650c16f0f2faf8d7a0d14c09","651c0a65569882f3c1b0355b","null","null","<p style=""font-size: 120px; font-family: BACS""> </p>","","","","","","","","",""
"html-keyboard-response","7","908247","0.0-7.0","5dab6e7d80e1780016d5bc9b","650c16f0f2faf8d7a0d14c09","651c0a65569882f3c1b0355b","6274"," ","<p>Here is an example of the words you'll see:</p>
      <img src='esempio.png' height='400px'>
      <p>When you're ready to begin, press the spacebar.</p></div>","","","","","","","","",""
"html-keyboard-response","8","909249","0.0-8.0-0.0","5dab6e7d80e1780016d5bc9b","650c16f0f2faf8d7a0d14c09","651c0a65569882f3c1b0355b","null","null","<p style=""font-size: 60px; font-family: BACS"">mcOJkbu</p>","","","","","","","","",""
"html-keyboard-response","9","910260","0.0-8.0-0.1","5dab6e7d80e1780016d5bc9b","650c16f0f2faf8d7a0d14c09","651c0a65569882f3c1b0355b","null","null","<p style=""font-size: 60px; font-family: BACS"">DBPhcBbM</p>","","","","","","","","",""
"html-keyboard-response","10","911277","0.0-8.0-0.2","5dab6e7d80e1780016d5bc9b","650c16f0f2faf8d7a0d14c09","651c0a65569882f3c1b0355b","null","null","<p style=""font-size: 60px; font-family: BACS"">rLaZkmU</p>","","","","","","","","",""
"html-keyboard-response","11","912287","0.0-8.0-0.3","5dab6e7d80e1780016d5bc9b","650c16f0f2faf8d7a0d14c09","651c0a65569882f3c1b0355b","null","null","<p style=""font-size: 60px; font-family: BACS"">TEBKBCAd</p>","","","","","","","","",""
"html-keyboard-response","12","913289","0.0-8.0-0.4","5dab6e7d80e1780016d5bc9b","650c16f0f2faf8d7a0d14c09","651c0a65569882f3c1b0355b","null","null","<p style=""font-size: 60px; font-family: BACS"">YcdOkmU</p>","","","","","","","","",""
"html-keyboard-response","13","914296","0.0-8.0-0.5","5dab6e7d80e1780016d5bc9b","650c16f0f2faf8d7a0d14c09","651c0a65569882f3c1b0355b","null","null","<p style=""font-size: 60px; font-family: BACS"">PMPtkbRC</p>","","","","","","","","",""
"html-keyboard-response","14","915298","0.0-8.0-0.6","5dab6e7d80e1780016d5bc9b","650c16f0f2faf8d7a0d14c09","651c0a65569882f3c1b0355b","null","null","<p style=""font-size: 60px; font-family: BACS"">kKRCBCAd</p>","","","","","","","","",""
"html-keyboard-response","15","916303","0.0-8.0-0.7","5dab6e7d80e1780016d5bc9b","650c16f0f2faf8d7a0d14c09","651c0a65569882f3c1b0355b","null","null","<p style=""font-size: 60px; font-family: BACS"">JauQkmU</p>","","","","","","","","",""
"html-keyboard-response","16","917304","0.0-8.0-0.8","5dab6e7d80e1780016d5bc9b","650c16f0f2faf8d7a0d14c09","651c0a65569882f3c1b0355b","null","null","<p style=""font-size: 60px; font-family: BACS"">YcdOuda</p>","","","","","","","","",""
"html-keyboard-response","17","918306","0.0-8.0-0.9","5dab6e7d80e1780016d5bc9b","650c16f0f2faf8d7a0d14c09","651c0a65569882f3c1b0355b","null","null","<p style=""font-size: 60px; font-family: BACS"">vmuLlYmb</p>","","","","","","","","",""
"html-keyboard-response","18","919309","0.0-8.0-0.10","5dab6e7d80e1780016d5bc9b","650c16f0f2faf8d7a0d14c09","651c0a65569882f3c1b0355b","null","null","<p style=""font-size: 60px; font-family: BACS"">TEBKmKcD</p>","","","","","","","","",""
"html-keyboard-response","19","920311","0.0-8.0-0.11","5dab6e7d80e1780016d5bc9b","650c16f0f2faf8d7a0d14c09","651c0a65569882f3c1b0355b","null","null","<p style=""font-size: 60px; font-family: BACS"">JdGmkbu</p>","","","","","","","","",""
"html-keyboard-response","20","921320","0.0-8.0-0.12","5dab6e7d80e1780016d5bc9b","650c16f0f2faf8d7a0d14c09","651c0a65569882f3c1b0355b","null","null","<p style=""font-size: 60px; font-family: BACS"">htmhCbRC</p>","","","","","","","","",""
"html-keyboard-response","21","922322","0.0-8.0-0.13","5dab6e7d80e1780016d5bc9b","650c16f0f2faf8d7a0d14c09","651c0a65569882f3c1b0355b","null","null","<p style=""font-size: 60px; font-family: BACS"">ZdlOuda</p>","","","","","","","","",""
"html-keyboard-response","22","923334","0.0-8.0-0.14","5dab6e7d80e1780016d5bc9b","650c16f0f2faf8d7a0d14c09","651c0a65569882f3c1b0355b","null","null","<p style=""font-size: 60px; font-family: BACS"">YNrAmkbu</p>","","","","","","","","",""
"html-keyboard-response","23","924344","0.0-8.0-0.15","5dab6e7d80e1780016d5bc9b","650c16f0f2faf8d7a0d14c09","651c0a65569882f3c1b0355b","null","null","<p style=""font-size: 60px; font-family: BACS"">vmuLlbadk</p>","","","","","","","","",""
"html-keyboard-response","24","925346","0.0-8.0-0.16","5dab6e7d80e1780016d5bc9b","650c16f0f2faf8d7a0d14c09","651c0a65569882f3c1b0355b","null","null","<p style=""font-size: 60px; font-family: BACS"">kKRCbRC</p>","","","","","","","","",""
"html-keyboard-response","25","926348","0.0-8.0-0.17","5dab6e7d80e1780016d5bc9b","650c16f0f2faf8d7a0d14c09","651c0a65569882f3c1b0355b","null","null","<p style=""font-size: 60px; font-family: BACS"">kRCkOBCAd</p>","","","","","","","","",""
"html-keyboard-response","26","927365","0.0-8.0-0.18","5dab6e7d80e1780016d5bc9b","650c16f0f2faf8d7a0d14c09","651c0a65569882f3c1b0355b","null","null","<p style=""font-size: 60px; font-family: BACS"">rLaZbadk</p>","","","","","","","","",""
"html-keyboard-response","27","928366","0.0-8.0-0.19","5dab6e7d80e1780016d5bc9b","650c16f0f2faf8d7a0d14c09","651c0a65569882f3c1b0355b","null","null","<p style=""font-size: 60px; font-family: BACS"">vmuLlkmU</p>","","","","","","","","",""
"html-keyboard-response","28","929372","0.0-8.0-0.20","5dab6e7d80e1780016d5bc9b","650c16f0f2faf8d7a0d14c09","651c0a65569882f3c1b0355b","null","null","<p style=""font-size: 60px; font-family: BACS"">BECkBCAd</p>","","","","","","","","",""
"html-keyboard-response","29","930374","0.0-8.0-0.21","5dab6e7d80e1780016d5bc9b","650c16f0f2faf8d7a0d14c09","651c0a65569882f3c1b0355b","null","null","<p style=""font-size: 60px; font-family: BACS"">ZdlObadk</p>","","","","","","","","",""
"html-keyboard-response","30","931375","0.0-8.0-0.22","5dab6e7d80e1780016d5bc9b","650c16f0f2faf8d7a0d14c09","651c0a65569882f3c1b0355b","null","null","<p style=""font-size: 60px; font-family: BACS"">YcdOYmb</p>","","","","","","","","",""
"html-keyboard-response","31","932379","0.0-8.0-0.23","5dab6e7d80e1780016d5bc9b","650c16f0f2faf8d7a0d14c09","651c0a65569882f3c1b0355b","null","null","<p style=""font-size: 60px; font-family: BACS"">kRCkOBbM</p>","","","","","","","","",""
"html-keyboard-response","32","933381","0.0-8.0-0.24","5dab6e7d80e1780016d5bc9b","650c16f0f2faf8d7a0d14c09","651c0a65569882f3c1b0355b","null","null","<p style=""font-size: 60px; font-family: BACS"">JauQbadk</p>","","","","","","","","",""
"html-keyboard-response","33","934382","0.0-8.0-0.25","5dab6e7d80e1780016d5bc9b","650c16f0f2faf8d7a0d14c09","651c0a65569882f3c1b0355b","null","null","<p style=""font-size: 60px; font-family: BACS"">GJGcZkbu</p>","","","","","","","","",""
"html-keyboard-response","34","935385","0.0-8.0-0.26","5dab6e7d80e1780016d5bc9b","650c16f0f2faf8d7a0d14c09","651c0a65569882f3c1b0355b","null","null","<p style=""font-size: 60px; font-family: BACS"">JdGmYmb</p>","","","","","","","","",""
"html-keyboard-response","35","936400","0.0-8.0-0.27","5dab6e7d80e1780016d5bc9b","650c16f0f2faf8d7a0d14c09","651c0a65569882f3c1b0355b","null","null","<p style=""font-size: 60px; font-family: BACS"">rLaZuda</p>","","","","","","","","",""
"html-keyboard-response","36","937402","0.0-8.0-0.28","5dab6e7d80e1780016d5bc9b","650c16f0f2faf8d7a0d14c09","651c0a65569882f3c1b0355b","null","null","<p style=""font-size: 60px; font-family: BACS"">htmhCBCAd</p>","","","","","","","","",""
"html-keyboard-response","37","938404","0.0-8.0-0.29","5dab6e7d80e1780016d5bc9b","650c16f0f2faf8d7a0d14c09","651c0a65569882f3c1b0355b","null","null","<p style=""font-size: 60px; font-family: BACS"">dKRDbRC</p>","","","","","","","","",""
"html-keyboard-response","38","939411","0.0-8.0-0.30","5dab6e7d80e1780016d5bc9b","650c16f0f2faf8d7a0d14c09","651c0a65569882f3c1b0355b","null","null","<p style=""font-size: 60px; font-family: BACS"">JauQkbu</p>","","","","","","","","",""
"html-keyboard-response","39","940415","0.0-8.0-0.31","5dab6e7d80e1780016d5bc9b","650c16f0f2faf8d7a0d14c09","651c0a65569882f3c1b0355b","null","null","<p style=""font-size: 60px; font-family: BACS"">UvOGuda</p>","","","","","","","","",""
"html-keyboard-response","40","941416","0.0-8.0-0.32","5dab6e7d80e1780016d5bc9b","650c16f0f2faf8d7a0d14c09","651c0a65569882f3c1b0355b","null","null","<p style=""font-size: 60px; font-family: BACS"">cdKBYBbM</p>","","","","","","","","",""
"html-keyboard-response","41","942418","0.0-8.0-0.33","5dab6e7d80e1780016d5bc9b","650c16f0f2faf8d7a0d14c09","651c0a65569882f3c1b0355b","null","null","<p style=""font-size: 60px; font-family: BACS"">DBPhcmKcD</p>","","","","","","","","",""
"html-keyboard-response","42","943424","0.0-8.0-0.34","5dab6e7d80e1780016d5bc9b","650c16f0f2faf8d7a0d14c09","651c0a65569882f3c1b0355b","null","null","<p style=""font-size: 60px; font-family: BACS"">mcOJuda</p>","","","","","","","","",""
"html-keyboard-response","43","944425","0.0-8.0-0.35","5dab6e7d80e1780016d5bc9b","650c16f0f2faf8d7a0d14c09","651c0a65569882f3c1b0355b","null","null","<p style=""font-size: 60px; font-family: BACS"">vmuLlkbu</p>","","","","","","","","",""
"html-keyboard-response","44","945433","0.0-8.0-0.36","5dab6e7d80e1780016d5bc9b","650c16f0f2faf8d7a0d14c09","651c0a65569882f3c1b0355b","null","null","<p style=""font-size: 60px; font-family: BACS"">PMPtkBbM</p>","","","","","","","","",""
"html-keyboard-response","45","946444","0.0-8.0-0.37","5dab6e7d80e1780016d5bc9b","650c16f0f2faf8d7a0d14c09","651c0a65569882f3c1b0355b","null","null","<p style=""font-size: 60px; font-family: BACS"">BECkbRC</p>","","","","","","","","",""
"html-keyboard-response","46","947458","0.0-8.0-0.38","5dab6e7d80e1780016d5bc9b","650c16f0f2faf8d7a0d14c09","651c0a65569882f3c1b0355b","null","null","<p style=""font-size: 60px; font-family: BACS"">YNrAmYmb</p>","","","","","","","","",""
"html-keyboard-response","47","948465","0.0-8.0-0.39","5dab6e7d80e1780016d5bc9b","650c16f0f2faf8d7a0d14c09","651c0a65569882f3c1b0355b","null","null","<p style=""font-size: 60px; font-family: BACS"">dKRDBbM</p>","","","","","","","","",""
"html-keyboard-response","48","949477","0.0-8.0-0.40","5dab6e7d80e1780016d5bc9b","650c16f0f2faf8d7a0d14c09","651c0a65569882f3c1b0355b","null","null","<p style=""font-size: 60px; font-family: BACS"">htmhCmKcD</p>","","","","","","","","",""
"html-keyboard-response","49","950482","0.0-8.0-0.41","5dab6e7d80e1780016d5bc9b","650c16f0f2faf8d7a0d14c09","651c0a65569882f3c1b0355b","null","null","<p style=""font-size: 60px; font-family: BACS"">UvOGYmb</p>","","","","","","","","",""
"html-keyboard-response","50","951490","0.0-8.0-0.42","5dab6e7d80e1780016d5bc9b","650c16f0f2faf8d7a0d14c09","651c0a65569882f3c1b0355b","null","null","<p style=""font-size: 60px; font-family: BACS"">PMPtkEKBO</p>","","","","","","","","",""
"html-keyboard-response","51","952492","0.0-8.0-0.43","5dab6e7d80e1780016d5bc9b","650c16f0f2faf8d7a0d14c09","651c0a65569882f3c1b0355b","null","null","<p style=""font-size: 60px; font-family: BACS"">GJGcZbadk</p>","","","","","","","","",""
"html-keyboard-response","52","953493","0.0-8.0-0.44","5dab6e7d80e1780016d5bc9b","650c16f0f2faf8d7a0d14c09","651c0a65569882f3c1b0355b","null","null","<p style=""font-size: 60px; font-family: BACS"">kKRCEKBO</p>","","","","","","","","",""
"html-keyboard-response","53","954494","0.0-8.0-0.45","5dab6e7d80e1780016d5bc9b","650c16f0f2faf8d7a0d14c09","651c0a65569882f3c1b0355b","null","null","<p style=""font-size: 60px; font-family: BACS"">rLaZYmb</p>","","","","","","","","",""
"html-keyboard-response","54","955495","0.0-8.0-0.46","5dab6e7d80e1780016d5bc9b","650c16f0f2faf8d7a0d14c09","651c0a65569882f3c1b0355b","null","null","<p style=""font-size: 60px; font-family: BACS"">dKRDmKcD</p>","","","","","","","","",""
"html-keyboard-response","55","956496","0.0-8.0-0.47","5dab6e7d80e1780016d5bc9b","650c16f0f2faf8d7a0d14c09","651c0a65569882f3c1b0355b","null","null","<p style=""font-size: 60px; font-family: BACS"">JauQuda</p>","","","","","","","","",""
"html-keyboard-response","56","957497","0.0-8.0-0.48","5dab6e7d80e1780016d5bc9b","650c16f0f2faf8d7a0d14c09","651c0a65569882f3c1b0355b","null","null","<p style=""font-size: 60px; font-family: BACS"">BOckPEKBO</p>","","","","","","","","",""
"html-keyboard-response","57","958499","0.0-8.0-0.49","5dab6e7d80e1780016d5bc9b","650c16f0f2faf8d7a0d14c09","651c0a65569882f3c1b0355b","null","null","<p style=""font-size: 60px; font-family: BACS"">YNrAmbadk</p>","","","","","","","","",""
"html-keyboard-response","58","959505","0.0-8.0-0.50","5dab6e7d80e1780016d5bc9b","650c16f0f2faf8d7a0d14c09","651c0a65569882f3c1b0355b","null","null","<p style=""font-size: 60px; font-family: BACS"">JdGmkmU</p>","","","","","","","","",""
"html-keyboard-response","59","960506","0.0-8.0-0.51","5dab6e7d80e1780016d5bc9b","650c16f0f2faf8d7a0d14c09","651c0a65569882f3c1b0355b","null","null","<p style=""font-size: 60px; font-family: BACS"">htmhCBbM</p>","","","","","","","","",""
"html-keyboard-response","60","961508","0.0-8.0-0.52","5dab6e7d80e1780016d5bc9b","650c16f0f2faf8d7a0d14c09","651c0a65569882f3c1b0355b","null","null","<p style=""font-size: 60px; font-family: BACS"">mcOJYmb</p>","","","","","","","","",""
"html-keyboard-response","61","962509","0.0-8.0-0.53","5dab6e7d80e1780016d5bc9b","650c16f0f2faf8d7a0d14c09","651c0a65569882f3c1b0355b","null","null","<p style=""font-size: 60px; font-family: BACS"">ZdlOkbu</p>","","","","","","","","",""
"html-keyboard-response","62","963520","0.0-8.0-0.54","5dab6e7d80e1780016d5bc9b","650c16f0f2faf8d7a0d14c09","651c0a65569882f3c1b0355b","null","null","<p style=""font-size: 60px; font-family: BACS"">DBPhcEKBO</p>","","","","","","","","",""
"html-keyboard-response","63","964521","0.0-8.0-0.55","5dab6e7d80e1780016d5bc9b","650c16f0f2faf8d7a0d14c09","651c0a65569882f3c1b0355b","null","null","<p style=""font-size: 60px; font-family: BACS"">GJGcZkmU</p>","","","","","","","","",""
"html-keyboard-response","64","965526","0.0-8.0-0.56","5dab6e7d80e1780016d5bc9b","650c16f0f2faf8d7a0d14c09","651c0a65569882f3c1b0355b","null","null","<p style=""font-size: 60px; font-family: BACS"">YNrAmuda</p>","","","","","","","","",""
"html-keyboard-response","65","966542","0.0-8.0-0.57","5dab6e7d80e1780016d5bc9b","650c16f0f2faf8d7a0d14c09","651c0a65569882f3c1b0355b","null","null","<p style=""font-size: 60px; font-family: BACS"">BECkEKBO</p>","","","","","","","","",""
"html-keyboard-response","66","967544","0.0-8.0-0.58","5dab6e7d80e1780016d5bc9b","650c16f0f2faf8d7a0d14c09","651c0a65569882f3c1b0355b","null","null","<p style=""font-size: 60px; font-family: BACS"">UvOGkbu</p>","","","","","","","","",""
"html-keyboard-response","67","968546","0.0-8.0-0.59","5dab6e7d80e1780016d5bc9b","650c16f0f2faf8d7a0d14c09","651c0a65569882f3c1b0355b","null","null","<p style=""font-size: 60px; font-family: BACS"">BECkmKcD</p>","","","","","","","","",""
"html-keyboard-response","68","969547","0.0-8.0-0.60","5dab6e7d80e1780016d5bc9b","650c16f0f2faf8d7a0d14c09","651c0a65569882f3c1b0355b","null","null","<p style=""font-size: 60px; font-family: BACS"">YcdObadk</p>","","","","","","","","",""
"html-keyboard-response","69","970551","0.0-8.0-0.61","5dab6e7d80e1780016d5bc9b","650c16f0f2faf8d7a0d14c09","651c0a65569882f3c1b0355b","null","null","<p style=""font-size: 60px; font-family: BACS"">kKRCmKcD</p>","","","","","","","","",""
"html-keyboard-response","70","971553","0.0-8.0-0.62","5dab6e7d80e1780016d5bc9b","650c16f0f2faf8d7a0d14c09","651c0a65569882f3c1b0355b","null","null","<p style=""font-size: 60px; font-family: BACS"">kRCkOEKBO</p>","","","","","","","","",""
"html-keyboard-response","71","972560","0.0-8.0-0.63","5dab6e7d80e1780016d5bc9b","650c16f0f2faf8d7a0d14c09","651c0a65569882f3c1b0355b","null","null","<p style=""font-size: 60px; font-family: BACS"">JdGmbadk</p>","","","","","","","","",""
"html-keyboard-response","72","973571","0.0-8.0-0.64","5dab6e7d80e1780016d5bc9b","650c16f0f2faf8d7a0d14c09","651c0a65569882f3c1b0355b","null","null","<p style=""font-size: 60px; font-family: BACS"">cdKBYbRC</p>","","","","","","","","",""
"html-keyboard-response","73","974580","0.0-8.0-0.65","5dab6e7d80e1780016d5bc9b","650c16f0f2faf8d7a0d14c09","651c0a65569882f3c1b0355b","null","null","<p style=""font-size: 60px; font-family: BACS"">GJGcZuda</p>","","","","","","","","",""
"html-keyboard-response","74","975582","0.0-8.0-0.66","5dab6e7d80e1780016d5bc9b","650c16f0f2faf8d7a0d14c09","651c0a65569882f3c1b0355b","null","null","<p style=""font-size: 60px; font-family: BACS"">BOckPbRC</p>","","","","","","","","",""
"html-keyboard-response","75","976583","0.0-8.0-0.67","5dab6e7d80e1780016d5bc9b","650c16f0f2faf8d7a0d14c09","651c0a65569882f3c1b0355b","null","null","<p style=""font-size: 60px; font-family: BACS"">TEBKEKBO</p>","","","","","","","","",""
"html-keyboard-response","76","977598","0.0-8.0-0.68","5dab6e7d80e1780016d5bc9b","650c16f0f2faf8d7a0d14c09","651c0a65569882f3c1b0355b","null","null","<p style=""font-size: 60px; font-family: BACS"">ZdlOYmb</p>","","","","","","","","",""
"html-keyboard-response","77","978602","0.0-8.0-0.69","5dab6e7d80e1780016d5bc9b","650c16f0f2faf8d7a0d14c09","651c0a65569882f3c1b0355b","null","null","<p style=""font-size: 60px; font-family: BACS"">PMPtkBCAd</p>","","","","","","","","",""
"html-keyboard-response","78","979604","0.0-8.0-0.70","5dab6e7d80e1780016d5bc9b","650c16f0f2faf8d7a0d14c09","651c0a65569882f3c1b0355b","null","null","<p style=""font-size: 60px; font-family: BACS"">mcOJkmU</p>","","","","","","","","",""
"html-keyboard-response","79","980606","0.0-8.0-0.71","5dab6e7d80e1780016d5bc9b","650c16f0f2faf8d7a0d14c09","651c0a65569882f3c1b0355b","null","null","<p style=""font-size: 60px; font-family: BACS"">TEBKBbM</p>","","","","","","","","",""
"html-keyboard-response","80","981619","0.0-8.0-0.72","5dab6e7d80e1780016d5bc9b","650c16f0f2faf8d7a0d14c09","651c0a65569882f3c1b0355b","null","null","<p style=""font-size: 60px; font-family: BACS"">dKRDBCAd</p>","","","","","","","","",""
"html-keyboard-response","81","982621","0.0-8.0-0.73","5dab6e7d80e1780016d5bc9b","650c16f0f2faf8d7a0d14c09","651c0a65569882f3c1b0355b","null","null","<p style=""font-size: 60px; font-family: BACS"">UvOGkmU</p>","","","","","","","","",""
"html-keyboard-response","82","983633","0.0-8.0-0.74","5dab6e7d80e1780016d5bc9b","650c16f0f2faf8d7a0d14c09","651c0a65569882f3c1b0355b","null","null","<p style=""font-size: 60px; font-family: BACS"">BOckPBbM</p>","","","","","","","","",""
"html-keyboard-response","83","984644","0.0-8.0-0.75","5dab6e7d80e1780016d5bc9b","650c16f0f2faf8d7a0d14c09","651c0a65569882f3c1b0355b","null","null","<p style=""font-size: 60px; font-family: BACS"">kRCkOmKcD</p>","","","","","","","","",""
"html-keyboard-response","84","985655","0.0-8.0-0.76","5dab6e7d80e1780016d5bc9b","650c16f0f2faf8d7a0d14c09","651c0a65569882f3c1b0355b","null","null","<p style=""font-size: 60px; font-family: BACS"">DBPhcbRC</p>","","","","","","","","",""
"html-keyboard-response","85","986664","0.0-8.0-0.77","5dab6e7d80e1780016d5bc9b","650c16f0f2faf8d7a0d14c09","651c0a65569882f3c1b0355b","null","null","<p style=""font-size: 60px; font-family: BACS"">cdKBYEKBO</p>","","","","","","","","",""
"html-keyboard-response","86","987675","0.0-8.0-0.78","5dab6e7d80e1780016d5bc9b","650c16f0f2faf8d7a0d14c09","651c0a65569882f3c1b0355b","null","null","<p style=""font-size: 60px; font-family: BACS"">BOckPmKcD</p>","","","","","","","","",""
"html-keyboard-response","87","988676","0.0-8.0-0.79","5dab6e7d80e1780016d5bc9b","650c16f0f2faf8d7a0d14c09","651c0a65569882f3c1b0355b","null","null","<p style=""font-size: 60px; font-family: BACS"">cdKBYBCAd</p>","","","","","","","","",""
"html-keyboard-response","88","1004953","0.0-9.0","5dab6e7d80e1780016d5bc9b","650c16f0f2faf8d7a0d14c09","651c0a65569882f3c1b0355b","16276"," ","<p>Great, you've seen the first block of words. You may now take a short break.</p>
      <p>Press the spacebar when you're ready to continue.</p>","","","","","","","","",""
"html-keyboard-response","89","1005968","0.0-10.0-0.0","5dab6e7d80e1780016d5bc9b","650c16f0f2faf8d7a0d14c09","651c0a65569882f3c1b0355b","null","null","<p style=""font-size: 60px; font-family: BACS"">rLaZbadk</p>","","","","","","","","",""
"html-keyboard-response","90","1006978","0.0-10.0-0.1","5dab6e7d80e1780016d5bc9b","650c16f0f2faf8d7a0d14c09","651c0a65569882f3c1b0355b","null","null","<p style=""font-size: 60px; font-family: BACS"">YcdOuda</p>","","","","","","","","",""
"html-keyboard-response","91","1007992","0.0-10.0-0.2","5dab6e7d80e1780016d5bc9b","650c16f0f2faf8d7a0d14c09","651c0a65569882f3c1b0355b","null","null","<p style=""font-size: 60px; font-family: BACS"">vmuLlkbu</p>","","","","","","","","",""
"html-keyboard-response","92","1008995","0.0-10.0-0.3","5dab6e7d80e1780016d5bc9b","650c16f0f2faf8d7a0d14c09","651c0a65569882f3c1b0355b","null","null","<p style=""font-size: 60px; font-family: BACS"">BECkBCAd</p>","","","","","","","","",""
"html-keyboard-response","93","1009997","0.0-10.0-0.4","5dab6e7d80e1780016d5bc9b","650c16f0f2faf8d7a0d14c09","651c0a65569882f3c1b0355b","null","null","<p style=""font-size: 60px; font-family: BACS"">PMPtkbRC</p>","","","","","","","","",""
"html-keyboard-response","94","1011000","0.0-10.0-0.5","5dab6e7d80e1780016d5bc9b","650c16f0f2faf8d7a0d14c09","651c0a65569882f3c1b0355b","null","null","<p style=""font-size: 60px; font-family: BACS"">JdGmYmb</p>","","","","","","","","",""
"html-keyboard-response","95","1012001","0.0-10.0-0.6","5dab6e7d80e1780016d5bc9b","650c16f0f2faf8d7a0d14c09","651c0a65569882f3c1b0355b","null","null","<p style=""font-size: 60px; font-family: BACS"">mcOJuda</p>","","","","","","","","",""
"html-keyboard-response","96","1013005","0.0-10.0-0.7","5dab6e7d80e1780016d5bc9b","650c16f0f2faf8d7a0d14c09","651c0a65569882f3c1b0355b","null","null","<p style=""font-size: 60px; font-family: BACS"">vmuLlYmb</p>","","","","","","","","",""
"html-keyboard-response","97","1014011","0.0-10.0-0.8","5dab6e7d80e1780016d5bc9b","650c16f0f2faf8d7a0d14c09","651c0a65569882f3c1b0355b","null","null","<p style=""font-size: 60px; font-family: BACS"">GJGcZkbu</p>","","","","","","","","",""
"html-keyboard-response","98","1015015","0.0-10.0-0.9","5dab6e7d80e1780016d5bc9b","650c16f0f2faf8d7a0d14c09","651c0a65569882f3c1b0355b","null","null","<p style=""font-size: 60px; font-family: BACS"">kKRCBCAd</p>","","","","","","","","",""
"html-keyboard-response","99","1016029","0.0-10.0-0.10","5dab6e7d80e1780016d5bc9b","650c16f0f2faf8d7a0d14c09","651c0a65569882f3c1b0355b","null","null","<p style=""font-size: 60px; font-family: BACS"">JauQbadk</p>","","","","","","","","",""
"html-keyboard-response","100","1017036","0.0-10.0-0.11","5dab6e7d80e1780016d5bc9b","650c16f0f2faf8d7a0d14c09","651c0a65569882f3c1b0355b","null","null","<p style=""font-size: 60px; font-family: BACS"">vmuLlkmU</p>","","","","","","","","",""
"html-keyboard-response","101","1018047","0.0-10.0-0.12","5dab6e7d80e1780016d5bc9b","650c16f0f2faf8d7a0d14c09","651c0a65569882f3c1b0355b","null","null","<p style=""font-size: 60px; font-family: BACS"">ZdlOkbu</p>","","","","","","","","",""
"html-keyboard-response","102","1019055","0.0-10.0-0.13","5dab6e7d80e1780016d5bc9b","650c16f0f2faf8d7a0d14c09","651c0a65569882f3c1b0355b","null","null","<p style=""font-size: 60px; font-family: BACS"">rLaZkmU</p>","","","","","","","","",""
"html-keyboard-response","103","1020065","0.0-10.0-0.14","5dab6e7d80e1780016d5bc9b","650c16f0f2faf8d7a0d14c09","651c0a65569882f3c1b0355b","null","null","<p style=""font-size: 60px; font-family: BACS"">YNrAmkbu</p>","","","","","","","","",""
"html-keyboard-response","104","1021077","0.0-10.0-0.15","5dab6e7d80e1780016d5bc9b","650c16f0f2faf8d7a0d14c09","651c0a65569882f3c1b0355b","null","null","<p style=""font-size: 60px; font-family: BACS"">YcdOYmb</p>","","","","","","","","",""
"html-keyboard-response","105","1022090","0.0-10.0-0.16","5dab6e7d80e1780016d5bc9b","650c16f0f2faf8d7a0d14c09","651c0a65569882f3c1b0355b","null","null","<p style=""font-size: 60px; font-family: BACS"">dKRDBCAd</p>","","","","","","","","",""
"html-keyboard-response","106","1023099","0.0-10.0-0.17","5dab6e7d80e1780016d5bc9b","650c16f0f2faf8d7a0d14c09","651c0a65569882f3c1b0355b","null","null","<p style=""font-size: 60px; font-family: BACS"">kRCkOmKcD</p>","","","","","","","","",""
"html-keyboard-response","107","1024110","0.0-10.0-0.18","5dab6e7d80e1780016d5bc9b","650c16f0f2faf8d7a0d14c09","651c0a65569882f3c1b0355b","null","null","<p style=""font-size: 60px; font-family: BACS"">UvOGkbu</p>","","","","","","","","",""
"html-keyboard-response","108","1025124","0.0-10.0-0.19","5dab6e7d80e1780016d5bc9b","650c16f0f2faf8d7a0d14c09","651c0a65569882f3c1b0355b","null","null","<p style=""font-size: 60px; font-family: BACS"">TEBKmKcD</p>","","","","","","","","",""
"html-keyboard-response","109","1026136","0.0-10.0-0.20","5dab6e7d80e1780016d5bc9b","650c16f0f2faf8d7a0d14c09","651c0a65569882f3c1b0355b","null","null","<p style=""font-size: 60px; font-family: BACS"">dKRDbRC</p>","","","","","","","","",""
"html-keyboard-response","110","1027148","0.0-10.0-0.21","5dab6e7d80e1780016d5bc9b","650c16f0f2faf8d7a0d14c09","651c0a65569882f3c1b0355b","null","null","<p style=""font-size: 60px; font-family: BACS"">rLaZYmb</p>","","","","","","","","",""
"html-keyboard-response","111","1028157","0.0-10.0-0.22","5dab6e7d80e1780016d5bc9b","650c16f0f2faf8d7a0d14c09","651c0a65569882f3c1b0355b","null","null","<p style=""font-size: 60px; font-family: BACS"">YcdObadk</p>","","","","","","","","",""
"html-keyboard-response","112","1029166","0.0-10.0-0.23","5dab6e7d80e1780016d5bc9b","650c16f0f2faf8d7a0d14c09","651c0a65569882f3c1b0355b","null","null","<p style=""font-size: 60px; font-family: BACS"">YNrAmuda</p>","","","","","","","","",""
"html-keyboard-response","113","1030176","0.0-10.0-0.24","5dab6e7d80e1780016d5bc9b","650c16f0f2faf8d7a0d14c09","651c0a65569882f3c1b0355b","null","null","<p style=""font-size: 60px; font-family: BACS"">BOckPEKBO</p>","","","","","","","","",""
"html-keyboard-response","114","1031186","0.0-10.0-0.25","5dab6e7d80e1780016d5bc9b","650c16f0f2faf8d7a0d14c09","651c0a65569882f3c1b0355b","null","null","<p style=""font-size: 60px; font-family: BACS"">htmhCbRC</p>","","","","","","","","",""
"html-keyboard-response","115","1032201","0.0-10.0-0.26","5dab6e7d80e1780016d5bc9b","650c16f0f2faf8d7a0d14c09","651c0a65569882f3c1b0355b","null","null","<p style=""font-size: 60px; font-family: BACS"">UvOGkmU</p>","","","","","","","","",""
"html-keyboard-response","116","1033215","0.0-10.0-0.27","5dab6e7d80e1780016d5bc9b","650c16f0f2faf8d7a0d14c09","651c0a65569882f3c1b0355b","null","null","<p style=""font-size: 60px; font-family: BACS"">kRCkOBbM</p>","","","","","","","","",""
"html-keyboard-response","117","1034218","0.0-10.0-0.28","5dab6e7d80e1780016d5bc9b","650c16f0f2faf8d7a0d14c09","651c0a65569882f3c1b0355b","null","null","<p style=""font-size: 60px; font-family: BACS"">JauQkmU</p>","","","","","","","","",""
"html-keyboard-response","118","1035220","0.0-10.0-0.29","5dab6e7d80e1780016d5bc9b","650c16f0f2faf8d7a0d14c09","651c0a65569882f3c1b0355b","null","null","<p style=""font-size: 60px; font-family: BACS"">cdKBYbRC</p>","","","","","","","","",""
"html-keyboard-response","119","1036233","0.0-10.0-0.30","5dab6e7d80e1780016d5bc9b","650c16f0f2faf8d7a0d14c09","651c0a65569882f3c1b0355b","null","null","<p style=""font-size: 60px; font-family: BACS"">GJGcZbadk</p>","","","","","","","","",""
"html-keyboard-response","120","1037234","0.0-10.0-0.31","5dab6e7d80e1780016d5bc9b","650c16f0f2faf8d7a0d14c09","651c0a65569882f3c1b0355b","null","null","<p style=""font-size: 60px; font-family: BACS"">TEBKBbM</p>","","","","","","","","",""
"html-keyboard-response","121","1038236","0.0-10.0-0.32","5dab6e7d80e1780016d5bc9b","650c16f0f2faf8d7a0d14c09","651c0a65569882f3c1b0355b","null","null","<p style=""font-size: 60px; font-family: BACS"">mcOJkmU</p>","","","","","","","","",""
"html-keyboard-response","122","1039236","0.0-10.0-0.33","5dab6e7d80e1780016d5bc9b","650c16f0f2faf8d7a0d14c09","651c0a65569882f3c1b0355b","null","null","<p style=""font-size: 60px; font-family: BACS"">BOckPBbM</p>","","","","","","","","",""
"html-keyboard-response","123","1040237","0.0-10.0-0.34","5dab6e7d80e1780016d5bc9b","650c16f0f2faf8d7a0d14c09","651c0a65569882f3c1b0355b","null","null","<p style=""font-size: 60px; font-family: BACS"">JdGmkmU</p>","","","","","","","","",""
"html-keyboard-response","124","1041238","0.0-10.0-0.35","5dab6e7d80e1780016d5bc9b","650c16f0f2faf8d7a0d14c09","651c0a65569882f3c1b0355b","null","null","<p style=""font-size: 60px; font-family: BACS"">YNrAmbadk</p>","","","","","","","","",""
"html-keyboard-response","125","1042240","0.0-10.0-0.36","5dab6e7d80e1780016d5bc9b","650c16f0f2faf8d7a0d14c09","651c0a65569882f3c1b0355b","null","null","<p style=""font-size: 60px; font-family: BACS"">htmhCBCAd</p>","","","","","","","","",""
"html-keyboard-response","126","1043241","0.0-10.0-0.37","5dab6e7d80e1780016d5bc9b","650c16f0f2faf8d7a0d14c09","651c0a65569882f3c1b0355b","null","null","<p style=""font-size: 60px; font-family: BACS"">DBPhcEKBO</p>","","","","","","","","",""
"html-keyboard-response","127","1044243","0.0-10.0-0.38","5dab6e7d80e1780016d5bc9b","650c16f0f2faf8d7a0d14c09","651c0a65569882f3c1b0355b","null","null","<p style=""font-size: 60px; font-family: BACS"">dKRDBbM</p>","","","","","","","","",""
"html-keyboard-response","128","1045251","0.0-10.0-0.39","5dab6e7d80e1780016d5bc9b","650c16f0f2faf8d7a0d14c09","651c0a65569882f3c1b0355b","null","null","<p style=""font-size: 60px; font-family: BACS"">YNrAmYmb</p>","","","","","","","","",""
"html-keyboard-response","129","1046254","0.0-10.0-0.40","5dab6e7d80e1780016d5bc9b","650c16f0f2faf8d7a0d14c09","651c0a65569882f3c1b0355b","null","null","<p style=""font-size: 60px; font-family: BACS"">BECkmKcD</p>","","","","","","","","",""
"html-keyboard-response","130","1047255","0.0-10.0-0.41","5dab6e7d80e1780016d5bc9b","650c16f0f2faf8d7a0d14c09","651c0a65569882f3c1b0355b","null","null","<p style=""font-size: 60px; font-family: BACS"">PMPtkBCAd</p>","","","","","","","","",""
"html-keyboard-response","131","1048266","0.0-10.0-0.42","5dab6e7d80e1780016d5bc9b","650c16f0f2faf8d7a0d14c09","651c0a65569882f3c1b0355b","null","null","<p style=""font-size: 60px; font-family: BACS"">YcdOkmU</p>","","","","","","","","",""
"html-keyboard-response","132","1049268","0.0-10.0-0.43","5dab6e7d80e1780016d5bc9b","650c16f0f2faf8d7a0d14c09","651c0a65569882f3c1b0355b","null","null","<p style=""font-size: 60px; font-family: BACS"">dKRDmKcD</p>","","","","","","","","",""
"html-keyboard-response","133","1050270","0.0-10.0-0.44","5dab6e7d80e1780016d5bc9b","650c16f0f2faf8d7a0d14c09","651c0a65569882f3c1b0355b","null","null","<p style=""font-size: 60px; font-family: BACS"">ZdlOuda</p>","","","","","","","","",""
"html-keyboard-response","134","1051271","0.0-10.0-0.45","5dab6e7d80e1780016d5bc9b","650c16f0f2faf8d7a0d14c09","651c0a65569882f3c1b0355b","null","null","<p style=""font-size: 60px; font-family: BACS"">kRCkOBCAd</p>","","","","","","","","",""
"html-keyboard-response","135","1052281","0.0-10.0-0.46","5dab6e7d80e1780016d5bc9b","650c16f0f2faf8d7a0d14c09","651c0a65569882f3c1b0355b","null","null","<p style=""font-size: 60px; font-family: BACS"">BECkbRC</p>","","","","","","","","",""
"html-keyboard-response","136","1053295","0.0-10.0-0.47","5dab6e7d80e1780016d5bc9b","650c16f0f2faf8d7a0d14c09","651c0a65569882f3c1b0355b","null","null","<p style=""font-size: 60px; font-family: BACS"">JauQkbu</p>","","","","","","","","",""
"html-keyboard-response","137","1054297","0.0-10.0-0.48","5dab6e7d80e1780016d5bc9b","650c16f0f2faf8d7a0d14c09","651c0a65569882f3c1b0355b","null","null","<p style=""font-size: 60px; font-family: BACS"">ZdlObadk</p>","","","","","","","","",""
"html-keyboard-response","138","1055298","0.0-10.0-0.49","5dab6e7d80e1780016d5bc9b","650c16f0f2faf8d7a0d14c09","651c0a65569882f3c1b0355b","null","null","<p style=""font-size: 60px; font-family: BACS"">TEBKBCAd</p>","","","","","","","","",""
"html-keyboard-response","139","1056301","0.0-10.0-0.50","5dab6e7d80e1780016d5bc9b","650c16f0f2faf8d7a0d14c09","651c0a65569882f3c1b0355b","null","null","<p style=""font-size: 60px; font-family: BACS"">cdKBYEKBO</p>","","","","","","","","",""
"html-keyboard-response","140","1057302","0.0-10.0-0.51","5dab6e7d80e1780016d5bc9b","650c16f0f2faf8d7a0d14c09","651c0a65569882f3c1b0355b","null","null","<p style=""font-size: 60px; font-family: BACS"">BOckPmKcD</p>","","","","","","","","",""
"html-keyboard-response","141","1058304","0.0-10.0-0.52","5dab6e7d80e1780016d5bc9b","650c16f0f2faf8d7a0d14c09","651c0a65569882f3c1b0355b","null","null","<p style=""font-size: 60px; font-family: BACS"">kRCkOEKBO</p>","","","","","","","","",""
"html-keyboard-response","142","1059305","0.0-10.0-0.53","5dab6e7d80e1780016d5bc9b","650c16f0f2faf8d7a0d14c09","651c0a65569882f3c1b0355b","null","null","<p style=""font-size: 60px; font-family: BACS"">kKRCmKcD</p>","","","","","","","","",""
"html-keyboard-response","143","1060320","0.0-10.0-0.54","5dab6e7d80e1780016d5bc9b","650c16f0f2faf8d7a0d14c09","651c0a65569882f3c1b0355b","null","null","<p style=""font-size: 60px; font-family: BACS"">BOckPbRC</p>","","","","","","","","",""
"html-keyboard-response","144","1061321","0.0-10.0-0.55","5dab6e7d80e1780016d5bc9b","650c16f0f2faf8d7a0d14c09","651c0a65569882f3c1b0355b","null","null","<p style=""font-size: 60px; font-family: BACS"">UvOGYmb</p>","","","","","","","","",""
"html-keyboard-response","145","1062328","0.0-10.0-0.56","5dab6e7d80e1780016d5bc9b","650c16f0f2faf8d7a0d14c09","651c0a65569882f3c1b0355b","null","null","<p style=""font-size: 60px; font-family: BACS"">kKRCEKBO</p>","","","","","","","","",""
"html-keyboard-response","146","1063337","0.0-10.0-0.57","5dab6e7d80e1780016d5bc9b","650c16f0f2faf8d7a0d14c09","651c0a65569882f3c1b0355b","null","null","<p style=""font-size: 60px; font-family: BACS"">htmhCBbM</p>","","","","","","","","",""
"html-keyboard-response","147","1064344","0.0-10.0-0.58","5dab6e7d80e1780016d5bc9b","650c16f0f2faf8d7a0d14c09","651c0a65569882f3c1b0355b","null","null","<p style=""font-size: 60px; font-family: BACS"">JauQuda</p>","","","","","","","","",""
"html-keyboard-response","148","1065348","0.0-10.0-0.59","5dab6e7d80e1780016d5bc9b","650c16f0f2faf8d7a0d14c09","651c0a65569882f3c1b0355b","null","null","<p style=""font-size: 60px; font-family: BACS"">cdKBYBbM</p>","","","","","","","","",""
"html-keyboard-response","149","1066363","0.0-10.0-0.60","5dab6e7d80e1780016d5bc9b","650c16f0f2faf8d7a0d14c09","651c0a65569882f3c1b0355b","null","null","<p style=""font-size: 60px; font-family: BACS"">mcOJYmb</p>","","","","","","","","",""
"html-keyboard-response","150","1067364","0.0-10.0-0.61","5dab6e7d80e1780016d5bc9b","650c16f0f2faf8d7a0d14c09","651c0a65569882f3c1b0355b","null","null","<p style=""font-size: 60px; font-family: BACS"">cdKBYBCAd</p>","","","","","","","","",""
"html-keyboard-response","151","1068369","0.0-10.0-0.62","5dab6e7d80e1780016d5bc9b","650c16f0f2faf8d7a0d14c09","651c0a65569882f3c1b0355b","null","null","<p style=""font-size: 60px; font-family: BACS"">vmuLlbadk</p>","","","","","","","","",""
"html-keyboard-response","152","1069382","0.0-10.0-0.63","5dab6e7d80e1780016d5bc9b","650c16f0f2faf8d7a0d14c09","651c0a65569882f3c1b0355b","null","null","<p style=""font-size: 60px; font-family: BACS"">GJGcZuda</p>","","","","","","","","",""
"html-keyboard-response","153","1070383","0.0-10.0-0.64","5dab6e7d80e1780016d5bc9b","650c16f0f2faf8d7a0d14c09","651c0a65569882f3c1b0355b","null","null","<p style=""font-size: 60px; font-family: BACS"">JdGmbadk</p>","","","","","","","","",""
"html-keyboard-response","154","1071386","0.0-10.0-0.65","5dab6e7d80e1780016d5bc9b","650c16f0f2faf8d7a0d14c09","651c0a65569882f3c1b0355b","null","null","<p style=""font-size: 60px; font-family: BACS"">UvOGuda</p>","","","","","","","","",""
"html-keyboard-response","155","1072387","0.0-10.0-0.66","5dab6e7d80e1780016d5bc9b","650c16f0f2faf8d7a0d14c09","651c0a65569882f3c1b0355b","null","null","<p style=""font-size: 60px; font-family: BACS"">PMPtkBbM</p>","","","","","","","","",""
"html-keyboard-response","156","1073394","0.0-10.0-0.67","5dab6e7d80e1780016d5bc9b","650c16f0f2faf8d7a0d14c09","651c0a65569882f3c1b0355b","null","null","<p style=""font-size: 60px; font-family: BACS"">ZdlOYmb</p>","","","","","","","","",""
"html-keyboard-response","157","1074405","0.0-10.0-0.68","5dab6e7d80e1780016d5bc9b","650c16f0f2faf8d7a0d14c09","651c0a65569882f3c1b0355b","null","null","<p style=""font-size: 60px; font-family: BACS"">JdGmkbu</p>","","","","","","","","",""
"html-keyboard-response","158","1075414","0.0-10.0-0.69","5dab6e7d80e1780016d5bc9b","650c16f0f2faf8d7a0d14c09","651c0a65569882f3c1b0355b","null","null","<p style=""font-size: 60px; font-family: BACS"">htmhCmKcD</p>","","","","","","","","",""
"html-keyboard-response","159","1076424","0.0-10.0-0.70","5dab6e7d80e1780016d5bc9b","650c16f0f2faf8d7a0d14c09","651c0a65569882f3c1b0355b","null","null","<p style=""font-size: 60px; font-family: BACS"">rLaZuda</p>","","","","","","","","",""
"html-keyboard-response","160","1077426","0.0-10.0-0.71","5dab6e7d80e1780016d5bc9b","650c16f0f2faf8d7a0d14c09","651c0a65569882f3c1b0355b","null","null","<p style=""font-size: 60px; font-family: BACS"">DBPhcbRC</p>","","","","","","","","",""
"html-keyboard-response","161","1078428","0.0-10.0-0.72","5dab6e7d80e1780016d5bc9b","650c16f0f2faf8d7a0d14c09","651c0a65569882f3c1b0355b","null","null","<p style=""font-size: 60px; font-family: BACS"">GJGcZkmU</p>","","","","","","","","",""
"html-keyboard-response","162","1079429","0.0-10.0-0.73","5dab6e7d80e1780016d5bc9b","650c16f0f2faf8d7a0d14c09","651c0a65569882f3c1b0355b","null","null","<p style=""font-size: 60px; font-family: BACS"">PMPtkEKBO</p>","","","","","","","","",""
"html-keyboard-response","163","1080437","0.0-10.0-0.74","5dab6e7d80e1780016d5bc9b","650c16f0f2faf8d7a0d14c09","651c0a65569882f3c1b0355b","null","null","<p style=""font-size: 60px; font-family: BACS"">DBPhcBbM</p>","","","","","","","","",""
"html-keyboard-response","164","1081438","0.0-10.0-0.75","5dab6e7d80e1780016d5bc9b","650c16f0f2faf8d7a0d14c09","651c0a65569882f3c1b0355b","null","null","<p style=""font-size: 60px; font-family: BACS"">TEBKEKBO</p>","","","","","","","","",""
"html-keyboard-response","165","1082446","0.0-10.0-0.76","5dab6e7d80e1780016d5bc9b","650c16f0f2faf8d7a0d14c09","651c0a65569882f3c1b0355b","null","null","<p style=""font-size: 60px; font-family: BACS"">kKRCbRC</p>","","","","","","","","",""
"html-keyboard-response","166","1083449","0.0-10.0-0.77","5dab6e7d80e1780016d5bc9b","650c16f0f2faf8d7a0d14c09","651c0a65569882f3c1b0355b","null","null","<p style=""font-size: 60px; font-family: BACS"">DBPhcmKcD</p>","","","","","","","","",""
"html-keyboard-response","167","1084460","0.0-10.0-0.78","5dab6e7d80e1780016d5bc9b","650c16f0f2faf8d7a0d14c09","651c0a65569882f3c1b0355b","null","null","<p style=""font-size: 60px; font-family: BACS"">mcOJkbu</p>","","","","","","","","",""
"html-keyboard-response","168","1085469","0.0-10.0-0.79","5dab6e7d80e1780016d5bc9b","650c16f0f2faf8d7a0d14c09","651c0a65569882f3c1b0355b","null","null","<p style=""font-size: 60px; font-family: BACS"">BECkEKBO</p>","","","","","","","","",""
"html-keyboard-response","169","1198657","0.0-11.0","5dab6e7d80e1780016d5bc9b","650c16f0f2faf8d7a0d14c09","651c0a65569882f3c1b0355b","113187"," ","<p>Great, you've seen the second block of words. You may now take a short break.</p>
      <p>Press the spacebar when you're ready to continue.</p>","","","","","","","","",""
"html-keyboard-response","170","1199658","0.0-12.0-0.0","5dab6e7d80e1780016d5bc9b","650c16f0f2faf8d7a0d14c09","651c0a65569882f3c1b0355b","null","null","<p style=""font-size: 60px; font-family: BACS"">htmhCBCAd</p>","","","","","","","","",""
"html-keyboard-response","171","1200659","0.0-12.0-0.1","5dab6e7d80e1780016d5bc9b","650c16f0f2faf8d7a0d14c09","651c0a65569882f3c1b0355b","null","null","<p style=""font-size: 60px; font-family: BACS"">GJGcZbadk</p>","","","","","","","","",""
"html-keyboard-response","172","1201661","0.0-12.0-0.2","5dab6e7d80e1780016d5bc9b","650c16f0f2faf8d7a0d14c09","651c0a65569882f3c1b0355b","null","null","<p style=""font-size: 60px; font-family: BACS"">TEBKBCAd</p>","","","","","","","","",""
"html-keyboard-response","173","1202666","0.0-12.0-0.3","5dab6e7d80e1780016d5bc9b","650c16f0f2faf8d7a0d14c09","651c0a65569882f3c1b0355b","null","null","<p style=""font-size: 60px; font-family: BACS"">DBPhcBbM</p>","","","","","","","","",""
"html-keyboard-response","174","1203680","0.0-12.0-0.4","5dab6e7d80e1780016d5bc9b","650c16f0f2faf8d7a0d14c09","651c0a65569882f3c1b0355b","null","null","<p style=""font-size: 60px; font-family: BACS"">ZdlOkbu</p>","","","","","","","","",""
"html-keyboard-response","175","1204682","0.0-12.0-0.5","5dab6e7d80e1780016d5bc9b","650c16f0f2faf8d7a0d14c09","651c0a65569882f3c1b0355b","null","null","<p style=""font-size: 60px; font-family: BACS"">UvOGYmb</p>","","","","","","","","",""
"html-keyboard-response","176","1205691","0.0-12.0-0.6","5dab6e7d80e1780016d5bc9b","650c16f0f2faf8d7a0d14c09","651c0a65569882f3c1b0355b","null","null","<p style=""font-size: 60px; font-family: BACS"">JauQkmU</p>","","","","","","","","",""
"html-keyboard-response","177","1206702","0.0-12.0-0.7","5dab6e7d80e1780016d5bc9b","650c16f0f2faf8d7a0d14c09","651c0a65569882f3c1b0355b","null","null","<p style=""font-size: 60px; font-family: BACS"">cdKBYbRC</p>","","","","","","","","",""
"html-keyboard-response","178","1207704","0.0-12.0-0.8","5dab6e7d80e1780016d5bc9b","650c16f0f2faf8d7a0d14c09","651c0a65569882f3c1b0355b","null","null","<p style=""font-size: 60px; font-family: BACS"">TEBKEKBO</p>","","","","","","","","",""
"html-keyboard-response","179","1208717","0.0-12.0-0.9","5dab6e7d80e1780016d5bc9b","650c16f0f2faf8d7a0d14c09","651c0a65569882f3c1b0355b","null","null","<p style=""font-size: 60px; font-family: BACS"">ZdlObadk</p>","","","","","","","","",""
"html-keyboard-response","180","1209719","0.0-12.0-0.10","5dab6e7d80e1780016d5bc9b","650c16f0f2faf8d7a0d14c09","651c0a65569882f3c1b0355b","null","null","<p style=""font-size: 60px; font-family: BACS"">YcdOkmU</p>","","","","","","","","",""
"html-keyboard-response","181","1210721","0.0-12.0-0.11","5dab6e7d80e1780016d5bc9b","650c16f0f2faf8d7a0d14c09","651c0a65569882f3c1b0355b","null","null","<p style=""font-size: 60px; font-family: BACS"">mcOJYmb</p>","","","","","","","","",""
"html-keyboard-response","182","1211722","0.0-12.0-0.12","5dab6e7d80e1780016d5bc9b","650c16f0f2faf8d7a0d14c09","651c0a65569882f3c1b0355b","null","null","<p style=""font-size: 60px; font-family: BACS"">kRCkOBbM</p>","","","","","","","","",""
"html-keyboard-response","183","1212725","0.0-12.0-0.13","5dab6e7d80e1780016d5bc9b","650c16f0f2faf8d7a0d14c09","651c0a65569882f3c1b0355b","null","null","<p style=""font-size: 60px; font-family: BACS"">GJGcZkbu</p>","","","","","","","","",""
"html-keyboard-response","184","1213735","0.0-12.0-0.14","5dab6e7d80e1780016d5bc9b","650c16f0f2faf8d7a0d14c09","651c0a65569882f3c1b0355b","null","null","<p style=""font-size: 60px; font-family: BACS"">YNrAmbadk</p>","","","","","","","","",""
"html-keyboard-response","185","1214736","0.0-12.0-0.15","5dab6e7d80e1780016d5bc9b","650c16f0f2faf8d7a0d14c09","651c0a65569882f3c1b0355b","null","null","<p style=""font-size: 60px; font-family: BACS"">kKRCBCAd</p>","","","","","","","","",""
"html-keyboard-response","186","1215738","0.0-12.0-0.16","5dab6e7d80e1780016d5bc9b","650c16f0f2faf8d7a0d14c09","651c0a65569882f3c1b0355b","null","null","<p style=""font-size: 60px; font-family: BACS"">BECkmKcD</p>","","","","","","","","",""
"html-keyboard-response","187","1216739","0.0-12.0-0.17","5dab6e7d80e1780016d5bc9b","650c16f0f2faf8d7a0d14c09","651c0a65569882f3c1b0355b","null","null","<p style=""font-size: 60px; font-family: BACS"">PMPtkBCAd</p>","","","","","","","","",""
"html-keyboard-response","188","1217741","0.0-12.0-0.18","5dab6e7d80e1780016d5bc9b","650c16f0f2faf8d7a0d14c09","651c0a65569882f3c1b0355b","null","null","<p style=""font-size: 60px; font-family: BACS"">YcdObadk</p>","","","","","","","","",""
"html-keyboard-response","189","1218744","0.0-12.0-0.19","5dab6e7d80e1780016d5bc9b","650c16f0f2faf8d7a0d14c09","651c0a65569882f3c1b0355b","null","null","<p style=""font-size: 60px; font-family: BACS"">JauQkbu</p>","","","","","","","","",""
"html-keyboard-response","190","1219745","0.0-12.0-0.20","5dab6e7d80e1780016d5bc9b","650c16f0f2faf8d7a0d14c09","651c0a65569882f3c1b0355b","null","null","<p style=""font-size: 60px; font-family: BACS"">PMPtkbRC</p>","","","","","","","","",""
"html-keyboard-response","191","1220746","0.0-12.0-0.21","5dab6e7d80e1780016d5bc9b","650c16f0f2faf8d7a0d14c09","651c0a65569882f3c1b0355b","null","null","<p style=""font-size: 60px; font-family: BACS"">mcOJkmU</p>","","","","","","","","",""
"html-keyboard-response","192","1221750","0.0-12.0-0.22","5dab6e7d80e1780016d5bc9b","650c16f0f2faf8d7a0d14c09","651c0a65569882f3c1b0355b","null","null","<p style=""font-size: 60px; font-family: BACS"">YNrAmkbu</p>","","","","","","","","",""
"html-keyboard-response","193","1222761","0.0-12.0-0.23","5dab6e7d80e1780016d5bc9b","650c16f0f2faf8d7a0d14c09","651c0a65569882f3c1b0355b","null","null","<p style=""font-size: 60px; font-family: BACS"">YcdOYmb</p>","","","","","","","","",""
"html-keyboard-response","194","1223771","0.0-12.0-0.24","5dab6e7d80e1780016d5bc9b","650c16f0f2faf8d7a0d14c09","651c0a65569882f3c1b0355b","null","null","<p style=""font-size: 60px; font-family: BACS"">TEBKmKcD</p>","","","","","","","","",""
"html-keyboard-response","195","1224772","0.0-12.0-0.25","5dab6e7d80e1780016d5bc9b","650c16f0f2faf8d7a0d14c09","651c0a65569882f3c1b0355b","null","null","<p style=""font-size: 60px; font-family: BACS"">UvOGuda</p>","","","","","","","","",""
"html-keyboard-response","196","1225774","0.0-12.0-0.26","5dab6e7d80e1780016d5bc9b","650c16f0f2faf8d7a0d14c09","651c0a65569882f3c1b0355b","null","null","<p style=""font-size: 60px; font-family: BACS"">ZdlOYmb</p>","","","","","","","","",""
"html-keyboard-response","197","1226775","0.0-12.0-0.27","5dab6e7d80e1780016d5bc9b","650c16f0f2faf8d7a0d14c09","651c0a65569882f3c1b0355b","null","null","<p style=""font-size: 60px; font-family: BACS"">htmhCbRC</p>","","","","","","","","",""
"html-keyboard-response","198","1227777","0.0-12.0-0.28","5dab6e7d80e1780016d5bc9b","650c16f0f2faf8d7a0d14c09","651c0a65569882f3c1b0355b","null","null","<p style=""font-size: 60px; font-family: BACS"">DBPhcmKcD</p>","","","","","","","","",""
"html-keyboard-response","199","1228778","0.0-12.0-0.29","5dab6e7d80e1780016d5bc9b","650c16f0f2faf8d7a0d14c09","651c0a65569882f3c1b0355b","null","null","<p style=""font-size: 60px; font-family: BACS"">TEBKBbM</p>","","","","","","","","",""
"html-keyboard-response","200","1229780","0.0-12.0-0.30","5dab6e7d80e1780016d5bc9b","650c16f0f2faf8d7a0d14c09","651c0a65569882f3c1b0355b","null","null","<p style=""font-size: 60px; font-family: BACS"">JdGmkbu</p>","","","","","","","","",""
"html-keyboard-response","201","1230792","0.0-12.0-0.31","5dab6e7d80e1780016d5bc9b","650c16f0f2faf8d7a0d14c09","651c0a65569882f3c1b0355b","null","null","<p style=""font-size: 60px; font-family: BACS"">rLaZuda</p>","","","","","","","","",""
"html-keyboard-response","202","1231794","0.0-12.0-0.32","5dab6e7d80e1780016d5bc9b","650c16f0f2faf8d7a0d14c09","651c0a65569882f3c1b0355b","null","null","<p style=""font-size: 60px; font-family: BACS"">JdGmkmU</p>","","","","","","","","",""
"html-keyboard-response","203","1232795","0.0-12.0-0.33","5dab6e7d80e1780016d5bc9b","650c16f0f2faf8d7a0d14c09","651c0a65569882f3c1b0355b","null","null","<p style=""font-size: 60px; font-family: BACS"">BECkEKBO</p>","","","","","","","","",""
"html-keyboard-response","204","1233802","0.0-12.0-0.34","5dab6e7d80e1780016d5bc9b","650c16f0f2faf8d7a0d14c09","651c0a65569882f3c1b0355b","null","null","<p style=""font-size: 60px; font-family: BACS"">dKRDbRC</p>","","","","","","","","",""
"html-keyboard-response","205","1234804","0.0-12.0-0.35","5dab6e7d80e1780016d5bc9b","650c16f0f2faf8d7a0d14c09","651c0a65569882f3c1b0355b","null","null","<p style=""font-size: 60px; font-family: BACS"">vmuLlkbu</p>","","","","","","","","",""
"html-keyboard-response","206","1235805","0.0-12.0-0.36","5dab6e7d80e1780016d5bc9b","650c16f0f2faf8d7a0d14c09","651c0a65569882f3c1b0355b","null","null","<p style=""font-size: 60px; font-family: BACS"">mcOJuda</p>","","","","","","","","",""
"html-keyboard-response","207","1236813","0.0-12.0-0.37","5dab6e7d80e1780016d5bc9b","650c16f0f2faf8d7a0d14c09","651c0a65569882f3c1b0355b","null","null","<p style=""font-size: 60px; font-family: BACS"">PMPtkEKBO</p>","","","","","","","","",""
"html-keyboard-response","208","1237825","0.0-12.0-0.38","5dab6e7d80e1780016d5bc9b","650c16f0f2faf8d7a0d14c09","651c0a65569882f3c1b0355b","null","null","<p style=""font-size: 60px; font-family: BACS"">BOckPmKcD</p>","","","","","","","","",""
"html-keyboard-response","209","1238834","0.0-12.0-0.39","5dab6e7d80e1780016d5bc9b","650c16f0f2faf8d7a0d14c09","651c0a65569882f3c1b0355b","null","null","<p style=""font-size: 60px; font-family: BACS"">BECkbRC</p>","","","","","","","","",""
"html-keyboard-response","210","1239848","0.0-12.0-0.40","5dab6e7d80e1780016d5bc9b","650c16f0f2faf8d7a0d14c09","651c0a65569882f3c1b0355b","null","null","<p style=""font-size: 60px; font-family: BACS"">DBPhcEKBO</p>","","","","","","","","",""
"html-keyboard-response","211","1240850","0.0-12.0-0.41","5dab6e7d80e1780016d5bc9b","650c16f0f2faf8d7a0d14c09","651c0a65569882f3c1b0355b","null","null","<p style=""font-size: 60px; font-family: BACS"">JdGmYmb</p>","","","","","","","","",""
"html-keyboard-response","212","1241851","0.0-12.0-0.42","5dab6e7d80e1780016d5bc9b","650c16f0f2faf8d7a0d14c09","651c0a65569882f3c1b0355b","null","null","<p style=""font-size: 60px; font-family: BACS"">PMPtkBbM</p>","","","","","","","","",""
"html-keyboard-response","213","1242865","0.0-12.0-0.43","5dab6e7d80e1780016d5bc9b","650c16f0f2faf8d7a0d14c09","651c0a65569882f3c1b0355b","null","null","<p style=""font-size: 60px; font-family: BACS"">kKRCbRC</p>","","","","","","","","",""
"html-keyboard-response","214","1243867","0.0-12.0-0.44","5dab6e7d80e1780016d5bc9b","650c16f0f2faf8d7a0d14c09","651c0a65569882f3c1b0355b","null","null","<p style=""font-size: 60px; font-family: BACS"">dKRDmKcD</p>","","","","","","","","",""
"html-keyboard-response","215","1244876","0.0-12.0-0.45","5dab6e7d80e1780016d5bc9b","650c16f0f2faf8d7a0d14c09","651c0a65569882f3c1b0355b","null","null","<p style=""font-size: 60px; font-family: BACS"">YNrAmYmb</p>","","","","","","","","",""
"html-keyboard-response","216","1245878","0.0-12.0-0.46","5dab6e7d80e1780016d5bc9b","650c16f0f2faf8d7a0d14c09","651c0a65569882f3c1b0355b","null","null","<p style=""font-size: 60px; font-family: BACS"">DBPhcbRC</p>","","","","","","","","",""
"html-keyboard-response","217","1246880","0.0-12.0-0.47","5dab6e7d80e1780016d5bc9b","650c16f0f2faf8d7a0d14c09","651c0a65569882f3c1b0355b","null","null","<p style=""font-size: 60px; font-family: BACS"">cdKBYBbM</p>","","","","","","","","",""
"html-keyboard-response","218","1247881","0.0-12.0-0.48","5dab6e7d80e1780016d5bc9b","650c16f0f2faf8d7a0d14c09","651c0a65569882f3c1b0355b","null","null","<p style=""font-size: 60px; font-family: BACS"">UvOGkbu</p>","","","","","","","","",""
"html-keyboard-response","219","1248882","0.0-12.0-0.49","5dab6e7d80e1780016d5bc9b","650c16f0f2faf8d7a0d14c09","651c0a65569882f3c1b0355b","null","null","<p style=""font-size: 60px; font-family: BACS"">htmhCmKcD</p>","","","","","","","","",""
"html-keyboard-response","220","1249886","0.0-12.0-0.50","5dab6e7d80e1780016d5bc9b","650c16f0f2faf8d7a0d14c09","651c0a65569882f3c1b0355b","null","null","<p style=""font-size: 60px; font-family: BACS"">GJGcZkmU</p>","","","","","","","","",""
"html-keyboard-response","221","1250887","0.0-12.0-0.51","5dab6e7d80e1780016d5bc9b","650c16f0f2faf8d7a0d14c09","651c0a65569882f3c1b0355b","null","null","<p style=""font-size: 60px; font-family: BACS"">vmuLlYmb</p>","","","","","","","","",""
"html-keyboard-response","222","1251891","0.0-12.0-0.52","5dab6e7d80e1780016d5bc9b","650c16f0f2faf8d7a0d14c09","651c0a65569882f3c1b0355b","null","null","<p style=""font-size: 60px; font-family: BACS"">JauQuda</p>","","","","","","","","",""
"html-keyboard-response","223","1252893","0.0-12.0-0.53","5dab6e7d80e1780016d5bc9b","650c16f0f2faf8d7a0d14c09","651c0a65569882f3c1b0355b","null","null","<p style=""font-size: 60px; font-family: BACS"">htmhCBbM</p>","","","","","","","","",""
"html-keyboard-response","224","1253902","0.0-12.0-0.54","5dab6e7d80e1780016d5bc9b","650c16f0f2faf8d7a0d14c09","651c0a65569882f3c1b0355b","null","null","<p style=""font-size: 60px; font-family: BACS"">kRCkOBCAd</p>","","","","","","","","",""
"html-keyboard-response","225","1254909","0.0-12.0-0.55","5dab6e7d80e1780016d5bc9b","650c16f0f2faf8d7a0d14c09","651c0a65569882f3c1b0355b","null","null","<p style=""font-size: 60px; font-family: BACS"">cdKBYEKBO</p>","","","","","","","","",""
"html-keyboard-response","226","1255911","0.0-12.0-0.56","5dab6e7d80e1780016d5bc9b","650c16f0f2faf8d7a0d14c09","651c0a65569882f3c1b0355b","null","null","<p style=""font-size: 60px; font-family: BACS"">rLaZbadk</p>","","","","","","","","",""
"html-keyboard-response","227","1256913","0.0-12.0-0.57","5dab6e7d80e1780016d5bc9b","650c16f0f2faf8d7a0d14c09","651c0a65569882f3c1b0355b","null","null","<p style=""font-size: 60px; font-family: BACS"">YcdOuda</p>","","","","","","","","",""
"html-keyboard-response","228","1257914","0.0-12.0-0.58","5dab6e7d80e1780016d5bc9b","650c16f0f2faf8d7a0d14c09","651c0a65569882f3c1b0355b","null","null","<p style=""font-size: 60px; font-family: BACS"">kKRCEKBO</p>","","","","","","","","",""
"html-keyboard-response","229","1258915","0.0-12.0-0.59","5dab6e7d80e1780016d5bc9b","650c16f0f2faf8d7a0d14c09","651c0a65569882f3c1b0355b","null","null","<p style=""font-size: 60px; font-family: BACS"">JauQbadk</p>","","","","","","","","",""
"html-keyboard-response","230","1259917","0.0-12.0-0.60","5dab6e7d80e1780016d5bc9b","650c16f0f2faf8d7a0d14c09","651c0a65569882f3c1b0355b","null","null","<p style=""font-size: 60px; font-family: BACS"">GJGcZuda</p>","","","","","","","","",""
"html-keyboard-response","231","1260933","0.0-12.0-0.61","5dab6e7d80e1780016d5bc9b","650c16f0f2faf8d7a0d14c09","651c0a65569882f3c1b0355b","null","null","<p style=""font-size: 60px; font-family: BACS"">kRCkOEKBO</p>","","","","","","","","",""
"html-keyboard-response","232","1261935","0.0-12.0-0.62","5dab6e7d80e1780016d5bc9b","650c16f0f2faf8d7a0d14c09","651c0a65569882f3c1b0355b","null","null","<p style=""font-size: 60px; font-family: BACS"">dKRDBCAd</p>","","","","","","","","",""
"html-keyboard-response","233","1262937","0.0-12.0-0.63","5dab6e7d80e1780016d5bc9b","650c16f0f2faf8d7a0d14c09","651c0a65569882f3c1b0355b","null","null","<p style=""font-size: 60px; font-family: BACS"">JdGmbadk</p>","","","","","","","","",""
"html-keyboard-response","234","1263938","0.0-12.0-0.64","5dab6e7d80e1780016d5bc9b","650c16f0f2faf8d7a0d14c09","651c0a65569882f3c1b0355b","null","null","<p style=""font-size: 60px; font-family: BACS"">dKRDBbM</p>","","","","","","","","",""
"html-keyboard-response","235","1264940","0.0-12.0-0.65","5dab6e7d80e1780016d5bc9b","650c16f0f2faf8d7a0d14c09","651c0a65569882f3c1b0355b","null","null","<p style=""font-size: 60px; font-family: BACS"">rLaZYmb</p>","","","","","","","","",""
"html-keyboard-response","236","1265942","0.0-12.0-0.66","5dab6e7d80e1780016d5bc9b","650c16f0f2faf8d7a0d14c09","651c0a65569882f3c1b0355b","null","null","<p style=""font-size: 60px; font-family: BACS"">ZdlOuda</p>","","","","","","","","",""
"html-keyboard-response","237","1266942","0.0-12.0-0.67","5dab6e7d80e1780016d5bc9b","650c16f0f2faf8d7a0d14c09","651c0a65569882f3c1b0355b","null","null","<p style=""font-size: 60px; font-family: BACS"">rLaZkmU</p>","","","","","","","","",""
"html-keyboard-response","238","1267954","0.0-12.0-0.68","5dab6e7d80e1780016d5bc9b","650c16f0f2faf8d7a0d14c09","651c0a65569882f3c1b0355b","null","null","<p style=""font-size: 60px; font-family: BACS"">cdKBYBCAd</p>","","","","","","","","",""
"html-keyboard-response","239","1268955","0.0-12.0-0.69","5dab6e7d80e1780016d5bc9b","650c16f0f2faf8d7a0d14c09","651c0a65569882f3c1b0355b","null","null","<p style=""font-size: 60px; font-family: BACS"">BOckPEKBO</p>","","","","","","","","",""
"html-keyboard-response","240","1269956","0.0-12.0-0.70","5dab6e7d80e1780016d5bc9b","650c16f0f2faf8d7a0d14c09","651c0a65569882f3c1b0355b","null","null","<p style=""font-size: 60px; font-family: BACS"">mcOJkbu</p>","","","","","","","","",""
"html-keyboard-response","241","1270957","0.0-12.0-0.71","5dab6e7d80e1780016d5bc9b","650c16f0f2faf8d7a0d14c09","651c0a65569882f3c1b0355b","null","null","<p style=""font-size: 60px; font-family: BACS"">BOckPBbM</p>","","","","","","","","",""
"html-keyboard-response","242","1271958","0.0-12.0-0.72","5dab6e7d80e1780016d5bc9b","650c16f0f2faf8d7a0d14c09","651c0a65569882f3c1b0355b","null","null","<p style=""font-size: 60px; font-family: BACS"">kKRCmKcD</p>","","","","","","","","",""
"html-keyboard-response","243","1272963","0.0-12.0-0.73","5dab6e7d80e1780016d5bc9b","650c16f0f2faf8d7a0d14c09","651c0a65569882f3c1b0355b","null","null","<p style=""font-size: 60px; font-family: BACS"">YNrAmuda</p>","","","","","","","","",""
"html-keyboard-response","244","1273974","0.0-12.0-0.74","5dab6e7d80e1780016d5bc9b","650c16f0f2faf8d7a0d14c09","651c0a65569882f3c1b0355b","null","null","<p style=""font-size: 60px; font-family: BACS"">vmuLlkmU</p>","","","","","","","","",""
"html-keyboard-response","245","1274982","0.0-12.0-0.75","5dab6e7d80e1780016d5bc9b","650c16f0f2faf8d7a0d14c09","651c0a65569882f3c1b0355b","null","null","<p style=""font-size: 60px; font-family: BACS"">kRCkOmKcD</p>","","","","","","","","",""
"html-keyboard-response","246","1275995","0.0-12.0-0.76","5dab6e7d80e1780016d5bc9b","650c16f0f2faf8d7a0d14c09","651c0a65569882f3c1b0355b","null","null","<p style=""font-size: 60px; font-family: BACS"">UvOGkmU</p>","","","","","","","","",""
"html-keyboard-response","247","1277004","0.0-12.0-0.77","5dab6e7d80e1780016d5bc9b","650c16f0f2faf8d7a0d14c09","651c0a65569882f3c1b0355b","null","null","<p style=""font-size: 60px; font-family: BACS"">vmuLlbadk</p>","","","","","","","","",""
"html-keyboard-response","248","1278006","0.0-12.0-0.78","5dab6e7d80e1780016d5bc9b","650c16f0f2faf8d7a0d14c09","651c0a65569882f3c1b0355b","null","null","<p style=""font-size: 60px; font-family: BACS"">BECkBCAd</p>","","","","","","","","",""
"html-keyboard-response","249","1279011","0.0-12.0-0.79","5dab6e7d80e1780016d5bc9b","650c16f0f2faf8d7a0d14c09","651c0a65569882f3c1b0355b","null","null","<p style=""font-size: 60px; font-family: BACS"">BOckPbRC</p>","","","","","","","","",""
"html-keyboard-response","250","1281526","0.0-13.0","5dab6e7d80e1780016d5bc9b","650c16f0f2faf8d7a0d14c09","651c0a65569882f3c1b0355b","2514"," ","<p>Great, you've seen the third block of words. You may now take a short break.</p>
      <p>Press the spacebar when you're ready to continue.</p>","","","","","","","","",""
"html-keyboard-response","251","1282538","0.0-14.0-0.0","5dab6e7d80e1780016d5bc9b","650c16f0f2faf8d7a0d14c09","651c0a65569882f3c1b0355b","null","null","<p style=""font-size: 60px; font-family: BACS"">JauQkbu</p>","","","","","","","","",""
"html-keyboard-response","252","1283540","0.0-14.0-0.1","5dab6e7d80e1780016d5bc9b","650c16f0f2faf8d7a0d14c09","651c0a65569882f3c1b0355b","null","null","<p style=""font-size: 60px; font-family: BACS"">BECkbRC</p>","","","","","","","","",""
"html-keyboard-response","253","1284542","0.0-14.0-0.2","5dab6e7d80e1780016d5bc9b","650c16f0f2faf8d7a0d14c09","651c0a65569882f3c1b0355b","null","null","<p style=""font-size: 60px; font-family: BACS"">ZdlOkbu</p>","","","","","","","","",""
"html-keyboard-response","254","1285544","0.0-14.0-0.3","5dab6e7d80e1780016d5bc9b","650c16f0f2faf8d7a0d14c09","651c0a65569882f3c1b0355b","null","null","<p style=""font-size: 60px; font-family: BACS"">UvOGuda</p>","","","","","","","","",""
"html-keyboard-response","255","1286554","0.0-14.0-0.4","5dab6e7d80e1780016d5bc9b","650c16f0f2faf8d7a0d14c09","651c0a65569882f3c1b0355b","null","null","<p style=""font-size: 60px; font-family: BACS"">BOckPBbM</p>","","","","","","","","",""
"html-keyboard-response","256","1287555","0.0-14.0-0.5","5dab6e7d80e1780016d5bc9b","650c16f0f2faf8d7a0d14c09","651c0a65569882f3c1b0355b","null","null","<p style=""font-size: 60px; font-family: BACS"">YcdOuda</p>","","","","","","","","",""
"html-keyboard-response","257","1288556","0.0-14.0-0.6","5dab6e7d80e1780016d5bc9b","650c16f0f2faf8d7a0d14c09","651c0a65569882f3c1b0355b","null","null","<p style=""font-size: 60px; font-family: BACS"">YNrAmbadk</p>","","","","","","","","",""
"html-keyboard-response","258","1289557","0.0-14.0-0.7","5dab6e7d80e1780016d5bc9b","650c16f0f2faf8d7a0d14c09","651c0a65569882f3c1b0355b","null","null","<p style=""font-size: 60px; font-family: BACS"">kKRCEKBO</p>","","","","","","","","",""
"html-keyboard-response","259","1290559","0.0-14.0-0.8","5dab6e7d80e1780016d5bc9b","650c16f0f2faf8d7a0d14c09","651c0a65569882f3c1b0355b","null","null","<p style=""font-size: 60px; font-family: BACS"">GJGcZbadk</p>","","","","","","","","",""
"html-keyboard-response","260","1291560","0.0-14.0-0.9","5dab6e7d80e1780016d5bc9b","650c16f0f2faf8d7a0d14c09","651c0a65569882f3c1b0355b","null","null","<p style=""font-size: 60px; font-family: BACS"">htmhCBbM</p>","","","","","","","","",""
"html-keyboard-response","261","1292561","0.0-14.0-0.10","5dab6e7d80e1780016d5bc9b","650c16f0f2faf8d7a0d14c09","651c0a65569882f3c1b0355b","null","null","<p style=""font-size: 60px; font-family: BACS"">vmuLlkmU</p>","","","","","","","","",""
"html-keyboard-response","262","1293572","0.0-14.0-0.11","5dab6e7d80e1780016d5bc9b","650c16f0f2faf8d7a0d14c09","651c0a65569882f3c1b0355b","null","null","<p style=""font-size: 60px; font-family: BACS"">YNrAmuda</p>","","","","","","","","",""
"html-keyboard-response","263","1294574","0.0-14.0-0.12","5dab6e7d80e1780016d5bc9b","650c16f0f2faf8d7a0d14c09","651c0a65569882f3c1b0355b","null","null","<p style=""font-size: 60px; font-family: BACS"">PMPtkBCAd</p>","","","","","","","","",""
"html-keyboard-response","264","1295576","0.0-14.0-0.13","5dab6e7d80e1780016d5bc9b","650c16f0f2faf8d7a0d14c09","651c0a65569882f3c1b0355b","null","null","<p style=""font-size: 60px; font-family: BACS"">TEBKEKBO</p>","","","","","","","","",""
"html-keyboard-response","265","1296587","0.0-14.0-0.14","5dab6e7d80e1780016d5bc9b","650c16f0f2faf8d7a0d14c09","651c0a65569882f3c1b0355b","null","null","<p style=""font-size: 60px; font-family: BACS"">cdKBYBCAd</p>","","","","","","","","",""
"html-keyboard-response","266","1297604","0.0-14.0-0.15","5dab6e7d80e1780016d5bc9b","650c16f0f2faf8d7a0d14c09","651c0a65569882f3c1b0355b","null","null","<p style=""font-size: 60px; font-family: BACS"">mcOJuda</p>","","","","","","","","",""
"html-keyboard-response","267","1298618","0.0-14.0-0.16","5dab6e7d80e1780016d5bc9b","650c16f0f2faf8d7a0d14c09","651c0a65569882f3c1b0355b","null","null","<p style=""font-size: 60px; font-family: BACS"">UvOGkmU</p>","","","","","","","","",""
"html-keyboard-response","268","1299625","0.0-14.0-0.17","5dab6e7d80e1780016d5bc9b","650c16f0f2faf8d7a0d14c09","651c0a65569882f3c1b0355b","null","null","<p style=""font-size: 60px; font-family: BACS"">GJGcZkbu</p>","","","","","","","","",""
"html-keyboard-response","269","1300626","0.0-14.0-0.18","5dab6e7d80e1780016d5bc9b","650c16f0f2faf8d7a0d14c09","651c0a65569882f3c1b0355b","null","null","<p style=""font-size: 60px; font-family: BACS"">JauQkmU</p>","","","","","","","","",""
"html-keyboard-response","270","1301627","0.0-14.0-0.19","5dab6e7d80e1780016d5bc9b","650c16f0f2faf8d7a0d14c09","651c0a65569882f3c1b0355b","null","null","<p style=""font-size: 60px; font-family: BACS"">rLaZuda</p>","","","","","","","","",""
"html-keyboard-response","271","1302628","0.0-14.0-0.20","5dab6e7d80e1780016d5bc9b","650c16f0f2faf8d7a0d14c09","651c0a65569882f3c1b0355b","null","null","<p style=""font-size: 60px; font-family: BACS"">dKRDmKcD</p>","","","","","","","","",""
"html-keyboard-response","272","1303630","0.0-14.0-0.21","5dab6e7d80e1780016d5bc9b","650c16f0f2faf8d7a0d14c09","651c0a65569882f3c1b0355b","null","null","<p style=""font-size: 60px; font-family: BACS"">vmuLlkbu</p>","","","","","","","","",""
"html-keyboard-response","273","1304633","0.0-14.0-0.22","5dab6e7d80e1780016d5bc9b","650c16f0f2faf8d7a0d14c09","651c0a65569882f3c1b0355b","null","null","<p style=""font-size: 60px; font-family: BACS"">YcdOYmb</p>","","","","","","","","",""
"html-keyboard-response","274","1305635","0.0-14.0-0.23","5dab6e7d80e1780016d5bc9b","650c16f0f2faf8d7a0d14c09","651c0a65569882f3c1b0355b","null","null","<p style=""font-size: 60px; font-family: BACS"">BECkEKBO</p>","","","","","","","","",""
"html-keyboard-response","275","1306638","0.0-14.0-0.24","5dab6e7d80e1780016d5bc9b","650c16f0f2faf8d7a0d14c09","651c0a65569882f3c1b0355b","null","null","<p style=""font-size: 60px; font-family: BACS"">BOckPmKcD</p>","","","","","","","","",""
"html-keyboard-response","276","1307649","0.0-14.0-0.25","5dab6e7d80e1780016d5bc9b","650c16f0f2faf8d7a0d14c09","651c0a65569882f3c1b0355b","null","null","<p style=""font-size: 60px; font-family: BACS"">PMPtkEKBO</p>","","","","","","","","",""
"html-keyboard-response","277","1308650","0.0-14.0-0.26","5dab6e7d80e1780016d5bc9b","650c16f0f2faf8d7a0d14c09","651c0a65569882f3c1b0355b","null","null","<p style=""font-size: 60px; font-family: BACS"">kRCkOBbM</p>","","","","","","","","",""
"html-keyboard-response","278","1309652","0.0-14.0-0.27","5dab6e7d80e1780016d5bc9b","650c16f0f2faf8d7a0d14c09","651c0a65569882f3c1b0355b","null","null","<p style=""font-size: 60px; font-family: BACS"">vmuLlbadk</p>","","","","","","","","",""
"html-keyboard-response","279","1310654","0.0-14.0-0.28","5dab6e7d80e1780016d5bc9b","650c16f0f2faf8d7a0d14c09","651c0a65569882f3c1b0355b","null","null","<p style=""font-size: 60px; font-family: BACS"">JauQuda</p>","","","","","","","","",""
"html-keyboard-response","280","1311669","0.0-14.0-0.29","5dab6e7d80e1780016d5bc9b","650c16f0f2faf8d7a0d14c09","651c0a65569882f3c1b0355b","null","null","<p style=""font-size: 60px; font-family: BACS"">kRCkOmKcD</p>","","","","","","","","",""
"html-keyboard-response","281","1312670","0.0-14.0-0.30","5dab6e7d80e1780016d5bc9b","650c16f0f2faf8d7a0d14c09","651c0a65569882f3c1b0355b","null","null","<p style=""font-size: 60px; font-family: BACS"">vmuLlYmb</p>","","","","","","","","",""
"html-keyboard-response","282","1313673","0.0-14.0-0.31","5dab6e7d80e1780016d5bc9b","650c16f0f2faf8d7a0d14c09","651c0a65569882f3c1b0355b","null","null","<p style=""font-size: 60px; font-family: BACS"">dKRDBbM</p>","","","","","","","","",""
"html-keyboard-response","283","1314687","0.0-14.0-0.32","5dab6e7d80e1780016d5bc9b","650c16f0f2faf8d7a0d14c09","651c0a65569882f3c1b0355b","null","null","<p style=""font-size: 60px; font-family: BACS"">kRCkOEKBO</p>","","","","","","","","",""
"html-keyboard-response","284","1315699","0.0-14.0-0.33","5dab6e7d80e1780016d5bc9b","650c16f0f2faf8d7a0d14c09","651c0a65569882f3c1b0355b","null","null","<p style=""font-size: 60px; font-family: BACS"">DBPhcbRC</p>","","","","","","","","",""
"html-keyboard-response","285","1316701","0.0-14.0-0.34","5dab6e7d80e1780016d5bc9b","650c16f0f2faf8d7a0d14c09","651c0a65569882f3c1b0355b","null","null","<p style=""font-size: 60px; font-family: BACS"">kKRCBCAd</p>","","","","","","","","",""
"html-keyboard-response","286","1317702","0.0-14.0-0.35","5dab6e7d80e1780016d5bc9b","650c16f0f2faf8d7a0d14c09","651c0a65569882f3c1b0355b","null","null","<p style=""font-size: 60px; font-family: BACS"">GJGcZkmU</p>","","","","","","","","",""
"html-keyboard-response","287","1318704","0.0-14.0-0.36","5dab6e7d80e1780016d5bc9b","650c16f0f2faf8d7a0d14c09","651c0a65569882f3c1b0355b","null","null","<p style=""font-size: 60px; font-family: BACS"">TEBKBCAd</p>","","","","","","","","",""
"html-keyboard-response","288","1319721","0.0-14.0-0.37","5dab6e7d80e1780016d5bc9b","650c16f0f2faf8d7a0d14c09","651c0a65569882f3c1b0355b","null","null","<p style=""font-size: 60px; font-family: BACS"">YNrAmkbu</p>","","","","","","","","",""
"html-keyboard-response","289","1320729","0.0-14.0-0.38","5dab6e7d80e1780016d5bc9b","650c16f0f2faf8d7a0d14c09","651c0a65569882f3c1b0355b","null","null","<p style=""font-size: 60px; font-family: BACS"">BECkBCAd</p>","","","","","","","","",""
"html-keyboard-response","290","1321739","0.0-14.0-0.39","5dab6e7d80e1780016d5bc9b","650c16f0f2faf8d7a0d14c09","651c0a65569882f3c1b0355b","null","null","<p style=""font-size: 60px; font-family: BACS"">cdKBYEKBO</p>","","","","","","","","",""
"html-keyboard-response","291","1322739","0.0-14.0-0.40","5dab6e7d80e1780016d5bc9b","650c16f0f2faf8d7a0d14c09","651c0a65569882f3c1b0355b","null","null","<p style=""font-size: 60px; font-family: BACS"">YcdOkmU</p>","","","","","","","","",""
"html-keyboard-response","292","1323741","0.0-14.0-0.41","5dab6e7d80e1780016d5bc9b","650c16f0f2faf8d7a0d14c09","651c0a65569882f3c1b0355b","null","null","<p style=""font-size: 60px; font-family: BACS"">BECkmKcD</p>","","","","","","","","",""
"html-keyboard-response","293","1324742","0.0-14.0-0.42","5dab6e7d80e1780016d5bc9b","650c16f0f2faf8d7a0d14c09","651c0a65569882f3c1b0355b","null","null","<p style=""font-size: 60px; font-family: BACS"">mcOJYmb</p>","","","","","","","","",""
"html-keyboard-response","294","1325751","0.0-14.0-0.43","5dab6e7d80e1780016d5bc9b","650c16f0f2faf8d7a0d14c09","651c0a65569882f3c1b0355b","null","null","<p style=""font-size: 60px; font-family: BACS"">TEBKBbM</p>","","","","","","","","",""
"html-keyboard-response","295","1326752","0.0-14.0-0.44","5dab6e7d80e1780016d5bc9b","650c16f0f2faf8d7a0d14c09","651c0a65569882f3c1b0355b","null","null","<p style=""font-size: 60px; font-family: BACS"">kRCkOBCAd</p>","","","","","","","","",""
"html-keyboard-response","296","1327754","0.0-14.0-0.45","5dab6e7d80e1780016d5bc9b","650c16f0f2faf8d7a0d14c09","651c0a65569882f3c1b0355b","null","null","<p style=""font-size: 60px; font-family: BACS"">kKRCbRC</p>","","","","","","","","",""
"html-keyboard-response","297","1328761","0.0-14.0-0.46","5dab6e7d80e1780016d5bc9b","650c16f0f2faf8d7a0d14c09","651c0a65569882f3c1b0355b","null","null","<p style=""font-size: 60px; font-family: BACS"">YcdObadk</p>","","","","","","","","",""
"html-keyboard-response","298","1329770","0.0-14.0-0.47","5dab6e7d80e1780016d5bc9b","650c16f0f2faf8d7a0d14c09","651c0a65569882f3c1b0355b","null","null","<p style=""font-size: 60px; font-family: BACS"">dKRDbRC</p>","","","","","","","","",""
"html-keyboard-response","299","1330771","0.0-14.0-0.48","5dab6e7d80e1780016d5bc9b","650c16f0f2faf8d7a0d14c09","651c0a65569882f3c1b0355b","null","null","<p style=""font-size: 60px; font-family: BACS"">JdGmkbu</p>","","","","","","","","",""
"html-keyboard-response","300","1331773","0.0-14.0-0.49","5dab6e7d80e1780016d5bc9b","650c16f0f2faf8d7a0d14c09","651c0a65569882f3c1b0355b","null","null","<p style=""font-size: 60px; font-family: BACS"">rLaZbadk</p>","","","","","","","","",""
"html-keyboard-response","301","1332775","0.0-14.0-0.50","5dab6e7d80e1780016d5bc9b","650c16f0f2faf8d7a0d14c09","651c0a65569882f3c1b0355b","null","null","<p style=""font-size: 60px; font-family: BACS"">DBPhcBbM</p>","","","","","","","","",""
"html-keyboard-response","302","1333783","0.0-14.0-0.51","5dab6e7d80e1780016d5bc9b","650c16f0f2faf8d7a0d14c09","651c0a65569882f3c1b0355b","null","null","<p style=""font-size: 60px; font-family: BACS"">kKRCmKcD</p>","","","","","","","","",""
"html-keyboard-response","303","1334796","0.0-14.0-0.52","5dab6e7d80e1780016d5bc9b","650c16f0f2faf8d7a0d14c09","651c0a65569882f3c1b0355b","null","null","<p style=""font-size: 60px; font-family: BACS"">UvOGkbu</p>","","","","","","","","",""
"html-keyboard-response","304","1335806","0.0-14.0-0.53","5dab6e7d80e1780016d5bc9b","650c16f0f2faf8d7a0d14c09","651c0a65569882f3c1b0355b","null","null","<p style=""font-size: 60px; font-family: BACS"">JdGmbadk</p>","","","","","","","","",""
"html-keyboard-response","305","1336817","0.0-14.0-0.54","5dab6e7d80e1780016d5bc9b","650c16f0f2faf8d7a0d14c09","651c0a65569882f3c1b0355b","null","null","<p style=""font-size: 60px; font-family: BACS"">htmhCBCAd</p>","","","","","","","","",""
"html-keyboard-response","306","1337833","0.0-14.0-0.55","5dab6e7d80e1780016d5bc9b","650c16f0f2faf8d7a0d14c09","651c0a65569882f3c1b0355b","null","null","<p style=""font-size: 60px; font-family: BACS"">cdKBYBbM</p>","","","","","","","","",""
"html-keyboard-response","307","1338835","0.0-14.0-0.56","5dab6e7d80e1780016d5bc9b","650c16f0f2faf8d7a0d14c09","651c0a65569882f3c1b0355b","null","null","<p style=""font-size: 60px; font-family: BACS"">rLaZYmb</p>","","","","","","","","",""
"html-keyboard-response","308","1339844","0.0-14.0-0.57","5dab6e7d80e1780016d5bc9b","650c16f0f2faf8d7a0d14c09","651c0a65569882f3c1b0355b","null","null","<p style=""font-size: 60px; font-family: BACS"">dKRDBCAd</p>","","","","","","","","",""
"html-keyboard-response","309","1340855","0.0-14.0-0.58","5dab6e7d80e1780016d5bc9b","650c16f0f2faf8d7a0d14c09","651c0a65569882f3c1b0355b","null","null","<p style=""font-size: 60px; font-family: BACS"">YNrAmYmb</p>","","","","","","","","",""
"html-keyboard-response","310","1341856","0.0-14.0-0.59","5dab6e7d80e1780016d5bc9b","650c16f0f2faf8d7a0d14c09","651c0a65569882f3c1b0355b","null","null","<p style=""font-size: 60px; font-family: BACS"">TEBKmKcD</p>","","","","","","","","",""
"html-keyboard-response","311","1342857","0.0-14.0-0.60","5dab6e7d80e1780016d5bc9b","650c16f0f2faf8d7a0d14c09","651c0a65569882f3c1b0355b","null","null","<p style=""font-size: 60px; font-family: BACS"">PMPtkBbM</p>","","","","","","","","",""
"html-keyboard-response","312","1343866","0.0-14.0-0.61","5dab6e7d80e1780016d5bc9b","650c16f0f2faf8d7a0d14c09","651c0a65569882f3c1b0355b","null","null","<p style=""font-size: 60px; font-family: BACS"">ZdlObadk</p>","","","","","","","","",""
"html-keyboard-response","313","1344867","0.0-14.0-0.62","5dab6e7d80e1780016d5bc9b","650c16f0f2faf8d7a0d14c09","651c0a65569882f3c1b0355b","null","null","<p style=""font-size: 60px; font-family: BACS"">htmhCmKcD</p>","","","","","","","","",""
"html-keyboard-response","314","1345871","0.0-14.0-0.63","5dab6e7d80e1780016d5bc9b","650c16f0f2faf8d7a0d14c09","651c0a65569882f3c1b0355b","null","null","<p style=""font-size: 60px; font-family: BACS"">ZdlOYmb</p>","","","","","","","","",""
"html-keyboard-response","315","1346871","0.0-14.0-0.64","5dab6e7d80e1780016d5bc9b","650c16f0f2faf8d7a0d14c09","651c0a65569882f3c1b0355b","null","null","<p style=""font-size: 60px; font-family: BACS"">rLaZkmU</p>","","","","","","","","",""
"html-keyboard-response","316","1347880","0.0-14.0-0.65","5dab6e7d80e1780016d5bc9b","650c16f0f2faf8d7a0d14c09","651c0a65569882f3c1b0355b","null","null","<p style=""font-size: 60px; font-family: BACS"">cdKBYbRC</p>","","","","","","","","",""
"html-keyboard-response","317","1348882","0.0-14.0-0.66","5dab6e7d80e1780016d5bc9b","650c16f0f2faf8d7a0d14c09","651c0a65569882f3c1b0355b","null","null","<p style=""font-size: 60px; font-family: BACS"">JdGmkmU</p>","","","","","","","","",""
"html-keyboard-response","318","1349883","0.0-14.0-0.67","5dab6e7d80e1780016d5bc9b","650c16f0f2faf8d7a0d14c09","651c0a65569882f3c1b0355b","null","null","<p style=""font-size: 60px; font-family: BACS"">PMPtkbRC</p>","","","","","","","","",""
"html-keyboard-response","319","1350884","0.0-14.0-0.68","5dab6e7d80e1780016d5bc9b","650c16f0f2faf8d7a0d14c09","651c0a65569882f3c1b0355b","null","null","<p style=""font-size: 60px; font-family: BACS"">ZdlOuda</p>","","","","","","","","",""
"html-keyboard-response","320","1351895","0.0-14.0-0.69","5dab6e7d80e1780016d5bc9b","650c16f0f2faf8d7a0d14c09","651c0a65569882f3c1b0355b","null","null","<p style=""font-size: 60px; font-family: BACS"">DBPhcmKcD</p>","","","","","","","","",""
"html-keyboard-response","321","1352907","0.0-14.0-0.70","5dab6e7d80e1780016d5bc9b","650c16f0f2faf8d7a0d14c09","651c0a65569882f3c1b0355b","null","null","<p style=""font-size: 60px; font-family: BACS"">htmhCbRC</p>","","","","","","","","",""
"html-keyboard-response","322","1353908","0.0-14.0-0.71","5dab6e7d80e1780016d5bc9b","650c16f0f2faf8d7a0d14c09","651c0a65569882f3c1b0355b","null","null","<p style=""font-size: 60px; font-family: BACS"">UvOGYmb</p>","","","","","","","","",""
"html-keyboard-response","323","1354915","0.0-14.0-0.72","5dab6e7d80e1780016d5bc9b","650c16f0f2faf8d7a0d14c09","651c0a65569882f3c1b0355b","null","null","<p style=""font-size: 60px; font-family: BACS"">JauQbadk</p>","","","","","","","","",""
"html-keyboard-response","324","1355929","0.0-14.0-0.73","5dab6e7d80e1780016d5bc9b","650c16f0f2faf8d7a0d14c09","651c0a65569882f3c1b0355b","null","null","<p style=""font-size: 60px; font-family: BACS"">JdGmYmb</p>","","","","","","","","",""
"html-keyboard-response","325","1356931","0.0-14.0-0.74","5dab6e7d80e1780016d5bc9b","650c16f0f2faf8d7a0d14c09","651c0a65569882f3c1b0355b","null","null","<p style=""font-size: 60px; font-family: BACS"">BOckPEKBO</p>","","","","","","","","",""
"html-keyboard-response","326","1357933","0.0-14.0-0.75","5dab6e7d80e1780016d5bc9b","650c16f0f2faf8d7a0d14c09","651c0a65569882f3c1b0355b","null","null","<p style=""font-size: 60px; font-family: BACS"">mcOJkbu</p>","","","","","","","","",""
"html-keyboard-response","327","1358934","0.0-14.0-0.76","5dab6e7d80e1780016d5bc9b","650c16f0f2faf8d7a0d14c09","651c0a65569882f3c1b0355b","null","null","<p style=""font-size: 60px; font-family: BACS"">DBPhcEKBO</p>","","","","","","","","",""
"html-keyboard-response","328","1359935","0.0-14.0-0.77","5dab6e7d80e1780016d5bc9b","650c16f0f2faf8d7a0d14c09","651c0a65569882f3c1b0355b","null","null","<p style=""font-size: 60px; font-family: BACS"">mcOJkmU</p>","","","","","","","","",""
"html-keyboard-response","329","1360946","0.0-14.0-0.78","5dab6e7d80e1780016d5bc9b","650c16f0f2faf8d7a0d14c09","651c0a65569882f3c1b0355b","null","null","<p style=""font-size: 60px; font-family: BACS"">GJGcZuda</p>","","","","","","","","",""
"html-keyboard-response","330","1361953","0.0-14.0-0.79","5dab6e7d80e1780016d5bc9b","650c16f0f2faf8d7a0d14c09","651c0a65569882f3c1b0355b","null","null","<p style=""font-size: 60px; font-family: BACS"">BOckPbRC</p>","","","","","","","","",""
"html-keyboard-response","331","1364189","0.0-15.0","5dab6e7d80e1780016d5bc9b","650c16f0f2faf8d7a0d14c09","651c0a65569882f3c1b0355b","2235"," ","<p>Great, you've seen the fourth block of words. You may now take a short break.</p>
      <p>Press the spacebar when you're ready to continue.</p>","","","","","","","","",""
"html-keyboard-response","332","1365195","0.0-16.0-0.0","5dab6e7d80e1780016d5bc9b","650c16f0f2faf8d7a0d14c09","651c0a65569882f3c1b0355b","null","null","<p style=""font-size: 60px; font-family: BACS"">cdKBYBCAd</p>","","","","","","","","",""
"html-keyboard-response","333","1366207","0.0-16.0-0.1","5dab6e7d80e1780016d5bc9b","650c16f0f2faf8d7a0d14c09","651c0a65569882f3c1b0355b","null","null","<p style=""font-size: 60px; font-family: BACS"">cdKBYBCAd</p>","","","","","","","","",""
"html-keyboard-response","334","1367216","0.0-16.0-0.2","5dab6e7d80e1780016d5bc9b","650c16f0f2faf8d7a0d14c09","651c0a65569882f3c1b0355b","null","null","<p style=""font-size: 60px; font-family: BACS"">cdKBYBCAd</p>","","","","","","","","",""
"html-keyboard-response","335","1368226","0.0-16.0-0.3","5dab6e7d80e1780016d5bc9b","650c16f0f2faf8d7a0d14c09","651c0a65569882f3c1b0355b","null","null","<p style=""font-size: 60px; font-family: BACS"">cdKBYBCAd</p>","","","","","","","","",""
"html-keyboard-response","336","1369228","0.0-16.0-0.4","5dab6e7d80e1780016d5bc9b","650c16f0f2faf8d7a0d14c09","651c0a65569882f3c1b0355b","null","null","<p style=""font-size: 60px; font-family: BACS"">cdKBYBCAd</p>","","","","","","","","",""
"html-keyboard-response","337","1370234","0.0-16.0-0.5","5dab6e7d80e1780016d5bc9b","650c16f0f2faf8d7a0d14c09","651c0a65569882f3c1b0355b","null","null","<p style=""font-size: 60px; font-family: BACS"">cdKBYBCAd</p>","","","","","","","","",""
"html-keyboard-response","338","1371236","0.0-16.0-0.6","5dab6e7d80e1780016d5bc9b","650c16f0f2faf8d7a0d14c09","651c0a65569882f3c1b0355b","null","null","<p style=""font-size: 60px; font-family: BACS"">cdKBYBCAd</p>","","","","","","","","",""
"html-keyboard-response","339","1372237","0.0-16.0-0.7","5dab6e7d80e1780016d5bc9b","650c16f0f2faf8d7a0d14c09","651c0a65569882f3c1b0355b","null","null","<p style=""font-size: 60px; font-family: BACS"">cdKBYBCAd</p>","","","","","","","","",""
"html-keyboard-response","340","1373238","0.0-16.0-0.8","5dab6e7d80e1780016d5bc9b","650c16f0f2faf8d7a0d14c09","651c0a65569882f3c1b0355b","null","null","<p style=""font-size: 60px; font-family: BACS"">cdKBYBCAd</p>","","","","","","","","",""
"html-keyboard-response","341","1374240","0.0-16.0-0.9","5dab6e7d80e1780016d5bc9b","650c16f0f2faf8d7a0d14c09","651c0a65569882f3c1b0355b","null","null","<p style=""font-size: 60px; font-family: BACS"">cdKBYBCAd</p>","","","","","","","","",""
"html-keyboard-response","342","1375254","0.0-16.0-0.10","5dab6e7d80e1780016d5bc9b","650c16f0f2faf8d7a0d14c09","651c0a65569882f3c1b0355b","null","null","<p style=""font-size: 60px; font-family: BACS"">cdKBYBCAd</p>","","","","","","","","",""
"html-keyboard-response","343","1376265","0.0-16.0-0.11","5dab6e7d80e1780016d5bc9b","650c16f0f2faf8d7a0d14c09","651c0a65569882f3c1b0355b","null","null","<p style=""font-size: 60px; font-family: BACS"">cdKBYBCAd</p>","","","","","","","","",""
"html-keyboard-response","344","1377267","0.0-16.0-0.12","5dab6e7d80e1780016d5bc9b","650c16f0f2faf8d7a0d14c09","651c0a65569882f3c1b0355b","null","null","<p style=""font-size: 60px; font-family: BACS"">cdKBYBCAd</p>","","","","","","","","",""
"html-keyboard-response","345","1378274","0.0-16.0-0.13","5dab6e7d80e1780016d5bc9b","650c16f0f2faf8d7a0d14c09","651c0a65569882f3c1b0355b","null","null","<p style=""font-size: 60px; font-family: BACS"">cdKBYBCAd</p>","","","","","","","","",""
"html-keyboard-response","346","1379275","0.0-16.0-0.14","5dab6e7d80e1780016d5bc9b","650c16f0f2faf8d7a0d14c09","651c0a65569882f3c1b0355b","null","null","<p style=""font-size: 60px; font-family: BACS"">cdKBYBCAd</p>","","","","","","","","",""
"html-keyboard-response","347","1380277","0.0-16.0-0.15","5dab6e7d80e1780016d5bc9b","650c16f0f2faf8d7a0d14c09","651c0a65569882f3c1b0355b","null","null","<p style=""font-size: 60px; font-family: BACS"">cdKBYBCAd</p>","","","","","","","","",""
"html-keyboard-response","348","1381279","0.0-16.0-0.16","5dab6e7d80e1780016d5bc9b","650c16f0f2faf8d7a0d14c09","651c0a65569882f3c1b0355b","null","null","<p style=""font-size: 60px; font-family: BACS"">cdKBYBCAd</p>","","","","","","","","",""
"html-keyboard-response","349","1382280","0.0-16.0-0.17","5dab6e7d80e1780016d5bc9b","650c16f0f2faf8d7a0d14c09","651c0a65569882f3c1b0355b","null","null","<p style=""font-size: 60px; font-family: BACS"">cdKBYBCAd</p>","","","","","","","","",""
"html-keyboard-response","350","1383281","0.0-16.0-0.18","5dab6e7d80e1780016d5bc9b","650c16f0f2faf8d7a0d14c09","651c0a65569882f3c1b0355b","null","null","<p style=""font-size: 60px; font-family: BACS"">cdKBYBCAd</p>","","","","","","","","",""
"html-keyboard-response","351","1384297","0.0-16.0-0.19","5dab6e7d80e1780016d5bc9b","650c16f0f2faf8d7a0d14c09","651c0a65569882f3c1b0355b","null","null","<p style=""font-size: 60px; font-family: BACS"">cdKBYBCAd</p>","","","","","","","","",""
"html-keyboard-response","352","1385308","0.0-16.0-0.20","5dab6e7d80e1780016d5bc9b","650c16f0f2faf8d7a0d14c09","651c0a65569882f3c1b0355b","null","null","<p style=""font-size: 60px; font-family: BACS"">cdKBYBCAd</p>","","","","","","","","",""
"html-keyboard-response","353","1386324","0.0-16.0-0.21","5dab6e7d80e1780016d5bc9b","650c16f0f2faf8d7a0d14c09","651c0a65569882f3c1b0355b","null","null","<p style=""font-size: 60px; font-family: BACS"">cdKBYBCAd</p>","","","","","","","","",""
"html-keyboard-response","354","1387337","0.0-16.0-0.22","5dab6e7d80e1780016d5bc9b","650c16f0f2faf8d7a0d14c09","651c0a65569882f3c1b0355b","null","null","<p style=""font-size: 60px; font-family: BACS"">cdKBYBCAd</p>","","","","","","","","",""
"html-keyboard-response","355","1388337","0.0-16.0-0.23","5dab6e7d80e1780016d5bc9b","650c16f0f2faf8d7a0d14c09","651c0a65569882f3c1b0355b","null","null","<p style=""font-size: 60px; font-family: BACS"">cdKBYBCAd</p>","","","","","","","","",""
"html-keyboard-response","356","1389339","0.0-16.0-0.24","5dab6e7d80e1780016d5bc9b","650c16f0f2faf8d7a0d14c09","651c0a65569882f3c1b0355b","null","null","<p style=""font-size: 60px; font-family: BACS"">cdKBYBCAd</p>","","","","","","","","",""
"html-keyboard-response","357","1390340","0.0-16.0-0.25","5dab6e7d80e1780016d5bc9b","650c16f0f2faf8d7a0d14c09","651c0a65569882f3c1b0355b","null","null","<p style=""font-size: 60px; font-family: BACS"">cdKBYBCAd</p>","","","","","","","","",""
"html-keyboard-response","358","1391342","0.0-16.0-0.26","5dab6e7d80e1780016d5bc9b","650c16f0f2faf8d7a0d14c09","651c0a65569882f3c1b0355b","null","null","<p style=""font-size: 60px; font-family: BACS"">cdKBYBCAd</p>","","","","","","","","",""
"html-keyboard-response","359","1392343","0.0-16.0-0.27","5dab6e7d80e1780016d5bc9b","650c16f0f2faf8d7a0d14c09","651c0a65569882f3c1b0355b","null","null","<p style=""font-size: 60px; font-family: BACS"">cdKBYBCAd</p>","","","","","","","","",""
"html-keyboard-response","360","1393350","0.0-16.0-0.28","5dab6e7d80e1780016d5bc9b","650c16f0f2faf8d7a0d14c09","651c0a65569882f3c1b0355b","null","null","<p style=""font-size: 60px; font-family: BACS"">cdKBYBCAd</p>","","","","","","","","",""
"html-keyboard-response","361","1394364","0.0-16.0-0.29","5dab6e7d80e1780016d5bc9b","650c16f0f2faf8d7a0d14c09","651c0a65569882f3c1b0355b","null","null","<p style=""font-size: 60px; font-family: BACS"">cdKBYBCAd</p>","","","","","","","","",""
"html-keyboard-response","362","1395365","0.0-16.0-0.30","5dab6e7d80e1780016d5bc9b","650c16f0f2faf8d7a0d14c09","651c0a65569882f3c1b0355b","null","null","<p style=""font-size: 60px; font-family: BACS"">cdKBYBCAd</p>","","","","","","","","",""
"html-keyboard-response","363","1396374","0.0-16.0-0.31","5dab6e7d80e1780016d5bc9b","650c16f0f2faf8d7a0d14c09","651c0a65569882f3c1b0355b","null","null","<p style=""font-size: 60px; font-family: BACS"">cdKBYBCAd</p>","","","","","","","","",""
"html-keyboard-response","364","1397375","0.0-16.0-0.32","5dab6e7d80e1780016d5bc9b","650c16f0f2faf8d7a0d14c09","651c0a65569882f3c1b0355b","null","null","<p style=""font-size: 60px; font-family: BACS"">cdKBYBCAd</p>","","","","","","","","",""
"html-keyboard-response","365","1398377","0.0-16.0-0.33","5dab6e7d80e1780016d5bc9b","650c16f0f2faf8d7a0d14c09","651c0a65569882f3c1b0355b","null","null","<p style=""font-size: 60px; font-family: BACS"">cdKBYBCAd</p>","","","","","","","","",""
"html-keyboard-response","366","1399378","0.0-16.0-0.34","5dab6e7d80e1780016d5bc9b","650c16f0f2faf8d7a0d14c09","651c0a65569882f3c1b0355b","null","null","<p style=""font-size: 60px; font-family: BACS"">cdKBYBCAd</p>","","","","","","","","",""
"html-keyboard-response","367","1400387","0.0-16.0-0.35","5dab6e7d80e1780016d5bc9b","650c16f0f2faf8d7a0d14c09","651c0a65569882f3c1b0355b","null","null","<p style=""font-size: 60px; font-family: BACS"">cdKBYBCAd</p>","","","","","","","","",""
"html-keyboard-response","368","1401402","0.0-16.0-0.36","5dab6e7d80e1780016d5bc9b","650c16f0f2faf8d7a0d14c09","651c0a65569882f3c1b0355b","null","null","<p style=""font-size: 60px; font-family: BACS"">cdKBYBCAd</p>","","","","","","","","",""
"html-keyboard-response","369","1402414","0.0-16.0-0.37","5dab6e7d80e1780016d5bc9b","650c16f0f2faf8d7a0d14c09","651c0a65569882f3c1b0355b","null","null","<p style=""font-size: 60px; font-family: BACS"">cdKBYBCAd</p>","","","","","","","","",""
"html-keyboard-response","370","1403416","0.0-16.0-0.38","5dab6e7d80e1780016d5bc9b","650c16f0f2faf8d7a0d14c09","651c0a65569882f3c1b0355b","null","null","<p style=""font-size: 60px; font-family: BACS"">cdKBYBCAd</p>","","","","","","","","",""
"html-keyboard-response","371","1404417","0.0-16.0-0.39","5dab6e7d80e1780016d5bc9b","650c16f0f2faf8d7a0d14c09","651c0a65569882f3c1b0355b","null","null","<p style=""font-size: 60px; font-family: BACS"">cdKBYBCAd</p>","","","","","","","","",""
"html-keyboard-response","372","1405418","0.0-16.0-0.40","5dab6e7d80e1780016d5bc9b","650c16f0f2faf8d7a0d14c09","651c0a65569882f3c1b0355b","null","null","<p style=""font-size: 60px; font-family: BACS"">cdKBYBCAd</p>","","","","","","","","",""
"html-keyboard-response","373","1406419","0.0-16.0-0.41","5dab6e7d80e1780016d5bc9b","650c16f0f2faf8d7a0d14c09","651c0a65569882f3c1b0355b","null","null","<p style=""font-size: 60px; font-family: BACS"">cdKBYBCAd</p>","","","","","","","","",""
"html-keyboard-response","374","1407430","0.0-16.0-0.42","5dab6e7d80e1780016d5bc9b","650c16f0f2faf8d7a0d14c09","651c0a65569882f3c1b0355b","null","null","<p style=""font-size: 60px; font-family: BACS"">cdKBYBCAd</p>","","","","","","","","",""
"html-keyboard-response","375","1408435","0.0-16.0-0.43","5dab6e7d80e1780016d5bc9b","650c16f0f2faf8d7a0d14c09","651c0a65569882f3c1b0355b","null","null","<p style=""font-size: 60px; font-family: BACS"">cdKBYBCAd</p>","","","","","","","","",""
"html-keyboard-response","376","1409437","0.0-16.0-0.44","5dab6e7d80e1780016d5bc9b","650c16f0f2faf8d7a0d14c09","651c0a65569882f3c1b0355b","null","null","<p style=""font-size: 60px; font-family: BACS"">cdKBYBCAd</p>","","","","","","","","",""
"html-keyboard-response","377","1410439","0.0-16.0-0.45","5dab6e7d80e1780016d5bc9b","650c16f0f2faf8d7a0d14c09","651c0a65569882f3c1b0355b","null","null","<p style=""font-size: 60px; font-family: BACS"">cdKBYBCAd</p>","","","","","","","","",""
"html-keyboard-response","378","1411440","0.0-16.0-0.46","5dab6e7d80e1780016d5bc9b","650c16f0f2faf8d7a0d14c09","651c0a65569882f3c1b0355b","null","null","<p style=""font-size: 60px; font-family: BACS"">cdKBYBCAd</p>","","","","","","","","",""
"html-keyboard-response","379","1412451","0.0-16.0-0.47","5dab6e7d80e1780016d5bc9b","650c16f0f2faf8d7a0d14c09","651c0a65569882f3c1b0355b","null","null","<p style=""font-size: 60px; font-family: BACS"">cdKBYBCAd</p>","","","","","","","","",""
"html-keyboard-response","380","1413465","0.0-16.0-0.48","5dab6e7d80e1780016d5bc9b","650c16f0f2faf8d7a0d14c09","651c0a65569882f3c1b0355b","null","null","<p style=""font-size: 60px; font-family: BACS"">cdKBYBCAd</p>","","","","","","","","",""
"html-keyboard-response","381","1414466","0.0-16.0-0.49","5dab6e7d80e1780016d5bc9b","650c16f0f2faf8d7a0d14c09","651c0a65569882f3c1b0355b","null","null","<p style=""font-size: 60px; font-family: BACS"">cdKBYBCAd</p>","","","","","","","","",""
"html-keyboard-response","382","1415467","0.0-16.0-0.50","5dab6e7d80e1780016d5bc9b","650c16f0f2faf8d7a0d14c09","651c0a65569882f3c1b0355b","null","null","<p style=""font-size: 60px; font-family: BACS"">cdKBYBCAd</p>","","","","","","","","",""
"html-keyboard-response","383","1416472","0.0-16.0-0.51","5dab6e7d80e1780016d5bc9b","650c16f0f2faf8d7a0d14c09","651c0a65569882f3c1b0355b","null","null","<p style=""font-size: 60px; font-family: BACS"">cdKBYBCAd</p>","","","","","","","","",""
"html-keyboard-response","384","1417473","0.0-16.0-0.52","5dab6e7d80e1780016d5bc9b","650c16f0f2faf8d7a0d14c09","651c0a65569882f3c1b0355b","null","null","<p style=""font-size: 60px; font-family: BACS"">cdKBYBCAd</p>","","","","","","","","",""
"html-keyboard-response","385","1418475","0.0-16.0-0.53","5dab6e7d80e1780016d5bc9b","650c16f0f2faf8d7a0d14c09","651c0a65569882f3c1b0355b","null","null","<p style=""font-size: 60px; font-family: BACS"">cdKBYBCAd</p>","","","","","","","","",""
"html-keyboard-response","386","1419481","0.0-16.0-0.54","5dab6e7d80e1780016d5bc9b","650c16f0f2faf8d7a0d14c09","651c0a65569882f3c1b0355b","null","null","<p style=""font-size: 60px; font-family: BACS"">cdKBYBCAd</p>","","","","","","","","",""
"html-keyboard-response","387","1420483","0.0-16.0-0.55","5dab6e7d80e1780016d5bc9b","650c16f0f2faf8d7a0d14c09","651c0a65569882f3c1b0355b","null","null","<p style=""font-size: 60px; font-family: BACS"">cdKBYBCAd</p>","","","","","","","","",""
"html-keyboard-response","388","1421484","0.0-16.0-0.56","5dab6e7d80e1780016d5bc9b","650c16f0f2faf8d7a0d14c09","651c0a65569882f3c1b0355b","null","null","<p style=""font-size: 60px; font-family: BACS"">cdKBYBCAd</p>","","","","","","","","",""
"html-keyboard-response","389","1422486","0.0-16.0-0.57","5dab6e7d80e1780016d5bc9b","650c16f0f2faf8d7a0d14c09","651c0a65569882f3c1b0355b","null","null","<p style=""font-size: 60px; font-family: BACS"">cdKBYBCAd</p>","","","","","","","","",""
"html-keyboard-response","390","1423498","0.0-16.0-0.58","5dab6e7d80e1780016d5bc9b","650c16f0f2faf8d7a0d14c09","651c0a65569882f3c1b0355b","null","null","<p style=""font-size: 60px; font-family: BACS"">cdKBYBCAd</p>","","","","","","","","",""
"html-keyboard-response","391","1424499","0.0-16.0-0.59","5dab6e7d80e1780016d5bc9b","650c16f0f2faf8d7a0d14c09","651c0a65569882f3c1b0355b","null","null","<p style=""font-size: 60px; font-family: BACS"">cdKBYBCAd</p>","","","","","","","","",""
"html-keyboard-response","392","1425500","0.0-16.0-0.60","5dab6e7d80e1780016d5bc9b","650c16f0f2faf8d7a0d14c09","651c0a65569882f3c1b0355b","null","null","<p style=""font-size: 60px; font-family: BACS"">cdKBYBCAd</p>","","","","","","","","",""
"html-keyboard-response","393","1426500","0.0-16.0-0.61","5dab6e7d80e1780016d5bc9b","650c16f0f2faf8d7a0d14c09","651c0a65569882f3c1b0355b","null","null","<p style=""font-size: 60px; font-family: BACS"">cdKBYBCAd</p>","","","","","","","","",""
"html-keyboard-response","394","1427516","0.0-16.0-0.62","5dab6e7d80e1780016d5bc9b","650c16f0f2faf8d7a0d14c09","651c0a65569882f3c1b0355b","null","null","<p style=""font-size: 60px; font-family: BACS"">cdKBYBCAd</p>","","","","","","","","",""
"html-keyboard-response","395","1428517","0.0-16.0-0.63","5dab6e7d80e1780016d5bc9b","650c16f0f2faf8d7a0d14c09","651c0a65569882f3c1b0355b","null","null","<p style=""font-size: 60px; font-family: BACS"">cdKBYBCAd</p>","","","","","","","","",""
"html-keyboard-response","396","1429518","0.0-16.0-0.64","5dab6e7d80e1780016d5bc9b","650c16f0f2faf8d7a0d14c09","651c0a65569882f3c1b0355b","null","null","<p style=""font-size: 60px; font-family: BACS"">cdKBYBCAd</p>","","","","","","","","",""
