"trial_type","trial_index","time_elapsed","internal_node_id","subject_id","study_id","session_id","rt","response","stimulus","success","item","task","correct_response","testing_condition","correct","target","confound","name","view_history"
"pavlovia","0","1496","0.0-0.0","5eb71c59c55b3b0ce571ae7c","650c16f0f2faf8d7a0d14c09","651c1c3f7c67f2bc3f516fd0","","","","","","","","","","","","",""
"survey-html-form","1","20006","0.0-1.0","5eb71c59c55b3b0ce571ae7c","650c16f0f2faf8d7a0d14c09","651c1c3f7c67f2bc3f516fd0","18507","{""ID"":""5eb71c59c55b3b0ce571ae7c""}","","","","","","","","","","",""
"html-keyboard-response","2","56173","0.0-2.0","5eb71c59c55b3b0ce571ae7c","650c16f0f2faf8d7a0d14c09","651c1c3f7c67f2bc3f516fd0","36165"," ","<p style=""font-size: 15px;"">Before beginning, we ask that you read the consent information and confirm your agreement to participate in the experiment.</p>
      <p style=""font-size: 15px;""> We ask that you remember that this is a research project and that your participation is entirely voluntary. You can stop your participation at any time, without needing to provide any explanation. The study we're asking you to participate in aims at examining how readers process written words. You will be engaged in a session of apprximately 20 minutes, followed by a brief questionnaire. You will have the opportunity to take a few breaks during the experiment. You will be paid £4 for your participation, corresponding to a rate of £8/hour. While this experiment looks at cognitive faculties, this experiment doesn't constitute clinical proof of eventual pathologies.</p>
      <p style=""font-size: 15px;"">All of the information collected thanks to yours and others' participation will be held in a secure password-protected server, and will not be shared with anyone not authorised to view it. Your personal information will be kept with an arbitrary participant ID. Thanks to this data anonymity process, any researcher analysing the data won't be able to track the information back to a specific participant. Therefore, this process will make identifying you impossibile, even when results from the study will be published in scientific reviews, presented at congresses, or at any other public forum. More generally, the collected data will be treated in accordance with the laws on privacy and conformity to the Legislative Degree n. 196 ""Code regarding the protection of personal data"" of the 30th of June 2003 and to the European Regulation 2016/670 (General Data Protection Regulation - GDPR). The Data Protection Officer is Avv. Valentina Carollo, who can be contacted at the following email addresses: <a href=""mailto:dpo@sissa.it"">dpo@sissa.it</a> or <a href=""mailto:rpd@sissa.it"">rpd@sissa.it</a> - PEC: <a href=""mailto:protocollo@pec.sissa.it"">protocollo@pec.sissa.it</a>.</p>
      <p style=""font-size: 15px;""> Before expressing your consent to participate, we would like to remind you again that in case you need explanations on any aspect of the experimental procedure, the researcher is at your disposition (<a href=""mailto:aliebelt@sissa.it"">aliebelt@sissa.it</a>, <a href=""mailto:davide.crepaldi@sissa.it"">davide.crepaldi@sissa.it</a>).</p>
      <p style=""font-size: 15px;"">If you would like to download the informed consent form, you can do so here: <a href=""BASL-Informed_Consent.pdf"" download>informed consent form</a>.</p>
      <p style=""font-size: 15px;"">We ask that you press the spacebar to proceed to the consent section.</p>","","","","","","","","","",""
"survey-html-form","3","69175","0.0-3.0","5eb71c59c55b3b0ce571ae7c","650c16f0f2faf8d7a0d14c09","651c1c3f7c67f2bc3f516fd0","13001","{""consent1"":""YES"",""consent2"":""YES"",""consent3"":""YES"",""consent4"":""YES"",""consent5"":""YES"",""consent6"":""YES""}","","","","","","","","","","",""
"fullscreen","4","75589","0.0-4.0","5eb71c59c55b3b0ce571ae7c","650c16f0f2faf8d7a0d14c09","651c1c3f7c67f2bc3f516fd0","","","","true","","","","","","","","",""
"html-keyboard-response","5","91761","0.0-5.0","5eb71c59c55b3b0ce571ae7c","650c16f0f2faf8d7a0d14c09","651c1c3f7c67f2bc3f516fd0","16170"," ","<p>Welcome, and thank you very much for your time!</p>
      <p>In this experiment, you'll be a language expert who's been asked to take a look at words that Earth has received in its first communication with aliens. Your task, in this first part of the experiment, is to pay close attention to the words you'll be shown; later, world leaders will ask you questions on what you saw. The words will be shown to you quite quickly; it seems that the aliens were in a hurry :-)</p>
      <p>Press the spacebar to continue.<p>","","","","","","","","","",""
"html-keyboard-response","6","91816","0.0-6.0","5eb71c59c55b3b0ce571ae7c","650c16f0f2faf8d7a0d14c09","651c1c3f7c67f2bc3f516fd0","null","null","<p style=""font-size: 120px; font-family: BACS""> </p>","","","","","","","","","",""
"html-keyboard-response","7","100387","0.0-7.0","5eb71c59c55b3b0ce571ae7c","650c16f0f2faf8d7a0d14c09","651c1c3f7c67f2bc3f516fd0","8570"," ","<p>Here is an example of the words you'll see:</p>
      <img src='esempio.png' height='400px'>
      <p>When you're ready to begin, press the spacebar.</p></div>","","","","","","","","","",""
"html-keyboard-response","8","101391","0.0-8.0-0.0","5eb71c59c55b3b0ce571ae7c","650c16f0f2faf8d7a0d14c09","651c1c3f7c67f2bc3f516fd0","null","null","<p style=""font-size: 60px; font-family: BACS"">lZcurkra</p>","","","","","","","","","",""
"html-keyboard-response","9","102400","0.0-8.0-0.1","5eb71c59c55b3b0ce571ae7c","650c16f0f2faf8d7a0d14c09","651c1c3f7c67f2bc3f516fd0","null","null","<p style=""font-size: 60px; font-family: BACS"">DOchlmAM</p>","","","","","","","","","",""
"html-keyboard-response","10","103410","0.0-8.0-0.2","5eb71c59c55b3b0ce571ae7c","650c16f0f2faf8d7a0d14c09","651c1c3f7c67f2bc3f516fd0","null","null","<p style=""font-size: 60px; font-family: BACS"">mkmJNrkra</p>","","","","","","","","","",""
"html-keyboard-response","11","104424","0.0-8.0-0.3","5eb71c59c55b3b0ce571ae7c","650c16f0f2faf8d7a0d14c09","651c1c3f7c67f2bc3f516fd0","null","null","<p style=""font-size: 60px; font-family: BACS"">OQarQYZUZ</p>","","","","","","","","","",""
"html-keyboard-response","12","105437","0.0-8.0-0.4","5eb71c59c55b3b0ce571ae7c","650c16f0f2faf8d7a0d14c09","651c1c3f7c67f2bc3f516fd0","null","null","<p style=""font-size: 60px; font-family: BACS"">EdBbmtKP</p>","","","","","","","","","",""
"html-keyboard-response","13","106443","0.0-8.0-0.5","5eb71c59c55b3b0ce571ae7c","650c16f0f2faf8d7a0d14c09","651c1c3f7c67f2bc3f516fd0","null","null","<p style=""font-size: 60px; font-family: BACS"">LckGNark</p>","","","","","","","","","",""
"html-keyboard-response","14","107457","0.0-8.0-0.6","5eb71c59c55b3b0ce571ae7c","650c16f0f2faf8d7a0d14c09","651c1c3f7c67f2bc3f516fd0","null","null","<p style=""font-size: 60px; font-family: BACS"">EdBbDbMR</p>","","","","","","","","","",""
"html-keyboard-response","15","108467","0.0-8.0-0.7","5eb71c59c55b3b0ce571ae7c","650c16f0f2faf8d7a0d14c09","651c1c3f7c67f2bc3f516fd0","null","null","<p style=""font-size: 60px; font-family: BACS"">TKDkYbBT</p>","","","","","","","","","",""
"html-keyboard-response","16","109469","0.0-8.0-0.8","5eb71c59c55b3b0ce571ae7c","650c16f0f2faf8d7a0d14c09","651c1c3f7c67f2bc3f516fd0","null","null","<p style=""font-size: 60px; font-family: BACS"">kLvdNlLG</p>","","","","","","","","","",""
"html-keyboard-response","17","110482","0.0-8.0-0.9","5eb71c59c55b3b0ce571ae7c","650c16f0f2faf8d7a0d14c09","651c1c3f7c67f2bc3f516fd0","null","null","<p style=""font-size: 60px; font-family: BACS"">mhtcYbBT</p>","","","","","","","","","",""
"html-keyboard-response","18","111497","0.0-8.0-0.10","5eb71c59c55b3b0ce571ae7c","650c16f0f2faf8d7a0d14c09","651c1c3f7c67f2bc3f516fd0","null","null","<p style=""font-size: 60px; font-family: BACS"">DOchlDbMR</p>","","","","","","","","","",""
"html-keyboard-response","19","112503","0.0-8.0-0.11","5eb71c59c55b3b0ce571ae7c","650c16f0f2faf8d7a0d14c09","651c1c3f7c67f2bc3f516fd0","null","null","<p style=""font-size: 60px; font-family: BACS"">GQrcrkra</p>","","","","","","","","","",""
"html-keyboard-response","20","113515","0.0-8.0-0.12","5eb71c59c55b3b0ce571ae7c","650c16f0f2faf8d7a0d14c09","651c1c3f7c67f2bc3f516fd0","null","null","<p style=""font-size: 60px; font-family: BACS"">mhtctAY</p>","","","","","","","","","",""
"html-keyboard-response","21","114525","0.0-8.0-0.13","5eb71c59c55b3b0ce571ae7c","650c16f0f2faf8d7a0d14c09","651c1c3f7c67f2bc3f516fd0","null","null","<p style=""font-size: 60px; font-family: BACS"">EdBbYbBT</p>","","","","","","","","","",""
"html-keyboard-response","22","115534","0.0-8.0-0.14","5eb71c59c55b3b0ce571ae7c","650c16f0f2faf8d7a0d14c09","651c1c3f7c67f2bc3f516fd0","null","null","<p style=""font-size: 60px; font-family: BACS"">OMlTtAY</p>","","","","","","","","","",""
"html-keyboard-response","23","116547","0.0-8.0-0.15","5eb71c59c55b3b0ce571ae7c","650c16f0f2faf8d7a0d14c09","651c1c3f7c67f2bc3f516fd0","null","null","<p style=""font-size: 60px; font-family: BACS"">KTDTBYbBT</p>","","","","","","","","","",""
"html-keyboard-response","24","117553","0.0-8.0-0.16","5eb71c59c55b3b0ce571ae7c","650c16f0f2faf8d7a0d14c09","651c1c3f7c67f2bc3f516fd0","null","null","<p style=""font-size: 60px; font-family: BACS"">mkmJNkbu</p>","","","","","","","","","",""
"html-keyboard-response","25","118563","0.0-8.0-0.17","5eb71c59c55b3b0ce571ae7c","650c16f0f2faf8d7a0d14c09","651c1c3f7c67f2bc3f516fd0","null","null","<p style=""font-size: 60px; font-family: BACS"">LckGNYZUZ</p>","","","","","","","","","",""
"html-keyboard-response","26","119573","0.0-8.0-0.18","5eb71c59c55b3b0ce571ae7c","650c16f0f2faf8d7a0d14c09","651c1c3f7c67f2bc3f516fd0","null","null","<p style=""font-size: 60px; font-family: BACS"">ZdNmUark</p>","","","","","","","","","",""
"html-keyboard-response","27","120576","0.0-8.0-0.19","5eb71c59c55b3b0ce571ae7c","650c16f0f2faf8d7a0d14c09","651c1c3f7c67f2bc3f516fd0","null","null","<p style=""font-size: 60px; font-family: BACS"">rkYLrkra</p>","","","","","","","","","",""
"html-keyboard-response","28","121582","0.0-8.0-0.20","5eb71c59c55b3b0ce571ae7c","650c16f0f2faf8d7a0d14c09","651c1c3f7c67f2bc3f516fd0","null","null","<p style=""font-size: 60px; font-family: BACS"">KTDTBmtKP</p>","","","","","","","","","",""
"html-keyboard-response","29","122584","0.0-8.0-0.21","5eb71c59c55b3b0ce571ae7c","650c16f0f2faf8d7a0d14c09","651c1c3f7c67f2bc3f516fd0","null","null","<p style=""font-size: 60px; font-family: BACS"">mhtcDbMR</p>","","","","","","","","","",""
"html-keyboard-response","30","123590","0.0-8.0-0.22","5eb71c59c55b3b0ce571ae7c","650c16f0f2faf8d7a0d14c09","651c1c3f7c67f2bc3f516fd0","null","null","<p style=""font-size: 60px; font-family: BACS"">dOYmlmAM</p>","","","","","","","","","",""
"html-keyboard-response","31","124604","0.0-8.0-0.23","5eb71c59c55b3b0ce571ae7c","650c16f0f2faf8d7a0d14c09","651c1c3f7c67f2bc3f516fd0","null","null","<p style=""font-size: 60px; font-family: BACS"">OMlTDbMR</p>","","","","","","","","","",""
"html-keyboard-response","32","125607","0.0-8.0-0.24","5eb71c59c55b3b0ce571ae7c","650c16f0f2faf8d7a0d14c09","651c1c3f7c67f2bc3f516fd0","null","null","<p style=""font-size: 60px; font-family: BACS"">PCPDhYbBT</p>","","","","","","","","","",""
"html-keyboard-response","33","126623","0.0-8.0-0.25","5eb71c59c55b3b0ce571ae7c","650c16f0f2faf8d7a0d14c09","651c1c3f7c67f2bc3f516fd0","null","null","<p style=""font-size: 60px; font-family: BACS"">KTDTBtAY</p>","","","","","","","","","",""
"html-keyboard-response","34","127632","0.0-8.0-0.26","5eb71c59c55b3b0ce571ae7c","650c16f0f2faf8d7a0d14c09","651c1c3f7c67f2bc3f516fd0","null","null","<p style=""font-size: 60px; font-family: BACS"">GQrcYZUZ</p>","","","","","","","","","",""
"html-keyboard-response","35","128639","0.0-8.0-0.27","5eb71c59c55b3b0ce571ae7c","650c16f0f2faf8d7a0d14c09","651c1c3f7c67f2bc3f516fd0","null","null","<p style=""font-size: 60px; font-family: BACS"">kMbTRYbBT</p>","","","","","","","","","",""
"html-keyboard-response","36","129641","0.0-8.0-0.28","5eb71c59c55b3b0ce571ae7c","650c16f0f2faf8d7a0d14c09","651c1c3f7c67f2bc3f516fd0","null","null","<p style=""font-size: 60px; font-family: BACS"">mkmJNlLG</p>","","","","","","","","","",""
"html-keyboard-response","37","130654","0.0-8.0-0.29","5eb71c59c55b3b0ce571ae7c","650c16f0f2faf8d7a0d14c09","651c1c3f7c67f2bc3f516fd0","null","null","<p style=""font-size: 60px; font-family: BACS"">rkYLark</p>","","","","","","","","","",""
"html-keyboard-response","38","131659","0.0-8.0-0.30","5eb71c59c55b3b0ce571ae7c","650c16f0f2faf8d7a0d14c09","651c1c3f7c67f2bc3f516fd0","null","null","<p style=""font-size: 60px; font-family: BACS"">DOchltAY</p>","","","","","","","","","",""
"html-keyboard-response","39","132666","0.0-8.0-0.31","5eb71c59c55b3b0ce571ae7c","650c16f0f2faf8d7a0d14c09","651c1c3f7c67f2bc3f516fd0","null","null","<p style=""font-size: 60px; font-family: BACS"">mkmJNark</p>","","","","","","","","","",""
"html-keyboard-response","40","133672","0.0-8.0-0.32","5eb71c59c55b3b0ce571ae7c","650c16f0f2faf8d7a0d14c09","651c1c3f7c67f2bc3f516fd0","null","null","<p style=""font-size: 60px; font-family: BACS"">ZdNmUlLG</p>","","","","","","","","","",""
"html-keyboard-response","41","134688","0.0-8.0-0.33","5eb71c59c55b3b0ce571ae7c","650c16f0f2faf8d7a0d14c09","651c1c3f7c67f2bc3f516fd0","null","null","<p style=""font-size: 60px; font-family: BACS"">GQrckbu</p>","","","","","","","","","",""
"html-keyboard-response","42","135696","0.0-8.0-0.34","5eb71c59c55b3b0ce571ae7c","650c16f0f2faf8d7a0d14c09","651c1c3f7c67f2bc3f516fd0","null","null","<p style=""font-size: 60px; font-family: BACS"">PCPDhmAM</p>","","","","","","","","","",""
"html-keyboard-response","43","136702","0.0-8.0-0.35","5eb71c59c55b3b0ce571ae7c","650c16f0f2faf8d7a0d14c09","651c1c3f7c67f2bc3f516fd0","null","null","<p style=""font-size: 60px; font-family: BACS"">NkUAYZUZ</p>","","","","","","","","","",""
"html-keyboard-response","44","137714","0.0-8.0-0.36","5eb71c59c55b3b0ce571ae7c","650c16f0f2faf8d7a0d14c09","651c1c3f7c67f2bc3f516fd0","null","null","<p style=""font-size: 60px; font-family: BACS"">KAERMmtKP</p>","","","","","","","","","",""
"html-keyboard-response","45","138722","0.0-8.0-0.37","5eb71c59c55b3b0ce571ae7c","650c16f0f2faf8d7a0d14c09","651c1c3f7c67f2bc3f516fd0","null","null","<p style=""font-size: 60px; font-family: BACS"">UAcdulLG</p>","","","","","","","","","",""
"html-keyboard-response","46","139738","0.0-8.0-0.38","5eb71c59c55b3b0ce571ae7c","650c16f0f2faf8d7a0d14c09","651c1c3f7c67f2bc3f516fd0","null","null","<p style=""font-size: 60px; font-family: BACS"">lZcuYZUZ</p>","","","","","","","","","",""
"html-keyboard-response","47","140749","0.0-8.0-0.39","5eb71c59c55b3b0ce571ae7c","650c16f0f2faf8d7a0d14c09","651c1c3f7c67f2bc3f516fd0","null","null","<p style=""font-size: 60px; font-family: BACS"">kLvdNrkra</p>","","","","","","","","","",""
"html-keyboard-response","48","141763","0.0-8.0-0.40","5eb71c59c55b3b0ce571ae7c","650c16f0f2faf8d7a0d14c09","651c1c3f7c67f2bc3f516fd0","null","null","<p style=""font-size: 60px; font-family: BACS"">lZcuark</p>","","","","","","","","","",""
"html-keyboard-response","49","142768","0.0-8.0-0.41","5eb71c59c55b3b0ce571ae7c","650c16f0f2faf8d7a0d14c09","651c1c3f7c67f2bc3f516fd0","null","null","<p style=""font-size: 60px; font-family: BACS"">kLvdNkbu</p>","","","","","","","","","",""
"html-keyboard-response","50","143782","0.0-8.0-0.42","5eb71c59c55b3b0ce571ae7c","650c16f0f2faf8d7a0d14c09","651c1c3f7c67f2bc3f516fd0","null","null","<p style=""font-size: 60px; font-family: BACS"">KTDTBmAM</p>","","","","","","","","","",""
"html-keyboard-response","51","144797","0.0-8.0-0.43","5eb71c59c55b3b0ce571ae7c","650c16f0f2faf8d7a0d14c09","651c1c3f7c67f2bc3f516fd0","null","null","<p style=""font-size: 60px; font-family: BACS"">ZdNmUkbu</p>","","","","","","","","","",""
"html-keyboard-response","52","145813","0.0-8.0-0.44","5eb71c59c55b3b0ce571ae7c","650c16f0f2faf8d7a0d14c09","651c1c3f7c67f2bc3f516fd0","null","null","<p style=""font-size: 60px; font-family: BACS"">dOYmlYbBT</p>","","","","","","","","","",""
"html-keyboard-response","53","146815","0.0-8.0-0.45","5eb71c59c55b3b0ce571ae7c","650c16f0f2faf8d7a0d14c09","651c1c3f7c67f2bc3f516fd0","null","null","<p style=""font-size: 60px; font-family: BACS"">UAcdukbu</p>","","","","","","","","","",""
"html-keyboard-response","54","147826","0.0-8.0-0.46","5eb71c59c55b3b0ce571ae7c","650c16f0f2faf8d7a0d14c09","651c1c3f7c67f2bc3f516fd0","null","null","<p style=""font-size: 60px; font-family: BACS"">KAERMtAY</p>","","","","","","","","","",""
"html-keyboard-response","55","148828","0.0-8.0-0.47","5eb71c59c55b3b0ce571ae7c","650c16f0f2faf8d7a0d14c09","651c1c3f7c67f2bc3f516fd0","null","null","<p style=""font-size: 60px; font-family: BACS"">PCPDhDbMR</p>","","","","","","","","","",""
"html-keyboard-response","56","149842","0.0-8.0-0.48","5eb71c59c55b3b0ce571ae7c","650c16f0f2faf8d7a0d14c09","651c1c3f7c67f2bc3f516fd0","null","null","<p style=""font-size: 60px; font-family: BACS"">dOYmlmtKP</p>","","","","","","","","","",""
"html-keyboard-response","57","150856","0.0-8.0-0.49","5eb71c59c55b3b0ce571ae7c","650c16f0f2faf8d7a0d14c09","651c1c3f7c67f2bc3f516fd0","null","null","<p style=""font-size: 60px; font-family: BACS"">OMlTmAM</p>","","","","","","","","","",""
"html-keyboard-response","58","151861","0.0-8.0-0.50","5eb71c59c55b3b0ce571ae7c","650c16f0f2faf8d7a0d14c09","651c1c3f7c67f2bc3f516fd0","null","null","<p style=""font-size: 60px; font-family: BACS"">NkUAkbu</p>","","","","","","","","","",""
"html-keyboard-response","59","152871","0.0-8.0-0.51","5eb71c59c55b3b0ce571ae7c","650c16f0f2faf8d7a0d14c09","651c1c3f7c67f2bc3f516fd0","null","null","<p style=""font-size: 60px; font-family: BACS"">kMbTRmtKP</p>","","","","","","","","","",""
"html-keyboard-response","60","153873","0.0-8.0-0.52","5eb71c59c55b3b0ce571ae7c","650c16f0f2faf8d7a0d14c09","651c1c3f7c67f2bc3f516fd0","null","null","<p style=""font-size: 60px; font-family: BACS"">TKDkmAM</p>","","","","","","","","","",""
"html-keyboard-response","61","154879","0.0-8.0-0.53","5eb71c59c55b3b0ce571ae7c","650c16f0f2faf8d7a0d14c09","651c1c3f7c67f2bc3f516fd0","null","null","<p style=""font-size: 60px; font-family: BACS"">kMbTRtAY</p>","","","","","","","","","",""
"html-keyboard-response","62","155887","0.0-8.0-0.54","5eb71c59c55b3b0ce571ae7c","650c16f0f2faf8d7a0d14c09","651c1c3f7c67f2bc3f516fd0","null","null","<p style=""font-size: 60px; font-family: BACS"">DOchlYbBT</p>","","","","","","","","","",""
"html-keyboard-response","63","156904","0.0-8.0-0.55","5eb71c59c55b3b0ce571ae7c","650c16f0f2faf8d7a0d14c09","651c1c3f7c67f2bc3f516fd0","null","null","<p style=""font-size: 60px; font-family: BACS"">OQarQrkra</p>","","","","","","","","","",""
"html-keyboard-response","64","157915","0.0-8.0-0.56","5eb71c59c55b3b0ce571ae7c","650c16f0f2faf8d7a0d14c09","651c1c3f7c67f2bc3f516fd0","null","null","<p style=""font-size: 60px; font-family: BACS"">kMbTRmAM</p>","","","","","","","","","",""
"html-keyboard-response","65","158921","0.0-8.0-0.57","5eb71c59c55b3b0ce571ae7c","650c16f0f2faf8d7a0d14c09","651c1c3f7c67f2bc3f516fd0","null","null","<p style=""font-size: 60px; font-family: BACS"">TKDkDbMR</p>","","","","","","","","","",""
"html-keyboard-response","66","159933","0.0-8.0-0.58","5eb71c59c55b3b0ce571ae7c","650c16f0f2faf8d7a0d14c09","651c1c3f7c67f2bc3f516fd0","null","null","<p style=""font-size: 60px; font-family: BACS"">NkUAlLG</p>","","","","","","","","","",""
"html-keyboard-response","67","160939","0.0-8.0-0.59","5eb71c59c55b3b0ce571ae7c","650c16f0f2faf8d7a0d14c09","651c1c3f7c67f2bc3f516fd0","null","null","<p style=""font-size: 60px; font-family: BACS"">TKDktAY</p>","","","","","","","","","",""
"html-keyboard-response","68","161950","0.0-8.0-0.60","5eb71c59c55b3b0ce571ae7c","650c16f0f2faf8d7a0d14c09","651c1c3f7c67f2bc3f516fd0","null","null","<p style=""font-size: 60px; font-family: BACS"">OMlTmtKP</p>","","","","","","","","","",""
"html-keyboard-response","69","162953","0.0-8.0-0.61","5eb71c59c55b3b0ce571ae7c","650c16f0f2faf8d7a0d14c09","651c1c3f7c67f2bc3f516fd0","null","null","<p style=""font-size: 60px; font-family: BACS"">lZculLG</p>","","","","","","","","","",""
"html-keyboard-response","70","163967","0.0-8.0-0.62","5eb71c59c55b3b0ce571ae7c","650c16f0f2faf8d7a0d14c09","651c1c3f7c67f2bc3f516fd0","null","null","<p style=""font-size: 60px; font-family: BACS"">UAcdurkra</p>","","","","","","","","","",""
"html-keyboard-response","71","164970","0.0-8.0-0.63","5eb71c59c55b3b0ce571ae7c","650c16f0f2faf8d7a0d14c09","651c1c3f7c67f2bc3f516fd0","null","null","<p style=""font-size: 60px; font-family: BACS"">EdBbtAY</p>","","","","","","","","","",""
"html-keyboard-response","72","165983","0.0-8.0-0.64","5eb71c59c55b3b0ce571ae7c","650c16f0f2faf8d7a0d14c09","651c1c3f7c67f2bc3f516fd0","null","null","<p style=""font-size: 60px; font-family: BACS"">mhtcmtKP</p>","","","","","","","","","",""
"html-keyboard-response","73","166985","0.0-8.0-0.65","5eb71c59c55b3b0ce571ae7c","650c16f0f2faf8d7a0d14c09","651c1c3f7c67f2bc3f516fd0","null","null","<p style=""font-size: 60px; font-family: BACS"">rkYLlLG</p>","","","","","","","","","",""
"html-keyboard-response","74","167987","0.0-8.0-0.66","5eb71c59c55b3b0ce571ae7c","650c16f0f2faf8d7a0d14c09","651c1c3f7c67f2bc3f516fd0","null","null","<p style=""font-size: 60px; font-family: BACS"">LckGNrkra</p>","","","","","","","","","",""
"html-keyboard-response","75","168996","0.0-8.0-0.67","5eb71c59c55b3b0ce571ae7c","650c16f0f2faf8d7a0d14c09","651c1c3f7c67f2bc3f516fd0","null","null","<p style=""font-size: 60px; font-family: BACS"">dOYmlDbMR</p>","","","","","","","","","",""
"html-keyboard-response","76","169997","0.0-8.0-0.68","5eb71c59c55b3b0ce571ae7c","650c16f0f2faf8d7a0d14c09","651c1c3f7c67f2bc3f516fd0","null","null","<p style=""font-size: 60px; font-family: BACS"">LckGNkbu</p>","","","","","","","","","",""
"html-keyboard-response","77","171012","0.0-8.0-0.69","5eb71c59c55b3b0ce571ae7c","650c16f0f2faf8d7a0d14c09","651c1c3f7c67f2bc3f516fd0","null","null","<p style=""font-size: 60px; font-family: BACS"">ZdNmUYZUZ</p>","","","","","","","","","",""
"html-keyboard-response","78","172016","0.0-8.0-0.70","5eb71c59c55b3b0ce571ae7c","650c16f0f2faf8d7a0d14c09","651c1c3f7c67f2bc3f516fd0","null","null","<p style=""font-size: 60px; font-family: BACS"">KAERMmAM</p>","","","","","","","","","",""
"html-keyboard-response","79","173033","0.0-8.0-0.71","5eb71c59c55b3b0ce571ae7c","650c16f0f2faf8d7a0d14c09","651c1c3f7c67f2bc3f516fd0","null","null","<p style=""font-size: 60px; font-family: BACS"">rkYLYZUZ</p>","","","","","","","","","",""
"html-keyboard-response","80","174043","0.0-8.0-0.72","5eb71c59c55b3b0ce571ae7c","650c16f0f2faf8d7a0d14c09","651c1c3f7c67f2bc3f516fd0","null","null","<p style=""font-size: 60px; font-family: BACS"">NkUAark</p>","","","","","","","","","",""
"html-keyboard-response","81","175046","0.0-8.0-0.73","5eb71c59c55b3b0ce571ae7c","650c16f0f2faf8d7a0d14c09","651c1c3f7c67f2bc3f516fd0","null","null","<p style=""font-size: 60px; font-family: BACS"">OQarQkbu</p>","","","","","","","","","",""
"html-keyboard-response","82","176055","0.0-8.0-0.74","5eb71c59c55b3b0ce571ae7c","650c16f0f2faf8d7a0d14c09","651c1c3f7c67f2bc3f516fd0","null","null","<p style=""font-size: 60px; font-family: BACS"">KAERMDbMR</p>","","","","","","","","","",""
"html-keyboard-response","83","177060","0.0-8.0-0.75","5eb71c59c55b3b0ce571ae7c","650c16f0f2faf8d7a0d14c09","651c1c3f7c67f2bc3f516fd0","null","null","<p style=""font-size: 60px; font-family: BACS"">kLvdNark</p>","","","","","","","","","",""
"html-keyboard-response","84","178076","0.0-8.0-0.76","5eb71c59c55b3b0ce571ae7c","650c16f0f2faf8d7a0d14c09","651c1c3f7c67f2bc3f516fd0","null","null","<p style=""font-size: 60px; font-family: BACS"">PCPDhmtKP</p>","","","","","","","","","",""
"html-keyboard-response","85","179083","0.0-8.0-0.77","5eb71c59c55b3b0ce571ae7c","650c16f0f2faf8d7a0d14c09","651c1c3f7c67f2bc3f516fd0","null","null","<p style=""font-size: 60px; font-family: BACS"">UAcduYZUZ</p>","","","","","","","","","",""
"html-keyboard-response","86","180100","0.0-8.0-0.78","5eb71c59c55b3b0ce571ae7c","650c16f0f2faf8d7a0d14c09","651c1c3f7c67f2bc3f516fd0","null","null","<p style=""font-size: 60px; font-family: BACS"">GQrcark</p>","","","","","","","","","",""
"html-keyboard-response","87","181116","0.0-8.0-0.79","5eb71c59c55b3b0ce571ae7c","650c16f0f2faf8d7a0d14c09","651c1c3f7c67f2bc3f516fd0","null","null","<p style=""font-size: 60px; font-family: BACS"">OQarQlLG</p>","","","","","","","","","",""
"html-keyboard-response","88","249714","0.0-9.0","5eb71c59c55b3b0ce571ae7c","650c16f0f2faf8d7a0d14c09","651c1c3f7c67f2bc3f516fd0","68597"," ","<p>Great, you've seen the first block of words. You may now take a short break.</p>
      <p>Press the spacebar when you're ready to continue.</p>","","","","","","","","","",""
"html-keyboard-response","89","250730","0.0-10.0-0.0","5eb71c59c55b3b0ce571ae7c","650c16f0f2faf8d7a0d14c09","651c1c3f7c67f2bc3f516fd0","null","null","<p style=""font-size: 60px; font-family: BACS"">DOchltAY</p>","","","","","","","","","",""
"html-keyboard-response","90","251741","0.0-10.0-0.1","5eb71c59c55b3b0ce571ae7c","650c16f0f2faf8d7a0d14c09","651c1c3f7c67f2bc3f516fd0","null","null","<p style=""font-size: 60px; font-family: BACS"">EdBbmtKP</p>","","","","","","","","","",""
"html-keyboard-response","91","252754","0.0-10.0-0.2","5eb71c59c55b3b0ce571ae7c","650c16f0f2faf8d7a0d14c09","651c1c3f7c67f2bc3f516fd0","null","null","<p style=""font-size: 60px; font-family: BACS"">dOYmlmAM</p>","","","","","","","","","",""
"html-keyboard-response","92","253763","0.0-10.0-0.3","5eb71c59c55b3b0ce571ae7c","650c16f0f2faf8d7a0d14c09","651c1c3f7c67f2bc3f516fd0","null","null","<p style=""font-size: 60px; font-family: BACS"">KAERMDbMR</p>","","","","","","","","","",""
"html-keyboard-response","93","254765","0.0-10.0-0.4","5eb71c59c55b3b0ce571ae7c","650c16f0f2faf8d7a0d14c09","651c1c3f7c67f2bc3f516fd0","null","null","<p style=""font-size: 60px; font-family: BACS"">GQrcrkra</p>","","","","","","","","","",""
"html-keyboard-response","94","255776","0.0-10.0-0.5","5eb71c59c55b3b0ce571ae7c","650c16f0f2faf8d7a0d14c09","651c1c3f7c67f2bc3f516fd0","null","null","<p style=""font-size: 60px; font-family: BACS"">kMbTRmAM</p>","","","","","","","","","",""
"html-keyboard-response","95","256778","0.0-10.0-0.6","5eb71c59c55b3b0ce571ae7c","650c16f0f2faf8d7a0d14c09","651c1c3f7c67f2bc3f516fd0","null","null","<p style=""font-size: 60px; font-family: BACS"">NkUAYZUZ</p>","","","","","","","","","",""
"html-keyboard-response","96","257794","0.0-10.0-0.7","5eb71c59c55b3b0ce571ae7c","650c16f0f2faf8d7a0d14c09","651c1c3f7c67f2bc3f516fd0","null","null","<p style=""font-size: 60px; font-family: BACS"">lZculLG</p>","","","","","","","","","",""
"html-keyboard-response","97","258796","0.0-10.0-0.8","5eb71c59c55b3b0ce571ae7c","650c16f0f2faf8d7a0d14c09","651c1c3f7c67f2bc3f516fd0","null","null","<p style=""font-size: 60px; font-family: BACS"">LckGNYZUZ</p>","","","","","","","","","",""
"html-keyboard-response","98","259812","0.0-10.0-0.9","5eb71c59c55b3b0ce571ae7c","650c16f0f2faf8d7a0d14c09","651c1c3f7c67f2bc3f516fd0","null","null","<p style=""font-size: 60px; font-family: BACS"">rkYLlLG</p>","","","","","","","","","",""
"html-keyboard-response","99","260813","0.0-10.0-0.10","5eb71c59c55b3b0ce571ae7c","650c16f0f2faf8d7a0d14c09","651c1c3f7c67f2bc3f516fd0","null","null","<p style=""font-size: 60px; font-family: BACS"">kLvdNark</p>","","","","","","","","","",""
"html-keyboard-response","100","261817","0.0-10.0-0.11","5eb71c59c55b3b0ce571ae7c","650c16f0f2faf8d7a0d14c09","651c1c3f7c67f2bc3f516fd0","null","null","<p style=""font-size: 60px; font-family: BACS"">dOYmlmtKP</p>","","","","","","","","","",""
"html-keyboard-response","101","262826","0.0-10.0-0.12","5eb71c59c55b3b0ce571ae7c","650c16f0f2faf8d7a0d14c09","651c1c3f7c67f2bc3f516fd0","null","null","<p style=""font-size: 60px; font-family: BACS"">mhtctAY</p>","","","","","","","","","",""
"html-keyboard-response","102","263842","0.0-10.0-0.13","5eb71c59c55b3b0ce571ae7c","650c16f0f2faf8d7a0d14c09","651c1c3f7c67f2bc3f516fd0","null","null","<p style=""font-size: 60px; font-family: BACS"">DOchlYbBT</p>","","","","","","","","","",""
"html-keyboard-response","103","264855","0.0-10.0-0.14","5eb71c59c55b3b0ce571ae7c","650c16f0f2faf8d7a0d14c09","651c1c3f7c67f2bc3f516fd0","null","null","<p style=""font-size: 60px; font-family: BACS"">KAERMtAY</p>","","","","","","","","","",""
"html-keyboard-response","104","265871","0.0-10.0-0.15","5eb71c59c55b3b0ce571ae7c","650c16f0f2faf8d7a0d14c09","651c1c3f7c67f2bc3f516fd0","null","null","<p style=""font-size: 60px; font-family: BACS"">GQrckbu</p>","","","","","","","","","",""
"html-keyboard-response","105","266876","0.0-10.0-0.16","5eb71c59c55b3b0ce571ae7c","650c16f0f2faf8d7a0d14c09","651c1c3f7c67f2bc3f516fd0","null","null","<p style=""font-size: 60px; font-family: BACS"">NkUAlLG</p>","","","","","","","","","",""
"html-keyboard-response","106","267888","0.0-10.0-0.17","5eb71c59c55b3b0ce571ae7c","650c16f0f2faf8d7a0d14c09","651c1c3f7c67f2bc3f516fd0","null","null","<p style=""font-size: 60px; font-family: BACS"">lZcuYZUZ</p>","","","","","","","","","",""
"html-keyboard-response","107","268890","0.0-10.0-0.18","5eb71c59c55b3b0ce571ae7c","650c16f0f2faf8d7a0d14c09","651c1c3f7c67f2bc3f516fd0","null","null","<p style=""font-size: 60px; font-family: BACS"">mhtcmtKP</p>","","","","","","","","","",""
"html-keyboard-response","108","269895","0.0-10.0-0.19","5eb71c59c55b3b0ce571ae7c","650c16f0f2faf8d7a0d14c09","651c1c3f7c67f2bc3f516fd0","null","null","<p style=""font-size: 60px; font-family: BACS"">LckGNark</p>","","","","","","","","","",""
"html-keyboard-response","109","270907","0.0-10.0-0.20","5eb71c59c55b3b0ce571ae7c","650c16f0f2faf8d7a0d14c09","651c1c3f7c67f2bc3f516fd0","null","null","<p style=""font-size: 60px; font-family: BACS"">dOYmlDbMR</p>","","","","","","","","","",""
"html-keyboard-response","110","271911","0.0-10.0-0.21","5eb71c59c55b3b0ce571ae7c","650c16f0f2faf8d7a0d14c09","651c1c3f7c67f2bc3f516fd0","null","null","<p style=""font-size: 60px; font-family: BACS"">kLvdNlLG</p>","","","","","","","","","",""
"html-keyboard-response","111","272920","0.0-10.0-0.22","5eb71c59c55b3b0ce571ae7c","650c16f0f2faf8d7a0d14c09","651c1c3f7c67f2bc3f516fd0","null","null","<p style=""font-size: 60px; font-family: BACS"">mkmJNkbu</p>","","","","","","","","","",""
"html-keyboard-response","112","273936","0.0-10.0-0.23","5eb71c59c55b3b0ce571ae7c","650c16f0f2faf8d7a0d14c09","651c1c3f7c67f2bc3f516fd0","null","null","<p style=""font-size: 60px; font-family: BACS"">TKDktAY</p>","","","","","","","","","",""
"html-keyboard-response","113","274939","0.0-10.0-0.24","5eb71c59c55b3b0ce571ae7c","650c16f0f2faf8d7a0d14c09","651c1c3f7c67f2bc3f516fd0","null","null","<p style=""font-size: 60px; font-family: BACS"">UAcduYZUZ</p>","","","","","","","","","",""
"html-keyboard-response","114","275947","0.0-10.0-0.25","5eb71c59c55b3b0ce571ae7c","650c16f0f2faf8d7a0d14c09","651c1c3f7c67f2bc3f516fd0","null","null","<p style=""font-size: 60px; font-family: BACS"">GQrcark</p>","","","","","","","","","",""
"html-keyboard-response","115","276950","0.0-10.0-0.26","5eb71c59c55b3b0ce571ae7c","650c16f0f2faf8d7a0d14c09","651c1c3f7c67f2bc3f516fd0","null","null","<p style=""font-size: 60px; font-family: BACS"">kMbTRmtKP</p>","","","","","","","","","",""
"html-keyboard-response","116","277966","0.0-10.0-0.27","5eb71c59c55b3b0ce571ae7c","650c16f0f2faf8d7a0d14c09","651c1c3f7c67f2bc3f516fd0","null","null","<p style=""font-size: 60px; font-family: BACS"">ZdNmUkbu</p>","","","","","","","","","",""
"html-keyboard-response","117","278977","0.0-10.0-0.28","5eb71c59c55b3b0ce571ae7c","650c16f0f2faf8d7a0d14c09","651c1c3f7c67f2bc3f516fd0","null","null","<p style=""font-size: 60px; font-family: BACS"">DOchlDbMR</p>","","","","","","","","","",""
"html-keyboard-response","118","279984","0.0-10.0-0.29","5eb71c59c55b3b0ce571ae7c","650c16f0f2faf8d7a0d14c09","651c1c3f7c67f2bc3f516fd0","null","null","<p style=""font-size: 60px; font-family: BACS"">OQarQlLG</p>","","","","","","","","","",""
"html-keyboard-response","119","280992","0.0-10.0-0.30","5eb71c59c55b3b0ce571ae7c","650c16f0f2faf8d7a0d14c09","651c1c3f7c67f2bc3f516fd0","null","null","<p style=""font-size: 60px; font-family: BACS"">EdBbtAY</p>","","","","","","","","","",""
"html-keyboard-response","120","281994","0.0-10.0-0.31","5eb71c59c55b3b0ce571ae7c","650c16f0f2faf8d7a0d14c09","651c1c3f7c67f2bc3f516fd0","null","null","<p style=""font-size: 60px; font-family: BACS"">UAcdurkra</p>","","","","","","","","","",""
"html-keyboard-response","121","283008","0.0-10.0-0.32","5eb71c59c55b3b0ce571ae7c","650c16f0f2faf8d7a0d14c09","651c1c3f7c67f2bc3f516fd0","null","null","<p style=""font-size: 60px; font-family: BACS"">TKDkDbMR</p>","","","","","","","","","",""
"html-keyboard-response","122","284023","0.0-10.0-0.33","5eb71c59c55b3b0ce571ae7c","650c16f0f2faf8d7a0d14c09","651c1c3f7c67f2bc3f516fd0","null","null","<p style=""font-size: 60px; font-family: BACS"">lZcurkra</p>","","","","","","","","","",""
"html-keyboard-response","123","285029","0.0-10.0-0.34","5eb71c59c55b3b0ce571ae7c","650c16f0f2faf8d7a0d14c09","651c1c3f7c67f2bc3f516fd0","null","null","<p style=""font-size: 60px; font-family: BACS"">PCPDhDbMR</p>","","","","","","","","","",""
"html-keyboard-response","124","286040","0.0-10.0-0.35","5eb71c59c55b3b0ce571ae7c","650c16f0f2faf8d7a0d14c09","651c1c3f7c67f2bc3f516fd0","null","null","<p style=""font-size: 60px; font-family: BACS"">OMlTtAY</p>","","","","","","","","","",""
"html-keyboard-response","125","287048","0.0-10.0-0.36","5eb71c59c55b3b0ce571ae7c","650c16f0f2faf8d7a0d14c09","651c1c3f7c67f2bc3f516fd0","null","null","<p style=""font-size: 60px; font-family: BACS"">PCPDhYbBT</p>","","","","","","","","","",""
"html-keyboard-response","126","288059","0.0-10.0-0.37","5eb71c59c55b3b0ce571ae7c","650c16f0f2faf8d7a0d14c09","651c1c3f7c67f2bc3f516fd0","null","null","<p style=""font-size: 60px; font-family: BACS"">rkYLrkra</p>","","","","","","","","","",""
"html-keyboard-response","127","289075","0.0-10.0-0.38","5eb71c59c55b3b0ce571ae7c","650c16f0f2faf8d7a0d14c09","651c1c3f7c67f2bc3f516fd0","null","null","<p style=""font-size: 60px; font-family: BACS"">GQrcYZUZ</p>","","","","","","","","","",""
"html-keyboard-response","128","290083","0.0-10.0-0.39","5eb71c59c55b3b0ce571ae7c","650c16f0f2faf8d7a0d14c09","651c1c3f7c67f2bc3f516fd0","null","null","<p style=""font-size: 60px; font-family: BACS"">kLvdNkbu</p>","","","","","","","","","",""
"html-keyboard-response","129","291093","0.0-10.0-0.40","5eb71c59c55b3b0ce571ae7c","650c16f0f2faf8d7a0d14c09","651c1c3f7c67f2bc3f516fd0","null","null","<p style=""font-size: 60px; font-family: BACS"">OMlTDbMR</p>","","","","","","","","","",""
"html-keyboard-response","130","292097","0.0-10.0-0.41","5eb71c59c55b3b0ce571ae7c","650c16f0f2faf8d7a0d14c09","651c1c3f7c67f2bc3f516fd0","null","null","<p style=""font-size: 60px; font-family: BACS"">rkYLark</p>","","","","","","","","","",""
"html-keyboard-response","131","293112","0.0-10.0-0.42","5eb71c59c55b3b0ce571ae7c","650c16f0f2faf8d7a0d14c09","651c1c3f7c67f2bc3f516fd0","null","null","<p style=""font-size: 60px; font-family: BACS"">dOYmlYbBT</p>","","","","","","","","","",""
"html-keyboard-response","132","294118","0.0-10.0-0.43","5eb71c59c55b3b0ce571ae7c","650c16f0f2faf8d7a0d14c09","651c1c3f7c67f2bc3f516fd0","null","null","<p style=""font-size: 60px; font-family: BACS"">KAERMmtKP</p>","","","","","","","","","",""
"html-keyboard-response","133","295120","0.0-10.0-0.44","5eb71c59c55b3b0ce571ae7c","650c16f0f2faf8d7a0d14c09","651c1c3f7c67f2bc3f516fd0","null","null","<p style=""font-size: 60px; font-family: BACS"">TKDkYbBT</p>","","","","","","","","","",""
"html-keyboard-response","134","296129","0.0-10.0-0.45","5eb71c59c55b3b0ce571ae7c","650c16f0f2faf8d7a0d14c09","651c1c3f7c67f2bc3f516fd0","null","null","<p style=""font-size: 60px; font-family: BACS"">mkmJNark</p>","","","","","","","","","",""
"html-keyboard-response","135","297139","0.0-10.0-0.46","5eb71c59c55b3b0ce571ae7c","650c16f0f2faf8d7a0d14c09","651c1c3f7c67f2bc3f516fd0","null","null","<p style=""font-size: 60px; font-family: BACS"">PCPDhmtKP</p>","","","","","","","","","",""
"html-keyboard-response","136","298147","0.0-10.0-0.47","5eb71c59c55b3b0ce571ae7c","650c16f0f2faf8d7a0d14c09","651c1c3f7c67f2bc3f516fd0","null","null","<p style=""font-size: 60px; font-family: BACS"">ZdNmUark</p>","","","","","","","","","",""
"html-keyboard-response","137","299152","0.0-10.0-0.48","5eb71c59c55b3b0ce571ae7c","650c16f0f2faf8d7a0d14c09","651c1c3f7c67f2bc3f516fd0","null","null","<p style=""font-size: 60px; font-family: BACS"">UAcdulLG</p>","","","","","","","","","",""
"html-keyboard-response","138","300154","0.0-10.0-0.49","5eb71c59c55b3b0ce571ae7c","650c16f0f2faf8d7a0d14c09","651c1c3f7c67f2bc3f516fd0","null","null","<p style=""font-size: 60px; font-family: BACS"">KTDTBmtKP</p>","","","","","","","","","",""
"html-keyboard-response","139","301160","0.0-10.0-0.50","5eb71c59c55b3b0ce571ae7c","650c16f0f2faf8d7a0d14c09","651c1c3f7c67f2bc3f516fd0","null","null","<p style=""font-size: 60px; font-family: BACS"">TKDkmAM</p>","","","","","","","","","",""
"html-keyboard-response","140","302174","0.0-10.0-0.51","5eb71c59c55b3b0ce571ae7c","650c16f0f2faf8d7a0d14c09","651c1c3f7c67f2bc3f516fd0","null","null","<p style=""font-size: 60px; font-family: BACS"">OMlTmtKP</p>","","","","","","","","","",""
"html-keyboard-response","141","303190","0.0-10.0-0.52","5eb71c59c55b3b0ce571ae7c","650c16f0f2faf8d7a0d14c09","651c1c3f7c67f2bc3f516fd0","null","null","<p style=""font-size: 60px; font-family: BACS"">KAERMmAM</p>","","","","","","","","","",""
"html-keyboard-response","142","304195","0.0-10.0-0.53","5eb71c59c55b3b0ce571ae7c","650c16f0f2faf8d7a0d14c09","651c1c3f7c67f2bc3f516fd0","null","null","<p style=""font-size: 60px; font-family: BACS"">KTDTBtAY</p>","","","","","","","","","",""
"html-keyboard-response","143","305208","0.0-10.0-0.54","5eb71c59c55b3b0ce571ae7c","650c16f0f2faf8d7a0d14c09","651c1c3f7c67f2bc3f516fd0","null","null","<p style=""font-size: 60px; font-family: BACS"">OMlTmAM</p>","","","","","","","","","",""
"html-keyboard-response","144","306224","0.0-10.0-0.55","5eb71c59c55b3b0ce571ae7c","650c16f0f2faf8d7a0d14c09","651c1c3f7c67f2bc3f516fd0","null","null","<p style=""font-size: 60px; font-family: BACS"">kMbTRtAY</p>","","","","","","","","","",""
"html-keyboard-response","145","307228","0.0-10.0-0.56","5eb71c59c55b3b0ce571ae7c","650c16f0f2faf8d7a0d14c09","651c1c3f7c67f2bc3f516fd0","null","null","<p style=""font-size: 60px; font-family: BACS"">OQarQYZUZ</p>","","","","","","","","","",""
"html-keyboard-response","146","308244","0.0-10.0-0.57","5eb71c59c55b3b0ce571ae7c","650c16f0f2faf8d7a0d14c09","651c1c3f7c67f2bc3f516fd0","null","null","<p style=""font-size: 60px; font-family: BACS"">EdBbDbMR</p>","","","","","","","","","",""
"html-keyboard-response","147","309259","0.0-10.0-0.58","5eb71c59c55b3b0ce571ae7c","650c16f0f2faf8d7a0d14c09","651c1c3f7c67f2bc3f516fd0","null","null","<p style=""font-size: 60px; font-family: BACS"">rkYLYZUZ</p>","","","","","","","","","",""
"html-keyboard-response","148","310272","0.0-10.0-0.59","5eb71c59c55b3b0ce571ae7c","650c16f0f2faf8d7a0d14c09","651c1c3f7c67f2bc3f516fd0","null","null","<p style=""font-size: 60px; font-family: BACS"">mkmJNrkra</p>","","","","","","","","","",""
"html-keyboard-response","149","311288","0.0-10.0-0.60","5eb71c59c55b3b0ce571ae7c","650c16f0f2faf8d7a0d14c09","651c1c3f7c67f2bc3f516fd0","null","null","<p style=""font-size: 60px; font-family: BACS"">lZcuark</p>","","","","","","","","","",""
"html-keyboard-response","150","312303","0.0-10.0-0.61","5eb71c59c55b3b0ce571ae7c","650c16f0f2faf8d7a0d14c09","651c1c3f7c67f2bc3f516fd0","null","null","<p style=""font-size: 60px; font-family: BACS"">mhtcDbMR</p>","","","","","","","","","",""
"html-keyboard-response","151","313315","0.0-10.0-0.62","5eb71c59c55b3b0ce571ae7c","650c16f0f2faf8d7a0d14c09","651c1c3f7c67f2bc3f516fd0","null","null","<p style=""font-size: 60px; font-family: BACS"">kMbTRYbBT</p>","","","","","","","","","",""
"html-keyboard-response","152","314331","0.0-10.0-0.63","5eb71c59c55b3b0ce571ae7c","650c16f0f2faf8d7a0d14c09","651c1c3f7c67f2bc3f516fd0","null","null","<p style=""font-size: 60px; font-family: BACS"">KTDTBmAM</p>","","","","","","","","","",""
"html-keyboard-response","153","315347","0.0-10.0-0.64","5eb71c59c55b3b0ce571ae7c","650c16f0f2faf8d7a0d14c09","651c1c3f7c67f2bc3f516fd0","null","null","<p style=""font-size: 60px; font-family: BACS"">ZdNmUYZUZ</p>","","","","","","","","","",""
"html-keyboard-response","154","316359","0.0-10.0-0.65","5eb71c59c55b3b0ce571ae7c","650c16f0f2faf8d7a0d14c09","651c1c3f7c67f2bc3f516fd0","null","null","<p style=""font-size: 60px; font-family: BACS"">kLvdNrkra</p>","","","","","","","","","",""
"html-keyboard-response","155","317373","0.0-10.0-0.66","5eb71c59c55b3b0ce571ae7c","650c16f0f2faf8d7a0d14c09","651c1c3f7c67f2bc3f516fd0","null","null","<p style=""font-size: 60px; font-family: BACS"">KTDTBYbBT</p>","","","","","","","","","",""
"html-keyboard-response","156","318382","0.0-10.0-0.67","5eb71c59c55b3b0ce571ae7c","650c16f0f2faf8d7a0d14c09","651c1c3f7c67f2bc3f516fd0","null","null","<p style=""font-size: 60px; font-family: BACS"">mkmJNlLG</p>","","","","","","","","","",""
"html-keyboard-response","157","319388","0.0-10.0-0.68","5eb71c59c55b3b0ce571ae7c","650c16f0f2faf8d7a0d14c09","651c1c3f7c67f2bc3f516fd0","null","null","<p style=""font-size: 60px; font-family: BACS"">LckGNkbu</p>","","","","","","","","","",""
"html-keyboard-response","158","320401","0.0-10.0-0.69","5eb71c59c55b3b0ce571ae7c","650c16f0f2faf8d7a0d14c09","651c1c3f7c67f2bc3f516fd0","null","null","<p style=""font-size: 60px; font-family: BACS"">NkUAark</p>","","","","","","","","","",""
"html-keyboard-response","159","321416","0.0-10.0-0.70","5eb71c59c55b3b0ce571ae7c","650c16f0f2faf8d7a0d14c09","651c1c3f7c67f2bc3f516fd0","null","null","<p style=""font-size: 60px; font-family: BACS"">OQarQrkra</p>","","","","","","","","","",""
"html-keyboard-response","160","322424","0.0-10.0-0.71","5eb71c59c55b3b0ce571ae7c","650c16f0f2faf8d7a0d14c09","651c1c3f7c67f2bc3f516fd0","null","null","<p style=""font-size: 60px; font-family: BACS"">ZdNmUlLG</p>","","","","","","","","","",""
"html-keyboard-response","161","323436","0.0-10.0-0.72","5eb71c59c55b3b0ce571ae7c","650c16f0f2faf8d7a0d14c09","651c1c3f7c67f2bc3f516fd0","null","null","<p style=""font-size: 60px; font-family: BACS"">OQarQkbu</p>","","","","","","","","","",""
"html-keyboard-response","162","324443","0.0-10.0-0.73","5eb71c59c55b3b0ce571ae7c","650c16f0f2faf8d7a0d14c09","651c1c3f7c67f2bc3f516fd0","null","null","<p style=""font-size: 60px; font-family: BACS"">DOchlmAM</p>","","","","","","","","","",""
"html-keyboard-response","163","325454","0.0-10.0-0.74","5eb71c59c55b3b0ce571ae7c","650c16f0f2faf8d7a0d14c09","651c1c3f7c67f2bc3f516fd0","null","null","<p style=""font-size: 60px; font-family: BACS"">UAcdukbu</p>","","","","","","","","","",""
"html-keyboard-response","164","326469","0.0-10.0-0.75","5eb71c59c55b3b0ce571ae7c","650c16f0f2faf8d7a0d14c09","651c1c3f7c67f2bc3f516fd0","null","null","<p style=""font-size: 60px; font-family: BACS"">PCPDhmAM</p>","","","","","","","","","",""
"html-keyboard-response","165","327482","0.0-10.0-0.76","5eb71c59c55b3b0ce571ae7c","650c16f0f2faf8d7a0d14c09","651c1c3f7c67f2bc3f516fd0","null","null","<p style=""font-size: 60px; font-family: BACS"">mhtcYbBT</p>","","","","","","","","","",""
"html-keyboard-response","166","328496","0.0-10.0-0.77","5eb71c59c55b3b0ce571ae7c","650c16f0f2faf8d7a0d14c09","651c1c3f7c67f2bc3f516fd0","null","null","<p style=""font-size: 60px; font-family: BACS"">NkUAkbu</p>","","","","","","","","","",""
"html-keyboard-response","167","329511","0.0-10.0-0.78","5eb71c59c55b3b0ce571ae7c","650c16f0f2faf8d7a0d14c09","651c1c3f7c67f2bc3f516fd0","null","null","<p style=""font-size: 60px; font-family: BACS"">EdBbYbBT</p>","","","","","","","","","",""
"html-keyboard-response","168","330521","0.0-10.0-0.79","5eb71c59c55b3b0ce571ae7c","650c16f0f2faf8d7a0d14c09","651c1c3f7c67f2bc3f516fd0","null","null","<p style=""font-size: 60px; font-family: BACS"">LckGNrkra</p>","","","","","","","","","",""
"html-keyboard-response","169","566929","0.0-11.0","5eb71c59c55b3b0ce571ae7c","650c16f0f2faf8d7a0d14c09","651c1c3f7c67f2bc3f516fd0","236406"," ","<p>Great, you've seen the second block of words. You may now take a short break.</p>
      <p>Press the spacebar when you're ready to continue.</p>","","","","","","","","","",""
"html-keyboard-response","170","567940","0.0-12.0-0.0","5eb71c59c55b3b0ce571ae7c","650c16f0f2faf8d7a0d14c09","651c1c3f7c67f2bc3f516fd0","null","null","<p style=""font-size: 60px; font-family: BACS"">kMbTRmAM</p>","","","","","","","","","",""
"html-keyboard-response","171","568947","0.0-12.0-0.1","5eb71c59c55b3b0ce571ae7c","650c16f0f2faf8d7a0d14c09","651c1c3f7c67f2bc3f516fd0","null","null","<p style=""font-size: 60px; font-family: BACS"">KAERMDbMR</p>","","","","","","","","","",""
"html-keyboard-response","172","569950","0.0-12.0-0.2","5eb71c59c55b3b0ce571ae7c","650c16f0f2faf8d7a0d14c09","651c1c3f7c67f2bc3f516fd0","null","null","<p style=""font-size: 60px; font-family: BACS"">OMlTmAM</p>","","","","","","","","","",""
"html-keyboard-response","173","570954","0.0-12.0-0.3","5eb71c59c55b3b0ce571ae7c","650c16f0f2faf8d7a0d14c09","651c1c3f7c67f2bc3f516fd0","null","null","<p style=""font-size: 60px; font-family: BACS"">GQrcrkra</p>","","","","","","","","","",""
"html-keyboard-response","174","571966","0.0-12.0-0.4","5eb71c59c55b3b0ce571ae7c","650c16f0f2faf8d7a0d14c09","651c1c3f7c67f2bc3f516fd0","null","null","<p style=""font-size: 60px; font-family: BACS"">dOYmlDbMR</p>","","","","","","","","","",""
"html-keyboard-response","175","572981","0.0-12.0-0.5","5eb71c59c55b3b0ce571ae7c","650c16f0f2faf8d7a0d14c09","651c1c3f7c67f2bc3f516fd0","null","null","<p style=""font-size: 60px; font-family: BACS"">rkYLark</p>","","","","","","","","","",""
"html-keyboard-response","176","573997","0.0-12.0-0.6","5eb71c59c55b3b0ce571ae7c","650c16f0f2faf8d7a0d14c09","651c1c3f7c67f2bc3f516fd0","null","null","<p style=""font-size: 60px; font-family: BACS"">DOchlmAM</p>","","","","","","","","","",""
"html-keyboard-response","177","575009","0.0-12.0-0.7","5eb71c59c55b3b0ce571ae7c","650c16f0f2faf8d7a0d14c09","651c1c3f7c67f2bc3f516fd0","null","null","<p style=""font-size: 60px; font-family: BACS"">NkUAYZUZ</p>","","","","","","","","","",""
"html-keyboard-response","178","576012","0.0-12.0-0.8","5eb71c59c55b3b0ce571ae7c","650c16f0f2faf8d7a0d14c09","651c1c3f7c67f2bc3f516fd0","null","null","<p style=""font-size: 60px; font-family: BACS"">rkYLlLG</p>","","","","","","","","","",""
"html-keyboard-response","179","577015","0.0-12.0-0.9","5eb71c59c55b3b0ce571ae7c","650c16f0f2faf8d7a0d14c09","651c1c3f7c67f2bc3f516fd0","null","null","<p style=""font-size: 60px; font-family: BACS"">dOYmlYbBT</p>","","","","","","","","","",""
"html-keyboard-response","180","578023","0.0-12.0-0.10","5eb71c59c55b3b0ce571ae7c","650c16f0f2faf8d7a0d14c09","651c1c3f7c67f2bc3f516fd0","null","null","<p style=""font-size: 60px; font-family: BACS"">ZdNmUYZUZ</p>","","","","","","","","","",""
"html-keyboard-response","181","579038","0.0-12.0-0.11","5eb71c59c55b3b0ce571ae7c","650c16f0f2faf8d7a0d14c09","651c1c3f7c67f2bc3f516fd0","null","null","<p style=""font-size: 60px; font-family: BACS"">TKDkYbBT</p>","","","","","","","","","",""
"html-keyboard-response","182","580052","0.0-12.0-0.12","5eb71c59c55b3b0ce571ae7c","650c16f0f2faf8d7a0d14c09","651c1c3f7c67f2bc3f516fd0","null","null","<p style=""font-size: 60px; font-family: BACS"">EdBbDbMR</p>","","","","","","","","","",""
"html-keyboard-response","183","581066","0.0-12.0-0.13","5eb71c59c55b3b0ce571ae7c","650c16f0f2faf8d7a0d14c09","651c1c3f7c67f2bc3f516fd0","null","null","<p style=""font-size: 60px; font-family: BACS"">rkYLYZUZ</p>","","","","","","","","","",""
"html-keyboard-response","184","582081","0.0-12.0-0.14","5eb71c59c55b3b0ce571ae7c","650c16f0f2faf8d7a0d14c09","651c1c3f7c67f2bc3f516fd0","null","null","<p style=""font-size: 60px; font-family: BACS"">KAERMmAM</p>","","","","","","","","","",""
"html-keyboard-response","185","583093","0.0-12.0-0.15","5eb71c59c55b3b0ce571ae7c","650c16f0f2faf8d7a0d14c09","651c1c3f7c67f2bc3f516fd0","null","null","<p style=""font-size: 60px; font-family: BACS"">OMlTmtKP</p>","","","","","","","","","",""
"html-keyboard-response","186","584108","0.0-12.0-0.16","5eb71c59c55b3b0ce571ae7c","650c16f0f2faf8d7a0d14c09","651c1c3f7c67f2bc3f516fd0","null","null","<p style=""font-size: 60px; font-family: BACS"">mkmJNark</p>","","","","","","","","","",""
"html-keyboard-response","187","585120","0.0-12.0-0.17","5eb71c59c55b3b0ce571ae7c","650c16f0f2faf8d7a0d14c09","651c1c3f7c67f2bc3f516fd0","null","null","<p style=""font-size: 60px; font-family: BACS"">KTDTBmAM</p>","","","","","","","","","",""
"html-keyboard-response","188","586133","0.0-12.0-0.18","5eb71c59c55b3b0ce571ae7c","650c16f0f2faf8d7a0d14c09","651c1c3f7c67f2bc3f516fd0","null","null","<p style=""font-size: 60px; font-family: BACS"">kLvdNark</p>","","","","","","","","","",""
"html-keyboard-response","189","587146","0.0-12.0-0.19","5eb71c59c55b3b0ce571ae7c","650c16f0f2faf8d7a0d14c09","651c1c3f7c67f2bc3f516fd0","null","null","<p style=""font-size: 60px; font-family: BACS"">kMbTRtAY</p>","","","","","","","","","",""
"html-keyboard-response","190","588161","0.0-12.0-0.20","5eb71c59c55b3b0ce571ae7c","650c16f0f2faf8d7a0d14c09","651c1c3f7c67f2bc3f516fd0","null","null","<p style=""font-size: 60px; font-family: BACS"">kLvdNlLG</p>","","","","","","","","","",""
"html-keyboard-response","191","589171","0.0-12.0-0.21","5eb71c59c55b3b0ce571ae7c","650c16f0f2faf8d7a0d14c09","651c1c3f7c67f2bc3f516fd0","null","null","<p style=""font-size: 60px; font-family: BACS"">OQarQrkra</p>","","","","","","","","","",""
"html-keyboard-response","192","590187","0.0-12.0-0.22","5eb71c59c55b3b0ce571ae7c","650c16f0f2faf8d7a0d14c09","651c1c3f7c67f2bc3f516fd0","null","null","<p style=""font-size: 60px; font-family: BACS"">DOchlYbBT</p>","","","","","","","","","",""
"html-keyboard-response","193","591199","0.0-12.0-0.23","5eb71c59c55b3b0ce571ae7c","650c16f0f2faf8d7a0d14c09","651c1c3f7c67f2bc3f516fd0","null","null","<p style=""font-size: 60px; font-family: BACS"">OMlTtAY</p>","","","","","","","","","",""
"html-keyboard-response","194","592204","0.0-12.0-0.24","5eb71c59c55b3b0ce571ae7c","650c16f0f2faf8d7a0d14c09","651c1c3f7c67f2bc3f516fd0","null","null","<p style=""font-size: 60px; font-family: BACS"">mhtcDbMR</p>","","","","","","","","","",""
"html-keyboard-response","195","593218","0.0-12.0-0.25","5eb71c59c55b3b0ce571ae7c","650c16f0f2faf8d7a0d14c09","651c1c3f7c67f2bc3f516fd0","null","null","<p style=""font-size: 60px; font-family: BACS"">UAcduYZUZ</p>","","","","","","","","","",""
"html-keyboard-response","196","594224","0.0-12.0-0.26","5eb71c59c55b3b0ce571ae7c","650c16f0f2faf8d7a0d14c09","651c1c3f7c67f2bc3f516fd0","null","null","<p style=""font-size: 60px; font-family: BACS"">mkmJNlLG</p>","","","","","","","","","",""
"html-keyboard-response","197","595231","0.0-12.0-0.27","5eb71c59c55b3b0ce571ae7c","650c16f0f2faf8d7a0d14c09","651c1c3f7c67f2bc3f516fd0","null","null","<p style=""font-size: 60px; font-family: BACS"">lZcuark</p>","","","","","","","","","",""
"html-keyboard-response","198","596237","0.0-12.0-0.28","5eb71c59c55b3b0ce571ae7c","650c16f0f2faf8d7a0d14c09","651c1c3f7c67f2bc3f516fd0","null","null","<p style=""font-size: 60px; font-family: BACS"">TKDktAY</p>","","","","","","","","","",""
"html-keyboard-response","199","597251","0.0-12.0-0.29","5eb71c59c55b3b0ce571ae7c","650c16f0f2faf8d7a0d14c09","651c1c3f7c67f2bc3f516fd0","null","null","<p style=""font-size: 60px; font-family: BACS"">lZculLG</p>","","","","","","","","","",""
"html-keyboard-response","200","598257","0.0-12.0-0.30","5eb71c59c55b3b0ce571ae7c","650c16f0f2faf8d7a0d14c09","651c1c3f7c67f2bc3f516fd0","null","null","<p style=""font-size: 60px; font-family: BACS"">ZdNmUark</p>","","","","","","","","","",""
"html-keyboard-response","201","599261","0.0-12.0-0.31","5eb71c59c55b3b0ce571ae7c","650c16f0f2faf8d7a0d14c09","651c1c3f7c67f2bc3f516fd0","null","null","<p style=""font-size: 60px; font-family: BACS"">rkYLrkra</p>","","","","","","","","","",""
"html-keyboard-response","202","600266","0.0-12.0-0.32","5eb71c59c55b3b0ce571ae7c","650c16f0f2faf8d7a0d14c09","651c1c3f7c67f2bc3f516fd0","null","null","<p style=""font-size: 60px; font-family: BACS"">GQrcYZUZ</p>","","","","","","","","","",""
"html-keyboard-response","203","601269","0.0-12.0-0.33","5eb71c59c55b3b0ce571ae7c","650c16f0f2faf8d7a0d14c09","651c1c3f7c67f2bc3f516fd0","null","null","<p style=""font-size: 60px; font-family: BACS"">kMbTRmtKP</p>","","","","","","","","","",""
"html-keyboard-response","204","602274","0.0-12.0-0.34","5eb71c59c55b3b0ce571ae7c","650c16f0f2faf8d7a0d14c09","651c1c3f7c67f2bc3f516fd0","null","null","<p style=""font-size: 60px; font-family: BACS"">lZcuYZUZ</p>","","","","","","","","","",""
"html-keyboard-response","205","603283","0.0-12.0-0.35","5eb71c59c55b3b0ce571ae7c","650c16f0f2faf8d7a0d14c09","651c1c3f7c67f2bc3f516fd0","null","null","<p style=""font-size: 60px; font-family: BACS"">OQarQlLG</p>","","","","","","","","","",""
"html-keyboard-response","206","604296","0.0-12.0-0.36","5eb71c59c55b3b0ce571ae7c","650c16f0f2faf8d7a0d14c09","651c1c3f7c67f2bc3f516fd0","null","null","<p style=""font-size: 60px; font-family: BACS"">dOYmlmAM</p>","","","","","","","","","",""
"html-keyboard-response","207","605310","0.0-12.0-0.37","5eb71c59c55b3b0ce571ae7c","650c16f0f2faf8d7a0d14c09","651c1c3f7c67f2bc3f516fd0","null","null","<p style=""font-size: 60px; font-family: BACS"">KAERMmtKP</p>","","","","","","","","","",""
"html-keyboard-response","208","606315","0.0-12.0-0.38","5eb71c59c55b3b0ce571ae7c","650c16f0f2faf8d7a0d14c09","651c1c3f7c67f2bc3f516fd0","null","null","<p style=""font-size: 60px; font-family: BACS"">LckGNark</p>","","","","","","","","","",""
"html-keyboard-response","209","607318","0.0-12.0-0.39","5eb71c59c55b3b0ce571ae7c","650c16f0f2faf8d7a0d14c09","651c1c3f7c67f2bc3f516fd0","null","null","<p style=""font-size: 60px; font-family: BACS"">kLvdNkbu</p>","","","","","","","","","",""
"html-keyboard-response","210","608332","0.0-12.0-0.40","5eb71c59c55b3b0ce571ae7c","650c16f0f2faf8d7a0d14c09","651c1c3f7c67f2bc3f516fd0","null","null","<p style=""font-size: 60px; font-family: BACS"">UAcdulLG</p>","","","","","","","","","",""
"html-keyboard-response","211","609348","0.0-12.0-0.41","5eb71c59c55b3b0ce571ae7c","650c16f0f2faf8d7a0d14c09","651c1c3f7c67f2bc3f516fd0","null","null","<p style=""font-size: 60px; font-family: BACS"">PCPDhYbBT</p>","","","","","","","","","",""
"html-keyboard-response","212","610358","0.0-12.0-0.42","5eb71c59c55b3b0ce571ae7c","650c16f0f2faf8d7a0d14c09","651c1c3f7c67f2bc3f516fd0","null","null","<p style=""font-size: 60px; font-family: BACS"">UAcdurkra</p>","","","","","","","","","",""
"html-keyboard-response","213","611373","0.0-12.0-0.43","5eb71c59c55b3b0ce571ae7c","650c16f0f2faf8d7a0d14c09","651c1c3f7c67f2bc3f516fd0","null","null","<p style=""font-size: 60px; font-family: BACS"">dOYmlmtKP</p>","","","","","","","","","",""
"html-keyboard-response","214","612387","0.0-12.0-0.44","5eb71c59c55b3b0ce571ae7c","650c16f0f2faf8d7a0d14c09","651c1c3f7c67f2bc3f516fd0","null","null","<p style=""font-size: 60px; font-family: BACS"">mhtctAY</p>","","","","","","","","","",""
"html-keyboard-response","215","613392","0.0-12.0-0.45","5eb71c59c55b3b0ce571ae7c","650c16f0f2faf8d7a0d14c09","651c1c3f7c67f2bc3f516fd0","null","null","<p style=""font-size: 60px; font-family: BACS"">ZdNmUkbu</p>","","","","","","","","","",""
"html-keyboard-response","216","614408","0.0-12.0-0.46","5eb71c59c55b3b0ce571ae7c","650c16f0f2faf8d7a0d14c09","651c1c3f7c67f2bc3f516fd0","null","null","<p style=""font-size: 60px; font-family: BACS"">EdBbYbBT</p>","","","","","","","","","",""
"html-keyboard-response","217","615423","0.0-12.0-0.47","5eb71c59c55b3b0ce571ae7c","650c16f0f2faf8d7a0d14c09","651c1c3f7c67f2bc3f516fd0","null","null","<p style=""font-size: 60px; font-family: BACS"">OQarQkbu</p>","","","","","","","","","",""
"html-keyboard-response","218","616436","0.0-12.0-0.48","5eb71c59c55b3b0ce571ae7c","650c16f0f2faf8d7a0d14c09","651c1c3f7c67f2bc3f516fd0","null","null","<p style=""font-size: 60px; font-family: BACS"">DOchltAY</p>","","","","","","","","","",""
"html-keyboard-response","219","617449","0.0-12.0-0.49","5eb71c59c55b3b0ce571ae7c","650c16f0f2faf8d7a0d14c09","651c1c3f7c67f2bc3f516fd0","null","null","<p style=""font-size: 60px; font-family: BACS"">PCPDhDbMR</p>","","","","","","","","","",""
"html-keyboard-response","220","618462","0.0-12.0-0.50","5eb71c59c55b3b0ce571ae7c","650c16f0f2faf8d7a0d14c09","651c1c3f7c67f2bc3f516fd0","null","null","<p style=""font-size: 60px; font-family: BACS"">UAcdukbu</p>","","","","","","","","","",""
"html-keyboard-response","221","619466","0.0-12.0-0.51","5eb71c59c55b3b0ce571ae7c","650c16f0f2faf8d7a0d14c09","651c1c3f7c67f2bc3f516fd0","null","null","<p style=""font-size: 60px; font-family: BACS"">TKDkDbMR</p>","","","","","","","","","",""
"html-keyboard-response","222","620482","0.0-12.0-0.52","5eb71c59c55b3b0ce571ae7c","650c16f0f2faf8d7a0d14c09","651c1c3f7c67f2bc3f516fd0","null","null","<p style=""font-size: 60px; font-family: BACS"">PCPDhmAM</p>","","","","","","","","","",""
"html-keyboard-response","223","621497","0.0-12.0-0.53","5eb71c59c55b3b0ce571ae7c","650c16f0f2faf8d7a0d14c09","651c1c3f7c67f2bc3f516fd0","null","null","<p style=""font-size: 60px; font-family: BACS"">mkmJNkbu</p>","","","","","","","","","",""
"html-keyboard-response","224","622510","0.0-12.0-0.54","5eb71c59c55b3b0ce571ae7c","650c16f0f2faf8d7a0d14c09","651c1c3f7c67f2bc3f516fd0","null","null","<p style=""font-size: 60px; font-family: BACS"">KTDTBtAY</p>","","","","","","","","","",""
"html-keyboard-response","225","623521","0.0-12.0-0.55","5eb71c59c55b3b0ce571ae7c","650c16f0f2faf8d7a0d14c09","651c1c3f7c67f2bc3f516fd0","null","null","<p style=""font-size: 60px; font-family: BACS"">LckGNkbu</p>","","","","","","","","","",""
"html-keyboard-response","226","624528","0.0-12.0-0.56","5eb71c59c55b3b0ce571ae7c","650c16f0f2faf8d7a0d14c09","651c1c3f7c67f2bc3f516fd0","null","null","<p style=""font-size: 60px; font-family: BACS"">mhtcmtKP</p>","","","","","","","","","",""
"html-keyboard-response","227","625537","0.0-12.0-0.57","5eb71c59c55b3b0ce571ae7c","650c16f0f2faf8d7a0d14c09","651c1c3f7c67f2bc3f516fd0","null","null","<p style=""font-size: 60px; font-family: BACS"">TKDkmAM</p>","","","","","","","","","",""
"html-keyboard-response","228","626549","0.0-12.0-0.58","5eb71c59c55b3b0ce571ae7c","650c16f0f2faf8d7a0d14c09","651c1c3f7c67f2bc3f516fd0","null","null","<p style=""font-size: 60px; font-family: BACS"">kMbTRYbBT</p>","","","","","","","","","",""
"html-keyboard-response","229","627564","0.0-12.0-0.59","5eb71c59c55b3b0ce571ae7c","650c16f0f2faf8d7a0d14c09","651c1c3f7c67f2bc3f516fd0","null","null","<p style=""font-size: 60px; font-family: BACS"">KAERMtAY</p>","","","","","","","","","",""
"html-keyboard-response","230","628578","0.0-12.0-0.60","5eb71c59c55b3b0ce571ae7c","650c16f0f2faf8d7a0d14c09","651c1c3f7c67f2bc3f516fd0","null","null","<p style=""font-size: 60px; font-family: BACS"">GQrcark</p>","","","","","","","","","",""
"html-keyboard-response","231","629580","0.0-12.0-0.61","5eb71c59c55b3b0ce571ae7c","650c16f0f2faf8d7a0d14c09","651c1c3f7c67f2bc3f516fd0","null","null","<p style=""font-size: 60px; font-family: BACS"">EdBbmtKP</p>","","","","","","","","","",""
"html-keyboard-response","232","630591","0.0-12.0-0.62","5eb71c59c55b3b0ce571ae7c","650c16f0f2faf8d7a0d14c09","651c1c3f7c67f2bc3f516fd0","null","null","<p style=""font-size: 60px; font-family: BACS"">LckGNrkra</p>","","","","","","","","","",""
"html-keyboard-response","233","631598","0.0-12.0-0.63","5eb71c59c55b3b0ce571ae7c","650c16f0f2faf8d7a0d14c09","651c1c3f7c67f2bc3f516fd0","null","null","<p style=""font-size: 60px; font-family: BACS"">mhtcYbBT</p>","","","","","","","","","",""
"html-keyboard-response","234","632611","0.0-12.0-0.64","5eb71c59c55b3b0ce571ae7c","650c16f0f2faf8d7a0d14c09","651c1c3f7c67f2bc3f516fd0","null","null","<p style=""font-size: 60px; font-family: BACS"">NkUAkbu</p>","","","","","","","","","",""
"html-keyboard-response","235","633616","0.0-12.0-0.65","5eb71c59c55b3b0ce571ae7c","650c16f0f2faf8d7a0d14c09","651c1c3f7c67f2bc3f516fd0","null","null","<p style=""font-size: 60px; font-family: BACS"">mkmJNrkra</p>","","","","","","","","","",""
"html-keyboard-response","236","634630","0.0-12.0-0.66","5eb71c59c55b3b0ce571ae7c","650c16f0f2faf8d7a0d14c09","651c1c3f7c67f2bc3f516fd0","null","null","<p style=""font-size: 60px; font-family: BACS"">PCPDhmtKP</p>","","","","","","","","","",""
"html-keyboard-response","237","635645","0.0-12.0-0.67","5eb71c59c55b3b0ce571ae7c","650c16f0f2faf8d7a0d14c09","651c1c3f7c67f2bc3f516fd0","null","null","<p style=""font-size: 60px; font-family: BACS"">KTDTBYbBT</p>","","","","","","","","","",""
"html-keyboard-response","238","636661","0.0-12.0-0.68","5eb71c59c55b3b0ce571ae7c","650c16f0f2faf8d7a0d14c09","651c1c3f7c67f2bc3f516fd0","null","null","<p style=""font-size: 60px; font-family: BACS"">GQrckbu</p>","","","","","","","","","",""
"html-keyboard-response","239","637675","0.0-12.0-0.69","5eb71c59c55b3b0ce571ae7c","650c16f0f2faf8d7a0d14c09","651c1c3f7c67f2bc3f516fd0","null","null","<p style=""font-size: 60px; font-family: BACS"">EdBbtAY</p>","","","","","","","","","",""
"html-keyboard-response","240","638680","0.0-12.0-0.70","5eb71c59c55b3b0ce571ae7c","650c16f0f2faf8d7a0d14c09","651c1c3f7c67f2bc3f516fd0","null","null","<p style=""font-size: 60px; font-family: BACS"">kLvdNrkra</p>","","","","","","","","","",""
"html-keyboard-response","241","639687","0.0-12.0-0.71","5eb71c59c55b3b0ce571ae7c","650c16f0f2faf8d7a0d14c09","651c1c3f7c67f2bc3f516fd0","null","null","<p style=""font-size: 60px; font-family: BACS"">KTDTBmtKP</p>","","","","","","","","","",""
"html-keyboard-response","242","640699","0.0-12.0-0.72","5eb71c59c55b3b0ce571ae7c","650c16f0f2faf8d7a0d14c09","651c1c3f7c67f2bc3f516fd0","null","null","<p style=""font-size: 60px; font-family: BACS"">lZcurkra</p>","","","","","","","","","",""
"html-keyboard-response","243","641706","0.0-12.0-0.73","5eb71c59c55b3b0ce571ae7c","650c16f0f2faf8d7a0d14c09","651c1c3f7c67f2bc3f516fd0","null","null","<p style=""font-size: 60px; font-family: BACS"">OMlTDbMR</p>","","","","","","","","","",""
"html-keyboard-response","244","642721","0.0-12.0-0.74","5eb71c59c55b3b0ce571ae7c","650c16f0f2faf8d7a0d14c09","651c1c3f7c67f2bc3f516fd0","null","null","<p style=""font-size: 60px; font-family: BACS"">NkUAark</p>","","","","","","","","","",""
"html-keyboard-response","245","643727","0.0-12.0-0.75","5eb71c59c55b3b0ce571ae7c","650c16f0f2faf8d7a0d14c09","651c1c3f7c67f2bc3f516fd0","null","null","<p style=""font-size: 60px; font-family: BACS"">LckGNYZUZ</p>","","","","","","","","","",""
"html-keyboard-response","246","644742","0.0-12.0-0.76","5eb71c59c55b3b0ce571ae7c","650c16f0f2faf8d7a0d14c09","651c1c3f7c67f2bc3f516fd0","null","null","<p style=""font-size: 60px; font-family: BACS"">DOchlDbMR</p>","","","","","","","","","",""
"html-keyboard-response","247","645744","0.0-12.0-0.77","5eb71c59c55b3b0ce571ae7c","650c16f0f2faf8d7a0d14c09","651c1c3f7c67f2bc3f516fd0","null","null","<p style=""font-size: 60px; font-family: BACS"">NkUAlLG</p>","","","","","","","","","",""
"html-keyboard-response","248","646760","0.0-12.0-0.78","5eb71c59c55b3b0ce571ae7c","650c16f0f2faf8d7a0d14c09","651c1c3f7c67f2bc3f516fd0","null","null","<p style=""font-size: 60px; font-family: BACS"">OQarQYZUZ</p>","","","","","","","","","",""
"html-keyboard-response","249","647768","0.0-12.0-0.79","5eb71c59c55b3b0ce571ae7c","650c16f0f2faf8d7a0d14c09","651c1c3f7c67f2bc3f516fd0","null","null","<p style=""font-size: 60px; font-family: BACS"">ZdNmUlLG</p>","","","","","","","","","",""
"html-keyboard-response","250","651886","0.0-13.0","5eb71c59c55b3b0ce571ae7c","650c16f0f2faf8d7a0d14c09","651c1c3f7c67f2bc3f516fd0","4116"," ","<p>Great, you've seen the third block of words. You may now take a short break.</p>
      <p>Press the spacebar when you're ready to continue.</p>","","","","","","","","","",""
"html-keyboard-response","251","652896","0.0-14.0-0.0","5eb71c59c55b3b0ce571ae7c","650c16f0f2faf8d7a0d14c09","651c1c3f7c67f2bc3f516fd0","null","null","<p style=""font-size: 60px; font-family: BACS"">KAERMmtKP</p>","","","","","","","","","",""
"html-keyboard-response","252","653912","0.0-14.0-0.1","5eb71c59c55b3b0ce571ae7c","650c16f0f2faf8d7a0d14c09","651c1c3f7c67f2bc3f516fd0","null","null","<p style=""font-size: 60px; font-family: BACS"">lZculLG</p>","","","","","","","","","",""
"html-keyboard-response","253","654927","0.0-14.0-0.2","5eb71c59c55b3b0ce571ae7c","650c16f0f2faf8d7a0d14c09","651c1c3f7c67f2bc3f516fd0","null","null","<p style=""font-size: 60px; font-family: BACS"">OMlTDbMR</p>","","","","","","","","","",""
"html-keyboard-response","254","655942","0.0-14.0-0.3","5eb71c59c55b3b0ce571ae7c","650c16f0f2faf8d7a0d14c09","651c1c3f7c67f2bc3f516fd0","null","null","<p style=""font-size: 60px; font-family: BACS"">OQarQkbu</p>","","","","","","","","","",""
"html-keyboard-response","255","656954","0.0-14.0-0.4","5eb71c59c55b3b0ce571ae7c","650c16f0f2faf8d7a0d14c09","651c1c3f7c67f2bc3f516fd0","null","null","<p style=""font-size: 60px; font-family: BACS"">mhtcYbBT</p>","","","","","","","","","",""
"html-keyboard-response","256","657971","0.0-14.0-0.5","5eb71c59c55b3b0ce571ae7c","650c16f0f2faf8d7a0d14c09","651c1c3f7c67f2bc3f516fd0","null","null","<p style=""font-size: 60px; font-family: BACS"">OQarQlLG</p>","","","","","","","","","",""
"html-keyboard-response","257","658979","0.0-14.0-0.6","5eb71c59c55b3b0ce571ae7c","650c16f0f2faf8d7a0d14c09","651c1c3f7c67f2bc3f516fd0","null","null","<p style=""font-size: 60px; font-family: BACS"">LckGNrkra</p>","","","","","","","","","",""
"html-keyboard-response","258","659983","0.0-14.0-0.7","5eb71c59c55b3b0ce571ae7c","650c16f0f2faf8d7a0d14c09","651c1c3f7c67f2bc3f516fd0","null","null","<p style=""font-size: 60px; font-family: BACS"">OMlTtAY</p>","","","","","","","","","",""
"html-keyboard-response","259","660988","0.0-14.0-0.8","5eb71c59c55b3b0ce571ae7c","650c16f0f2faf8d7a0d14c09","651c1c3f7c67f2bc3f516fd0","null","null","<p style=""font-size: 60px; font-family: BACS"">GQrcark</p>","","","","","","","","","",""
"html-keyboard-response","260","661996","0.0-14.0-0.9","5eb71c59c55b3b0ce571ae7c","650c16f0f2faf8d7a0d14c09","651c1c3f7c67f2bc3f516fd0","null","null","<p style=""font-size: 60px; font-family: BACS"">KTDTBmtKP</p>","","","","","","","","","",""
"html-keyboard-response","261","662999","0.0-14.0-0.10","5eb71c59c55b3b0ce571ae7c","650c16f0f2faf8d7a0d14c09","651c1c3f7c67f2bc3f516fd0","null","null","<p style=""font-size: 60px; font-family: BACS"">EdBbDbMR</p>","","","","","","","","","",""
"html-keyboard-response","262","664016","0.0-14.0-0.11","5eb71c59c55b3b0ce571ae7c","650c16f0f2faf8d7a0d14c09","651c1c3f7c67f2bc3f516fd0","null","null","<p style=""font-size: 60px; font-family: BACS"">ZdNmUlLG</p>","","","","","","","","","",""
"html-keyboard-response","263","665024","0.0-14.0-0.12","5eb71c59c55b3b0ce571ae7c","650c16f0f2faf8d7a0d14c09","651c1c3f7c67f2bc3f516fd0","null","null","<p style=""font-size: 60px; font-family: BACS"">PCPDhmAM</p>","","","","","","","","","",""
"html-keyboard-response","264","666031","0.0-14.0-0.13","5eb71c59c55b3b0ce571ae7c","650c16f0f2faf8d7a0d14c09","651c1c3f7c67f2bc3f516fd0","null","null","<p style=""font-size: 60px; font-family: BACS"">rkYLrkra</p>","","","","","","","","","",""
"html-keyboard-response","265","667047","0.0-14.0-0.14","5eb71c59c55b3b0ce571ae7c","650c16f0f2faf8d7a0d14c09","651c1c3f7c67f2bc3f516fd0","null","null","<p style=""font-size: 60px; font-family: BACS"">kLvdNkbu</p>","","","","","","","","","",""
"html-keyboard-response","266","668057","0.0-14.0-0.15","5eb71c59c55b3b0ce571ae7c","650c16f0f2faf8d7a0d14c09","651c1c3f7c67f2bc3f516fd0","null","null","<p style=""font-size: 60px; font-family: BACS"">mhtctAY</p>","","","","","","","","","",""
"html-keyboard-response","267","669063","0.0-14.0-0.16","5eb71c59c55b3b0ce571ae7c","650c16f0f2faf8d7a0d14c09","651c1c3f7c67f2bc3f516fd0","null","null","<p style=""font-size: 60px; font-family: BACS"">kMbTRmAM</p>","","","","","","","","","",""
"html-keyboard-response","268","670080","0.0-14.0-0.17","5eb71c59c55b3b0ce571ae7c","650c16f0f2faf8d7a0d14c09","651c1c3f7c67f2bc3f516fd0","null","null","<p style=""font-size: 60px; font-family: BACS"">DOchltAY</p>","","","","","","","","","",""
"html-keyboard-response","269","671089","0.0-14.0-0.18","5eb71c59c55b3b0ce571ae7c","650c16f0f2faf8d7a0d14c09","651c1c3f7c67f2bc3f516fd0","null","null","<p style=""font-size: 60px; font-family: BACS"">LckGNark</p>","","","","","","","","","",""
"html-keyboard-response","270","672105","0.0-14.0-0.19","5eb71c59c55b3b0ce571ae7c","650c16f0f2faf8d7a0d14c09","651c1c3f7c67f2bc3f516fd0","null","null","<p style=""font-size: 60px; font-family: BACS"">EdBbtAY</p>","","","","","","","","","",""
"html-keyboard-response","271","673116","0.0-14.0-0.20","5eb71c59c55b3b0ce571ae7c","650c16f0f2faf8d7a0d14c09","651c1c3f7c67f2bc3f516fd0","null","null","<p style=""font-size: 60px; font-family: BACS"">TKDkYbBT</p>","","","","","","","","","",""
"html-keyboard-response","272","674128","0.0-14.0-0.21","5eb71c59c55b3b0ce571ae7c","650c16f0f2faf8d7a0d14c09","651c1c3f7c67f2bc3f516fd0","null","null","<p style=""font-size: 60px; font-family: BACS"">OQarQrkra</p>","","","","","","","","","",""
"html-keyboard-response","273","675140","0.0-14.0-0.22","5eb71c59c55b3b0ce571ae7c","650c16f0f2faf8d7a0d14c09","651c1c3f7c67f2bc3f516fd0","null","null","<p style=""font-size: 60px; font-family: BACS"">TKDkDbMR</p>","","","","","","","","","",""
"html-keyboard-response","274","676142","0.0-14.0-0.23","5eb71c59c55b3b0ce571ae7c","650c16f0f2faf8d7a0d14c09","651c1c3f7c67f2bc3f516fd0","null","null","<p style=""font-size: 60px; font-family: BACS"">kMbTRYbBT</p>","","","","","","","","","",""
"html-keyboard-response","275","677148","0.0-14.0-0.24","5eb71c59c55b3b0ce571ae7c","650c16f0f2faf8d7a0d14c09","651c1c3f7c67f2bc3f516fd0","null","null","<p style=""font-size: 60px; font-family: BACS"">EdBbmtKP</p>","","","","","","","","","",""
"html-keyboard-response","276","678155","0.0-14.0-0.25","5eb71c59c55b3b0ce571ae7c","650c16f0f2faf8d7a0d14c09","651c1c3f7c67f2bc3f516fd0","null","null","<p style=""font-size: 60px; font-family: BACS"">lZcuYZUZ</p>","","","","","","","","","",""
"html-keyboard-response","277","679163","0.0-14.0-0.26","5eb71c59c55b3b0ce571ae7c","650c16f0f2faf8d7a0d14c09","651c1c3f7c67f2bc3f516fd0","null","null","<p style=""font-size: 60px; font-family: BACS"">EdBbYbBT</p>","","","","","","","","","",""
"html-keyboard-response","278","680171","0.0-14.0-0.27","5eb71c59c55b3b0ce571ae7c","650c16f0f2faf8d7a0d14c09","651c1c3f7c67f2bc3f516fd0","null","null","<p style=""font-size: 60px; font-family: BACS"">NkUAYZUZ</p>","","","","","","","","","",""
"html-keyboard-response","279","681180","0.0-14.0-0.28","5eb71c59c55b3b0ce571ae7c","650c16f0f2faf8d7a0d14c09","651c1c3f7c67f2bc3f516fd0","null","null","<p style=""font-size: 60px; font-family: BACS"">KAERMDbMR</p>","","","","","","","","","",""
"html-keyboard-response","280","682195","0.0-14.0-0.29","5eb71c59c55b3b0ce571ae7c","650c16f0f2faf8d7a0d14c09","651c1c3f7c67f2bc3f516fd0","null","null","<p style=""font-size: 60px; font-family: BACS"">mkmJNark</p>","","","","","","","","","",""
"html-keyboard-response","281","683198","0.0-14.0-0.30","5eb71c59c55b3b0ce571ae7c","650c16f0f2faf8d7a0d14c09","651c1c3f7c67f2bc3f516fd0","null","null","<p style=""font-size: 60px; font-family: BACS"">LckGNYZUZ</p>","","","","","","","","","",""
"html-keyboard-response","282","684213","0.0-14.0-0.31","5eb71c59c55b3b0ce571ae7c","650c16f0f2faf8d7a0d14c09","651c1c3f7c67f2bc3f516fd0","null","null","<p style=""font-size: 60px; font-family: BACS"">lZcuark</p>","","","","","","","","","",""
"html-keyboard-response","283","685226","0.0-14.0-0.32","5eb71c59c55b3b0ce571ae7c","650c16f0f2faf8d7a0d14c09","651c1c3f7c67f2bc3f516fd0","null","null","<p style=""font-size: 60px; font-family: BACS"">KAERMmAM</p>","","","","","","","","","",""
"html-keyboard-response","284","686238","0.0-14.0-0.33","5eb71c59c55b3b0ce571ae7c","650c16f0f2faf8d7a0d14c09","651c1c3f7c67f2bc3f516fd0","null","null","<p style=""font-size: 60px; font-family: BACS"">kLvdNlLG</p>","","","","","","","","","",""
"html-keyboard-response","285","687244","0.0-14.0-0.34","5eb71c59c55b3b0ce571ae7c","650c16f0f2faf8d7a0d14c09","651c1c3f7c67f2bc3f516fd0","null","null","<p style=""font-size: 60px; font-family: BACS"">dOYmlmtKP</p>","","","","","","","","","",""
"html-keyboard-response","286","688246","0.0-14.0-0.35","5eb71c59c55b3b0ce571ae7c","650c16f0f2faf8d7a0d14c09","651c1c3f7c67f2bc3f516fd0","null","null","<p style=""font-size: 60px; font-family: BACS"">kLvdNrkra</p>","","","","","","","","","",""
"html-keyboard-response","287","689261","0.0-14.0-0.36","5eb71c59c55b3b0ce571ae7c","650c16f0f2faf8d7a0d14c09","651c1c3f7c67f2bc3f516fd0","null","null","<p style=""font-size: 60px; font-family: BACS"">KTDTBtAY</p>","","","","","","","","","",""
"html-keyboard-response","288","690275","0.0-14.0-0.37","5eb71c59c55b3b0ce571ae7c","650c16f0f2faf8d7a0d14c09","651c1c3f7c67f2bc3f516fd0","null","null","<p style=""font-size: 60px; font-family: BACS"">mhtcDbMR</p>","","","","","","","","","",""
"html-keyboard-response","289","691286","0.0-14.0-0.38","5eb71c59c55b3b0ce571ae7c","650c16f0f2faf8d7a0d14c09","651c1c3f7c67f2bc3f516fd0","null","null","<p style=""font-size: 60px; font-family: BACS"">mkmJNrkra</p>","","","","","","","","","",""
"html-keyboard-response","290","692291","0.0-14.0-0.39","5eb71c59c55b3b0ce571ae7c","650c16f0f2faf8d7a0d14c09","651c1c3f7c67f2bc3f516fd0","null","null","<p style=""font-size: 60px; font-family: BACS"">PCPDhDbMR</p>","","","","","","","","","",""
"html-keyboard-response","291","693297","0.0-14.0-0.40","5eb71c59c55b3b0ce571ae7c","650c16f0f2faf8d7a0d14c09","651c1c3f7c67f2bc3f516fd0","null","null","<p style=""font-size: 60px; font-family: BACS"">GQrcYZUZ</p>","","","","","","","","","",""
"html-keyboard-response","292","694313","0.0-14.0-0.41","5eb71c59c55b3b0ce571ae7c","650c16f0f2faf8d7a0d14c09","651c1c3f7c67f2bc3f516fd0","null","null","<p style=""font-size: 60px; font-family: BACS"">mhtcmtKP</p>","","","","","","","","","",""
"html-keyboard-response","293","695326","0.0-14.0-0.42","5eb71c59c55b3b0ce571ae7c","650c16f0f2faf8d7a0d14c09","651c1c3f7c67f2bc3f516fd0","null","null","<p style=""font-size: 60px; font-family: BACS"">mkmJNlLG</p>","","","","","","","","","",""
"html-keyboard-response","294","696342","0.0-14.0-0.43","5eb71c59c55b3b0ce571ae7c","650c16f0f2faf8d7a0d14c09","651c1c3f7c67f2bc3f516fd0","null","null","<p style=""font-size: 60px; font-family: BACS"">rkYLark</p>","","","","","","","","","",""
"html-keyboard-response","295","697357","0.0-14.0-0.44","5eb71c59c55b3b0ce571ae7c","650c16f0f2faf8d7a0d14c09","651c1c3f7c67f2bc3f516fd0","null","null","<p style=""font-size: 60px; font-family: BACS"">NkUAlLG</p>","","","","","","","","","",""
"html-keyboard-response","296","698359","0.0-14.0-0.45","5eb71c59c55b3b0ce571ae7c","650c16f0f2faf8d7a0d14c09","651c1c3f7c67f2bc3f516fd0","null","null","<p style=""font-size: 60px; font-family: BACS"">kMbTRtAY</p>","","","","","","","","","",""
"html-keyboard-response","297","699373","0.0-14.0-0.46","5eb71c59c55b3b0ce571ae7c","650c16f0f2faf8d7a0d14c09","651c1c3f7c67f2bc3f516fd0","null","null","<p style=""font-size: 60px; font-family: BACS"">LckGNkbu</p>","","","","","","","","","",""
"html-keyboard-response","298","700388","0.0-14.0-0.47","5eb71c59c55b3b0ce571ae7c","650c16f0f2faf8d7a0d14c09","651c1c3f7c67f2bc3f516fd0","null","null","<p style=""font-size: 60px; font-family: BACS"">TKDktAY</p>","","","","","","","","","",""
"html-keyboard-response","299","701392","0.0-14.0-0.48","5eb71c59c55b3b0ce571ae7c","650c16f0f2faf8d7a0d14c09","651c1c3f7c67f2bc3f516fd0","null","null","<p style=""font-size: 60px; font-family: BACS"">DOchlDbMR</p>","","","","","","","","","",""
"html-keyboard-response","300","702400","0.0-14.0-0.49","5eb71c59c55b3b0ce571ae7c","650c16f0f2faf8d7a0d14c09","651c1c3f7c67f2bc3f516fd0","null","null","<p style=""font-size: 60px; font-family: BACS"">ZdNmUark</p>","","","","","","","","","",""
"html-keyboard-response","301","703403","0.0-14.0-0.50","5eb71c59c55b3b0ce571ae7c","650c16f0f2faf8d7a0d14c09","651c1c3f7c67f2bc3f516fd0","null","null","<p style=""font-size: 60px; font-family: BACS"">TKDkmAM</p>","","","","","","","","","",""
"html-keyboard-response","302","704413","0.0-14.0-0.51","5eb71c59c55b3b0ce571ae7c","650c16f0f2faf8d7a0d14c09","651c1c3f7c67f2bc3f516fd0","null","null","<p style=""font-size: 60px; font-family: BACS"">dOYmlYbBT</p>","","","","","","","","","",""
"html-keyboard-response","303","705430","0.0-14.0-0.52","5eb71c59c55b3b0ce571ae7c","650c16f0f2faf8d7a0d14c09","651c1c3f7c67f2bc3f516fd0","null","null","<p style=""font-size: 60px; font-family: BACS"">KTDTBmAM</p>","","","","","","","","","",""
"html-keyboard-response","304","706437","0.0-14.0-0.53","5eb71c59c55b3b0ce571ae7c","650c16f0f2faf8d7a0d14c09","651c1c3f7c67f2bc3f516fd0","null","null","<p style=""font-size: 60px; font-family: BACS"">NkUAark</p>","","","","","","","","","",""
"html-keyboard-response","305","707445","0.0-14.0-0.54","5eb71c59c55b3b0ce571ae7c","650c16f0f2faf8d7a0d14c09","651c1c3f7c67f2bc3f516fd0","null","null","<p style=""font-size: 60px; font-family: BACS"">ZdNmUYZUZ</p>","","","","","","","","","",""
"html-keyboard-response","306","708450","0.0-14.0-0.55","5eb71c59c55b3b0ce571ae7c","650c16f0f2faf8d7a0d14c09","651c1c3f7c67f2bc3f516fd0","null","null","<p style=""font-size: 60px; font-family: BACS"">OMlTmAM</p>","","","","","","","","","",""
"html-keyboard-response","307","709459","0.0-14.0-0.56","5eb71c59c55b3b0ce571ae7c","650c16f0f2faf8d7a0d14c09","651c1c3f7c67f2bc3f516fd0","null","null","<p style=""font-size: 60px; font-family: BACS"">PCPDhYbBT</p>","","","","","","","","","",""
"html-keyboard-response","308","710476","0.0-14.0-0.57","5eb71c59c55b3b0ce571ae7c","650c16f0f2faf8d7a0d14c09","651c1c3f7c67f2bc3f516fd0","null","null","<p style=""font-size: 60px; font-family: BACS"">ZdNmUkbu</p>","","","","","","","","","",""
"html-keyboard-response","309","711478","0.0-14.0-0.58","5eb71c59c55b3b0ce571ae7c","650c16f0f2faf8d7a0d14c09","651c1c3f7c67f2bc3f516fd0","null","null","<p style=""font-size: 60px; font-family: BACS"">kLvdNark</p>","","","","","","","","","",""
"html-keyboard-response","310","712490","0.0-14.0-0.59","5eb71c59c55b3b0ce571ae7c","650c16f0f2faf8d7a0d14c09","651c1c3f7c67f2bc3f516fd0","null","null","<p style=""font-size: 60px; font-family: BACS"">UAcdukbu</p>","","","","","","","","","",""
"html-keyboard-response","311","713493","0.0-14.0-0.60","5eb71c59c55b3b0ce571ae7c","650c16f0f2faf8d7a0d14c09","651c1c3f7c67f2bc3f516fd0","null","null","<p style=""font-size: 60px; font-family: BACS"">OQarQYZUZ</p>","","","","","","","","","",""
"html-keyboard-response","312","714501","0.0-14.0-0.61","5eb71c59c55b3b0ce571ae7c","650c16f0f2faf8d7a0d14c09","651c1c3f7c67f2bc3f516fd0","null","null","<p style=""font-size: 60px; font-family: BACS"">KTDTBYbBT</p>","","","","","","","","","",""
"html-keyboard-response","313","715509","0.0-14.0-0.62","5eb71c59c55b3b0ce571ae7c","650c16f0f2faf8d7a0d14c09","651c1c3f7c67f2bc3f516fd0","null","null","<p style=""font-size: 60px; font-family: BACS"">UAcdulLG</p>","","","","","","","","","",""
"html-keyboard-response","314","716512","0.0-14.0-0.63","5eb71c59c55b3b0ce571ae7c","650c16f0f2faf8d7a0d14c09","651c1c3f7c67f2bc3f516fd0","null","null","<p style=""font-size: 60px; font-family: BACS"">DOchlmAM</p>","","","","","","","","","",""
"html-keyboard-response","315","717527","0.0-14.0-0.64","5eb71c59c55b3b0ce571ae7c","650c16f0f2faf8d7a0d14c09","651c1c3f7c67f2bc3f516fd0","null","null","<p style=""font-size: 60px; font-family: BACS"">mkmJNkbu</p>","","","","","","","","","",""
"html-keyboard-response","316","718543","0.0-14.0-0.65","5eb71c59c55b3b0ce571ae7c","650c16f0f2faf8d7a0d14c09","651c1c3f7c67f2bc3f516fd0","null","null","<p style=""font-size: 60px; font-family: BACS"">rkYLlLG</p>","","","","","","","","","",""
"html-keyboard-response","317","719558","0.0-14.0-0.66","5eb71c59c55b3b0ce571ae7c","650c16f0f2faf8d7a0d14c09","651c1c3f7c67f2bc3f516fd0","null","null","<p style=""font-size: 60px; font-family: BACS"">dOYmlDbMR</p>","","","","","","","","","",""
"html-keyboard-response","318","720567","0.0-14.0-0.67","5eb71c59c55b3b0ce571ae7c","650c16f0f2faf8d7a0d14c09","651c1c3f7c67f2bc3f516fd0","null","null","<p style=""font-size: 60px; font-family: BACS"">GQrcrkra</p>","","","","","","","","","",""
"html-keyboard-response","319","721569","0.0-14.0-0.68","5eb71c59c55b3b0ce571ae7c","650c16f0f2faf8d7a0d14c09","651c1c3f7c67f2bc3f516fd0","null","null","<p style=""font-size: 60px; font-family: BACS"">PCPDhmtKP</p>","","","","","","","","","",""
"html-keyboard-response","320","722578","0.0-14.0-0.69","5eb71c59c55b3b0ce571ae7c","650c16f0f2faf8d7a0d14c09","651c1c3f7c67f2bc3f516fd0","null","null","<p style=""font-size: 60px; font-family: BACS"">DOchlYbBT</p>","","","","","","","","","",""
"html-keyboard-response","321","723589","0.0-14.0-0.70","5eb71c59c55b3b0ce571ae7c","650c16f0f2faf8d7a0d14c09","651c1c3f7c67f2bc3f516fd0","null","null","<p style=""font-size: 60px; font-family: BACS"">dOYmlmAM</p>","","","","","","","","","",""
"html-keyboard-response","322","724595","0.0-14.0-0.71","5eb71c59c55b3b0ce571ae7c","650c16f0f2faf8d7a0d14c09","651c1c3f7c67f2bc3f516fd0","null","null","<p style=""font-size: 60px; font-family: BACS"">KAERMtAY</p>","","","","","","","","","",""
"html-keyboard-response","323","725606","0.0-14.0-0.72","5eb71c59c55b3b0ce571ae7c","650c16f0f2faf8d7a0d14c09","651c1c3f7c67f2bc3f516fd0","null","null","<p style=""font-size: 60px; font-family: BACS"">UAcdurkra</p>","","","","","","","","","",""
"html-keyboard-response","324","726622","0.0-14.0-0.73","5eb71c59c55b3b0ce571ae7c","650c16f0f2faf8d7a0d14c09","651c1c3f7c67f2bc3f516fd0","null","null","<p style=""font-size: 60px; font-family: BACS"">kMbTRmtKP</p>","","","","","","","","","",""
"html-keyboard-response","325","727626","0.0-14.0-0.74","5eb71c59c55b3b0ce571ae7c","650c16f0f2faf8d7a0d14c09","651c1c3f7c67f2bc3f516fd0","null","null","<p style=""font-size: 60px; font-family: BACS"">rkYLYZUZ</p>","","","","","","","","","",""
"html-keyboard-response","326","728640","0.0-14.0-0.75","5eb71c59c55b3b0ce571ae7c","650c16f0f2faf8d7a0d14c09","651c1c3f7c67f2bc3f516fd0","null","null","<p style=""font-size: 60px; font-family: BACS"">GQrckbu</p>","","","","","","","","","",""
"html-keyboard-response","327","729643","0.0-14.0-0.76","5eb71c59c55b3b0ce571ae7c","650c16f0f2faf8d7a0d14c09","651c1c3f7c67f2bc3f516fd0","null","null","<p style=""font-size: 60px; font-family: BACS"">OMlTmtKP</p>","","","","","","","","","",""
"html-keyboard-response","328","730646","0.0-14.0-0.77","5eb71c59c55b3b0ce571ae7c","650c16f0f2faf8d7a0d14c09","651c1c3f7c67f2bc3f516fd0","null","null","<p style=""font-size: 60px; font-family: BACS"">NkUAkbu</p>","","","","","","","","","",""
"html-keyboard-response","329","731659","0.0-14.0-0.78","5eb71c59c55b3b0ce571ae7c","650c16f0f2faf8d7a0d14c09","651c1c3f7c67f2bc3f516fd0","null","null","<p style=""font-size: 60px; font-family: BACS"">lZcurkra</p>","","","","","","","","","",""
"html-keyboard-response","330","732674","0.0-14.0-0.79","5eb71c59c55b3b0ce571ae7c","650c16f0f2faf8d7a0d14c09","651c1c3f7c67f2bc3f516fd0","null","null","<p style=""font-size: 60px; font-family: BACS"">UAcduYZUZ</p>","","","","","","","","","",""
"html-keyboard-response","331","736050","0.0-15.0","5eb71c59c55b3b0ce571ae7c","650c16f0f2faf8d7a0d14c09","651c1c3f7c67f2bc3f516fd0","3374"," ","<p>Great, you've seen the fourth block of words. You may now take a short break.</p>
      <p>Press the spacebar when you're ready to continue.</p>","","","","","","","","","",""
"html-keyboard-response","332","737062","0.0-16.0-0.0","5eb71c59c55b3b0ce571ae7c","650c16f0f2faf8d7a0d14c09","651c1c3f7c67f2bc3f516fd0","null","null","<p style=""font-size: 60px; font-family: BACS"">OQarQlLG</p>","","","","","","","","","",""
"html-keyboard-response","333","738079","0.0-16.0-0.1","5eb71c59c55b3b0ce571ae7c","650c16f0f2faf8d7a0d14c09","651c1c3f7c67f2bc3f516fd0","null","null","<p style=""font-size: 60px; font-family: BACS"">OQarQlLG</p>","","","","","","","","","",""
"html-keyboard-response","334","739089","0.0-16.0-0.2","5eb71c59c55b3b0ce571ae7c","650c16f0f2faf8d7a0d14c09","651c1c3f7c67f2bc3f516fd0","null","null","<p style=""font-size: 60px; font-family: BACS"">OQarQlLG</p>","","","","","","","","","",""
"html-keyboard-response","335","740105","0.0-16.0-0.3","5eb71c59c55b3b0ce571ae7c","650c16f0f2faf8d7a0d14c09","651c1c3f7c67f2bc3f516fd0","null","null","<p style=""font-size: 60px; font-family: BACS"">OQarQlLG</p>","","","","","","","","","",""
"html-keyboard-response","336","741116","0.0-16.0-0.4","5eb71c59c55b3b0ce571ae7c","650c16f0f2faf8d7a0d14c09","651c1c3f7c67f2bc3f516fd0","null","null","<p style=""font-size: 60px; font-family: BACS"">OQarQlLG</p>","","","","","","","","","",""
"html-keyboard-response","337","742133","0.0-16.0-0.5","5eb71c59c55b3b0ce571ae7c","650c16f0f2faf8d7a0d14c09","651c1c3f7c67f2bc3f516fd0","null","null","<p style=""font-size: 60px; font-family: BACS"">OQarQlLG</p>","","","","","","","","","",""
"html-keyboard-response","338","743144","0.0-16.0-0.6","5eb71c59c55b3b0ce571ae7c","650c16f0f2faf8d7a0d14c09","651c1c3f7c67f2bc3f516fd0","null","null","<p style=""font-size: 60px; font-family: BACS"">OQarQlLG</p>","","","","","","","","","",""
"html-keyboard-response","339","744149","0.0-16.0-0.7","5eb71c59c55b3b0ce571ae7c","650c16f0f2faf8d7a0d14c09","651c1c3f7c67f2bc3f516fd0","null","null","<p style=""font-size: 60px; font-family: BACS"">OQarQlLG</p>","","","","","","","","","",""
"html-keyboard-response","340","745165","0.0-16.0-0.8","5eb71c59c55b3b0ce571ae7c","650c16f0f2faf8d7a0d14c09","651c1c3f7c67f2bc3f516fd0","null","null","<p style=""font-size: 60px; font-family: BACS"">OQarQlLG</p>","","","","","","","","","",""
"html-keyboard-response","341","746177","0.0-16.0-0.9","5eb71c59c55b3b0ce571ae7c","650c16f0f2faf8d7a0d14c09","651c1c3f7c67f2bc3f516fd0","null","null","<p style=""font-size: 60px; font-family: BACS"">OQarQlLG</p>","","","","","","","","","",""
"html-keyboard-response","342","747187","0.0-16.0-0.10","5eb71c59c55b3b0ce571ae7c","650c16f0f2faf8d7a0d14c09","651c1c3f7c67f2bc3f516fd0","null","null","<p style=""font-size: 60px; font-family: BACS"">OQarQlLG</p>","","","","","","","","","",""
"html-keyboard-response","343","748199","0.0-16.0-0.11","5eb71c59c55b3b0ce571ae7c","650c16f0f2faf8d7a0d14c09","651c1c3f7c67f2bc3f516fd0","null","null","<p style=""font-size: 60px; font-family: BACS"">OQarQlLG</p>","","","","","","","","","",""
"html-keyboard-response","344","749213","0.0-16.0-0.12","5eb71c59c55b3b0ce571ae7c","650c16f0f2faf8d7a0d14c09","651c1c3f7c67f2bc3f516fd0","null","null","<p style=""font-size: 60px; font-family: BACS"">OQarQlLG</p>","","","","","","","","","",""
"html-keyboard-response","345","750219","0.0-16.0-0.13","5eb71c59c55b3b0ce571ae7c","650c16f0f2faf8d7a0d14c09","651c1c3f7c67f2bc3f516fd0","null","null","<p style=""font-size: 60px; font-family: BACS"">OQarQlLG</p>","","","","","","","","","",""
"html-keyboard-response","346","751234","0.0-16.0-0.14","5eb71c59c55b3b0ce571ae7c","650c16f0f2faf8d7a0d14c09","651c1c3f7c67f2bc3f516fd0","null","null","<p style=""font-size: 60px; font-family: BACS"">OQarQlLG</p>","","","","","","","","","",""
"html-keyboard-response","347","752246","0.0-16.0-0.15","5eb71c59c55b3b0ce571ae7c","650c16f0f2faf8d7a0d14c09","651c1c3f7c67f2bc3f516fd0","null","null","<p style=""font-size: 60px; font-family: BACS"">OQarQlLG</p>","","","","","","","","","",""
"html-keyboard-response","348","753252","0.0-16.0-0.16","5eb71c59c55b3b0ce571ae7c","650c16f0f2faf8d7a0d14c09","651c1c3f7c67f2bc3f516fd0","null","null","<p style=""font-size: 60px; font-family: BACS"">OQarQlLG</p>","","","","","","","","","",""
"html-keyboard-response","349","754257","0.0-16.0-0.17","5eb71c59c55b3b0ce571ae7c","650c16f0f2faf8d7a0d14c09","651c1c3f7c67f2bc3f516fd0","null","null","<p style=""font-size: 60px; font-family: BACS"">OQarQlLG</p>","","","","","","","","","",""
"html-keyboard-response","350","755267","0.0-16.0-0.18","5eb71c59c55b3b0ce571ae7c","650c16f0f2faf8d7a0d14c09","651c1c3f7c67f2bc3f516fd0","null","null","<p style=""font-size: 60px; font-family: BACS"">OQarQlLG</p>","","","","","","","","","",""
"html-keyboard-response","351","756279","0.0-16.0-0.19","5eb71c59c55b3b0ce571ae7c","650c16f0f2faf8d7a0d14c09","651c1c3f7c67f2bc3f516fd0","null","null","<p style=""font-size: 60px; font-family: BACS"">OQarQlLG</p>","","","","","","","","","",""
"html-keyboard-response","352","757296","0.0-16.0-0.20","5eb71c59c55b3b0ce571ae7c","650c16f0f2faf8d7a0d14c09","651c1c3f7c67f2bc3f516fd0","null","null","<p style=""font-size: 60px; font-family: BACS"">OQarQlLG</p>","","","","","","","","","",""
"html-keyboard-response","353","758311","0.0-16.0-0.21","5eb71c59c55b3b0ce571ae7c","650c16f0f2faf8d7a0d14c09","651c1c3f7c67f2bc3f516fd0","null","null","<p style=""font-size: 60px; font-family: BACS"">OQarQlLG</p>","","","","","","","","","",""
"html-keyboard-response","354","759320","0.0-16.0-0.22","5eb71c59c55b3b0ce571ae7c","650c16f0f2faf8d7a0d14c09","651c1c3f7c67f2bc3f516fd0","null","null","<p style=""font-size: 60px; font-family: BACS"">OQarQlLG</p>","","","","","","","","","",""
"html-keyboard-response","355","760323","0.0-16.0-0.23","5eb71c59c55b3b0ce571ae7c","650c16f0f2faf8d7a0d14c09","651c1c3f7c67f2bc3f516fd0","null","null","<p style=""font-size: 60px; font-family: BACS"">OQarQlLG</p>","","","","","","","","","",""
"html-keyboard-response","356","761330","0.0-16.0-0.24","5eb71c59c55b3b0ce571ae7c","650c16f0f2faf8d7a0d14c09","651c1c3f7c67f2bc3f516fd0","null","null","<p style=""font-size: 60px; font-family: BACS"">OQarQlLG</p>","","","","","","","","","",""
"html-keyboard-response","357","762334","0.0-16.0-0.25","5eb71c59c55b3b0ce571ae7c","650c16f0f2faf8d7a0d14c09","651c1c3f7c67f2bc3f516fd0","null","null","<p style=""font-size: 60px; font-family: BACS"">OQarQlLG</p>","","","","","","","","","",""
"html-keyboard-response","358","763348","0.0-16.0-0.26","5eb71c59c55b3b0ce571ae7c","650c16f0f2faf8d7a0d14c09","651c1c3f7c67f2bc3f516fd0","null","null","<p style=""font-size: 60px; font-family: BACS"">OQarQlLG</p>","","","","","","","","","",""
"html-keyboard-response","359","764354","0.0-16.0-0.27","5eb71c59c55b3b0ce571ae7c","650c16f0f2faf8d7a0d14c09","651c1c3f7c67f2bc3f516fd0","null","null","<p style=""font-size: 60px; font-family: BACS"">OQarQlLG</p>","","","","","","","","","",""
"html-keyboard-response","360","765356","0.0-16.0-0.28","5eb71c59c55b3b0ce571ae7c","650c16f0f2faf8d7a0d14c09","651c1c3f7c67f2bc3f516fd0","null","null","<p style=""font-size: 60px; font-family: BACS"">OQarQlLG</p>","","","","","","","","","",""
"html-keyboard-response","361","766361","0.0-16.0-0.29","5eb71c59c55b3b0ce571ae7c","650c16f0f2faf8d7a0d14c09","651c1c3f7c67f2bc3f516fd0","null","null","<p style=""font-size: 60px; font-family: BACS"">OQarQlLG</p>","","","","","","","","","",""
"html-keyboard-response","362","767373","0.0-16.0-0.30","5eb71c59c55b3b0ce571ae7c","650c16f0f2faf8d7a0d14c09","651c1c3f7c67f2bc3f516fd0","null","null","<p style=""font-size: 60px; font-family: BACS"">OQarQlLG</p>","","","","","","","","","",""
"html-keyboard-response","363","768376","0.0-16.0-0.31","5eb71c59c55b3b0ce571ae7c","650c16f0f2faf8d7a0d14c09","651c1c3f7c67f2bc3f516fd0","null","null","<p style=""font-size: 60px; font-family: BACS"">OQarQlLG</p>","","","","","","","","","",""
"html-keyboard-response","364","769389","0.0-16.0-0.32","5eb71c59c55b3b0ce571ae7c","650c16f0f2faf8d7a0d14c09","651c1c3f7c67f2bc3f516fd0","null","null","<p style=""font-size: 60px; font-family: BACS"">OQarQlLG</p>","","","","","","","","","",""
"html-keyboard-response","365","770394","0.0-16.0-0.33","5eb71c59c55b3b0ce571ae7c","650c16f0f2faf8d7a0d14c09","651c1c3f7c67f2bc3f516fd0","null","null","<p style=""font-size: 60px; font-family: BACS"">OQarQlLG</p>","","","","","","","","","",""
"html-keyboard-response","366","771402","0.0-16.0-0.34","5eb71c59c55b3b0ce571ae7c","650c16f0f2faf8d7a0d14c09","651c1c3f7c67f2bc3f516fd0","null","null","<p style=""font-size: 60px; font-family: BACS"">OQarQlLG</p>","","","","","","","","","",""
"html-keyboard-response","367","772407","0.0-16.0-0.35","5eb71c59c55b3b0ce571ae7c","650c16f0f2faf8d7a0d14c09","651c1c3f7c67f2bc3f516fd0","null","null","<p style=""font-size: 60px; font-family: BACS"">OQarQlLG</p>","","","","","","","","","",""
"html-keyboard-response","368","773410","0.0-16.0-0.36","5eb71c59c55b3b0ce571ae7c","650c16f0f2faf8d7a0d14c09","651c1c3f7c67f2bc3f516fd0","null","null","<p style=""font-size: 60px; font-family: BACS"">OQarQlLG</p>","","","","","","","","","",""
"html-keyboard-response","369","774414","0.0-16.0-0.37","5eb71c59c55b3b0ce571ae7c","650c16f0f2faf8d7a0d14c09","651c1c3f7c67f2bc3f516fd0","null","null","<p style=""font-size: 60px; font-family: BACS"">OQarQlLG</p>","","","","","","","","","",""
"html-keyboard-response","370","775418","0.0-16.0-0.38","5eb71c59c55b3b0ce571ae7c","650c16f0f2faf8d7a0d14c09","651c1c3f7c67f2bc3f516fd0","null","null","<p style=""font-size: 60px; font-family: BACS"">OQarQlLG</p>","","","","","","","","","",""
"html-keyboard-response","371","776434","0.0-16.0-0.39","5eb71c59c55b3b0ce571ae7c","650c16f0f2faf8d7a0d14c09","651c1c3f7c67f2bc3f516fd0","null","null","<p style=""font-size: 60px; font-family: BACS"">OQarQlLG</p>","","","","","","","","","",""
"html-keyboard-response","372","777443","0.0-16.0-0.40","5eb71c59c55b3b0ce571ae7c","650c16f0f2faf8d7a0d14c09","651c1c3f7c67f2bc3f516fd0","null","null","<p style=""font-size: 60px; font-family: BACS"">OQarQlLG</p>","","","","","","","","","",""
"html-keyboard-response","373","778451","0.0-16.0-0.41","5eb71c59c55b3b0ce571ae7c","650c16f0f2faf8d7a0d14c09","651c1c3f7c67f2bc3f516fd0","null","null","<p style=""font-size: 60px; font-family: BACS"">OQarQlLG</p>","","","","","","","","","",""
"html-keyboard-response","374","779458","0.0-16.0-0.42","5eb71c59c55b3b0ce571ae7c","650c16f0f2faf8d7a0d14c09","651c1c3f7c67f2bc3f516fd0","null","null","<p style=""font-size: 60px; font-family: BACS"">OQarQlLG</p>","","","","","","","","","",""
"html-keyboard-response","375","780471","0.0-16.0-0.43","5eb71c59c55b3b0ce571ae7c","650c16f0f2faf8d7a0d14c09","651c1c3f7c67f2bc3f516fd0","null","null","<p style=""font-size: 60px; font-family: BACS"">OQarQlLG</p>","","","","","","","","","",""
"html-keyboard-response","376","781479","0.0-16.0-0.44","5eb71c59c55b3b0ce571ae7c","650c16f0f2faf8d7a0d14c09","651c1c3f7c67f2bc3f516fd0","null","null","<p style=""font-size: 60px; font-family: BACS"">OQarQlLG</p>","","","","","","","","","",""
"html-keyboard-response","377","782483","0.0-16.0-0.45","5eb71c59c55b3b0ce571ae7c","650c16f0f2faf8d7a0d14c09","651c1c3f7c67f2bc3f516fd0","null","null","<p style=""font-size: 60px; font-family: BACS"">OQarQlLG</p>","","","","","","","","","",""
"html-keyboard-response","378","783489","0.0-16.0-0.46","5eb71c59c55b3b0ce571ae7c","650c16f0f2faf8d7a0d14c09","651c1c3f7c67f2bc3f516fd0","null","null","<p style=""font-size: 60px; font-family: BACS"">OQarQlLG</p>","","","","","","","","","",""
"html-keyboard-response","379","784499","0.0-16.0-0.47","5eb71c59c55b3b0ce571ae7c","650c16f0f2faf8d7a0d14c09","651c1c3f7c67f2bc3f516fd0","null","null","<p style=""font-size: 60px; font-family: BACS"">OQarQlLG</p>","","","","","","","","","",""
"html-keyboard-response","380","785514","0.0-16.0-0.48","5eb71c59c55b3b0ce571ae7c","650c16f0f2faf8d7a0d14c09","651c1c3f7c67f2bc3f516fd0","null","null","<p style=""font-size: 60px; font-family: BACS"">OQarQlLG</p>","","","","","","","","","",""
"html-keyboard-response","381","786522","0.0-16.0-0.49","5eb71c59c55b3b0ce571ae7c","650c16f0f2faf8d7a0d14c09","651c1c3f7c67f2bc3f516fd0","null","null","<p style=""font-size: 60px; font-family: BACS"">OQarQlLG</p>","","","","","","","","","",""
"html-keyboard-response","382","787529","0.0-16.0-0.50","5eb71c59c55b3b0ce571ae7c","650c16f0f2faf8d7a0d14c09","651c1c3f7c67f2bc3f516fd0","null","null","<p style=""font-size: 60px; font-family: BACS"">OQarQlLG</p>","","","","","","","","","",""
"html-keyboard-response","383","788534","0.0-16.0-0.51","5eb71c59c55b3b0ce571ae7c","650c16f0f2faf8d7a0d14c09","651c1c3f7c67f2bc3f516fd0","null","null","<p style=""font-size: 60px; font-family: BACS"">OQarQlLG</p>","","","","","","","","","",""
"html-keyboard-response","384","789543","0.0-16.0-0.52","5eb71c59c55b3b0ce571ae7c","650c16f0f2faf8d7a0d14c09","651c1c3f7c67f2bc3f516fd0","null","null","<p style=""font-size: 60px; font-family: BACS"">OQarQlLG</p>","","","","","","","","","",""
"html-keyboard-response","385","790554","0.0-16.0-0.53","5eb71c59c55b3b0ce571ae7c","650c16f0f2faf8d7a0d14c09","651c1c3f7c67f2bc3f516fd0","null","null","<p style=""font-size: 60px; font-family: BACS"">OQarQlLG</p>","","","","","","","","","",""
"html-keyboard-response","386","791565","0.0-16.0-0.54","5eb71c59c55b3b0ce571ae7c","650c16f0f2faf8d7a0d14c09","651c1c3f7c67f2bc3f516fd0","null","null","<p style=""font-size: 60px; font-family: BACS"">OQarQlLG</p>","","","","","","","","","",""
"html-keyboard-response","387","792579","0.0-16.0-0.55","5eb71c59c55b3b0ce571ae7c","650c16f0f2faf8d7a0d14c09","651c1c3f7c67f2bc3f516fd0","null","null","<p style=""font-size: 60px; font-family: BACS"">OQarQlLG</p>","","","","","","","","","",""
"html-keyboard-response","388","793592","0.0-16.0-0.56","5eb71c59c55b3b0ce571ae7c","650c16f0f2faf8d7a0d14c09","651c1c3f7c67f2bc3f516fd0","null","null","<p style=""font-size: 60px; font-family: BACS"">OQarQlLG</p>","","","","","","","","","",""
"html-keyboard-response","389","794596","0.0-16.0-0.57","5eb71c59c55b3b0ce571ae7c","650c16f0f2faf8d7a0d14c09","651c1c3f7c67f2bc3f516fd0","null","null","<p style=""font-size: 60px; font-family: BACS"">OQarQlLG</p>","","","","","","","","","",""
"html-keyboard-response","390","795603","0.0-16.0-0.58","5eb71c59c55b3b0ce571ae7c","650c16f0f2faf8d7a0d14c09","651c1c3f7c67f2bc3f516fd0","null","null","<p style=""font-size: 60px; font-family: BACS"">OQarQlLG</p>","","","","","","","","","",""
"html-keyboard-response","391","796613","0.0-16.0-0.59","5eb71c59c55b3b0ce571ae7c","650c16f0f2faf8d7a0d14c09","651c1c3f7c67f2bc3f516fd0","null","null","<p style=""font-size: 60px; font-family: BACS"">OQarQlLG</p>","","","","","","","","","",""
"html-keyboard-response","392","797618","0.0-16.0-0.60","5eb71c59c55b3b0ce571ae7c","650c16f0f2faf8d7a0d14c09","651c1c3f7c67f2bc3f516fd0","null","null","<p style=""font-size: 60px; font-family: BACS"">OQarQlLG</p>","","","","","","","","","",""
"html-keyboard-response","393","798634","0.0-16.0-0.61","5eb71c59c55b3b0ce571ae7c","650c16f0f2faf8d7a0d14c09","651c1c3f7c67f2bc3f516fd0","null","null","<p style=""font-size: 60px; font-family: BACS"">OQarQlLG</p>","","","","","","","","","",""
