"trial_type","trial_index","time_elapsed","internal_node_id","subject_id","study_id","session_id","rt","response","stimulus","success","item","task","correct_response","testing_condition","correct","target","confound","name"
"pavlovia","0","633","0.0-0.0","613867f34e206e4f573bc6ef","650c16f0f2faf8d7a0d14c09","651c1d425a2ace1639b276c7","","","","","","","","","","","",""
"survey-html-form","1","3863","0.0-1.0","613867f34e206e4f573bc6ef","650c16f0f2faf8d7a0d14c09","651c1d425a2ace1639b276c7","3228","{""ID"":""613867f34e206e4f573bc6ef""}","","","","","","","","","",""
"html-keyboard-response","2","5804","0.0-2.0","613867f34e206e4f573bc6ef","650c16f0f2faf8d7a0d14c09","651c1d425a2ace1639b276c7","1939"," ","<p style=""font-size: 15px;"">Before beginning, we ask that you read the consent information and confirm your agreement to participate in the experiment.</p>
      <p style=""font-size: 15px;""> We ask that you remember that this is a research project and that your participation is entirely voluntary. You can stop your participation at any time, without needing to provide any explanation. The study we're asking you to participate in aims at examining how readers process written words. You will be engaged in a session of apprximately 20 minutes, followed by a brief questionnaire. You will have the opportunity to take a few breaks during the experiment. You will be paid £4 for your participation, corresponding to a rate of £8/hour. While this experiment looks at cognitive faculties, this experiment doesn't constitute clinical proof of eventual pathologies.</p>
      <p style=""font-size: 15px;"">All of the information collected thanks to yours and others' participation will be held in a secure password-protected server, and will not be shared with anyone not authorised to view it. Your personal information will be kept with an arbitrary participant ID. Thanks to this data anonymity process, any researcher analysing the data won't be able to track the information back to a specific participant. Therefore, this process will make identifying you impossibile, even when results from the study will be published in scientific reviews, presented at congresses, or at any other public forum. More generally, the collected data will be treated in accordance with the laws on privacy and conformity to the Legislative Degree n. 196 ""Code regarding the protection of personal data"" of the 30th of June 2003 and to the European Regulation 2016/670 (General Data Protection Regulation - GDPR). The Data Protection Officer is Avv. Valentina Carollo, who can be contacted at the following email addresses: <a href=""mailto:dpo@sissa.it"">dpo@sissa.it</a> or <a href=""mailto:rpd@sissa.it"">rpd@sissa.it</a> - PEC: <a href=""mailto:protocollo@pec.sissa.it"">protocollo@pec.sissa.it</a>.</p>
      <p style=""font-size: 15px;""> Before expressing your consent to participate, we would like to remind you again that in case you need explanations on any aspect of the experimental procedure, the researcher is at your disposition (<a href=""mailto:aliebelt@sissa.it"">aliebelt@sissa.it</a>, <a href=""mailto:davide.crepaldi@sissa.it"">davide.crepaldi@sissa.it</a>).</p>
      <p style=""font-size: 15px;"">If you would like to download the informed consent form, you can do so here: <a href=""BASL-Informed_Consent.pdf"" download>informed consent form</a>.</p>
      <p style=""font-size: 15px;"">We ask that you press the spacebar to proceed to the consent section.</p>","","","","","","","","",""
"survey-html-form","3","79484","0.0-3.0","613867f34e206e4f573bc6ef","650c16f0f2faf8d7a0d14c09","651c1d425a2ace1639b276c7","73680","{""consent1"":""YES"",""consent2"":""YES"",""consent3"":""YES"",""consent4"":""YES"",""consent5"":""YES"",""consent6"":""YES""}","","","","","","","","","",""
"fullscreen","4","82913","0.0-4.0","613867f34e206e4f573bc6ef","650c16f0f2faf8d7a0d14c09","651c1d425a2ace1639b276c7","","","","true","","","","","","","",""
"html-keyboard-response","5","96408","0.0-5.0","613867f34e206e4f573bc6ef","650c16f0f2faf8d7a0d14c09","651c1d425a2ace1639b276c7","13494"," ","<p>Welcome, and thank you very much for your time!</p>
      <p>In this experiment, you'll be a language expert who's been asked to take a look at words that Earth has received in its first communication with aliens. Your task, in this first part of the experiment, is to pay close attention to the words you'll be shown; later, world leaders will ask you questions on what you saw. The words will be shown to you quite quickly; it seems that the aliens were in a hurry :-)</p>
      <p>Press the spacebar to continue.<p>","","","","","","","","",""
"html-keyboard-response","6","96459","0.0-6.0","613867f34e206e4f573bc6ef","650c16f0f2faf8d7a0d14c09","651c1d425a2ace1639b276c7","null","null","<p style=""font-size: 120px; font-family: BACS""> </p>","","","","","","","","",""
"html-keyboard-response","7","99116","0.0-7.0","613867f34e206e4f573bc6ef","650c16f0f2faf8d7a0d14c09","651c1d425a2ace1639b276c7","2657"," ","<p>Here is an example of the words you'll see:</p>
      <img src='esempio.png' height='400px'>
      <p>When you're ready to begin, press the spacebar.</p></div>","","","","","","","","",""
"html-keyboard-response","8","100119","0.0-8.0-0.0","613867f34e206e4f573bc6ef","650c16f0f2faf8d7a0d14c09","651c1d425a2ace1639b276c7","null","null","<p style=""font-size: 60px; font-family: BACS"">krUQmkc</p>","","","","","","","","",""
"html-keyboard-response","9","101129","0.0-8.0-0.1","613867f34e206e4f573bc6ef","650c16f0f2faf8d7a0d14c09","651c1d425a2ace1639b276c7","null","null","<p style=""font-size: 60px; font-family: BACS"">lrZGkbu</p>","","","","","","","","",""
"html-keyboard-response","10","102130","0.0-8.0-0.2","613867f34e206e4f573bc6ef","650c16f0f2faf8d7a0d14c09","651c1d425a2ace1639b276c7","null","null","<p style=""font-size: 60px; font-family: BACS"">PYkCDlDT</p>","","","","","","","","",""
"html-keyboard-response","11","103132","0.0-8.0-0.3","613867f34e206e4f573bc6ef","650c16f0f2faf8d7a0d14c09","651c1d425a2ace1639b276c7","null","null","<p style=""font-size: 60px; font-family: BACS"">lbBDEMCkm</p>","","","","","","","","",""
"html-keyboard-response","12","104134","0.0-8.0-0.4","613867f34e206e4f573bc6ef","650c16f0f2faf8d7a0d14c09","651c1d425a2ace1639b276c7","null","null","<p style=""font-size: 60px; font-family: BACS"">cdKBYDlDT</p>","","","","","","","","",""
"html-keyboard-response","13","105150","0.0-8.0-0.5","613867f34e206e4f573bc6ef","650c16f0f2faf8d7a0d14c09","651c1d425a2ace1639b276c7","null","null","<p style=""font-size: 60px; font-family: BACS"">KRARmkhMD</p>","","","","","","","","",""
"html-keyboard-response","14","106155","0.0-8.0-0.6","613867f34e206e4f573bc6ef","650c16f0f2faf8d7a0d14c09","651c1d425a2ace1639b276c7","null","null","<p style=""font-size: 60px; font-family: BACS"">krUQkbu</p>","","","","","","","","",""
"html-keyboard-response","15","107159","0.0-8.0-0.7","613867f34e206e4f573bc6ef","650c16f0f2faf8d7a0d14c09","651c1d425a2ace1639b276c7","null","null","<p style=""font-size: 60px; font-family: BACS"">TEBKMCkm</p>","","","","","","","","",""
"html-keyboard-response","16","108160","0.0-8.0-0.8","613867f34e206e4f573bc6ef","650c16f0f2faf8d7a0d14c09","651c1d425a2ace1639b276c7","null","null","<p style=""font-size: 60px; font-family: BACS"">KRARmAPT</p>","","","","","","","","",""
"html-keyboard-response","17","109167","0.0-8.0-0.9","613867f34e206e4f573bc6ef","650c16f0f2faf8d7a0d14c09","651c1d425a2ace1639b276c7","null","null","<p style=""font-size: 60px; font-family: BACS"">LuNZLkNc</p>","","","","","","","","",""
"html-keyboard-response","18","110169","0.0-8.0-0.10","613867f34e206e4f573bc6ef","650c16f0f2faf8d7a0d14c09","651c1d425a2ace1639b276c7","null","null","<p style=""font-size: 60px; font-family: BACS"">krUQbadk</p>","","","","","","","","",""
"html-keyboard-response","19","111170","0.0-8.0-0.11","613867f34e206e4f573bc6ef","650c16f0f2faf8d7a0d14c09","651c1d425a2ace1639b276c7","null","null","<p style=""font-size: 60px; font-family: BACS"">OQarQkbu</p>","","","","","","","","",""
"html-keyboard-response","20","112171","0.0-8.0-0.12","613867f34e206e4f573bc6ef","650c16f0f2faf8d7a0d14c09","651c1d425a2ace1639b276c7","null","null","<p style=""font-size: 60px; font-family: BACS"">LuNZbLd</p>","","","","","","","","",""
"html-keyboard-response","21","113173","0.0-8.0-0.13","613867f34e206e4f573bc6ef","650c16f0f2faf8d7a0d14c09","651c1d425a2ace1639b276c7","null","null","<p style=""font-size: 60px; font-family: BACS"">kCRmMCkm</p>","","","","","","","","",""
"html-keyboard-response","22","114174","0.0-8.0-0.14","613867f34e206e4f573bc6ef","650c16f0f2faf8d7a0d14c09","651c1d425a2ace1639b276c7","null","null","<p style=""font-size: 60px; font-family: BACS"">KElBdCKc</p>","","","","","","","","",""
"html-keyboard-response","23","115178","0.0-8.0-0.15","613867f34e206e4f573bc6ef","650c16f0f2faf8d7a0d14c09","651c1d425a2ace1639b276c7","null","null","<p style=""font-size: 60px; font-family: BACS"">RkmdCMCkm</p>","","","","","","","","",""
"html-keyboard-response","24","116179","0.0-8.0-0.16","613867f34e206e4f573bc6ef","650c16f0f2faf8d7a0d14c09","651c1d425a2ace1639b276c7","null","null","<p style=""font-size: 60px; font-family: BACS"">JAaGLkNc</p>","","","","","","","","",""
"html-keyboard-response","25","117180","0.0-8.0-0.17","613867f34e206e4f573bc6ef","650c16f0f2faf8d7a0d14c09","651c1d425a2ace1639b276c7","null","null","<p style=""font-size: 60px; font-family: BACS"">PYkCAPT</p>","","","","","","","","",""
"html-keyboard-response","26","118184","0.0-8.0-0.18","613867f34e206e4f573bc6ef","650c16f0f2faf8d7a0d14c09","651c1d425a2ace1639b276c7","null","null","<p style=""font-size: 60px; font-family: BACS"">vblrLkNc</p>","","","","","","","","",""
"html-keyboard-response","27","119198","0.0-8.0-0.19","613867f34e206e4f573bc6ef","650c16f0f2faf8d7a0d14c09","651c1d425a2ace1639b276c7","null","null","<p style=""font-size: 60px; font-family: BACS"">kCRmdCKc</p>","","","","","","","","",""
"html-keyboard-response","28","120199","0.0-8.0-0.20","613867f34e206e4f573bc6ef","650c16f0f2faf8d7a0d14c09","651c1d425a2ace1639b276c7","null","null","<p style=""font-size: 60px; font-family: BACS"">RkmdCAPT</p>","","","","","","","","",""
"html-keyboard-response","29","121200","0.0-8.0-0.21","613867f34e206e4f573bc6ef","650c16f0f2faf8d7a0d14c09","651c1d425a2ace1639b276c7","null","null","<p style=""font-size: 60px; font-family: BACS"">OQarQLkNc</p>","","","","","","","","",""
"html-keyboard-response","30","122206","0.0-8.0-0.22","613867f34e206e4f573bc6ef","650c16f0f2faf8d7a0d14c09","651c1d425a2ace1639b276c7","null","null","<p style=""font-size: 60px; font-family: BACS"">KRARmdCKc</p>","","","","","","","","",""
"html-keyboard-response","31","123207","0.0-8.0-0.23","613867f34e206e4f573bc6ef","650c16f0f2faf8d7a0d14c09","651c1d425a2ace1639b276c7","null","null","<p style=""font-size: 60px; font-family: BACS"">KBKBEkhMD</p>","","","","","","","","",""
"html-keyboard-response","32","124215","0.0-8.0-0.24","613867f34e206e4f573bc6ef","650c16f0f2faf8d7a0d14c09","651c1d425a2ace1639b276c7","null","null","<p style=""font-size: 60px; font-family: BACS"">cdKBYdCKc</p>","","","","","","","","",""
"html-keyboard-response","33","125217","0.0-8.0-0.25","613867f34e206e4f573bc6ef","650c16f0f2faf8d7a0d14c09","651c1d425a2ace1639b276c7","null","null","<p style=""font-size: 60px; font-family: BACS"">JAaGmkc</p>","","","","","","","","",""
"html-keyboard-response","34","126222","0.0-8.0-0.26","613867f34e206e4f573bc6ef","650c16f0f2faf8d7a0d14c09","651c1d425a2ace1639b276c7","null","null","<p style=""font-size: 60px; font-family: BACS"">vAuNlbLd</p>","","","","","","","","",""
"html-keyboard-response","35","127236","0.0-8.0-0.27","613867f34e206e4f573bc6ef","650c16f0f2faf8d7a0d14c09","651c1d425a2ace1639b276c7","null","null","<p style=""font-size: 60px; font-family: BACS"">cdKBYkhMD</p>","","","","","","","","",""
"html-keyboard-response","36","128240","0.0-8.0-0.28","613867f34e206e4f573bc6ef","650c16f0f2faf8d7a0d14c09","651c1d425a2ace1639b276c7","null","null","<p style=""font-size: 60px; font-family: BACS"">Yadrmkc</p>","","","","","","","","",""
"html-keyboard-response","37","129241","0.0-8.0-0.29","613867f34e206e4f573bc6ef","650c16f0f2faf8d7a0d14c09","651c1d425a2ace1639b276c7","null","null","<p style=""font-size: 60px; font-family: BACS"">aOLZUkbu</p>","","","","","","","","",""
"html-keyboard-response","38","130245","0.0-8.0-0.30","613867f34e206e4f573bc6ef","650c16f0f2faf8d7a0d14c09","651c1d425a2ace1639b276c7","null","null","<p style=""font-size: 60px; font-family: BACS"">lbBDEdCKc</p>","","","","","","","","",""
"html-keyboard-response","39","131258","0.0-8.0-0.31","613867f34e206e4f573bc6ef","650c16f0f2faf8d7a0d14c09","651c1d425a2ace1639b276c7","null","null","<p style=""font-size: 60px; font-family: BACS"">KElBkhMD</p>","","","","","","","","",""
"html-keyboard-response","40","132274","0.0-8.0-0.32","613867f34e206e4f573bc6ef","650c16f0f2faf8d7a0d14c09","651c1d425a2ace1639b276c7","null","null","<p style=""font-size: 60px; font-family: BACS"">aOLZULkNc</p>","","","","","","","","",""
"html-keyboard-response","41","133289","0.0-8.0-0.33","613867f34e206e4f573bc6ef","650c16f0f2faf8d7a0d14c09","651c1d425a2ace1639b276c7","null","null","<p style=""font-size: 60px; font-family: BACS"">KRARmMCkm</p>","","","","","","","","",""
"html-keyboard-response","42","134306","0.0-8.0-0.34","613867f34e206e4f573bc6ef","650c16f0f2faf8d7a0d14c09","651c1d425a2ace1639b276c7","null","null","<p style=""font-size: 60px; font-family: BACS"">TEBKkhMD</p>","","","","","","","","",""
"html-keyboard-response","43","135307","0.0-8.0-0.35","613867f34e206e4f573bc6ef","650c16f0f2faf8d7a0d14c09","651c1d425a2ace1639b276c7","null","null","<p style=""font-size: 60px; font-family: BACS"">lbBDEAPT</p>","","","","","","","","",""
"html-keyboard-response","44","136321","0.0-8.0-0.36","613867f34e206e4f573bc6ef","650c16f0f2faf8d7a0d14c09","651c1d425a2ace1639b276c7","null","null","<p style=""font-size: 60px; font-family: BACS"">lrZGbadk</p>","","","","","","","","",""
"html-keyboard-response","45","137337","0.0-8.0-0.37","613867f34e206e4f573bc6ef","650c16f0f2faf8d7a0d14c09","651c1d425a2ace1639b276c7","null","null","<p style=""font-size: 60px; font-family: BACS"">KElBAPT</p>","","","","","","","","",""
"html-keyboard-response","46","138339","0.0-8.0-0.38","613867f34e206e4f573bc6ef","650c16f0f2faf8d7a0d14c09","651c1d425a2ace1639b276c7","null","null","<p style=""font-size: 60px; font-family: BACS"">aOLZUmkc</p>","","","","","","","","",""
"html-keyboard-response","47","139350","0.0-8.0-0.39","613867f34e206e4f573bc6ef","650c16f0f2faf8d7a0d14c09","651c1d425a2ace1639b276c7","null","null","<p style=""font-size: 60px; font-family: BACS"">hlbtbkhMD</p>","","","","","","","","",""
"html-keyboard-response","48","140359","0.0-8.0-0.40","613867f34e206e4f573bc6ef","650c16f0f2faf8d7a0d14c09","651c1d425a2ace1639b276c7","null","null","<p style=""font-size: 60px; font-family: BACS"">lrZGLkNc</p>","","","","","","","","",""
"html-keyboard-response","49","141360","0.0-8.0-0.41","613867f34e206e4f573bc6ef","650c16f0f2faf8d7a0d14c09","651c1d425a2ace1639b276c7","null","null","<p style=""font-size: 60px; font-family: BACS"">kCRmAPT</p>","","","","","","","","",""
"html-keyboard-response","50","142370","0.0-8.0-0.42","613867f34e206e4f573bc6ef","650c16f0f2faf8d7a0d14c09","651c1d425a2ace1639b276c7","null","null","<p style=""font-size: 60px; font-family: BACS"">cdKBYMCkm</p>","","","","","","","","",""
"html-keyboard-response","51","143384","0.0-8.0-0.43","613867f34e206e4f573bc6ef","650c16f0f2faf8d7a0d14c09","651c1d425a2ace1639b276c7","null","null","<p style=""font-size: 60px; font-family: BACS"">vclYbadk</p>","","","","","","","","",""
"html-keyboard-response","52","144385","0.0-8.0-0.44","613867f34e206e4f573bc6ef","650c16f0f2faf8d7a0d14c09","651c1d425a2ace1639b276c7","null","null","<p style=""font-size: 60px; font-family: BACS"">vblrmkc</p>","","","","","","","","",""
"html-keyboard-response","53","145389","0.0-8.0-0.45","613867f34e206e4f573bc6ef","650c16f0f2faf8d7a0d14c09","651c1d425a2ace1639b276c7","null","null","<p style=""font-size: 60px; font-family: BACS"">hlbtbMCkm</p>","","","","","","","","",""
"html-keyboard-response","54","146392","0.0-8.0-0.46","613867f34e206e4f573bc6ef","650c16f0f2faf8d7a0d14c09","651c1d425a2ace1639b276c7","null","null","<p style=""font-size: 60px; font-family: BACS"">krUQbLd</p>","","","","","","","","",""
"html-keyboard-response","55","147399","0.0-8.0-0.47","613867f34e206e4f573bc6ef","650c16f0f2faf8d7a0d14c09","651c1d425a2ace1639b276c7","null","null","<p style=""font-size: 60px; font-family: BACS"">RkmdCDlDT</p>","","","","","","","","",""
"html-keyboard-response","56","148413","0.0-8.0-0.48","613867f34e206e4f573bc6ef","650c16f0f2faf8d7a0d14c09","651c1d425a2ace1639b276c7","null","null","<p style=""font-size: 60px; font-family: BACS"">vclYLkNc</p>","","","","","","","","",""
"html-keyboard-response","57","149415","0.0-8.0-0.49","613867f34e206e4f573bc6ef","650c16f0f2faf8d7a0d14c09","651c1d425a2ace1639b276c7","null","null","<p style=""font-size: 60px; font-family: BACS"">lbBDEkhMD</p>","","","","","","","","",""
"html-keyboard-response","58","150423","0.0-8.0-0.50","613867f34e206e4f573bc6ef","650c16f0f2faf8d7a0d14c09","651c1d425a2ace1639b276c7","null","null","<p style=""font-size: 60px; font-family: BACS"">OQarQbadk</p>","","","","","","","","",""
"html-keyboard-response","59","151428","0.0-8.0-0.51","613867f34e206e4f573bc6ef","650c16f0f2faf8d7a0d14c09","651c1d425a2ace1639b276c7","null","null","<p style=""font-size: 60px; font-family: BACS"">kCRmDlDT</p>","","","","","","","","",""
"html-keyboard-response","60","152439","0.0-8.0-0.52","613867f34e206e4f573bc6ef","650c16f0f2faf8d7a0d14c09","651c1d425a2ace1639b276c7","null","null","<p style=""font-size: 60px; font-family: BACS"">Yadrbadk</p>","","","","","","","","",""
"html-keyboard-response","61","153440","0.0-8.0-0.53","613867f34e206e4f573bc6ef","650c16f0f2faf8d7a0d14c09","651c1d425a2ace1639b276c7","null","null","<p style=""font-size: 60px; font-family: BACS"">LuNZkbu</p>","","","","","","","","",""
"html-keyboard-response","62","154442","0.0-8.0-0.54","613867f34e206e4f573bc6ef","650c16f0f2faf8d7a0d14c09","651c1d425a2ace1639b276c7","null","null","<p style=""font-size: 60px; font-family: BACS"">JAaGbadk</p>","","","","","","","","",""
"html-keyboard-response","63","155448","0.0-8.0-0.55","613867f34e206e4f573bc6ef","650c16f0f2faf8d7a0d14c09","651c1d425a2ace1639b276c7","null","null","<p style=""font-size: 60px; font-family: BACS"">RkmdCdCKc</p>","","","","","","","","",""
"html-keyboard-response","64","156454","0.0-8.0-0.56","613867f34e206e4f573bc6ef","650c16f0f2faf8d7a0d14c09","651c1d425a2ace1639b276c7","null","null","<p style=""font-size: 60px; font-family: BACS"">LuNZmkc</p>","","","","","","","","",""
"html-keyboard-response","65","157456","0.0-8.0-0.57","613867f34e206e4f573bc6ef","650c16f0f2faf8d7a0d14c09","651c1d425a2ace1639b276c7","null","null","<p style=""font-size: 60px; font-family: BACS"">lrZGbLd</p>","","","","","","","","",""
"html-keyboard-response","66","158463","0.0-8.0-0.58","613867f34e206e4f573bc6ef","650c16f0f2faf8d7a0d14c09","651c1d425a2ace1639b276c7","null","null","<p style=""font-size: 60px; font-family: BACS"">hlbtbAPT</p>","","","","","","","","",""
"html-keyboard-response","67","159465","0.0-8.0-0.59","613867f34e206e4f573bc6ef","650c16f0f2faf8d7a0d14c09","651c1d425a2ace1639b276c7","null","null","<p style=""font-size: 60px; font-family: BACS"">KBKBEMCkm</p>","","","","","","","","",""
"html-keyboard-response","68","160466","0.0-8.0-0.60","613867f34e206e4f573bc6ef","650c16f0f2faf8d7a0d14c09","651c1d425a2ace1639b276c7","null","null","<p style=""font-size: 60px; font-family: BACS"">vAuNlLkNc</p>","","","","","","","","",""
"html-keyboard-response","69","161467","0.0-8.0-0.61","613867f34e206e4f573bc6ef","650c16f0f2faf8d7a0d14c09","651c1d425a2ace1639b276c7","null","null","<p style=""font-size: 60px; font-family: BACS"">hlbtbDlDT</p>","","","","","","","","",""
"html-keyboard-response","70","162480","0.0-8.0-0.62","613867f34e206e4f573bc6ef","650c16f0f2faf8d7a0d14c09","651c1d425a2ace1639b276c7","null","null","<p style=""font-size: 60px; font-family: BACS"">YadrbLd</p>","","","","","","","","",""
"html-keyboard-response","71","163491","0.0-8.0-0.63","613867f34e206e4f573bc6ef","650c16f0f2faf8d7a0d14c09","651c1d425a2ace1639b276c7","null","null","<p style=""font-size: 60px; font-family: BACS"">vAuNlbadk</p>","","","","","","","","",""
"html-keyboard-response","72","164493","0.0-8.0-0.64","613867f34e206e4f573bc6ef","650c16f0f2faf8d7a0d14c09","651c1d425a2ace1639b276c7","null","null","<p style=""font-size: 60px; font-family: BACS"">vblrkbu</p>","","","","","","","","",""
"html-keyboard-response","73","165495","0.0-8.0-0.65","613867f34e206e4f573bc6ef","650c16f0f2faf8d7a0d14c09","651c1d425a2ace1639b276c7","null","null","<p style=""font-size: 60px; font-family: BACS"">KBKBEAPT</p>","","","","","","","","",""
"html-keyboard-response","74","166511","0.0-8.0-0.66","613867f34e206e4f573bc6ef","650c16f0f2faf8d7a0d14c09","651c1d425a2ace1639b276c7","null","null","<p style=""font-size: 60px; font-family: BACS"">PYkCdCKc</p>","","","","","","","","",""
"html-keyboard-response","75","167512","0.0-8.0-0.67","613867f34e206e4f573bc6ef","650c16f0f2faf8d7a0d14c09","651c1d425a2ace1639b276c7","null","null","<p style=""font-size: 60px; font-family: BACS"">vclYbLd</p>","","","","","","","","",""
"html-keyboard-response","76","168513","0.0-8.0-0.68","613867f34e206e4f573bc6ef","650c16f0f2faf8d7a0d14c09","651c1d425a2ace1639b276c7","null","null","<p style=""font-size: 60px; font-family: BACS"">KElBDlDT</p>","","","","","","","","",""
"html-keyboard-response","77","169514","0.0-8.0-0.69","613867f34e206e4f573bc6ef","650c16f0f2faf8d7a0d14c09","651c1d425a2ace1639b276c7","null","null","<p style=""font-size: 60px; font-family: BACS"">aOLZUbLd</p>","","","","","","","","",""
"html-keyboard-response","78","170516","0.0-8.0-0.70","613867f34e206e4f573bc6ef","650c16f0f2faf8d7a0d14c09","651c1d425a2ace1639b276c7","null","null","<p style=""font-size: 60px; font-family: BACS"">TEBKdCKc</p>","","","","","","","","",""
"html-keyboard-response","79","171518","0.0-8.0-0.71","613867f34e206e4f573bc6ef","650c16f0f2faf8d7a0d14c09","651c1d425a2ace1639b276c7","null","null","<p style=""font-size: 60px; font-family: BACS"">vblrbadk</p>","","","","","","","","",""
"html-keyboard-response","80","172524","0.0-8.0-0.72","613867f34e206e4f573bc6ef","650c16f0f2faf8d7a0d14c09","651c1d425a2ace1639b276c7","null","null","<p style=""font-size: 60px; font-family: BACS"">Yadrkbu</p>","","","","","","","","",""
"html-keyboard-response","81","173526","0.0-8.0-0.73","613867f34e206e4f573bc6ef","650c16f0f2faf8d7a0d14c09","651c1d425a2ace1639b276c7","null","null","<p style=""font-size: 60px; font-family: BACS"">vclYmkc</p>","","","","","","","","",""
"html-keyboard-response","82","174527","0.0-8.0-0.74","613867f34e206e4f573bc6ef","650c16f0f2faf8d7a0d14c09","651c1d425a2ace1639b276c7","null","null","<p style=""font-size: 60px; font-family: BACS"">PYkCkhMD</p>","","","","","","","","",""
"html-keyboard-response","83","175543","0.0-8.0-0.75","613867f34e206e4f573bc6ef","650c16f0f2faf8d7a0d14c09","651c1d425a2ace1639b276c7","null","null","<p style=""font-size: 60px; font-family: BACS"">KBKBEDlDT</p>","","","","","","","","",""
"html-keyboard-response","84","176549","0.0-8.0-0.76","613867f34e206e4f573bc6ef","650c16f0f2faf8d7a0d14c09","651c1d425a2ace1639b276c7","null","null","<p style=""font-size: 60px; font-family: BACS"">vAuNlkbu</p>","","","","","","","","",""
"html-keyboard-response","85","177550","0.0-8.0-0.77","613867f34e206e4f573bc6ef","650c16f0f2faf8d7a0d14c09","651c1d425a2ace1639b276c7","null","null","<p style=""font-size: 60px; font-family: BACS"">TEBKDlDT</p>","","","","","","","","",""
"html-keyboard-response","86","178551","0.0-8.0-0.78","613867f34e206e4f573bc6ef","650c16f0f2faf8d7a0d14c09","651c1d425a2ace1639b276c7","null","null","<p style=""font-size: 60px; font-family: BACS"">JAaGbLd</p>","","","","","","","","",""
"html-keyboard-response","87","179553","0.0-8.0-0.79","613867f34e206e4f573bc6ef","650c16f0f2faf8d7a0d14c09","651c1d425a2ace1639b276c7","null","null","<p style=""font-size: 60px; font-family: BACS"">OQarQmkc</p>","","","","","","","","",""
"html-keyboard-response","88","183810","0.0-9.0","613867f34e206e4f573bc6ef","650c16f0f2faf8d7a0d14c09","651c1d425a2ace1639b276c7","4257"," ","<p>Great, you've seen the first block of words. You may now take a short break.</p>
      <p>Press the spacebar when you're ready to continue.</p>","","","","","","","","",""
"html-keyboard-response","89","184811","0.0-10.0-0.0","613867f34e206e4f573bc6ef","650c16f0f2faf8d7a0d14c09","651c1d425a2ace1639b276c7","null","null","<p style=""font-size: 60px; font-family: BACS"">KRARmAPT</p>","","","","","","","","",""
"html-keyboard-response","90","185826","0.0-10.0-0.1","613867f34e206e4f573bc6ef","650c16f0f2faf8d7a0d14c09","651c1d425a2ace1639b276c7","null","null","<p style=""font-size: 60px; font-family: BACS"">LuNZbLd</p>","","","","","","","","",""
"html-keyboard-response","91","186827","0.0-10.0-0.2","613867f34e206e4f573bc6ef","650c16f0f2faf8d7a0d14c09","651c1d425a2ace1639b276c7","null","null","<p style=""font-size: 60px; font-family: BACS"">krUQkbu</p>","","","","","","","","",""
"html-keyboard-response","92","187839","0.0-10.0-0.3","613867f34e206e4f573bc6ef","650c16f0f2faf8d7a0d14c09","651c1d425a2ace1639b276c7","null","null","<p style=""font-size: 60px; font-family: BACS"">vAuNlbadk</p>","","","","","","","","",""
"html-keyboard-response","93","188856","0.0-10.0-0.4","613867f34e206e4f573bc6ef","650c16f0f2faf8d7a0d14c09","651c1d425a2ace1639b276c7","null","null","<p style=""font-size: 60px; font-family: BACS"">lrZGLkNc</p>","","","","","","","","",""
"html-keyboard-response","94","189868","0.0-10.0-0.5","613867f34e206e4f573bc6ef","650c16f0f2faf8d7a0d14c09","651c1d425a2ace1639b276c7","null","null","<p style=""font-size: 60px; font-family: BACS"">JAaGbLd</p>","","","","","","","","",""
"html-keyboard-response","95","190869","0.0-10.0-0.6","613867f34e206e4f573bc6ef","650c16f0f2faf8d7a0d14c09","651c1d425a2ace1639b276c7","null","null","<p style=""font-size: 60px; font-family: BACS"">RkmdCAPT</p>","","","","","","","","",""
"html-keyboard-response","96","191871","0.0-10.0-0.7","613867f34e206e4f573bc6ef","650c16f0f2faf8d7a0d14c09","651c1d425a2ace1639b276c7","null","null","<p style=""font-size: 60px; font-family: BACS"">LuNZkbu</p>","","","","","","","","",""
"html-keyboard-response","97","192873","0.0-10.0-0.8","613867f34e206e4f573bc6ef","650c16f0f2faf8d7a0d14c09","651c1d425a2ace1639b276c7","null","null","<p style=""font-size: 60px; font-family: BACS"">krUQbLd</p>","","","","","","","","",""
"html-keyboard-response","98","193881","0.0-10.0-0.9","613867f34e206e4f573bc6ef","650c16f0f2faf8d7a0d14c09","651c1d425a2ace1639b276c7","null","null","<p style=""font-size: 60px; font-family: BACS"">JAaGLkNc</p>","","","","","","","","",""
"html-keyboard-response","99","194882","0.0-10.0-0.10","613867f34e206e4f573bc6ef","650c16f0f2faf8d7a0d14c09","651c1d425a2ace1639b276c7","null","null","<p style=""font-size: 60px; font-family: BACS"">vblrkbu</p>","","","","","","","","",""
"html-keyboard-response","100","195884","0.0-10.0-0.11","613867f34e206e4f573bc6ef","650c16f0f2faf8d7a0d14c09","651c1d425a2ace1639b276c7","null","null","<p style=""font-size: 60px; font-family: BACS"">LuNZLkNc</p>","","","","","","","","",""
"html-keyboard-response","101","196885","0.0-10.0-0.12","613867f34e206e4f573bc6ef","650c16f0f2faf8d7a0d14c09","651c1d425a2ace1639b276c7","null","null","<p style=""font-size: 60px; font-family: BACS"">hlbtbMCkm</p>","","","","","","","","",""
"html-keyboard-response","102","197886","0.0-10.0-0.13","613867f34e206e4f573bc6ef","650c16f0f2faf8d7a0d14c09","651c1d425a2ace1639b276c7","null","null","<p style=""font-size: 60px; font-family: BACS"">aOLZUmkc</p>","","","","","","","","",""
"html-keyboard-response","103","198899","0.0-10.0-0.14","613867f34e206e4f573bc6ef","650c16f0f2faf8d7a0d14c09","651c1d425a2ace1639b276c7","null","null","<p style=""font-size: 60px; font-family: BACS"">TEBKdCKc</p>","","","","","","","","",""
"html-keyboard-response","104","199900","0.0-10.0-0.15","613867f34e206e4f573bc6ef","650c16f0f2faf8d7a0d14c09","651c1d425a2ace1639b276c7","null","null","<p style=""font-size: 60px; font-family: BACS"">lrZGbadk</p>","","","","","","","","",""
"html-keyboard-response","105","200911","0.0-10.0-0.16","613867f34e206e4f573bc6ef","650c16f0f2faf8d7a0d14c09","651c1d425a2ace1639b276c7","null","null","<p style=""font-size: 60px; font-family: BACS"">lbBDEMCkm</p>","","","","","","","","",""
"html-keyboard-response","106","201914","0.0-10.0-0.17","613867f34e206e4f573bc6ef","650c16f0f2faf8d7a0d14c09","651c1d425a2ace1639b276c7","null","null","<p style=""font-size: 60px; font-family: BACS"">Yadrkbu</p>","","","","","","","","",""
"html-keyboard-response","107","202923","0.0-10.0-0.18","613867f34e206e4f573bc6ef","650c16f0f2faf8d7a0d14c09","651c1d425a2ace1639b276c7","null","null","<p style=""font-size: 60px; font-family: BACS"">kCRmdCKc</p>","","","","","","","","",""
"html-keyboard-response","108","203925","0.0-10.0-0.19","613867f34e206e4f573bc6ef","650c16f0f2faf8d7a0d14c09","651c1d425a2ace1639b276c7","null","null","<p style=""font-size: 60px; font-family: BACS"">vclYmkc</p>","","","","","","","","",""
"html-keyboard-response","109","204926","0.0-10.0-0.20","613867f34e206e4f573bc6ef","650c16f0f2faf8d7a0d14c09","651c1d425a2ace1639b276c7","null","null","<p style=""font-size: 60px; font-family: BACS"">hlbtbDlDT</p>","","","","","","","","",""
"html-keyboard-response","110","205927","0.0-10.0-0.21","613867f34e206e4f573bc6ef","650c16f0f2faf8d7a0d14c09","651c1d425a2ace1639b276c7","null","null","<p style=""font-size: 60px; font-family: BACS"">cdKBYMCkm</p>","","","","","","","","",""
"html-keyboard-response","111","206928","0.0-10.0-0.22","613867f34e206e4f573bc6ef","650c16f0f2faf8d7a0d14c09","651c1d425a2ace1639b276c7","null","null","<p style=""font-size: 60px; font-family: BACS"">kCRmDlDT</p>","","","","","","","","",""
"html-keyboard-response","112","207940","0.0-10.0-0.23","613867f34e206e4f573bc6ef","650c16f0f2faf8d7a0d14c09","651c1d425a2ace1639b276c7","null","null","<p style=""font-size: 60px; font-family: BACS"">lbBDEkhMD</p>","","","","","","","","",""
"html-keyboard-response","113","208949","0.0-10.0-0.24","613867f34e206e4f573bc6ef","650c16f0f2faf8d7a0d14c09","651c1d425a2ace1639b276c7","null","null","<p style=""font-size: 60px; font-family: BACS"">Yadrbadk</p>","","","","","","","","",""
"html-keyboard-response","114","209951","0.0-10.0-0.25","613867f34e206e4f573bc6ef","650c16f0f2faf8d7a0d14c09","651c1d425a2ace1639b276c7","null","null","<p style=""font-size: 60px; font-family: BACS"">cdKBYkhMD</p>","","","","","","","","",""
"html-keyboard-response","115","210953","0.0-10.0-0.26","613867f34e206e4f573bc6ef","650c16f0f2faf8d7a0d14c09","651c1d425a2ace1639b276c7","null","null","<p style=""font-size: 60px; font-family: BACS"">Yadrmkc</p>","","","","","","","","",""
"html-keyboard-response","116","211959","0.0-10.0-0.27","613867f34e206e4f573bc6ef","650c16f0f2faf8d7a0d14c09","651c1d425a2ace1639b276c7","null","null","<p style=""font-size: 60px; font-family: BACS"">lrZGkbu</p>","","","","","","","","",""
"html-keyboard-response","117","212960","0.0-10.0-0.28","613867f34e206e4f573bc6ef","650c16f0f2faf8d7a0d14c09","651c1d425a2ace1639b276c7","null","null","<p style=""font-size: 60px; font-family: BACS"">KElBkhMD</p>","","","","","","","","",""
"html-keyboard-response","118","213971","0.0-10.0-0.29","613867f34e206e4f573bc6ef","650c16f0f2faf8d7a0d14c09","651c1d425a2ace1639b276c7","null","null","<p style=""font-size: 60px; font-family: BACS"">TEBKDlDT</p>","","","","","","","","",""
"html-keyboard-response","119","214973","0.0-10.0-0.30","613867f34e206e4f573bc6ef","650c16f0f2faf8d7a0d14c09","651c1d425a2ace1639b276c7","null","null","<p style=""font-size: 60px; font-family: BACS"">vclYbLd</p>","","","","","","","","",""
"html-keyboard-response","120","215974","0.0-10.0-0.31","613867f34e206e4f573bc6ef","650c16f0f2faf8d7a0d14c09","651c1d425a2ace1639b276c7","null","null","<p style=""font-size: 60px; font-family: BACS"">KBKBEAPT</p>","","","","","","","","",""
"html-keyboard-response","121","216990","0.0-10.0-0.32","613867f34e206e4f573bc6ef","650c16f0f2faf8d7a0d14c09","651c1d425a2ace1639b276c7","null","null","<p style=""font-size: 60px; font-family: BACS"">KRARmkhMD</p>","","","","","","","","",""
"html-keyboard-response","122","217994","0.0-10.0-0.33","613867f34e206e4f573bc6ef","650c16f0f2faf8d7a0d14c09","651c1d425a2ace1639b276c7","null","null","<p style=""font-size: 60px; font-family: BACS"">KBKBEDlDT</p>","","","","","","","","",""
"html-keyboard-response","123","219005","0.0-10.0-0.34","613867f34e206e4f573bc6ef","650c16f0f2faf8d7a0d14c09","651c1d425a2ace1639b276c7","null","null","<p style=""font-size: 60px; font-family: BACS"">aOLZUkbu</p>","","","","","","","","",""
"html-keyboard-response","124","220010","0.0-10.0-0.35","613867f34e206e4f573bc6ef","650c16f0f2faf8d7a0d14c09","651c1d425a2ace1639b276c7","null","null","<p style=""font-size: 60px; font-family: BACS"">TEBKkhMD</p>","","","","","","","","",""
"html-keyboard-response","125","221021","0.0-10.0-0.36","613867f34e206e4f573bc6ef","650c16f0f2faf8d7a0d14c09","651c1d425a2ace1639b276c7","null","null","<p style=""font-size: 60px; font-family: BACS"">OQarQbadk</p>","","","","","","","","",""
"html-keyboard-response","126","222033","0.0-10.0-0.37","613867f34e206e4f573bc6ef","650c16f0f2faf8d7a0d14c09","651c1d425a2ace1639b276c7","null","null","<p style=""font-size: 60px; font-family: BACS"">PYkCAPT</p>","","","","","","","","",""
"html-keyboard-response","127","223034","0.0-10.0-0.38","613867f34e206e4f573bc6ef","650c16f0f2faf8d7a0d14c09","651c1d425a2ace1639b276c7","null","null","<p style=""font-size: 60px; font-family: BACS"">vblrLkNc</p>","","","","","","","","",""
"html-keyboard-response","128","224042","0.0-10.0-0.39","613867f34e206e4f573bc6ef","650c16f0f2faf8d7a0d14c09","651c1d425a2ace1639b276c7","null","null","<p style=""font-size: 60px; font-family: BACS"">kCRmMCkm</p>","","","","","","","","",""
"html-keyboard-response","129","225055","0.0-10.0-0.40","613867f34e206e4f573bc6ef","650c16f0f2faf8d7a0d14c09","651c1d425a2ace1639b276c7","null","null","<p style=""font-size: 60px; font-family: BACS"">PYkCkhMD</p>","","","","","","","","",""
"html-keyboard-response","130","226056","0.0-10.0-0.41","613867f34e206e4f573bc6ef","650c16f0f2faf8d7a0d14c09","651c1d425a2ace1639b276c7","null","null","<p style=""font-size: 60px; font-family: BACS"">YadrbLd</p>","","","","","","","","",""
"html-keyboard-response","131","227067","0.0-10.0-0.42","613867f34e206e4f573bc6ef","650c16f0f2faf8d7a0d14c09","651c1d425a2ace1639b276c7","null","null","<p style=""font-size: 60px; font-family: BACS"">KBKBEkhMD</p>","","","","","","","","",""
"html-keyboard-response","132","228074","0.0-10.0-0.43","613867f34e206e4f573bc6ef","650c16f0f2faf8d7a0d14c09","651c1d425a2ace1639b276c7","null","null","<p style=""font-size: 60px; font-family: BACS"">OQarQkbu</p>","","","","","","","","",""
"html-keyboard-response","133","229076","0.0-10.0-0.44","613867f34e206e4f573bc6ef","650c16f0f2faf8d7a0d14c09","651c1d425a2ace1639b276c7","null","null","<p style=""font-size: 60px; font-family: BACS"">lrZGbLd</p>","","","","","","","","",""
"html-keyboard-response","134","230087","0.0-10.0-0.45","613867f34e206e4f573bc6ef","650c16f0f2faf8d7a0d14c09","651c1d425a2ace1639b276c7","null","null","<p style=""font-size: 60px; font-family: BACS"">cdKBYDlDT</p>","","","","","","","","",""
"html-keyboard-response","135","231088","0.0-10.0-0.46","613867f34e206e4f573bc6ef","650c16f0f2faf8d7a0d14c09","651c1d425a2ace1639b276c7","null","null","<p style=""font-size: 60px; font-family: BACS"">KElBAPT</p>","","","","","","","","",""
"html-keyboard-response","136","232100","0.0-10.0-0.47","613867f34e206e4f573bc6ef","650c16f0f2faf8d7a0d14c09","651c1d425a2ace1639b276c7","null","null","<p style=""font-size: 60px; font-family: BACS"">aOLZUbLd</p>","","","","","","","","",""
"html-keyboard-response","137","233109","0.0-10.0-0.48","613867f34e206e4f573bc6ef","650c16f0f2faf8d7a0d14c09","651c1d425a2ace1639b276c7","null","null","<p style=""font-size: 60px; font-family: BACS"">lbBDEdCKc</p>","","","","","","","","",""
"html-keyboard-response","138","234110","0.0-10.0-0.49","613867f34e206e4f573bc6ef","650c16f0f2faf8d7a0d14c09","651c1d425a2ace1639b276c7","null","null","<p style=""font-size: 60px; font-family: BACS"">OQarQLkNc</p>","","","","","","","","",""
"html-keyboard-response","139","235125","0.0-10.0-0.50","613867f34e206e4f573bc6ef","650c16f0f2faf8d7a0d14c09","651c1d425a2ace1639b276c7","null","null","<p style=""font-size: 60px; font-family: BACS"">KElBdCKc</p>","","","","","","","","",""
"html-keyboard-response","140","236126","0.0-10.0-0.51","613867f34e206e4f573bc6ef","650c16f0f2faf8d7a0d14c09","651c1d425a2ace1639b276c7","null","null","<p style=""font-size: 60px; font-family: BACS"">KRARmMCkm</p>","","","","","","","","",""
"html-keyboard-response","141","237128","0.0-10.0-0.52","613867f34e206e4f573bc6ef","650c16f0f2faf8d7a0d14c09","651c1d425a2ace1639b276c7","null","null","<p style=""font-size: 60px; font-family: BACS"">cdKBYdCKc</p>","","","","","","","","",""
"html-keyboard-response","142","238144","0.0-10.0-0.53","613867f34e206e4f573bc6ef","650c16f0f2faf8d7a0d14c09","651c1d425a2ace1639b276c7","null","null","<p style=""font-size: 60px; font-family: BACS"">vblrmkc</p>","","","","","","","","",""
"html-keyboard-response","143","239160","0.0-10.0-0.54","613867f34e206e4f573bc6ef","650c16f0f2faf8d7a0d14c09","651c1d425a2ace1639b276c7","null","null","<p style=""font-size: 60px; font-family: BACS"">aOLZULkNc</p>","","","","","","","","",""
"html-keyboard-response","144","240161","0.0-10.0-0.55","613867f34e206e4f573bc6ef","650c16f0f2faf8d7a0d14c09","651c1d425a2ace1639b276c7","null","null","<p style=""font-size: 60px; font-family: BACS"">RkmdCDlDT</p>","","","","","","","","",""
"html-keyboard-response","145","241163","0.0-10.0-0.56","613867f34e206e4f573bc6ef","650c16f0f2faf8d7a0d14c09","651c1d425a2ace1639b276c7","null","null","<p style=""font-size: 60px; font-family: BACS"">krUQbadk</p>","","","","","","","","",""
"html-keyboard-response","146","242164","0.0-10.0-0.57","613867f34e206e4f573bc6ef","650c16f0f2faf8d7a0d14c09","651c1d425a2ace1639b276c7","null","null","<p style=""font-size: 60px; font-family: BACS"">KRARmdCKc</p>","","","","","","","","",""
"html-keyboard-response","147","243168","0.0-10.0-0.58","613867f34e206e4f573bc6ef","650c16f0f2faf8d7a0d14c09","651c1d425a2ace1639b276c7","null","null","<p style=""font-size: 60px; font-family: BACS"">vclYLkNc</p>","","","","","","","","",""
"html-keyboard-response","148","244184","0.0-10.0-0.59","613867f34e206e4f573bc6ef","650c16f0f2faf8d7a0d14c09","651c1d425a2ace1639b276c7","null","null","<p style=""font-size: 60px; font-family: BACS"">kCRmAPT</p>","","","","","","","","",""
"html-keyboard-response","149","245199","0.0-10.0-0.60","613867f34e206e4f573bc6ef","650c16f0f2faf8d7a0d14c09","651c1d425a2ace1639b276c7","null","null","<p style=""font-size: 60px; font-family: BACS"">krUQmkc</p>","","","","","","","","",""
"html-keyboard-response","150","246200","0.0-10.0-0.61","613867f34e206e4f573bc6ef","650c16f0f2faf8d7a0d14c09","651c1d425a2ace1639b276c7","null","null","<p style=""font-size: 60px; font-family: BACS"">vblrbadk</p>","","","","","","","","",""
"html-keyboard-response","151","247208","0.0-10.0-0.62","613867f34e206e4f573bc6ef","650c16f0f2faf8d7a0d14c09","651c1d425a2ace1639b276c7","null","null","<p style=""font-size: 60px; font-family: BACS"">RkmdCMCkm</p>","","","","","","","","",""
"html-keyboard-response","152","248210","0.0-10.0-0.63","613867f34e206e4f573bc6ef","650c16f0f2faf8d7a0d14c09","651c1d425a2ace1639b276c7","null","null","<p style=""font-size: 60px; font-family: BACS"">PYkCDlDT</p>","","","","","","","","",""
"html-keyboard-response","153","249211","0.0-10.0-0.64","613867f34e206e4f573bc6ef","650c16f0f2faf8d7a0d14c09","651c1d425a2ace1639b276c7","null","null","<p style=""font-size: 60px; font-family: BACS"">RkmdCdCKc</p>","","","","","","","","",""
"html-keyboard-response","154","250212","0.0-10.0-0.65","613867f34e206e4f573bc6ef","650c16f0f2faf8d7a0d14c09","651c1d425a2ace1639b276c7","null","null","<p style=""font-size: 60px; font-family: BACS"">lbBDEAPT</p>","","","","","","","","",""
"html-keyboard-response","155","251214","0.0-10.0-0.66","613867f34e206e4f573bc6ef","650c16f0f2faf8d7a0d14c09","651c1d425a2ace1639b276c7","null","null","<p style=""font-size: 60px; font-family: BACS"">PYkCdCKc</p>","","","","","","","","",""
"html-keyboard-response","156","252224","0.0-10.0-0.67","613867f34e206e4f573bc6ef","650c16f0f2faf8d7a0d14c09","651c1d425a2ace1639b276c7","null","null","<p style=""font-size: 60px; font-family: BACS"">hlbtbkhMD</p>","","","","","","","","",""
"html-keyboard-response","157","253225","0.0-10.0-0.68","613867f34e206e4f573bc6ef","650c16f0f2faf8d7a0d14c09","651c1d425a2ace1639b276c7","null","null","<p style=""font-size: 60px; font-family: BACS"">LuNZmkc</p>","","","","","","","","",""
"html-keyboard-response","158","254226","0.0-10.0-0.69","613867f34e206e4f573bc6ef","650c16f0f2faf8d7a0d14c09","651c1d425a2ace1639b276c7","null","null","<p style=""font-size: 60px; font-family: BACS"">JAaGbadk</p>","","","","","","","","",""
"html-keyboard-response","159","255227","0.0-10.0-0.70","613867f34e206e4f573bc6ef","650c16f0f2faf8d7a0d14c09","651c1d425a2ace1639b276c7","null","null","<p style=""font-size: 60px; font-family: BACS"">vAuNlLkNc</p>","","","","","","","","",""
"html-keyboard-response","160","256230","0.0-10.0-0.71","613867f34e206e4f573bc6ef","650c16f0f2faf8d7a0d14c09","651c1d425a2ace1639b276c7","null","null","<p style=""font-size: 60px; font-family: BACS"">JAaGmkc</p>","","","","","","","","",""
"html-keyboard-response","161","257243","0.0-10.0-0.72","613867f34e206e4f573bc6ef","650c16f0f2faf8d7a0d14c09","651c1d425a2ace1639b276c7","null","null","<p style=""font-size: 60px; font-family: BACS"">TEBKMCkm</p>","","","","","","","","",""
"html-keyboard-response","162","258246","0.0-10.0-0.73","613867f34e206e4f573bc6ef","650c16f0f2faf8d7a0d14c09","651c1d425a2ace1639b276c7","null","null","<p style=""font-size: 60px; font-family: BACS"">hlbtbAPT</p>","","","","","","","","",""
"html-keyboard-response","163","259254","0.0-10.0-0.74","613867f34e206e4f573bc6ef","650c16f0f2faf8d7a0d14c09","651c1d425a2ace1639b276c7","null","null","<p style=""font-size: 60px; font-family: BACS"">KElBDlDT</p>","","","","","","","","",""
"html-keyboard-response","164","260264","0.0-10.0-0.75","613867f34e206e4f573bc6ef","650c16f0f2faf8d7a0d14c09","651c1d425a2ace1639b276c7","null","null","<p style=""font-size: 60px; font-family: BACS"">vAuNlbLd</p>","","","","","","","","",""
"html-keyboard-response","165","261280","0.0-10.0-0.76","613867f34e206e4f573bc6ef","650c16f0f2faf8d7a0d14c09","651c1d425a2ace1639b276c7","null","null","<p style=""font-size: 60px; font-family: BACS"">KBKBEMCkm</p>","","","","","","","","",""
"html-keyboard-response","166","262288","0.0-10.0-0.77","613867f34e206e4f573bc6ef","650c16f0f2faf8d7a0d14c09","651c1d425a2ace1639b276c7","null","null","<p style=""font-size: 60px; font-family: BACS"">vclYbadk</p>","","","","","","","","",""
"html-keyboard-response","167","263289","0.0-10.0-0.78","613867f34e206e4f573bc6ef","650c16f0f2faf8d7a0d14c09","651c1d425a2ace1639b276c7","null","null","<p style=""font-size: 60px; font-family: BACS"">vAuNlkbu</p>","","","","","","","","",""
"html-keyboard-response","168","264298","0.0-10.0-0.79","613867f34e206e4f573bc6ef","650c16f0f2faf8d7a0d14c09","651c1d425a2ace1639b276c7","null","null","<p style=""font-size: 60px; font-family: BACS"">OQarQmkc</p>","","","","","","","","",""
"html-keyboard-response","169","266575","0.0-11.0","613867f34e206e4f573bc6ef","650c16f0f2faf8d7a0d14c09","651c1d425a2ace1639b276c7","2277"," ","<p>Great, you've seen the second block of words. You may now take a short break.</p>
      <p>Press the spacebar when you're ready to continue.</p>","","","","","","","","",""
"html-keyboard-response","170","267577","0.0-12.0-0.0","613867f34e206e4f573bc6ef","650c16f0f2faf8d7a0d14c09","651c1d425a2ace1639b276c7","null","null","<p style=""font-size: 60px; font-family: BACS"">vAuNlbadk</p>","","","","","","","","",""
"html-keyboard-response","171","268590","0.0-12.0-0.1","613867f34e206e4f573bc6ef","650c16f0f2faf8d7a0d14c09","651c1d425a2ace1639b276c7","null","null","<p style=""font-size: 60px; font-family: BACS"">TEBKkhMD</p>","","","","","","","","",""
"html-keyboard-response","172","269594","0.0-12.0-0.2","613867f34e206e4f573bc6ef","650c16f0f2faf8d7a0d14c09","651c1d425a2ace1639b276c7","null","null","<p style=""font-size: 60px; font-family: BACS"">kCRmMCkm</p>","","","","","","","","",""
"html-keyboard-response","173","270595","0.0-12.0-0.3","613867f34e206e4f573bc6ef","650c16f0f2faf8d7a0d14c09","651c1d425a2ace1639b276c7","null","null","<p style=""font-size: 60px; font-family: BACS"">hlbtbAPT</p>","","","","","","","","",""
"html-keyboard-response","174","271596","0.0-12.0-0.4","613867f34e206e4f573bc6ef","650c16f0f2faf8d7a0d14c09","651c1d425a2ace1639b276c7","null","null","<p style=""font-size: 60px; font-family: BACS"">JAaGmkc</p>","","","","","","","","",""
"html-keyboard-response","175","272597","0.0-12.0-0.5","613867f34e206e4f573bc6ef","650c16f0f2faf8d7a0d14c09","651c1d425a2ace1639b276c7","null","null","<p style=""font-size: 60px; font-family: BACS"">PYkCDlDT</p>","","","","","","","","",""
"html-keyboard-response","176","273598","0.0-12.0-0.6","613867f34e206e4f573bc6ef","650c16f0f2faf8d7a0d14c09","651c1d425a2ace1639b276c7","null","null","<p style=""font-size: 60px; font-family: BACS"">OQarQkbu</p>","","","","","","","","",""
"html-keyboard-response","177","274610","0.0-12.0-0.7","613867f34e206e4f573bc6ef","650c16f0f2faf8d7a0d14c09","651c1d425a2ace1639b276c7","null","null","<p style=""font-size: 60px; font-family: BACS"">KRARmAPT</p>","","","","","","","","",""
"html-keyboard-response","178","275613","0.0-12.0-0.8","613867f34e206e4f573bc6ef","650c16f0f2faf8d7a0d14c09","651c1d425a2ace1639b276c7","null","null","<p style=""font-size: 60px; font-family: BACS"">lrZGbadk</p>","","","","","","","","",""
"html-keyboard-response","179","276621","0.0-12.0-0.9","613867f34e206e4f573bc6ef","650c16f0f2faf8d7a0d14c09","651c1d425a2ace1639b276c7","null","null","<p style=""font-size: 60px; font-family: BACS"">RkmdCdCKc</p>","","","","","","","","",""
"html-keyboard-response","180","277622","0.0-12.0-0.10","613867f34e206e4f573bc6ef","650c16f0f2faf8d7a0d14c09","651c1d425a2ace1639b276c7","null","null","<p style=""font-size: 60px; font-family: BACS"">kCRmAPT</p>","","","","","","","","",""
"html-keyboard-response","181","278628","0.0-12.0-0.11","613867f34e206e4f573bc6ef","650c16f0f2faf8d7a0d14c09","651c1d425a2ace1639b276c7","null","null","<p style=""font-size: 60px; font-family: BACS"">lrZGLkNc</p>","","","","","","","","",""
"html-keyboard-response","182","279629","0.0-12.0-0.12","613867f34e206e4f573bc6ef","650c16f0f2faf8d7a0d14c09","651c1d425a2ace1639b276c7","null","null","<p style=""font-size: 60px; font-family: BACS"">vAuNlbLd</p>","","","","","","","","",""
"html-keyboard-response","183","280636","0.0-12.0-0.13","613867f34e206e4f573bc6ef","650c16f0f2faf8d7a0d14c09","651c1d425a2ace1639b276c7","null","null","<p style=""font-size: 60px; font-family: BACS"">KRARmdCKc</p>","","","","","","","","",""
"html-keyboard-response","184","281637","0.0-12.0-0.14","613867f34e206e4f573bc6ef","650c16f0f2faf8d7a0d14c09","651c1d425a2ace1639b276c7","null","null","<p style=""font-size: 60px; font-family: BACS"">LuNZbLd</p>","","","","","","","","",""
"html-keyboard-response","185","282646","0.0-12.0-0.15","613867f34e206e4f573bc6ef","650c16f0f2faf8d7a0d14c09","651c1d425a2ace1639b276c7","null","null","<p style=""font-size: 60px; font-family: BACS"">Yadrmkc</p>","","","","","","","","",""
"html-keyboard-response","186","283647","0.0-12.0-0.16","613867f34e206e4f573bc6ef","650c16f0f2faf8d7a0d14c09","651c1d425a2ace1639b276c7","null","null","<p style=""font-size: 60px; font-family: BACS"">KBKBEkhMD</p>","","","","","","","","",""
"html-keyboard-response","187","284649","0.0-12.0-0.17","613867f34e206e4f573bc6ef","650c16f0f2faf8d7a0d14c09","651c1d425a2ace1639b276c7","null","null","<p style=""font-size: 60px; font-family: BACS"">krUQbLd</p>","","","","","","","","",""
"html-keyboard-response","188","285650","0.0-12.0-0.18","613867f34e206e4f573bc6ef","650c16f0f2faf8d7a0d14c09","651c1d425a2ace1639b276c7","null","null","<p style=""font-size: 60px; font-family: BACS"">kCRmDlDT</p>","","","","","","","","",""
"html-keyboard-response","189","286652","0.0-12.0-0.19","613867f34e206e4f573bc6ef","650c16f0f2faf8d7a0d14c09","651c1d425a2ace1639b276c7","null","null","<p style=""font-size: 60px; font-family: BACS"">krUQmkc</p>","","","","","","","","",""
"html-keyboard-response","190","287660","0.0-12.0-0.20","613867f34e206e4f573bc6ef","650c16f0f2faf8d7a0d14c09","651c1d425a2ace1639b276c7","null","null","<p style=""font-size: 60px; font-family: BACS"">KBKBEDlDT</p>","","","","","","","","",""
"html-keyboard-response","191","288661","0.0-12.0-0.21","613867f34e206e4f573bc6ef","650c16f0f2faf8d7a0d14c09","651c1d425a2ace1639b276c7","null","null","<p style=""font-size: 60px; font-family: BACS"">YadrbLd</p>","","","","","","","","",""
"html-keyboard-response","192","289662","0.0-12.0-0.22","613867f34e206e4f573bc6ef","650c16f0f2faf8d7a0d14c09","651c1d425a2ace1639b276c7","null","null","<p style=""font-size: 60px; font-family: BACS"">vblrmkc</p>","","","","","","","","",""
"html-keyboard-response","193","290668","0.0-12.0-0.23","613867f34e206e4f573bc6ef","650c16f0f2faf8d7a0d14c09","651c1d425a2ace1639b276c7","null","null","<p style=""font-size: 60px; font-family: BACS"">lbBDEkhMD</p>","","","","","","","","",""
"html-keyboard-response","194","291670","0.0-12.0-0.24","613867f34e206e4f573bc6ef","650c16f0f2faf8d7a0d14c09","651c1d425a2ace1639b276c7","null","null","<p style=""font-size: 60px; font-family: BACS"">TEBKDlDT</p>","","","","","","","","",""
"html-keyboard-response","195","292678","0.0-12.0-0.25","613867f34e206e4f573bc6ef","650c16f0f2faf8d7a0d14c09","651c1d425a2ace1639b276c7","null","null","<p style=""font-size: 60px; font-family: BACS"">cdKBYdCKc</p>","","","","","","","","",""
"html-keyboard-response","196","293680","0.0-12.0-0.26","613867f34e206e4f573bc6ef","650c16f0f2faf8d7a0d14c09","651c1d425a2ace1639b276c7","null","null","<p style=""font-size: 60px; font-family: BACS"">JAaGbLd</p>","","","","","","","","",""
"html-keyboard-response","197","294685","0.0-12.0-0.27","613867f34e206e4f573bc6ef","650c16f0f2faf8d7a0d14c09","651c1d425a2ace1639b276c7","null","null","<p style=""font-size: 60px; font-family: BACS"">PYkCAPT</p>","","","","","","","","",""
"html-keyboard-response","198","295686","0.0-12.0-0.28","613867f34e206e4f573bc6ef","650c16f0f2faf8d7a0d14c09","651c1d425a2ace1639b276c7","null","null","<p style=""font-size: 60px; font-family: BACS"">aOLZUmkc</p>","","","","","","","","",""
"html-keyboard-response","199","296687","0.0-12.0-0.29","613867f34e206e4f573bc6ef","650c16f0f2faf8d7a0d14c09","651c1d425a2ace1639b276c7","null","null","<p style=""font-size: 60px; font-family: BACS"">KBKBEAPT</p>","","","","","","","","",""
"html-keyboard-response","200","297688","0.0-12.0-0.30","613867f34e206e4f573bc6ef","650c16f0f2faf8d7a0d14c09","651c1d425a2ace1639b276c7","null","null","<p style=""font-size: 60px; font-family: BACS"">PYkCkhMD</p>","","","","","","","","",""
"html-keyboard-response","201","298701","0.0-12.0-0.31","613867f34e206e4f573bc6ef","650c16f0f2faf8d7a0d14c09","651c1d425a2ace1639b276c7","null","null","<p style=""font-size: 60px; font-family: BACS"">LuNZkbu</p>","","","","","","","","",""
"html-keyboard-response","202","299703","0.0-12.0-0.32","613867f34e206e4f573bc6ef","650c16f0f2faf8d7a0d14c09","651c1d425a2ace1639b276c7","null","null","<p style=""font-size: 60px; font-family: BACS"">OQarQmkc</p>","","","","","","","","",""
"html-keyboard-response","203","300708","0.0-12.0-0.33","613867f34e206e4f573bc6ef","650c16f0f2faf8d7a0d14c09","651c1d425a2ace1639b276c7","null","null","<p style=""font-size: 60px; font-family: BACS"">KBKBEMCkm</p>","","","","","","","","",""
"html-keyboard-response","204","301709","0.0-12.0-0.34","613867f34e206e4f573bc6ef","650c16f0f2faf8d7a0d14c09","651c1d425a2ace1639b276c7","null","null","<p style=""font-size: 60px; font-family: BACS"">vclYLkNc</p>","","","","","","","","",""
"html-keyboard-response","205","302710","0.0-12.0-0.35","613867f34e206e4f573bc6ef","650c16f0f2faf8d7a0d14c09","651c1d425a2ace1639b276c7","null","null","<p style=""font-size: 60px; font-family: BACS"">cdKBYkhMD</p>","","","","","","","","",""
"html-keyboard-response","206","303712","0.0-12.0-0.36","613867f34e206e4f573bc6ef","650c16f0f2faf8d7a0d14c09","651c1d425a2ace1639b276c7","null","null","<p style=""font-size: 60px; font-family: BACS"">krUQkbu</p>","","","","","","","","",""
"html-keyboard-response","207","304718","0.0-12.0-0.37","613867f34e206e4f573bc6ef","650c16f0f2faf8d7a0d14c09","651c1d425a2ace1639b276c7","null","null","<p style=""font-size: 60px; font-family: BACS"">TEBKdCKc</p>","","","","","","","","",""
"html-keyboard-response","208","305719","0.0-12.0-0.38","613867f34e206e4f573bc6ef","650c16f0f2faf8d7a0d14c09","651c1d425a2ace1639b276c7","null","null","<p style=""font-size: 60px; font-family: BACS"">cdKBYMCkm</p>","","","","","","","","",""
"html-keyboard-response","209","306730","0.0-12.0-0.39","613867f34e206e4f573bc6ef","650c16f0f2faf8d7a0d14c09","651c1d425a2ace1639b276c7","null","null","<p style=""font-size: 60px; font-family: BACS"">KRARmkhMD</p>","","","","","","","","",""
"html-keyboard-response","210","307731","0.0-12.0-0.40","613867f34e206e4f573bc6ef","650c16f0f2faf8d7a0d14c09","651c1d425a2ace1639b276c7","null","null","<p style=""font-size: 60px; font-family: BACS"">vblrLkNc</p>","","","","","","","","",""
"html-keyboard-response","211","308737","0.0-12.0-0.41","613867f34e206e4f573bc6ef","650c16f0f2faf8d7a0d14c09","651c1d425a2ace1639b276c7","null","null","<p style=""font-size: 60px; font-family: BACS"">Yadrkbu</p>","","","","","","","","",""
"html-keyboard-response","212","309738","0.0-12.0-0.42","613867f34e206e4f573bc6ef","650c16f0f2faf8d7a0d14c09","651c1d425a2ace1639b276c7","null","null","<p style=""font-size: 60px; font-family: BACS"">vAuNlLkNc</p>","","","","","","","","",""
"html-keyboard-response","213","310753","0.0-12.0-0.43","613867f34e206e4f573bc6ef","650c16f0f2faf8d7a0d14c09","651c1d425a2ace1639b276c7","null","null","<p style=""font-size: 60px; font-family: BACS"">TEBKMCkm</p>","","","","","","","","",""
"html-keyboard-response","214","311754","0.0-12.0-0.44","613867f34e206e4f573bc6ef","650c16f0f2faf8d7a0d14c09","651c1d425a2ace1639b276c7","null","null","<p style=""font-size: 60px; font-family: BACS"">lbBDEAPT</p>","","","","","","","","",""
"html-keyboard-response","215","312756","0.0-12.0-0.45","613867f34e206e4f573bc6ef","650c16f0f2faf8d7a0d14c09","651c1d425a2ace1639b276c7","null","null","<p style=""font-size: 60px; font-family: BACS"">vblrkbu</p>","","","","","","","","",""
"html-keyboard-response","216","313757","0.0-12.0-0.46","613867f34e206e4f573bc6ef","650c16f0f2faf8d7a0d14c09","651c1d425a2ace1639b276c7","null","null","<p style=""font-size: 60px; font-family: BACS"">KRARmMCkm</p>","","","","","","","","",""
"html-keyboard-response","217","314759","0.0-12.0-0.47","613867f34e206e4f573bc6ef","650c16f0f2faf8d7a0d14c09","651c1d425a2ace1639b276c7","null","null","<p style=""font-size: 60px; font-family: BACS"">Yadrbadk</p>","","","","","","","","",""
"html-keyboard-response","218","315760","0.0-12.0-0.48","613867f34e206e4f573bc6ef","650c16f0f2faf8d7a0d14c09","651c1d425a2ace1639b276c7","null","null","<p style=""font-size: 60px; font-family: BACS"">LuNZLkNc</p>","","","","","","","","",""
"html-keyboard-response","219","316768","0.0-12.0-0.49","613867f34e206e4f573bc6ef","650c16f0f2faf8d7a0d14c09","651c1d425a2ace1639b276c7","null","null","<p style=""font-size: 60px; font-family: BACS"">aOLZUbLd</p>","","","","","","","","",""
"html-keyboard-response","220","317769","0.0-12.0-0.50","613867f34e206e4f573bc6ef","650c16f0f2faf8d7a0d14c09","651c1d425a2ace1639b276c7","null","null","<p style=""font-size: 60px; font-family: BACS"">hlbtbkhMD</p>","","","","","","","","",""
"html-keyboard-response","221","318784","0.0-12.0-0.51","613867f34e206e4f573bc6ef","650c16f0f2faf8d7a0d14c09","651c1d425a2ace1639b276c7","null","null","<p style=""font-size: 60px; font-family: BACS"">KElBAPT</p>","","","","","","","","",""
"html-keyboard-response","222","319786","0.0-12.0-0.52","613867f34e206e4f573bc6ef","650c16f0f2faf8d7a0d14c09","651c1d425a2ace1639b276c7","null","null","<p style=""font-size: 60px; font-family: BACS"">RkmdCDlDT</p>","","","","","","","","",""
"html-keyboard-response","223","320800","0.0-12.0-0.53","613867f34e206e4f573bc6ef","650c16f0f2faf8d7a0d14c09","651c1d425a2ace1639b276c7","null","null","<p style=""font-size: 60px; font-family: BACS"">aOLZULkNc</p>","","","","","","","","",""
"html-keyboard-response","224","321801","0.0-12.0-0.54","613867f34e206e4f573bc6ef","650c16f0f2faf8d7a0d14c09","651c1d425a2ace1639b276c7","null","null","<p style=""font-size: 60px; font-family: BACS"">vAuNlkbu</p>","","","","","","","","",""
"html-keyboard-response","225","322803","0.0-12.0-0.55","613867f34e206e4f573bc6ef","650c16f0f2faf8d7a0d14c09","651c1d425a2ace1639b276c7","null","null","<p style=""font-size: 60px; font-family: BACS"">KElBDlDT</p>","","","","","","","","",""
"html-keyboard-response","226","323804","0.0-12.0-0.56","613867f34e206e4f573bc6ef","650c16f0f2faf8d7a0d14c09","651c1d425a2ace1639b276c7","null","null","<p style=""font-size: 60px; font-family: BACS"">lbBDEMCkm</p>","","","","","","","","",""
"html-keyboard-response","227","324805","0.0-12.0-0.57","613867f34e206e4f573bc6ef","650c16f0f2faf8d7a0d14c09","651c1d425a2ace1639b276c7","null","null","<p style=""font-size: 60px; font-family: BACS"">OQarQbadk</p>","","","","","","","","",""
"html-keyboard-response","228","325816","0.0-12.0-0.58","613867f34e206e4f573bc6ef","650c16f0f2faf8d7a0d14c09","651c1d425a2ace1639b276c7","null","null","<p style=""font-size: 60px; font-family: BACS"">hlbtbMCkm</p>","","","","","","","","",""
"html-keyboard-response","229","326822","0.0-12.0-0.59","613867f34e206e4f573bc6ef","650c16f0f2faf8d7a0d14c09","651c1d425a2ace1639b276c7","null","null","<p style=""font-size: 60px; font-family: BACS"">krUQbadk</p>","","","","","","","","",""
"html-keyboard-response","230","327824","0.0-12.0-0.60","613867f34e206e4f573bc6ef","650c16f0f2faf8d7a0d14c09","651c1d425a2ace1639b276c7","null","null","<p style=""font-size: 60px; font-family: BACS"">KElBdCKc</p>","","","","","","","","",""
"html-keyboard-response","231","328832","0.0-12.0-0.61","613867f34e206e4f573bc6ef","650c16f0f2faf8d7a0d14c09","651c1d425a2ace1639b276c7","null","null","<p style=""font-size: 60px; font-family: BACS"">vclYmkc</p>","","","","","","","","",""
"html-keyboard-response","232","329834","0.0-12.0-0.62","613867f34e206e4f573bc6ef","650c16f0f2faf8d7a0d14c09","651c1d425a2ace1639b276c7","null","null","<p style=""font-size: 60px; font-family: BACS"">PYkCdCKc</p>","","","","","","","","",""
"html-keyboard-response","233","330844","0.0-12.0-0.63","613867f34e206e4f573bc6ef","650c16f0f2faf8d7a0d14c09","651c1d425a2ace1639b276c7","null","null","<p style=""font-size: 60px; font-family: BACS"">OQarQLkNc</p>","","","","","","","","",""
"html-keyboard-response","234","331856","0.0-12.0-0.64","613867f34e206e4f573bc6ef","650c16f0f2faf8d7a0d14c09","651c1d425a2ace1639b276c7","null","null","<p style=""font-size: 60px; font-family: BACS"">lrZGbLd</p>","","","","","","","","",""
"html-keyboard-response","235","332863","0.0-12.0-0.65","613867f34e206e4f573bc6ef","650c16f0f2faf8d7a0d14c09","651c1d425a2ace1639b276c7","null","null","<p style=""font-size: 60px; font-family: BACS"">LuNZmkc</p>","","","","","","","","",""
"html-keyboard-response","236","333870","0.0-12.0-0.66","613867f34e206e4f573bc6ef","650c16f0f2faf8d7a0d14c09","651c1d425a2ace1639b276c7","null","null","<p style=""font-size: 60px; font-family: BACS"">vclYbadk</p>","","","","","","","","",""
"html-keyboard-response","237","334872","0.0-12.0-0.67","613867f34e206e4f573bc6ef","650c16f0f2faf8d7a0d14c09","651c1d425a2ace1639b276c7","null","null","<p style=""font-size: 60px; font-family: BACS"">lrZGkbu</p>","","","","","","","","",""
"html-keyboard-response","238","335876","0.0-12.0-0.68","613867f34e206e4f573bc6ef","650c16f0f2faf8d7a0d14c09","651c1d425a2ace1639b276c7","null","null","<p style=""font-size: 60px; font-family: BACS"">JAaGbadk</p>","","","","","","","","",""
"html-keyboard-response","239","336886","0.0-12.0-0.69","613867f34e206e4f573bc6ef","650c16f0f2faf8d7a0d14c09","651c1d425a2ace1639b276c7","null","null","<p style=""font-size: 60px; font-family: BACS"">RkmdCAPT</p>","","","","","","","","",""
"html-keyboard-response","240","337899","0.0-12.0-0.70","613867f34e206e4f573bc6ef","650c16f0f2faf8d7a0d14c09","651c1d425a2ace1639b276c7","null","null","<p style=""font-size: 60px; font-family: BACS"">KElBkhMD</p>","","","","","","","","",""
"html-keyboard-response","241","338912","0.0-12.0-0.71","613867f34e206e4f573bc6ef","650c16f0f2faf8d7a0d14c09","651c1d425a2ace1639b276c7","null","null","<p style=""font-size: 60px; font-family: BACS"">hlbtbDlDT</p>","","","","","","","","",""
"html-keyboard-response","242","339916","0.0-12.0-0.72","613867f34e206e4f573bc6ef","650c16f0f2faf8d7a0d14c09","651c1d425a2ace1639b276c7","null","null","<p style=""font-size: 60px; font-family: BACS"">vclYbLd</p>","","","","","","","","",""
"html-keyboard-response","243","340919","0.0-12.0-0.73","613867f34e206e4f573bc6ef","650c16f0f2faf8d7a0d14c09","651c1d425a2ace1639b276c7","null","null","<p style=""font-size: 60px; font-family: BACS"">lbBDEdCKc</p>","","","","","","","","",""
"html-keyboard-response","244","341931","0.0-12.0-0.74","613867f34e206e4f573bc6ef","650c16f0f2faf8d7a0d14c09","651c1d425a2ace1639b276c7","null","null","<p style=""font-size: 60px; font-family: BACS"">RkmdCMCkm</p>","","","","","","","","",""
"html-keyboard-response","245","342943","0.0-12.0-0.75","613867f34e206e4f573bc6ef","650c16f0f2faf8d7a0d14c09","651c1d425a2ace1639b276c7","null","null","<p style=""font-size: 60px; font-family: BACS"">JAaGLkNc</p>","","","","","","","","",""
"html-keyboard-response","246","343945","0.0-12.0-0.76","613867f34e206e4f573bc6ef","650c16f0f2faf8d7a0d14c09","651c1d425a2ace1639b276c7","null","null","<p style=""font-size: 60px; font-family: BACS"">kCRmdCKc</p>","","","","","","","","",""
"html-keyboard-response","247","344949","0.0-12.0-0.77","613867f34e206e4f573bc6ef","650c16f0f2faf8d7a0d14c09","651c1d425a2ace1639b276c7","null","null","<p style=""font-size: 60px; font-family: BACS"">cdKBYDlDT</p>","","","","","","","","",""
"html-keyboard-response","248","345953","0.0-12.0-0.78","613867f34e206e4f573bc6ef","650c16f0f2faf8d7a0d14c09","651c1d425a2ace1639b276c7","null","null","<p style=""font-size: 60px; font-family: BACS"">vblrbadk</p>","","","","","","","","",""
"html-keyboard-response","249","346954","0.0-12.0-0.79","613867f34e206e4f573bc6ef","650c16f0f2faf8d7a0d14c09","651c1d425a2ace1639b276c7","null","null","<p style=""font-size: 60px; font-family: BACS"">aOLZUkbu</p>","","","","","","","","",""
"html-keyboard-response","250","349642","0.0-13.0","613867f34e206e4f573bc6ef","650c16f0f2faf8d7a0d14c09","651c1d425a2ace1639b276c7","2687"," ","<p>Great, you've seen the third block of words. You may now take a short break.</p>
      <p>Press the spacebar when you're ready to continue.</p>","","","","","","","","",""
"html-keyboard-response","251","350644","0.0-14.0-0.0","613867f34e206e4f573bc6ef","650c16f0f2faf8d7a0d14c09","651c1d425a2ace1639b276c7","null","null","<p style=""font-size: 60px; font-family: BACS"">KBKBEDlDT</p>","","","","","","","","",""
"html-keyboard-response","252","351646","0.0-14.0-0.1","613867f34e206e4f573bc6ef","650c16f0f2faf8d7a0d14c09","651c1d425a2ace1639b276c7","null","null","<p style=""font-size: 60px; font-family: BACS"">lrZGLkNc</p>","","","","","","","","",""
"html-keyboard-response","253","352658","0.0-14.0-0.2","613867f34e206e4f573bc6ef","650c16f0f2faf8d7a0d14c09","651c1d425a2ace1639b276c7","null","null","<p style=""font-size: 60px; font-family: BACS"">TEBKDlDT</p>","","","","","","","","",""
"html-keyboard-response","254","353673","0.0-14.0-0.3","613867f34e206e4f573bc6ef","650c16f0f2faf8d7a0d14c09","651c1d425a2ace1639b276c7","null","null","<p style=""font-size: 60px; font-family: BACS"">LuNZbLd</p>","","","","","","","","",""
"html-keyboard-response","255","354680","0.0-14.0-0.4","613867f34e206e4f573bc6ef","650c16f0f2faf8d7a0d14c09","651c1d425a2ace1639b276c7","null","null","<p style=""font-size: 60px; font-family: BACS"">TEBKdCKc</p>","","","","","","","","",""
"html-keyboard-response","256","355682","0.0-14.0-0.5","613867f34e206e4f573bc6ef","650c16f0f2faf8d7a0d14c09","651c1d425a2ace1639b276c7","null","null","<p style=""font-size: 60px; font-family: BACS"">vAuNlbadk</p>","","","","","","","","",""
"html-keyboard-response","257","356683","0.0-14.0-0.6","613867f34e206e4f573bc6ef","650c16f0f2faf8d7a0d14c09","651c1d425a2ace1639b276c7","null","null","<p style=""font-size: 60px; font-family: BACS"">KBKBEkhMD</p>","","","","","","","","",""
"html-keyboard-response","258","357685","0.0-14.0-0.7","613867f34e206e4f573bc6ef","650c16f0f2faf8d7a0d14c09","651c1d425a2ace1639b276c7","null","null","<p style=""font-size: 60px; font-family: BACS"">cdKBYMCkm</p>","","","","","","","","",""
"html-keyboard-response","259","358697","0.0-14.0-0.8","613867f34e206e4f573bc6ef","650c16f0f2faf8d7a0d14c09","651c1d425a2ace1639b276c7","null","null","<p style=""font-size: 60px; font-family: BACS"">lrZGkbu</p>","","","","","","","","",""
"html-keyboard-response","260","359699","0.0-14.0-0.9","613867f34e206e4f573bc6ef","650c16f0f2faf8d7a0d14c09","651c1d425a2ace1639b276c7","null","null","<p style=""font-size: 60px; font-family: BACS"">RkmdCAPT</p>","","","","","","","","",""
"html-keyboard-response","261","360714","0.0-14.0-0.10","613867f34e206e4f573bc6ef","650c16f0f2faf8d7a0d14c09","651c1d425a2ace1639b276c7","null","null","<p style=""font-size: 60px; font-family: BACS"">vblrLkNc</p>","","","","","","","","",""
"html-keyboard-response","262","361715","0.0-14.0-0.11","613867f34e206e4f573bc6ef","650c16f0f2faf8d7a0d14c09","651c1d425a2ace1639b276c7","null","null","<p style=""font-size: 60px; font-family: BACS"">PYkCDlDT</p>","","","","","","","","",""
"html-keyboard-response","263","362717","0.0-14.0-0.12","613867f34e206e4f573bc6ef","650c16f0f2faf8d7a0d14c09","651c1d425a2ace1639b276c7","null","null","<p style=""font-size: 60px; font-family: BACS"">TEBKkhMD</p>","","","","","","","","",""
"html-keyboard-response","264","363719","0.0-14.0-0.13","613867f34e206e4f573bc6ef","650c16f0f2faf8d7a0d14c09","651c1d425a2ace1639b276c7","null","null","<p style=""font-size: 60px; font-family: BACS"">KRARmAPT</p>","","","","","","","","",""
"html-keyboard-response","265","364720","0.0-14.0-0.14","613867f34e206e4f573bc6ef","650c16f0f2faf8d7a0d14c09","651c1d425a2ace1639b276c7","null","null","<p style=""font-size: 60px; font-family: BACS"">kCRmdCKc</p>","","","","","","","","",""
"html-keyboard-response","266","365722","0.0-14.0-0.15","613867f34e206e4f573bc6ef","650c16f0f2faf8d7a0d14c09","651c1d425a2ace1639b276c7","null","null","<p style=""font-size: 60px; font-family: BACS"">vclYLkNc</p>","","","","","","","","",""
"html-keyboard-response","267","366724","0.0-14.0-0.16","613867f34e206e4f573bc6ef","650c16f0f2faf8d7a0d14c09","651c1d425a2ace1639b276c7","null","null","<p style=""font-size: 60px; font-family: BACS"">krUQkbu</p>","","","","","","","","",""
"html-keyboard-response","268","367729","0.0-14.0-0.17","613867f34e206e4f573bc6ef","650c16f0f2faf8d7a0d14c09","651c1d425a2ace1639b276c7","null","null","<p style=""font-size: 60px; font-family: BACS"">LuNZmkc</p>","","","","","","","","",""
"html-keyboard-response","269","368731","0.0-14.0-0.18","613867f34e206e4f573bc6ef","650c16f0f2faf8d7a0d14c09","651c1d425a2ace1639b276c7","null","null","<p style=""font-size: 60px; font-family: BACS"">KElBDlDT</p>","","","","","","","","",""
"html-keyboard-response","270","369733","0.0-14.0-0.19","613867f34e206e4f573bc6ef","650c16f0f2faf8d7a0d14c09","651c1d425a2ace1639b276c7","null","null","<p style=""font-size: 60px; font-family: BACS"">hlbtbkhMD</p>","","","","","","","","",""
"html-keyboard-response","271","370734","0.0-14.0-0.20","613867f34e206e4f573bc6ef","650c16f0f2faf8d7a0d14c09","651c1d425a2ace1639b276c7","null","null","<p style=""font-size: 60px; font-family: BACS"">aOLZUbLd</p>","","","","","","","","",""
"html-keyboard-response","272","371736","0.0-14.0-0.21","613867f34e206e4f573bc6ef","650c16f0f2faf8d7a0d14c09","651c1d425a2ace1639b276c7","null","null","<p style=""font-size: 60px; font-family: BACS"">KElBkhMD</p>","","","","","","","","",""
"html-keyboard-response","273","372747","0.0-14.0-0.22","613867f34e206e4f573bc6ef","650c16f0f2faf8d7a0d14c09","651c1d425a2ace1639b276c7","null","null","<p style=""font-size: 60px; font-family: BACS"">lrZGbadk</p>","","","","","","","","",""
"html-keyboard-response","274","373748","0.0-14.0-0.23","613867f34e206e4f573bc6ef","650c16f0f2faf8d7a0d14c09","651c1d425a2ace1639b276c7","null","null","<p style=""font-size: 60px; font-family: BACS"">aOLZUmkc</p>","","","","","","","","",""
"html-keyboard-response","275","374749","0.0-14.0-0.24","613867f34e206e4f573bc6ef","650c16f0f2faf8d7a0d14c09","651c1d425a2ace1639b276c7","null","null","<p style=""font-size: 60px; font-family: BACS"">cdKBYkhMD</p>","","","","","","","","",""
"html-keyboard-response","276","375750","0.0-14.0-0.25","613867f34e206e4f573bc6ef","650c16f0f2faf8d7a0d14c09","651c1d425a2ace1639b276c7","null","null","<p style=""font-size: 60px; font-family: BACS"">RkmdCDlDT</p>","","","","","","","","",""
"html-keyboard-response","277","376751","0.0-14.0-0.26","613867f34e206e4f573bc6ef","650c16f0f2faf8d7a0d14c09","651c1d425a2ace1639b276c7","null","null","<p style=""font-size: 60px; font-family: BACS"">kCRmMCkm</p>","","","","","","","","",""
"html-keyboard-response","278","377752","0.0-14.0-0.27","613867f34e206e4f573bc6ef","650c16f0f2faf8d7a0d14c09","651c1d425a2ace1639b276c7","null","null","<p style=""font-size: 60px; font-family: BACS"">Yadrkbu</p>","","","","","","","","",""
"html-keyboard-response","279","378753","0.0-14.0-0.28","613867f34e206e4f573bc6ef","650c16f0f2faf8d7a0d14c09","651c1d425a2ace1639b276c7","null","null","<p style=""font-size: 60px; font-family: BACS"">vblrbadk</p>","","","","","","","","",""
"html-keyboard-response","280","379759","0.0-14.0-0.29","613867f34e206e4f573bc6ef","650c16f0f2faf8d7a0d14c09","651c1d425a2ace1639b276c7","null","null","<p style=""font-size: 60px; font-family: BACS"">OQarQLkNc</p>","","","","","","","","",""
"html-keyboard-response","281","380760","0.0-14.0-0.30","613867f34e206e4f573bc6ef","650c16f0f2faf8d7a0d14c09","651c1d425a2ace1639b276c7","null","null","<p style=""font-size: 60px; font-family: BACS"">PYkCAPT</p>","","","","","","","","",""
"html-keyboard-response","282","381773","0.0-14.0-0.31","613867f34e206e4f573bc6ef","650c16f0f2faf8d7a0d14c09","651c1d425a2ace1639b276c7","null","null","<p style=""font-size: 60px; font-family: BACS"">aOLZULkNc</p>","","","","","","","","",""
"html-keyboard-response","283","382777","0.0-14.0-0.32","613867f34e206e4f573bc6ef","650c16f0f2faf8d7a0d14c09","651c1d425a2ace1639b276c7","null","null","<p style=""font-size: 60px; font-family: BACS"">Yadrmkc</p>","","","","","","","","",""
"html-keyboard-response","284","383779","0.0-14.0-0.33","613867f34e206e4f573bc6ef","650c16f0f2faf8d7a0d14c09","651c1d425a2ace1639b276c7","null","null","<p style=""font-size: 60px; font-family: BACS"">KElBAPT</p>","","","","","","","","",""
"html-keyboard-response","285","384782","0.0-14.0-0.34","613867f34e206e4f573bc6ef","650c16f0f2faf8d7a0d14c09","651c1d425a2ace1639b276c7","null","null","<p style=""font-size: 60px; font-family: BACS"">LuNZkbu</p>","","","","","","","","",""
"html-keyboard-response","286","385790","0.0-14.0-0.35","613867f34e206e4f573bc6ef","650c16f0f2faf8d7a0d14c09","651c1d425a2ace1639b276c7","null","null","<p style=""font-size: 60px; font-family: BACS"">hlbtbAPT</p>","","","","","","","","",""
"html-keyboard-response","287","386791","0.0-14.0-0.36","613867f34e206e4f573bc6ef","650c16f0f2faf8d7a0d14c09","651c1d425a2ace1639b276c7","null","null","<p style=""font-size: 60px; font-family: BACS"">JAaGLkNc</p>","","","","","","","","",""
"html-keyboard-response","288","387793","0.0-14.0-0.37","613867f34e206e4f573bc6ef","650c16f0f2faf8d7a0d14c09","651c1d425a2ace1639b276c7","null","null","<p style=""font-size: 60px; font-family: BACS"">PYkCdCKc</p>","","","","","","","","",""
"html-keyboard-response","289","388798","0.0-14.0-0.38","613867f34e206e4f573bc6ef","650c16f0f2faf8d7a0d14c09","651c1d425a2ace1639b276c7","null","null","<p style=""font-size: 60px; font-family: BACS"">krUQbadk</p>","","","","","","","","",""
"html-keyboard-response","290","389801","0.0-14.0-0.39","613867f34e206e4f573bc6ef","650c16f0f2faf8d7a0d14c09","651c1d425a2ace1639b276c7","null","null","<p style=""font-size: 60px; font-family: BACS"">KBKBEMCkm</p>","","","","","","","","",""
"html-keyboard-response","291","390812","0.0-14.0-0.40","613867f34e206e4f573bc6ef","650c16f0f2faf8d7a0d14c09","651c1d425a2ace1639b276c7","null","null","<p style=""font-size: 60px; font-family: BACS"">lbBDEkhMD</p>","","","","","","","","",""
"html-keyboard-response","292","391825","0.0-14.0-0.41","613867f34e206e4f573bc6ef","650c16f0f2faf8d7a0d14c09","651c1d425a2ace1639b276c7","null","null","<p style=""font-size: 60px; font-family: BACS"">KBKBEAPT</p>","","","","","","","","",""
"html-keyboard-response","293","392830","0.0-14.0-0.42","613867f34e206e4f573bc6ef","650c16f0f2faf8d7a0d14c09","651c1d425a2ace1639b276c7","null","null","<p style=""font-size: 60px; font-family: BACS"">KRARmdCKc</p>","","","","","","","","",""
"html-keyboard-response","294","393846","0.0-14.0-0.43","613867f34e206e4f573bc6ef","650c16f0f2faf8d7a0d14c09","651c1d425a2ace1639b276c7","null","null","<p style=""font-size: 60px; font-family: BACS"">krUQbLd</p>","","","","","","","","",""
"html-keyboard-response","295","394855","0.0-14.0-0.44","613867f34e206e4f573bc6ef","650c16f0f2faf8d7a0d14c09","651c1d425a2ace1639b276c7","null","null","<p style=""font-size: 60px; font-family: BACS"">cdKBYDlDT</p>","","","","","","","","",""
"html-keyboard-response","296","395859","0.0-14.0-0.45","613867f34e206e4f573bc6ef","650c16f0f2faf8d7a0d14c09","651c1d425a2ace1639b276c7","null","null","<p style=""font-size: 60px; font-family: BACS"">lrZGbLd</p>","","","","","","","","",""
"html-keyboard-response","297","396870","0.0-14.0-0.46","613867f34e206e4f573bc6ef","650c16f0f2faf8d7a0d14c09","651c1d425a2ace1639b276c7","null","null","<p style=""font-size: 60px; font-family: BACS"">aOLZUkbu</p>","","","","","","","","",""
"html-keyboard-response","298","397881","0.0-14.0-0.47","613867f34e206e4f573bc6ef","650c16f0f2faf8d7a0d14c09","651c1d425a2ace1639b276c7","null","null","<p style=""font-size: 60px; font-family: BACS"">OQarQmkc</p>","","","","","","","","",""
"html-keyboard-response","299","398893","0.0-14.0-0.48","613867f34e206e4f573bc6ef","650c16f0f2faf8d7a0d14c09","651c1d425a2ace1639b276c7","null","null","<p style=""font-size: 60px; font-family: BACS"">TEBKMCkm</p>","","","","","","","","",""
"html-keyboard-response","300","399901","0.0-14.0-0.49","613867f34e206e4f573bc6ef","650c16f0f2faf8d7a0d14c09","651c1d425a2ace1639b276c7","null","null","<p style=""font-size: 60px; font-family: BACS"">lbBDEdCKc</p>","","","","","","","","",""
"html-keyboard-response","301","400911","0.0-14.0-0.50","613867f34e206e4f573bc6ef","650c16f0f2faf8d7a0d14c09","651c1d425a2ace1639b276c7","null","null","<p style=""font-size: 60px; font-family: BACS"">JAaGbLd</p>","","","","","","","","",""
"html-keyboard-response","302","401924","0.0-14.0-0.51","613867f34e206e4f573bc6ef","650c16f0f2faf8d7a0d14c09","651c1d425a2ace1639b276c7","null","null","<p style=""font-size: 60px; font-family: BACS"">vAuNlkbu</p>","","","","","","","","",""
"html-keyboard-response","303","402934","0.0-14.0-0.52","613867f34e206e4f573bc6ef","650c16f0f2faf8d7a0d14c09","651c1d425a2ace1639b276c7","null","null","<p style=""font-size: 60px; font-family: BACS"">lbBDEMCkm</p>","","","","","","","","",""
"html-keyboard-response","304","403939","0.0-14.0-0.53","613867f34e206e4f573bc6ef","650c16f0f2faf8d7a0d14c09","651c1d425a2ace1639b276c7","null","null","<p style=""font-size: 60px; font-family: BACS"">vAuNlLkNc</p>","","","","","","","","",""
"html-keyboard-response","305","404951","0.0-14.0-0.54","613867f34e206e4f573bc6ef","650c16f0f2faf8d7a0d14c09","651c1d425a2ace1639b276c7","null","null","<p style=""font-size: 60px; font-family: BACS"">vblrkbu</p>","","","","","","","","",""
"html-keyboard-response","306","405952","0.0-14.0-0.55","613867f34e206e4f573bc6ef","650c16f0f2faf8d7a0d14c09","651c1d425a2ace1639b276c7","null","null","<p style=""font-size: 60px; font-family: BACS"">Yadrbadk</p>","","","","","","","","",""
"html-keyboard-response","307","406957","0.0-14.0-0.56","613867f34e206e4f573bc6ef","650c16f0f2faf8d7a0d14c09","651c1d425a2ace1639b276c7","null","null","<p style=""font-size: 60px; font-family: BACS"">vclYmkc</p>","","","","","","","","",""
"html-keyboard-response","308","407960","0.0-14.0-0.57","613867f34e206e4f573bc6ef","650c16f0f2faf8d7a0d14c09","651c1d425a2ace1639b276c7","null","null","<p style=""font-size: 60px; font-family: BACS"">YadrbLd</p>","","","","","","","","",""
"html-keyboard-response","309","408975","0.0-14.0-0.58","613867f34e206e4f573bc6ef","650c16f0f2faf8d7a0d14c09","651c1d425a2ace1639b276c7","null","null","<p style=""font-size: 60px; font-family: BACS"">RkmdCdCKc</p>","","","","","","","","",""
"html-keyboard-response","310","409980","0.0-14.0-0.59","613867f34e206e4f573bc6ef","650c16f0f2faf8d7a0d14c09","651c1d425a2ace1639b276c7","null","null","<p style=""font-size: 60px; font-family: BACS"">PYkCkhMD</p>","","","","","","","","",""
"html-keyboard-response","311","410991","0.0-14.0-0.60","613867f34e206e4f573bc6ef","650c16f0f2faf8d7a0d14c09","651c1d425a2ace1639b276c7","null","null","<p style=""font-size: 60px; font-family: BACS"">KRARmMCkm</p>","","","","","","","","",""
"html-keyboard-response","312","412002","0.0-14.0-0.61","613867f34e206e4f573bc6ef","650c16f0f2faf8d7a0d14c09","651c1d425a2ace1639b276c7","null","null","<p style=""font-size: 60px; font-family: BACS"">kCRmDlDT</p>","","","","","","","","",""
"html-keyboard-response","313","413005","0.0-14.0-0.62","613867f34e206e4f573bc6ef","650c16f0f2faf8d7a0d14c09","651c1d425a2ace1639b276c7","null","null","<p style=""font-size: 60px; font-family: BACS"">lbBDEAPT</p>","","","","","","","","",""
"html-keyboard-response","314","414021","0.0-14.0-0.63","613867f34e206e4f573bc6ef","650c16f0f2faf8d7a0d14c09","651c1d425a2ace1639b276c7","null","null","<p style=""font-size: 60px; font-family: BACS"">LuNZLkNc</p>","","","","","","","","",""
"html-keyboard-response","315","415029","0.0-14.0-0.64","613867f34e206e4f573bc6ef","650c16f0f2faf8d7a0d14c09","651c1d425a2ace1639b276c7","null","null","<p style=""font-size: 60px; font-family: BACS"">JAaGmkc</p>","","","","","","","","",""
"html-keyboard-response","316","416040","0.0-14.0-0.65","613867f34e206e4f573bc6ef","650c16f0f2faf8d7a0d14c09","651c1d425a2ace1639b276c7","null","null","<p style=""font-size: 60px; font-family: BACS"">hlbtbMCkm</p>","","","","","","","","",""
"html-keyboard-response","317","417049","0.0-14.0-0.66","613867f34e206e4f573bc6ef","650c16f0f2faf8d7a0d14c09","651c1d425a2ace1639b276c7","null","null","<p style=""font-size: 60px; font-family: BACS"">vclYbadk</p>","","","","","","","","",""
"html-keyboard-response","318","418060","0.0-14.0-0.67","613867f34e206e4f573bc6ef","650c16f0f2faf8d7a0d14c09","651c1d425a2ace1639b276c7","null","null","<p style=""font-size: 60px; font-family: BACS"">hlbtbDlDT</p>","","","","","","","","",""
"html-keyboard-response","319","419066","0.0-14.0-0.68","613867f34e206e4f573bc6ef","650c16f0f2faf8d7a0d14c09","651c1d425a2ace1639b276c7","null","null","<p style=""font-size: 60px; font-family: BACS"">cdKBYdCKc</p>","","","","","","","","",""
"html-keyboard-response","320","420070","0.0-14.0-0.69","613867f34e206e4f573bc6ef","650c16f0f2faf8d7a0d14c09","651c1d425a2ace1639b276c7","null","null","<p style=""font-size: 60px; font-family: BACS"">RkmdCMCkm</p>","","","","","","","","",""
"html-keyboard-response","321","421076","0.0-14.0-0.70","613867f34e206e4f573bc6ef","650c16f0f2faf8d7a0d14c09","651c1d425a2ace1639b276c7","null","null","<p style=""font-size: 60px; font-family: BACS"">kCRmAPT</p>","","","","","","","","",""
"html-keyboard-response","322","422090","0.0-14.0-0.71","613867f34e206e4f573bc6ef","650c16f0f2faf8d7a0d14c09","651c1d425a2ace1639b276c7","null","null","<p style=""font-size: 60px; font-family: BACS"">OQarQbadk</p>","","","","","","","","",""
"html-keyboard-response","323","423104","0.0-14.0-0.72","613867f34e206e4f573bc6ef","650c16f0f2faf8d7a0d14c09","651c1d425a2ace1639b276c7","null","null","<p style=""font-size: 60px; font-family: BACS"">vclYbLd</p>","","","","","","","","",""
"html-keyboard-response","324","424120","0.0-14.0-0.73","613867f34e206e4f573bc6ef","650c16f0f2faf8d7a0d14c09","651c1d425a2ace1639b276c7","null","null","<p style=""font-size: 60px; font-family: BACS"">OQarQkbu</p>","","","","","","","","",""
"html-keyboard-response","325","425129","0.0-14.0-0.74","613867f34e206e4f573bc6ef","650c16f0f2faf8d7a0d14c09","651c1d425a2ace1639b276c7","null","null","<p style=""font-size: 60px; font-family: BACS"">krUQmkc</p>","","","","","","","","",""
"html-keyboard-response","326","426145","0.0-14.0-0.75","613867f34e206e4f573bc6ef","650c16f0f2faf8d7a0d14c09","651c1d425a2ace1639b276c7","null","null","<p style=""font-size: 60px; font-family: BACS"">KRARmkhMD</p>","","","","","","","","",""
"html-keyboard-response","327","427156","0.0-14.0-0.76","613867f34e206e4f573bc6ef","650c16f0f2faf8d7a0d14c09","651c1d425a2ace1639b276c7","null","null","<p style=""font-size: 60px; font-family: BACS"">KElBdCKc</p>","","","","","","","","",""
"html-keyboard-response","328","428172","0.0-14.0-0.77","613867f34e206e4f573bc6ef","650c16f0f2faf8d7a0d14c09","651c1d425a2ace1639b276c7","null","null","<p style=""font-size: 60px; font-family: BACS"">vblrmkc</p>","","","","","","","","",""
"html-keyboard-response","329","429176","0.0-14.0-0.78","613867f34e206e4f573bc6ef","650c16f0f2faf8d7a0d14c09","651c1d425a2ace1639b276c7","null","null","<p style=""font-size: 60px; font-family: BACS"">JAaGbadk</p>","","","","","","","","",""
"html-keyboard-response","330","430184","0.0-14.0-0.79","613867f34e206e4f573bc6ef","650c16f0f2faf8d7a0d14c09","651c1d425a2ace1639b276c7","null","null","<p style=""font-size: 60px; font-family: BACS"">vAuNlbLd</p>","","","","","","","","",""
"html-keyboard-response","331","432286","0.0-15.0","613867f34e206e4f573bc6ef","650c16f0f2faf8d7a0d14c09","651c1d425a2ace1639b276c7","2102"," ","<p>Great, you've seen the fourth block of words. You may now take a short break.</p>
      <p>Press the spacebar when you're ready to continue.</p>","","","","","","","","",""
"html-keyboard-response","332","433287","0.0-16.0-0.0","613867f34e206e4f573bc6ef","650c16f0f2faf8d7a0d14c09","651c1d425a2ace1639b276c7","null","null","<p style=""font-size: 60px; font-family: BACS"">OQarQmkc</p>","","","","","","","","",""
"html-keyboard-response","333","434302","0.0-16.0-0.1","613867f34e206e4f573bc6ef","650c16f0f2faf8d7a0d14c09","651c1d425a2ace1639b276c7","null","null","<p style=""font-size: 60px; font-family: BACS"">OQarQmkc</p>","","","","","","","","",""
"html-keyboard-response","334","435309","0.0-16.0-0.2","613867f34e206e4f573bc6ef","650c16f0f2faf8d7a0d14c09","651c1d425a2ace1639b276c7","null","null","<p style=""font-size: 60px; font-family: BACS"">OQarQmkc</p>","","","","","","","","",""
"html-keyboard-response","335","436319","0.0-16.0-0.3","613867f34e206e4f573bc6ef","650c16f0f2faf8d7a0d14c09","651c1d425a2ace1639b276c7","null","null","<p style=""font-size: 60px; font-family: BACS"">OQarQmkc</p>","","","","","","","","",""
"html-keyboard-response","336","437334","0.0-16.0-0.4","613867f34e206e4f573bc6ef","650c16f0f2faf8d7a0d14c09","651c1d425a2ace1639b276c7","null","null","<p style=""font-size: 60px; font-family: BACS"">OQarQmkc</p>","","","","","","","","",""
"html-keyboard-response","337","438345","0.0-16.0-0.5","613867f34e206e4f573bc6ef","650c16f0f2faf8d7a0d14c09","651c1d425a2ace1639b276c7","null","null","<p style=""font-size: 60px; font-family: BACS"">OQarQmkc</p>","","","","","","","","",""
"html-keyboard-response","338","439347","0.0-16.0-0.6","613867f34e206e4f573bc6ef","650c16f0f2faf8d7a0d14c09","651c1d425a2ace1639b276c7","null","null","<p style=""font-size: 60px; font-family: BACS"">OQarQmkc</p>","","","","","","","","",""
"html-keyboard-response","339","440348","0.0-16.0-0.7","613867f34e206e4f573bc6ef","650c16f0f2faf8d7a0d14c09","651c1d425a2ace1639b276c7","null","null","<p style=""font-size: 60px; font-family: BACS"">OQarQmkc</p>","","","","","","","","",""
"html-keyboard-response","340","441350","0.0-16.0-0.8","613867f34e206e4f573bc6ef","650c16f0f2faf8d7a0d14c09","651c1d425a2ace1639b276c7","null","null","<p style=""font-size: 60px; font-family: BACS"">OQarQmkc</p>","","","","","","","","",""
"html-keyboard-response","341","442353","0.0-16.0-0.9","613867f34e206e4f573bc6ef","650c16f0f2faf8d7a0d14c09","651c1d425a2ace1639b276c7","null","null","<p style=""font-size: 60px; font-family: BACS"">OQarQmkc</p>","","","","","","","","",""
"html-keyboard-response","342","443369","0.0-16.0-0.10","613867f34e206e4f573bc6ef","650c16f0f2faf8d7a0d14c09","651c1d425a2ace1639b276c7","null","null","<p style=""font-size: 60px; font-family: BACS"">OQarQmkc</p>","","","","","","","","",""
"html-keyboard-response","343","444370","0.0-16.0-0.11","613867f34e206e4f573bc6ef","650c16f0f2faf8d7a0d14c09","651c1d425a2ace1639b276c7","null","null","<p style=""font-size: 60px; font-family: BACS"">OQarQmkc</p>","","","","","","","","",""
"html-keyboard-response","344","445371","0.0-16.0-0.12","613867f34e206e4f573bc6ef","650c16f0f2faf8d7a0d14c09","651c1d425a2ace1639b276c7","null","null","<p style=""font-size: 60px; font-family: BACS"">OQarQmkc</p>","","","","","","","","",""
"html-keyboard-response","345","446387","0.0-16.0-0.13","613867f34e206e4f573bc6ef","650c16f0f2faf8d7a0d14c09","651c1d425a2ace1639b276c7","null","null","<p style=""font-size: 60px; font-family: BACS"">OQarQmkc</p>","","","","","","","","",""
"html-keyboard-response","346","447395","0.0-16.0-0.14","613867f34e206e4f573bc6ef","650c16f0f2faf8d7a0d14c09","651c1d425a2ace1639b276c7","null","null","<p style=""font-size: 60px; font-family: BACS"">OQarQmkc</p>","","","","","","","","",""
"html-keyboard-response","347","448396","0.0-16.0-0.15","613867f34e206e4f573bc6ef","650c16f0f2faf8d7a0d14c09","651c1d425a2ace1639b276c7","null","null","<p style=""font-size: 60px; font-family: BACS"">OQarQmkc</p>","","","","","","","","",""
"html-keyboard-response","348","449398","0.0-16.0-0.16","613867f34e206e4f573bc6ef","650c16f0f2faf8d7a0d14c09","651c1d425a2ace1639b276c7","null","null","<p style=""font-size: 60px; font-family: BACS"">OQarQmkc</p>","","","","","","","","",""
"html-keyboard-response","349","450400","0.0-16.0-0.17","613867f34e206e4f573bc6ef","650c16f0f2faf8d7a0d14c09","651c1d425a2ace1639b276c7","null","null","<p style=""font-size: 60px; font-family: BACS"">OQarQmkc</p>","","","","","","","","",""
"html-keyboard-response","350","451408","0.0-16.0-0.18","613867f34e206e4f573bc6ef","650c16f0f2faf8d7a0d14c09","651c1d425a2ace1639b276c7","null","null","<p style=""font-size: 60px; font-family: BACS"">OQarQmkc</p>","","","","","","","","",""
"html-keyboard-response","351","452409","0.0-16.0-0.19","613867f34e206e4f573bc6ef","650c16f0f2faf8d7a0d14c09","651c1d425a2ace1639b276c7","null","null","<p style=""font-size: 60px; font-family: BACS"">OQarQmkc</p>","","","","","","","","",""
"html-keyboard-response","352","453410","0.0-16.0-0.20","613867f34e206e4f573bc6ef","650c16f0f2faf8d7a0d14c09","651c1d425a2ace1639b276c7","null","null","<p style=""font-size: 60px; font-family: BACS"">OQarQmkc</p>","","","","","","","","",""
"html-keyboard-response","353","454423","0.0-16.0-0.21","613867f34e206e4f573bc6ef","650c16f0f2faf8d7a0d14c09","651c1d425a2ace1639b276c7","null","null","<p style=""font-size: 60px; font-family: BACS"">OQarQmkc</p>","","","","","","","","",""
"html-keyboard-response","354","455436","0.0-16.0-0.22","613867f34e206e4f573bc6ef","650c16f0f2faf8d7a0d14c09","651c1d425a2ace1639b276c7","null","null","<p style=""font-size: 60px; font-family: BACS"">OQarQmkc</p>","","","","","","","","",""
"html-keyboard-response","355","456439","0.0-16.0-0.23","613867f34e206e4f573bc6ef","650c16f0f2faf8d7a0d14c09","651c1d425a2ace1639b276c7","null","null","<p style=""font-size: 60px; font-family: BACS"">OQarQmkc</p>","","","","","","","","",""
"html-keyboard-response","356","457443","0.0-16.0-0.24","613867f34e206e4f573bc6ef","650c16f0f2faf8d7a0d14c09","651c1d425a2ace1639b276c7","null","null","<p style=""font-size: 60px; font-family: BACS"">OQarQmkc</p>","","","","","","","","",""
"html-keyboard-response","357","458447","0.0-16.0-0.25","613867f34e206e4f573bc6ef","650c16f0f2faf8d7a0d14c09","651c1d425a2ace1639b276c7","null","null","<p style=""font-size: 60px; font-family: BACS"">OQarQmkc</p>","","","","","","","","",""
"html-keyboard-response","358","459461","0.0-16.0-0.26","613867f34e206e4f573bc6ef","650c16f0f2faf8d7a0d14c09","651c1d425a2ace1639b276c7","null","null","<p style=""font-size: 60px; font-family: BACS"">OQarQmkc</p>","","","","","","","","",""
"html-keyboard-response","359","460462","0.0-16.0-0.27","613867f34e206e4f573bc6ef","650c16f0f2faf8d7a0d14c09","651c1d425a2ace1639b276c7","null","null","<p style=""font-size: 60px; font-family: BACS"">OQarQmkc</p>","","","","","","","","",""
"html-keyboard-response","360","461469","0.0-16.0-0.28","613867f34e206e4f573bc6ef","650c16f0f2faf8d7a0d14c09","651c1d425a2ace1639b276c7","null","null","<p style=""font-size: 60px; font-family: BACS"">OQarQmkc</p>","","","","","","","","",""
"html-keyboard-response","361","462485","0.0-16.0-0.29","613867f34e206e4f573bc6ef","650c16f0f2faf8d7a0d14c09","651c1d425a2ace1639b276c7","null","null","<p style=""font-size: 60px; font-family: BACS"">OQarQmkc</p>","","","","","","","","",""
"html-keyboard-response","362","463493","0.0-16.0-0.30","613867f34e206e4f573bc6ef","650c16f0f2faf8d7a0d14c09","651c1d425a2ace1639b276c7","null","null","<p style=""font-size: 60px; font-family: BACS"">OQarQmkc</p>","","","","","","","","",""
"html-keyboard-response","363","464495","0.0-16.0-0.31","613867f34e206e4f573bc6ef","650c16f0f2faf8d7a0d14c09","651c1d425a2ace1639b276c7","null","null","<p style=""font-size: 60px; font-family: BACS"">OQarQmkc</p>","","","","","","","","",""
"html-keyboard-response","364","465498","0.0-16.0-0.32","613867f34e206e4f573bc6ef","650c16f0f2faf8d7a0d14c09","651c1d425a2ace1639b276c7","null","null","<p style=""font-size: 60px; font-family: BACS"">OQarQmkc</p>","","","","","","","","",""
"html-keyboard-response","365","466500","0.0-16.0-0.33","613867f34e206e4f573bc6ef","650c16f0f2faf8d7a0d14c09","651c1d425a2ace1639b276c7","null","null","<p style=""font-size: 60px; font-family: BACS"">OQarQmkc</p>","","","","","","","","",""
"html-keyboard-response","366","467514","0.0-16.0-0.34","613867f34e206e4f573bc6ef","650c16f0f2faf8d7a0d14c09","651c1d425a2ace1639b276c7","null","null","<p style=""font-size: 60px; font-family: BACS"">OQarQmkc</p>","","","","","","","","",""
"html-keyboard-response","367","468515","0.0-16.0-0.35","613867f34e206e4f573bc6ef","650c16f0f2faf8d7a0d14c09","651c1d425a2ace1639b276c7","null","null","<p style=""font-size: 60px; font-family: BACS"">OQarQmkc</p>","","","","","","","","",""
"html-keyboard-response","368","469517","0.0-16.0-0.36","613867f34e206e4f573bc6ef","650c16f0f2faf8d7a0d14c09","651c1d425a2ace1639b276c7","null","null","<p style=""font-size: 60px; font-family: BACS"">OQarQmkc</p>","","","","","","","","",""
"html-keyboard-response","369","470532","0.0-16.0-0.37","613867f34e206e4f573bc6ef","650c16f0f2faf8d7a0d14c09","651c1d425a2ace1639b276c7","null","null","<p style=""font-size: 60px; font-family: BACS"">OQarQmkc</p>","","","","","","","","",""
"html-keyboard-response","370","471548","0.0-16.0-0.38","613867f34e206e4f573bc6ef","650c16f0f2faf8d7a0d14c09","651c1d425a2ace1639b276c7","null","null","<p style=""font-size: 60px; font-family: BACS"">OQarQmkc</p>","","","","","","","","",""
"html-keyboard-response","371","472549","0.0-16.0-0.39","613867f34e206e4f573bc6ef","650c16f0f2faf8d7a0d14c09","651c1d425a2ace1639b276c7","null","null","<p style=""font-size: 60px; font-family: BACS"">OQarQmkc</p>","","","","","","","","",""
"html-keyboard-response","372","473551","0.0-16.0-0.40","613867f34e206e4f573bc6ef","650c16f0f2faf8d7a0d14c09","651c1d425a2ace1639b276c7","null","null","<p style=""font-size: 60px; font-family: BACS"">OQarQmkc</p>","","","","","","","","",""
"html-keyboard-response","373","474554","0.0-16.0-0.41","613867f34e206e4f573bc6ef","650c16f0f2faf8d7a0d14c09","651c1d425a2ace1639b276c7","null","null","<p style=""font-size: 60px; font-family: BACS"">OQarQmkc</p>","","","","","","","","",""
"html-keyboard-response","374","475556","0.0-16.0-0.42","613867f34e206e4f573bc6ef","650c16f0f2faf8d7a0d14c09","651c1d425a2ace1639b276c7","null","null","<p style=""font-size: 60px; font-family: BACS"">OQarQmkc</p>","","","","","","","","",""
"html-keyboard-response","375","476557","0.0-16.0-0.43","613867f34e206e4f573bc6ef","650c16f0f2faf8d7a0d14c09","651c1d425a2ace1639b276c7","null","null","<p style=""font-size: 60px; font-family: BACS"">OQarQmkc</p>","","","","","","","","",""
"html-keyboard-response","376","477569","0.0-16.0-0.44","613867f34e206e4f573bc6ef","650c16f0f2faf8d7a0d14c09","651c1d425a2ace1639b276c7","null","null","<p style=""font-size: 60px; font-family: BACS"">OQarQmkc</p>","","","","","","","","",""
"html-keyboard-response","377","478571","0.0-16.0-0.45","613867f34e206e4f573bc6ef","650c16f0f2faf8d7a0d14c09","651c1d425a2ace1639b276c7","null","null","<p style=""font-size: 60px; font-family: BACS"">OQarQmkc</p>","","","","","","","","",""
"html-keyboard-response","378","479575","0.0-16.0-0.46","613867f34e206e4f573bc6ef","650c16f0f2faf8d7a0d14c09","651c1d425a2ace1639b276c7","null","null","<p style=""font-size: 60px; font-family: BACS"">OQarQmkc</p>","","","","","","","","",""
"html-keyboard-response","379","480578","0.0-16.0-0.47","613867f34e206e4f573bc6ef","650c16f0f2faf8d7a0d14c09","651c1d425a2ace1639b276c7","null","null","<p style=""font-size: 60px; font-family: BACS"">OQarQmkc</p>","","","","","","","","",""
"html-keyboard-response","380","481579","0.0-16.0-0.48","613867f34e206e4f573bc6ef","650c16f0f2faf8d7a0d14c09","651c1d425a2ace1639b276c7","null","null","<p style=""font-size: 60px; font-family: BACS"">OQarQmkc</p>","","","","","","","","",""
"html-keyboard-response","381","482595","0.0-16.0-0.49","613867f34e206e4f573bc6ef","650c16f0f2faf8d7a0d14c09","651c1d425a2ace1639b276c7","null","null","<p style=""font-size: 60px; font-family: BACS"">OQarQmkc</p>","","","","","","","","",""
"html-keyboard-response","382","483599","0.0-16.0-0.50","613867f34e206e4f573bc6ef","650c16f0f2faf8d7a0d14c09","651c1d425a2ace1639b276c7","null","null","<p style=""font-size: 60px; font-family: BACS"">OQarQmkc</p>","","","","","","","","",""
"html-keyboard-response","383","484603","0.0-16.0-0.51","613867f34e206e4f573bc6ef","650c16f0f2faf8d7a0d14c09","651c1d425a2ace1639b276c7","null","null","<p style=""font-size: 60px; font-family: BACS"">OQarQmkc</p>","","","","","","","","",""
"html-keyboard-response","384","485605","0.0-16.0-0.52","613867f34e206e4f573bc6ef","650c16f0f2faf8d7a0d14c09","651c1d425a2ace1639b276c7","null","null","<p style=""font-size: 60px; font-family: BACS"">OQarQmkc</p>","","","","","","","","",""
"html-keyboard-response","385","486610","0.0-16.0-0.53","613867f34e206e4f573bc6ef","650c16f0f2faf8d7a0d14c09","651c1d425a2ace1639b276c7","null","null","<p style=""font-size: 60px; font-family: BACS"">OQarQmkc</p>","","","","","","","","",""
"html-keyboard-response","386","487611","0.0-16.0-0.54","613867f34e206e4f573bc6ef","650c16f0f2faf8d7a0d14c09","651c1d425a2ace1639b276c7","null","null","<p style=""font-size: 60px; font-family: BACS"">OQarQmkc</p>","","","","","","","","",""
"html-keyboard-response","387","488614","0.0-16.0-0.55","613867f34e206e4f573bc6ef","650c16f0f2faf8d7a0d14c09","651c1d425a2ace1639b276c7","null","null","<p style=""font-size: 60px; font-family: BACS"">OQarQmkc</p>","","","","","","","","",""
"html-keyboard-response","388","489631","0.0-16.0-0.56","613867f34e206e4f573bc6ef","650c16f0f2faf8d7a0d14c09","651c1d425a2ace1639b276c7","null","null","<p style=""font-size: 60px; font-family: BACS"">OQarQmkc</p>","","","","","","","","",""
"html-keyboard-response","389","490632","0.0-16.0-0.57","613867f34e206e4f573bc6ef","650c16f0f2faf8d7a0d14c09","651c1d425a2ace1639b276c7","null","null","<p style=""font-size: 60px; font-family: BACS"">OQarQmkc</p>","","","","","","","","",""
"html-keyboard-response","390","491634","0.0-16.0-0.58","613867f34e206e4f573bc6ef","650c16f0f2faf8d7a0d14c09","651c1d425a2ace1639b276c7","null","null","<p style=""font-size: 60px; font-family: BACS"">OQarQmkc</p>","","","","","","","","",""
"html-keyboard-response","391","492645","0.0-16.0-0.59","613867f34e206e4f573bc6ef","650c16f0f2faf8d7a0d14c09","651c1d425a2ace1639b276c7","null","null","<p style=""font-size: 60px; font-family: BACS"">OQarQmkc</p>","","","","","","","","",""
"html-keyboard-response","392","493660","0.0-16.0-0.60","613867f34e206e4f573bc6ef","650c16f0f2faf8d7a0d14c09","651c1d425a2ace1639b276c7","null","null","<p style=""font-size: 60px; font-family: BACS"">OQarQmkc</p>","","","","","","","","",""
"html-keyboard-response","393","494661","0.0-16.0-0.61","613867f34e206e4f573bc6ef","650c16f0f2faf8d7a0d14c09","651c1d425a2ace1639b276c7","null","null","<p style=""font-size: 60px; font-family: BACS"">OQarQmkc</p>","","","","","","","","",""
"html-keyboard-response","394","495670","0.0-16.0-0.62","613867f34e206e4f573bc6ef","650c16f0f2faf8d7a0d14c09","651c1d425a2ace1639b276c7","null","null","<p style=""font-size: 60px; font-family: BACS"">OQarQmkc</p>","","","","","","","","",""
"html-keyboard-response","395","496671","0.0-16.0-0.63","613867f34e206e4f573bc6ef","650c16f0f2faf8d7a0d14c09","651c1d425a2ace1639b276c7","null","null","<p style=""font-size: 60px; font-family: BACS"">OQarQmkc</p>","","","","","","","","",""
"html-keyboard-response","396","497672","0.0-16.0-0.64","613867f34e206e4f573bc6ef","650c16f0f2faf8d7a0d14c09","651c1d425a2ace1639b276c7","null","null","<p style=""font-size: 60px; font-family: BACS"">OQarQmkc</p>","","","","","","","","",""
"html-keyboard-response","397","498687","0.0-16.0-0.65","613867f34e206e4f573bc6ef","650c16f0f2faf8d7a0d14c09","651c1d425a2ace1639b276c7","null","null","<p style=""font-size: 60px; font-family: BACS"">OQarQmkc</p>","","","","","","","","",""
"html-keyboard-response","398","499687","0.0-16.0-0.66","613867f34e206e4f573bc6ef","650c16f0f2faf8d7a0d14c09","651c1d425a2ace1639b276c7","null","null","<p style=""font-size: 60px; font-family: BACS"">OQarQmkc</p>","","","","","","","","",""
