"trial_type","trial_index","time_elapsed","internal_node_id","subject_id","study_id","session_id","rt","response","stimulus","success","item","task","correct_response","correct","target","confound","name"
"pavlovia","0","3507","0.0-0.0","608abc6251feb3ddc3b2e01d","64b003020eef62ee308107cc","64b0348b7deedf564310bb85","","","","","","","","","","",""
"survey-html-form","1","8988","0.0-1.0","608abc6251feb3ddc3b2e01d","64b003020eef62ee308107cc","64b0348b7deedf564310bb85","5480","{""ID"":""608abc6251feb3ddc3b2e01d""}","","","","","","","","",""
"html-keyboard-response","2","137985","0.0-2.0","608abc6251feb3ddc3b2e01d","64b003020eef62ee308107cc","64b0348b7deedf564310bb85","128996"," ","<p style=""font-size: 15px;"">Prima di cominciare, le chiediamo di leggere il modulo di consenso informato e confermare la sua volontà di partecipare all'esperimento.</p>
      <p style=""font-size: 15px;""> La preghiamo di ricordare che questo è un progetto di ricerca e che la sua partecipazione è completamente volontaria. Lei si potra' ritirare in qualunque momento, senza necessariamente dover dare alcuna spiegazione. Lo studio al quale Le si chiede di partecipare ha lo scopo di esaminare come i lettori elaborano le parole scritte. La somministrazione delle prove è individuale. Lei sarà impegnato in una sessione di lavoro della durata media di 10 minuti, e un questionario di 10 minuti. L’ordine delle prove ed il loro svolgimento sono stabiliti in modo tale da evitare un eventuale affaticamento. Tutte le prove saranno precedute da un breve addestramento in modo tale che abbia la possibilità di familiarizzare con il compito. Sono previste alcune pause nel corso dello svolgimento dell’esperimento. Una ricompensa di £4 (£8 per ora) Le verrà consegnata al termine della sessione di testing. Nonostante il testing preveda delle prove cognitive, il presente esperimento non costituisce una prova clinica che permetta la diagnosi di eventuali patologie.</p>
      <p style=""font-size: 15px;"">Tutti i dati raccolti grazie alla partecipazione Sua e di altre persone volontarie saranno custoditi in server sicuri e protetti da password, e non sarà consentito ad alcuna persona non autorizzata di accedervi. Le Sue informazioni personali saranno conservate separatamente dai risultati della presente ricerca, cui saranno associati soltanto attraverso un ID arbitrario. Grazie a questo processo di anonimizzazione dei dati, a nessun ricercatore sarà possibile analizzare i risultati sapendo da quale specifico partecipante essi provengono. Inoltre, questa procedura renderà impossibile la Sua identificazione anche nel momento in cui i risultati della ricerca fossero pubblicati su riviste scientifiche, o presentati a congressi o in qualsiasi altro pubblico consesso. Più in generale, i dati raccolti saranno trattati in accordo con le leggi sulla privacy e in conformità al Decreto Legislativo 30 giugno 2003 n. 196 “Codice in materia di protezione dei dati personali” e al Regolamento Europeo 2016/679 (General Data Protection Regulation - GDPR). Il Responsabile della protezione dei dati (RPD) è l’Avv. Valentina Carollo che può essere contattato ai seguenti indirizzi email: <a href=""mailto:dpo@sissa.it"">dpo@sissa.it</a> oppure <a href=""mailto:rpd@sissa.it"">rpd@sissa.it</a> - PEC: <a href=""mailto:protocollo@pec.sissa.it"">protocollo@pec.sissa.it</a>.</p>
      <p style=""font-size: 15px;""> Prima di esprimere il suo consenso alla partecipazione, Le ricordiamo ancora che in caso Lei abbia bisogno di delucidazioni su qualunque aspetto della procedura sperimentale, il ricercatore è a Sua completa disposizione (<a href=""mailto:aliebelt@sissa.it"">aliebelt@sissa.it</a>, <a href=""mailto:davide.crepaldi@sissa.it"">davide.crepaldi@sissa.it</a>).</p>
      <p style=""font-size: 15px;"">Se vuole scaricare il modulo di consenso informato, clicca qui: <a href=""BASL_modulo_consenso.pdf"" download>modulo di consenso</a>.</p>
      <p style=""font-size: 15px;""> Le chiediamo di premere la barra per continuare al consenso.</p>","","","","","","","",""
"survey-html-form","3","144843","0.0-3.0","608abc6251feb3ddc3b2e01d","64b003020eef62ee308107cc","64b0348b7deedf564310bb85","6858","{""consent1"":""YES"",""consent2"":""YES"",""consent3"":""YES"",""consent4"":""YES"",""consent5"":""YES"",""consent6"":""YES""}","","","","","","","","",""
"fullscreen","4","148523","0.0-4.0","608abc6251feb3ddc3b2e01d","64b003020eef62ee308107cc","64b0348b7deedf564310bb85","","","","true","","","","","","",""
"html-keyboard-response","5","163517","0.0-5.0","608abc6251feb3ddc3b2e01d","64b003020eef62ee308107cc","64b0348b7deedf564310bb85","14993"," ","<p>Benvenuta/o, e grazie mille del tuo tempo!</p>
      <p>In questo esperimento sarai un esperto/un'esperta di linguaggio cui è stato chiesto di dare un'occhiata ad alcuni messaggi che la Terra ha ricevuto dallo spazio. Il tuo compito, in questa prima parte dell'esperimento, sarà di fare molta attenzione alle parole che ti verranno mostrate; più tardi, i leader del mondo ti chiederanno qualche informazione su quello che hai visto. Le parole si susseguiranno abbastanza velocemente; sembra che questi alieni abbiano una certa fretta :-) </p>
      <p>Per favore, chiama lo sperimentatore se ha qualche domanda.</p><p>Premi la barra per continuare.</p>","","","","","","","",""
"html-keyboard-response","6","163581","0.0-6.0","608abc6251feb3ddc3b2e01d","64b003020eef62ee308107cc","64b0348b7deedf564310bb85","64"," ","<p>Ecco un esempio delle parole che vedrai:</p>
      <img src='esempio.png' height='400px'>
      <p>Quando sei pronti per iniziare, premi la barra.</p></div>","","","","","","","",""
"html-keyboard-response","7","164585","0.0-7.0-0.0","608abc6251feb3ddc3b2e01d","64b003020eef62ee308107cc","64b0348b7deedf564310bb85","null","null","<p style=""font-size: 60px; font-family: BACS"">tKDmhdBC</p>","","","","","","","",""
"html-keyboard-response","8","165597","0.0-7.0-0.1","608abc6251feb3ddc3b2e01d","64b003020eef62ee308107cc","64b0348b7deedf564310bb85","null","null","<p style=""font-size: 60px; font-family: BACS"">JmNklLG</p>","","","","","","","",""
"html-keyboard-response","9","166610","0.0-7.0-0.2","608abc6251feb3ddc3b2e01d","64b003020eef62ee308107cc","64b0348b7deedf564310bb85","null","null","<p style=""font-size: 60px; font-family: BACS"">tKDmhCMdP</p>","","","","","","","",""
"html-keyboard-response","10","167616","0.0-7.0-0.3","608abc6251feb3ddc3b2e01d","64b003020eef62ee308107cc","64b0348b7deedf564310bb85","null","null","<p style=""font-size: 60px; font-family: BACS"">JauQYkZ</p>","","","","","","","",""
"html-keyboard-response","11","168629","0.0-7.0-0.4","608abc6251feb3ddc3b2e01d","64b003020eef62ee308107cc","64b0348b7deedf564310bb85","null","null","<p style=""font-size: 60px; font-family: BACS"">rbYbulvk</p>","","","","","","","",""
"html-keyboard-response","12","169636","0.0-7.0-0.5","608abc6251feb3ddc3b2e01d","64b003020eef62ee308107cc","64b0348b7deedf564310bb85","null","null","<p style=""font-size: 60px; font-family: BACS"">auYAkYkZ</p>","","","","","","","",""
"html-keyboard-response","13","170651","0.0-7.0-0.6","608abc6251feb3ddc3b2e01d","64b003020eef62ee308107cc","64b0348b7deedf564310bb85","null","null","<p style=""font-size: 60px; font-family: BACS"">EMbDPCMdP</p>","","","","","","","",""
"html-keyboard-response","14","171661","0.0-7.0-0.7","608abc6251feb3ddc3b2e01d","64b003020eef62ee308107cc","64b0348b7deedf564310bb85","null","null","<p style=""font-size: 60px; font-family: BACS"">OtlRbRC</p>","","","","","","","",""
"html-keyboard-response","15","172664","0.0-7.0-0.8","608abc6251feb3ddc3b2e01d","64b003020eef62ee308107cc","64b0348b7deedf564310bb85","null","null","<p style=""font-size: 60px; font-family: BACS"">KTDTBdBC</p>","","","","","","","",""
"html-keyboard-response","16","173675","0.0-7.0-0.9","608abc6251feb3ddc3b2e01d","64b003020eef62ee308107cc","64b0348b7deedf564310bb85","null","null","<p style=""font-size: 60px; font-family: BACS"">JmNklvk</p>","","","","","","","",""
"html-keyboard-response","17","174687","0.0-7.0-0.10","608abc6251feb3ddc3b2e01d","64b003020eef62ee308107cc","64b0348b7deedf564310bb85","null","null","<p style=""font-size: 60px; font-family: BACS"">JauQOQAr</p>","","","","","","","",""
"html-keyboard-response","18","175698","0.0-7.0-0.11","608abc6251feb3ddc3b2e01d","64b003020eef62ee308107cc","64b0348b7deedf564310bb85","null","null","<p style=""font-size: 60px; font-family: BACS"">chAhdBC</p>","","","","","","","",""
"html-keyboard-response","19","176712","0.0-7.0-0.12","608abc6251feb3ddc3b2e01d","64b003020eef62ee308107cc","64b0348b7deedf564310bb85","null","null","<p style=""font-size: 60px; font-family: BACS"">rbYbuOQAr</p>","","","","","","","",""
"html-keyboard-response","20","177723","0.0-7.0-0.13","608abc6251feb3ddc3b2e01d","64b003020eef62ee308107cc","64b0348b7deedf564310bb85","null","null","<p style=""font-size: 60px; font-family: BACS"">EMbDPbRC</p>","","","","","","","",""
"html-keyboard-response","21","178731","0.0-7.0-0.14","608abc6251feb3ddc3b2e01d","64b003020eef62ee308107cc","64b0348b7deedf564310bb85","null","null","<p style=""font-size: 60px; font-family: BACS"">auYAklLG</p>","","","","","","","",""
"html-keyboard-response","22","179740","0.0-7.0-0.15","608abc6251feb3ddc3b2e01d","64b003020eef62ee308107cc","64b0348b7deedf564310bb85","null","null","<p style=""font-size: 60px; font-family: BACS"">OtlRdBC</p>","","","","","","","",""
"html-keyboard-response","23","180749","0.0-7.0-0.16","608abc6251feb3ddc3b2e01d","64b003020eef62ee308107cc","64b0348b7deedf564310bb85","null","null","<p style=""font-size: 60px; font-family: BACS"">DOBhYEKBO</p>","","","","","","","",""
"html-keyboard-response","24","181761","0.0-7.0-0.17","608abc6251feb3ddc3b2e01d","64b003020eef62ee308107cc","64b0348b7deedf564310bb85","null","null","<p style=""font-size: 60px; font-family: BACS"">NaJblLG</p>","","","","","","","",""
"html-keyboard-response","25","182769","0.0-7.0-0.18","608abc6251feb3ddc3b2e01d","64b003020eef62ee308107cc","64b0348b7deedf564310bb85","null","null","<p style=""font-size: 60px; font-family: BACS"">UdlGQOQAr</p>","","","","","","","",""
"html-keyboard-response","26","183780","0.0-7.0-0.19","608abc6251feb3ddc3b2e01d","64b003020eef62ee308107cc","64b0348b7deedf564310bb85","null","null","<p style=""font-size: 60px; font-family: BACS"">DOBhYMCkm</p>","","","","","","","",""
"html-keyboard-response","27","184794","0.0-7.0-0.20","608abc6251feb3ddc3b2e01d","64b003020eef62ee308107cc","64b0348b7deedf564310bb85","null","null","<p style=""font-size: 60px; font-family: BACS"">JauQcUN</p>","","","","","","","",""
"html-keyboard-response","28","185798","0.0-7.0-0.21","608abc6251feb3ddc3b2e01d","64b003020eef62ee308107cc","64b0348b7deedf564310bb85","null","null","<p style=""font-size: 60px; font-family: BACS"">hCktdBC</p>","","","","","","","",""
"html-keyboard-response","29","186805","0.0-7.0-0.22","608abc6251feb3ddc3b2e01d","64b003020eef62ee308107cc","64b0348b7deedf564310bb85","null","null","<p style=""font-size: 60px; font-family: BACS"">KTDTBbRC</p>","","","","","","","",""
"html-keyboard-response","30","187815","0.0-7.0-0.23","608abc6251feb3ddc3b2e01d","64b003020eef62ee308107cc","64b0348b7deedf564310bb85","null","null","<p style=""font-size: 60px; font-family: BACS"">TdTDMCkm</p>","","","","","","","",""
"html-keyboard-response","31","188826","0.0-7.0-0.24","608abc6251feb3ddc3b2e01d","64b003020eef62ee308107cc","64b0348b7deedf564310bb85","null","null","<p style=""font-size: 60px; font-family: BACS"">NaJbOQAr</p>","","","","","","","",""
"html-keyboard-response","32","189835","0.0-7.0-0.25","608abc6251feb3ddc3b2e01d","64b003020eef62ee308107cc","64b0348b7deedf564310bb85","null","null","<p style=""font-size: 60px; font-family: BACS"">rcmuvcUN</p>","","","","","","","",""
"html-keyboard-response","33","190844","0.0-7.0-0.26","608abc6251feb3ddc3b2e01d","64b003020eef62ee308107cc","64b0348b7deedf564310bb85","null","null","<p style=""font-size: 60px; font-family: BACS"">TdTDEKBO</p>","","","","","","","",""
"html-keyboard-response","34","191845","0.0-7.0-0.27","608abc6251feb3ddc3b2e01d","64b003020eef62ee308107cc","64b0348b7deedf564310bb85","null","null","<p style=""font-size: 60px; font-family: BACS"">rcmuvlvk</p>","","","","","","","",""
"html-keyboard-response","35","192853","0.0-7.0-0.28","608abc6251feb3ddc3b2e01d","64b003020eef62ee308107cc","64b0348b7deedf564310bb85","null","null","<p style=""font-size: 60px; font-family: BACS"">chAhEKBO</p>","","","","","","","",""
"html-keyboard-response","36","193858","0.0-7.0-0.29","608abc6251feb3ddc3b2e01d","64b003020eef62ee308107cc","64b0348b7deedf564310bb85","null","null","<p style=""font-size: 60px; font-family: BACS"">TdTDdBC</p>","","","","","","","",""
"html-keyboard-response","37","194860","0.0-7.0-0.30","608abc6251feb3ddc3b2e01d","64b003020eef62ee308107cc","64b0348b7deedf564310bb85","null","null","<p style=""font-size: 60px; font-family: BACS"">COtBDbRC</p>","","","","","","","",""
"html-keyboard-response","38","195862","0.0-7.0-0.31","608abc6251feb3ddc3b2e01d","64b003020eef62ee308107cc","64b0348b7deedf564310bb85","null","null","<p style=""font-size: 60px; font-family: BACS"">OtlREKBO</p>","","","","","","","",""
"html-keyboard-response","39","196863","0.0-7.0-0.32","608abc6251feb3ddc3b2e01d","64b003020eef62ee308107cc","64b0348b7deedf564310bb85","null","null","<p style=""font-size: 60px; font-family: BACS"">COtBDCMdP</p>","","","","","","","",""
"html-keyboard-response","40","197870","0.0-7.0-0.33","608abc6251feb3ddc3b2e01d","64b003020eef62ee308107cc","64b0348b7deedf564310bb85","null","null","<p style=""font-size: 60px; font-family: BACS"">GabklLG</p>","","","","","","","",""
"html-keyboard-response","41","198881","0.0-7.0-0.34","608abc6251feb3ddc3b2e01d","64b003020eef62ee308107cc","64b0348b7deedf564310bb85","null","null","<p style=""font-size: 60px; font-family: BACS"">NaJbcUN</p>","","","","","","","",""
"html-keyboard-response","42","199890","0.0-7.0-0.35","608abc6251feb3ddc3b2e01d","64b003020eef62ee308107cc","64b0348b7deedf564310bb85","null","null","<p style=""font-size: 60px; font-family: BACS"">JmNkYkZ</p>","","","","","","","",""
"html-keyboard-response","43","200891","0.0-7.0-0.36","608abc6251feb3ddc3b2e01d","64b003020eef62ee308107cc","64b0348b7deedf564310bb85","null","null","<p style=""font-size: 60px; font-family: BACS"">JauQlLG</p>","","","","","","","",""
"html-keyboard-response","44","201893","0.0-7.0-0.37","608abc6251feb3ddc3b2e01d","64b003020eef62ee308107cc","64b0348b7deedf564310bb85","null","null","<p style=""font-size: 60px; font-family: BACS"">dKRDbRC</p>","","","","","","","",""
"html-keyboard-response","45","202894","0.0-7.0-0.38","608abc6251feb3ddc3b2e01d","64b003020eef62ee308107cc","64b0348b7deedf564310bb85","null","null","<p style=""font-size: 60px; font-family: BACS"">rcmuvOQAr</p>","","","","","","","",""
"html-keyboard-response","46","203899","0.0-7.0-0.39","608abc6251feb3ddc3b2e01d","64b003020eef62ee308107cc","64b0348b7deedf564310bb85","null","null","<p style=""font-size: 60px; font-family: BACS"">COtBDdBC</p>","","","","","","","",""
"html-keyboard-response","47","204901","0.0-7.0-0.40","608abc6251feb3ddc3b2e01d","64b003020eef62ee308107cc","64b0348b7deedf564310bb85","null","null","<p style=""font-size: 60px; font-family: BACS"">auYAkcUN</p>","","","","","","","",""
"html-keyboard-response","48","205906","0.0-7.0-0.41","608abc6251feb3ddc3b2e01d","64b003020eef62ee308107cc","64b0348b7deedf564310bb85","null","null","<p style=""font-size: 60px; font-family: BACS"">GabkYkZ</p>","","","","","","","",""
"html-keyboard-response","49","206907","0.0-7.0-0.42","608abc6251feb3ddc3b2e01d","64b003020eef62ee308107cc","64b0348b7deedf564310bb85","null","null","<p style=""font-size: 60px; font-family: BACS"">rbYbucUN</p>","","","","","","","",""
"html-keyboard-response","50","207922","0.0-7.0-0.43","608abc6251feb3ddc3b2e01d","64b003020eef62ee308107cc","64b0348b7deedf564310bb85","null","null","<p style=""font-size: 60px; font-family: BACS"">KTDTBMCkm</p>","","","","","","","",""
"html-keyboard-response","51","208923","0.0-7.0-0.44","608abc6251feb3ddc3b2e01d","64b003020eef62ee308107cc","64b0348b7deedf564310bb85","null","null","<p style=""font-size: 60px; font-family: BACS"">tKDmhEKBO</p>","","","","","","","",""
"html-keyboard-response","52","209933","0.0-7.0-0.45","608abc6251feb3ddc3b2e01d","64b003020eef62ee308107cc","64b0348b7deedf564310bb85","null","null","<p style=""font-size: 60px; font-family: BACS"">TdTDbRC</p>","","","","","","","",""
"html-keyboard-response","53","210934","0.0-7.0-0.46","608abc6251feb3ddc3b2e01d","64b003020eef62ee308107cc","64b0348b7deedf564310bb85","null","null","<p style=""font-size: 60px; font-family: BACS"">GabkOQAr</p>","","","","","","","",""
"html-keyboard-response","54","211934","0.0-7.0-0.47","608abc6251feb3ddc3b2e01d","64b003020eef62ee308107cc","64b0348b7deedf564310bb85","null","null","<p style=""font-size: 60px; font-family: BACS"">LdQvlvk</p>","","","","","","","",""
"html-keyboard-response","55","212947","0.0-7.0-0.48","608abc6251feb3ddc3b2e01d","64b003020eef62ee308107cc","64b0348b7deedf564310bb85","null","null","<p style=""font-size: 60px; font-family: BACS"">OJGQcUN</p>","","","","","","","",""
"html-keyboard-response","56","213958","0.0-7.0-0.49","608abc6251feb3ddc3b2e01d","64b003020eef62ee308107cc","64b0348b7deedf564310bb85","null","null","<p style=""font-size: 60px; font-family: BACS"">OtlRCMdP</p>","","","","","","","",""
"html-keyboard-response","57","214959","0.0-7.0-0.50","608abc6251feb3ddc3b2e01d","64b003020eef62ee308107cc","64b0348b7deedf564310bb85","null","null","<p style=""font-size: 60px; font-family: BACS"">LdQvcUN</p>","","","","","","","",""
"html-keyboard-response","58","215960","0.0-7.0-0.51","608abc6251feb3ddc3b2e01d","64b003020eef62ee308107cc","64b0348b7deedf564310bb85","null","null","<p style=""font-size: 60px; font-family: BACS"">tKDmhMCkm</p>","","","","","","","",""
"html-keyboard-response","59","216961","0.0-7.0-0.52","608abc6251feb3ddc3b2e01d","64b003020eef62ee308107cc","64b0348b7deedf564310bb85","null","null","<p style=""font-size: 60px; font-family: BACS"">UdlGQYkZ</p>","","","","","","","",""
"html-keyboard-response","60","217962","0.0-7.0-0.53","608abc6251feb3ddc3b2e01d","64b003020eef62ee308107cc","64b0348b7deedf564310bb85","null","null","<p style=""font-size: 60px; font-family: BACS"">DOBhYbRC</p>","","","","","","","",""
"html-keyboard-response","61","218963","0.0-7.0-0.54","608abc6251feb3ddc3b2e01d","64b003020eef62ee308107cc","64b0348b7deedf564310bb85","null","null","<p style=""font-size: 60px; font-family: BACS"">chAhMCkm</p>","","","","","","","",""
"html-keyboard-response","62","219970","0.0-7.0-0.55","608abc6251feb3ddc3b2e01d","64b003020eef62ee308107cc","64b0348b7deedf564310bb85","null","null","<p style=""font-size: 60px; font-family: BACS"">LdQvOQAr</p>","","","","","","","",""
"html-keyboard-response","63","220970","0.0-7.0-0.56","608abc6251feb3ddc3b2e01d","64b003020eef62ee308107cc","64b0348b7deedf564310bb85","null","null","<p style=""font-size: 60px; font-family: BACS"">chAhCMdP</p>","","","","","","","",""
"html-keyboard-response","64","221986","0.0-7.0-0.57","608abc6251feb3ddc3b2e01d","64b003020eef62ee308107cc","64b0348b7deedf564310bb85","null","null","<p style=""font-size: 60px; font-family: BACS"">JmNkOQAr</p>","","","","","","","",""
"html-keyboard-response","65","222987","0.0-7.0-0.58","608abc6251feb3ddc3b2e01d","64b003020eef62ee308107cc","64b0348b7deedf564310bb85","null","null","<p style=""font-size: 60px; font-family: BACS"">UdlGQcUN</p>","","","","","","","",""
"html-keyboard-response","66","223990","0.0-7.0-0.59","608abc6251feb3ddc3b2e01d","64b003020eef62ee308107cc","64b0348b7deedf564310bb85","null","null","<p style=""font-size: 60px; font-family: BACS"">hCktMCkm</p>","","","","","","","",""
"html-keyboard-response","67","224991","0.0-7.0-0.60","608abc6251feb3ddc3b2e01d","64b003020eef62ee308107cc","64b0348b7deedf564310bb85","null","null","<p style=""font-size: 60px; font-family: BACS"">UdlGQlvk</p>","","","","","","","",""
"html-keyboard-response","68","226001","0.0-7.0-0.61","608abc6251feb3ddc3b2e01d","64b003020eef62ee308107cc","64b0348b7deedf564310bb85","null","null","<p style=""font-size: 60px; font-family: BACS"">hCktbRC</p>","","","","","","","",""
"html-keyboard-response","69","227002","0.0-7.0-0.62","608abc6251feb3ddc3b2e01d","64b003020eef62ee308107cc","64b0348b7deedf564310bb85","null","null","<p style=""font-size: 60px; font-family: BACS"">dKRDEKBO</p>","","","","","","","",""
"html-keyboard-response","70","228011","0.0-7.0-0.63","608abc6251feb3ddc3b2e01d","64b003020eef62ee308107cc","64b0348b7deedf564310bb85","null","null","<p style=""font-size: 60px; font-family: BACS"">Gabklvk</p>","","","","","","","",""
"html-keyboard-response","71","229012","0.0-7.0-0.64","608abc6251feb3ddc3b2e01d","64b003020eef62ee308107cc","64b0348b7deedf564310bb85","null","null","<p style=""font-size: 60px; font-family: BACS"">rcmuvlLG</p>","","","","","","","",""
"html-keyboard-response","72","230028","0.0-7.0-0.65","608abc6251feb3ddc3b2e01d","64b003020eef62ee308107cc","64b0348b7deedf564310bb85","null","null","<p style=""font-size: 60px; font-family: BACS"">NaJbYkZ</p>","","","","","","","",""
"html-keyboard-response","73","231029","0.0-7.0-0.66","608abc6251feb3ddc3b2e01d","64b003020eef62ee308107cc","64b0348b7deedf564310bb85","null","null","<p style=""font-size: 60px; font-family: BACS"">dKRDMCkm</p>","","","","","","","",""
"html-keyboard-response","74","232040","0.0-7.0-0.67","608abc6251feb3ddc3b2e01d","64b003020eef62ee308107cc","64b0348b7deedf564310bb85","null","null","<p style=""font-size: 60px; font-family: BACS"">OJGQlvk</p>","","","","","","","",""
"html-keyboard-response","75","233041","0.0-7.0-0.68","608abc6251feb3ddc3b2e01d","64b003020eef62ee308107cc","64b0348b7deedf564310bb85","null","null","<p style=""font-size: 60px; font-family: BACS"">EMbDPEKBO</p>","","","","","","","",""
"html-keyboard-response","76","234041","0.0-7.0-0.69","608abc6251feb3ddc3b2e01d","64b003020eef62ee308107cc","64b0348b7deedf564310bb85","null","null","<p style=""font-size: 60px; font-family: BACS"">KTDTBCMdP</p>","","","","","","","",""
"html-keyboard-response","77","235053","0.0-7.0-0.70","608abc6251feb3ddc3b2e01d","64b003020eef62ee308107cc","64b0348b7deedf564310bb85","null","null","<p style=""font-size: 60px; font-family: BACS"">EMbDPdBC</p>","","","","","","","",""
"html-keyboard-response","78","236060","0.0-7.0-0.71","608abc6251feb3ddc3b2e01d","64b003020eef62ee308107cc","64b0348b7deedf564310bb85","null","null","<p style=""font-size: 60px; font-family: BACS"">LdQvYkZ</p>","","","","","","","",""
"html-keyboard-response","79","237061","0.0-7.0-0.72","608abc6251feb3ddc3b2e01d","64b003020eef62ee308107cc","64b0348b7deedf564310bb85","null","null","<p style=""font-size: 60px; font-family: BACS"">OJGQlLG</p>","","","","","","","",""
"html-keyboard-response","80","238062","0.0-7.0-0.73","608abc6251feb3ddc3b2e01d","64b003020eef62ee308107cc","64b0348b7deedf564310bb85","null","null","<p style=""font-size: 60px; font-family: BACS"">dKRDCMdP</p>","","","","","","","",""
"html-keyboard-response","81","239069","0.0-7.0-0.74","608abc6251feb3ddc3b2e01d","64b003020eef62ee308107cc","64b0348b7deedf564310bb85","null","null","<p style=""font-size: 60px; font-family: BACS"">COtBDMCkm</p>","","","","","","","",""
"html-keyboard-response","82","240075","0.0-7.0-0.75","608abc6251feb3ddc3b2e01d","64b003020eef62ee308107cc","64b0348b7deedf564310bb85","null","null","<p style=""font-size: 60px; font-family: BACS"">hCktEKBO</p>","","","","","","","",""
"html-keyboard-response","83","241087","0.0-7.0-0.76","608abc6251feb3ddc3b2e01d","64b003020eef62ee308107cc","64b0348b7deedf564310bb85","null","null","<p style=""font-size: 60px; font-family: BACS"">auYAklvk</p>","","","","","","","",""
"html-keyboard-response","84","242088","0.0-7.0-0.77","608abc6251feb3ddc3b2e01d","64b003020eef62ee308107cc","64b0348b7deedf564310bb85","null","null","<p style=""font-size: 60px; font-family: BACS"">OJGQYkZ</p>","","","","","","","",""
"html-keyboard-response","85","243093","0.0-7.0-0.78","608abc6251feb3ddc3b2e01d","64b003020eef62ee308107cc","64b0348b7deedf564310bb85","null","null","<p style=""font-size: 60px; font-family: BACS"">DOBhYCMdP</p>","","","","","","","",""
"html-keyboard-response","86","244095","0.0-7.0-0.79","608abc6251feb3ddc3b2e01d","64b003020eef62ee308107cc","64b0348b7deedf564310bb85","null","null","<p style=""font-size: 60px; font-family: BACS"">rbYbulLG</p>","","","","","","","",""
"html-keyboard-response","87","247875","0.0-8.0","608abc6251feb3ddc3b2e01d","64b003020eef62ee308107cc","64b0348b7deedf564310bb85","3780"," ","<p>Ottimo, hai visto il primo blocco di parole. Ora puoi prenderti una piccola pausa.</p>
      <p>Premi la barra quando sei pronta/o per riprendere.</p>","","","","","","","",""
"html-keyboard-response","88","248877","0.0-9.0-0.0","608abc6251feb3ddc3b2e01d","64b003020eef62ee308107cc","64b0348b7deedf564310bb85","null","null","<p style=""font-size: 60px; font-family: BACS"">TdTDEKBO</p>","","","","","","","",""
"html-keyboard-response","89","249878","0.0-9.0-0.1","608abc6251feb3ddc3b2e01d","64b003020eef62ee308107cc","64b0348b7deedf564310bb85","null","null","<p style=""font-size: 60px; font-family: BACS"">KTDTBdBC</p>","","","","","","","",""
"html-keyboard-response","90","250879","0.0-9.0-0.2","608abc6251feb3ddc3b2e01d","64b003020eef62ee308107cc","64b0348b7deedf564310bb85","null","null","<p style=""font-size: 60px; font-family: BACS"">LdQvOQAr</p>","","","","","","","",""
"html-keyboard-response","91","251891","0.0-9.0-0.3","608abc6251feb3ddc3b2e01d","64b003020eef62ee308107cc","64b0348b7deedf564310bb85","null","null","<p style=""font-size: 60px; font-family: BACS"">dKRDEKBO</p>","","","","","","","",""
"html-keyboard-response","92","252892","0.0-9.0-0.4","608abc6251feb3ddc3b2e01d","64b003020eef62ee308107cc","64b0348b7deedf564310bb85","null","null","<p style=""font-size: 60px; font-family: BACS"">TdTDbRC</p>","","","","","","","",""
"html-keyboard-response","93","253896","0.0-9.0-0.5","608abc6251feb3ddc3b2e01d","64b003020eef62ee308107cc","64b0348b7deedf564310bb85","null","null","<p style=""font-size: 60px; font-family: BACS"">JmNklvk</p>","","","","","","","",""
"html-keyboard-response","94","254897","0.0-9.0-0.6","608abc6251feb3ddc3b2e01d","64b003020eef62ee308107cc","64b0348b7deedf564310bb85","null","null","<p style=""font-size: 60px; font-family: BACS"">tKDmhEKBO</p>","","","","","","","",""
"html-keyboard-response","95","255912","0.0-9.0-0.7","608abc6251feb3ddc3b2e01d","64b003020eef62ee308107cc","64b0348b7deedf564310bb85","null","null","<p style=""font-size: 60px; font-family: BACS"">DOBhYbRC</p>","","","","","","","",""
"html-keyboard-response","96","256913","0.0-9.0-0.8","608abc6251feb3ddc3b2e01d","64b003020eef62ee308107cc","64b0348b7deedf564310bb85","null","null","<p style=""font-size: 60px; font-family: BACS"">OJGQcUN</p>","","","","","","","",""
"html-keyboard-response","97","257922","0.0-9.0-0.9","608abc6251feb3ddc3b2e01d","64b003020eef62ee308107cc","64b0348b7deedf564310bb85","null","null","<p style=""font-size: 60px; font-family: BACS"">TdTDdBC</p>","","","","","","","",""
"html-keyboard-response","98","258923","0.0-9.0-0.10","608abc6251feb3ddc3b2e01d","64b003020eef62ee308107cc","64b0348b7deedf564310bb85","null","null","<p style=""font-size: 60px; font-family: BACS"">UdlGQcUN</p>","","","","","","","",""
"html-keyboard-response","99","259926","0.0-9.0-0.11","608abc6251feb3ddc3b2e01d","64b003020eef62ee308107cc","64b0348b7deedf564310bb85","null","null","<p style=""font-size: 60px; font-family: BACS"">auYAkYkZ</p>","","","","","","","",""
"html-keyboard-response","100","260928","0.0-9.0-0.12","608abc6251feb3ddc3b2e01d","64b003020eef62ee308107cc","64b0348b7deedf564310bb85","null","null","<p style=""font-size: 60px; font-family: BACS"">OtlRdBC</p>","","","","","","","",""
"html-keyboard-response","101","261931","0.0-9.0-0.13","608abc6251feb3ddc3b2e01d","64b003020eef62ee308107cc","64b0348b7deedf564310bb85","null","null","<p style=""font-size: 60px; font-family: BACS"">rbYbulvk</p>","","","","","","","",""
"html-keyboard-response","102","262932","0.0-9.0-0.14","608abc6251feb3ddc3b2e01d","64b003020eef62ee308107cc","64b0348b7deedf564310bb85","null","null","<p style=""font-size: 60px; font-family: BACS"">hCktEKBO</p>","","","","","","","",""
"html-keyboard-response","103","263943","0.0-9.0-0.15","608abc6251feb3ddc3b2e01d","64b003020eef62ee308107cc","64b0348b7deedf564310bb85","null","null","<p style=""font-size: 60px; font-family: BACS"">chAhMCkm</p>","","","","","","","",""
"html-keyboard-response","104","264945","0.0-9.0-0.16","608abc6251feb3ddc3b2e01d","64b003020eef62ee308107cc","64b0348b7deedf564310bb85","null","null","<p style=""font-size: 60px; font-family: BACS"">OtlRCMdP</p>","","","","","","","",""
"html-keyboard-response","105","265947","0.0-9.0-0.17","608abc6251feb3ddc3b2e01d","64b003020eef62ee308107cc","64b0348b7deedf564310bb85","null","null","<p style=""font-size: 60px; font-family: BACS"">dKRDbRC</p>","","","","","","","",""
"html-keyboard-response","106","266962","0.0-9.0-0.18","608abc6251feb3ddc3b2e01d","64b003020eef62ee308107cc","64b0348b7deedf564310bb85","null","null","<p style=""font-size: 60px; font-family: BACS"">NaJblLG</p>","","","","","","","",""
"html-keyboard-response","107","267977","0.0-9.0-0.19","608abc6251feb3ddc3b2e01d","64b003020eef62ee308107cc","64b0348b7deedf564310bb85","null","null","<p style=""font-size: 60px; font-family: BACS"">KTDTBbRC</p>","","","","","","","",""
"html-keyboard-response","108","268978","0.0-9.0-0.20","608abc6251feb3ddc3b2e01d","64b003020eef62ee308107cc","64b0348b7deedf564310bb85","null","null","<p style=""font-size: 60px; font-family: BACS"">rcmuvlvk</p>","","","","","","","",""
"html-keyboard-response","109","269981","0.0-9.0-0.21","608abc6251feb3ddc3b2e01d","64b003020eef62ee308107cc","64b0348b7deedf564310bb85","null","null","<p style=""font-size: 60px; font-family: BACS"">OtlRbRC</p>","","","","","","","",""
"html-keyboard-response","110","270982","0.0-9.0-0.22","608abc6251feb3ddc3b2e01d","64b003020eef62ee308107cc","64b0348b7deedf564310bb85","null","null","<p style=""font-size: 60px; font-family: BACS"">rcmuvlLG</p>","","","","","","","",""
"html-keyboard-response","111","271990","0.0-9.0-0.23","608abc6251feb3ddc3b2e01d","64b003020eef62ee308107cc","64b0348b7deedf564310bb85","null","null","<p style=""font-size: 60px; font-family: BACS"">NaJbYkZ</p>","","","","","","","",""
"html-keyboard-response","112","272993","0.0-9.0-0.24","608abc6251feb3ddc3b2e01d","64b003020eef62ee308107cc","64b0348b7deedf564310bb85","null","null","<p style=""font-size: 60px; font-family: BACS"">JauQlLG</p>","","","","","","","",""
"html-keyboard-response","113","274006","0.0-9.0-0.25","608abc6251feb3ddc3b2e01d","64b003020eef62ee308107cc","64b0348b7deedf564310bb85","null","null","<p style=""font-size: 60px; font-family: BACS"">rcmuvcUN</p>","","","","","","","",""
"html-keyboard-response","114","275013","0.0-9.0-0.26","608abc6251feb3ddc3b2e01d","64b003020eef62ee308107cc","64b0348b7deedf564310bb85","null","null","<p style=""font-size: 60px; font-family: BACS"">LdQvYkZ</p>","","","","","","","",""
"html-keyboard-response","115","276018","0.0-9.0-0.27","608abc6251feb3ddc3b2e01d","64b003020eef62ee308107cc","64b0348b7deedf564310bb85","null","null","<p style=""font-size: 60px; font-family: BACS"">hCktdBC</p>","","","","","","","",""
"html-keyboard-response","116","277019","0.0-9.0-0.28","608abc6251feb3ddc3b2e01d","64b003020eef62ee308107cc","64b0348b7deedf564310bb85","null","null","<p style=""font-size: 60px; font-family: BACS"">OtlREKBO</p>","","","","","","","",""
"html-keyboard-response","117","278020","0.0-9.0-0.29","608abc6251feb3ddc3b2e01d","64b003020eef62ee308107cc","64b0348b7deedf564310bb85","null","null","<p style=""font-size: 60px; font-family: BACS"">hCktMCkm</p>","","","","","","","",""
"html-keyboard-response","118","279021","0.0-9.0-0.30","608abc6251feb3ddc3b2e01d","64b003020eef62ee308107cc","64b0348b7deedf564310bb85","null","null","<p style=""font-size: 60px; font-family: BACS"">GabkYkZ</p>","","","","","","","",""
"html-keyboard-response","119","280035","0.0-9.0-0.31","608abc6251feb3ddc3b2e01d","64b003020eef62ee308107cc","64b0348b7deedf564310bb85","null","null","<p style=""font-size: 60px; font-family: BACS"">JauQcUN</p>","","","","","","","",""
"html-keyboard-response","120","281038","0.0-9.0-0.32","608abc6251feb3ddc3b2e01d","64b003020eef62ee308107cc","64b0348b7deedf564310bb85","null","null","<p style=""font-size: 60px; font-family: BACS"">KTDTBMCkm</p>","","","","","","","",""
"html-keyboard-response","121","282049","0.0-9.0-0.33","608abc6251feb3ddc3b2e01d","64b003020eef62ee308107cc","64b0348b7deedf564310bb85","null","null","<p style=""font-size: 60px; font-family: BACS"">UdlGQOQAr</p>","","","","","","","",""
"html-keyboard-response","122","283056","0.0-9.0-0.34","608abc6251feb3ddc3b2e01d","64b003020eef62ee308107cc","64b0348b7deedf564310bb85","null","null","<p style=""font-size: 60px; font-family: BACS"">tKDmhCMdP</p>","","","","","","","",""
"html-keyboard-response","123","284072","0.0-9.0-0.35","608abc6251feb3ddc3b2e01d","64b003020eef62ee308107cc","64b0348b7deedf564310bb85","null","null","<p style=""font-size: 60px; font-family: BACS"">COtBDdBC</p>","","","","","","","",""
"html-keyboard-response","124","285079","0.0-9.0-0.36","608abc6251feb3ddc3b2e01d","64b003020eef62ee308107cc","64b0348b7deedf564310bb85","null","null","<p style=""font-size: 60px; font-family: BACS"">OJGQlLG</p>","","","","","","","",""
"html-keyboard-response","125","286089","0.0-9.0-0.37","608abc6251feb3ddc3b2e01d","64b003020eef62ee308107cc","64b0348b7deedf564310bb85","null","null","<p style=""font-size: 60px; font-family: BACS"">rcmuvOQAr</p>","","","","","","","",""
"html-keyboard-response","126","287091","0.0-9.0-0.38","608abc6251feb3ddc3b2e01d","64b003020eef62ee308107cc","64b0348b7deedf564310bb85","null","null","<p style=""font-size: 60px; font-family: BACS"">TdTDMCkm</p>","","","","","","","",""
"html-keyboard-response","127","288103","0.0-9.0-0.39","608abc6251feb3ddc3b2e01d","64b003020eef62ee308107cc","64b0348b7deedf564310bb85","null","null","<p style=""font-size: 60px; font-family: BACS"">auYAkcUN</p>","","","","","","","",""
"html-keyboard-response","128","289104","0.0-9.0-0.40","608abc6251feb3ddc3b2e01d","64b003020eef62ee308107cc","64b0348b7deedf564310bb85","null","null","<p style=""font-size: 60px; font-family: BACS"">EMbDPbRC</p>","","","","","","","",""
"html-keyboard-response","129","290119","0.0-9.0-0.41","608abc6251feb3ddc3b2e01d","64b003020eef62ee308107cc","64b0348b7deedf564310bb85","null","null","<p style=""font-size: 60px; font-family: BACS"">NaJbcUN</p>","","","","","","","",""
"html-keyboard-response","130","291120","0.0-9.0-0.42","608abc6251feb3ddc3b2e01d","64b003020eef62ee308107cc","64b0348b7deedf564310bb85","null","null","<p style=""font-size: 60px; font-family: BACS"">GabklLG</p>","","","","","","","",""
"html-keyboard-response","131","292124","0.0-9.0-0.43","608abc6251feb3ddc3b2e01d","64b003020eef62ee308107cc","64b0348b7deedf564310bb85","null","null","<p style=""font-size: 60px; font-family: BACS"">rbYbuOQAr</p>","","","","","","","",""
"html-keyboard-response","132","293128","0.0-9.0-0.44","608abc6251feb3ddc3b2e01d","64b003020eef62ee308107cc","64b0348b7deedf564310bb85","null","null","<p style=""font-size: 60px; font-family: BACS"">chAhEKBO</p>","","","","","","","",""
"html-keyboard-response","133","294138","0.0-9.0-0.45","608abc6251feb3ddc3b2e01d","64b003020eef62ee308107cc","64b0348b7deedf564310bb85","null","null","<p style=""font-size: 60px; font-family: BACS"">JmNklLG</p>","","","","","","","",""
"html-keyboard-response","134","295139","0.0-9.0-0.46","608abc6251feb3ddc3b2e01d","64b003020eef62ee308107cc","64b0348b7deedf564310bb85","null","null","<p style=""font-size: 60px; font-family: BACS"">GabkOQAr</p>","","","","","","","",""
"html-keyboard-response","135","296145","0.0-9.0-0.47","608abc6251feb3ddc3b2e01d","64b003020eef62ee308107cc","64b0348b7deedf564310bb85","null","null","<p style=""font-size: 60px; font-family: BACS"">dKRDCMdP</p>","","","","","","","",""
"html-keyboard-response","136","297156","0.0-9.0-0.48","608abc6251feb3ddc3b2e01d","64b003020eef62ee308107cc","64b0348b7deedf564310bb85","null","null","<p style=""font-size: 60px; font-family: BACS"">DOBhYMCkm</p>","","","","","","","",""
"html-keyboard-response","137","298169","0.0-9.0-0.49","608abc6251feb3ddc3b2e01d","64b003020eef62ee308107cc","64b0348b7deedf564310bb85","null","null","<p style=""font-size: 60px; font-family: BACS"">EMbDPCMdP</p>","","","","","","","",""
"html-keyboard-response","138","299170","0.0-9.0-0.50","608abc6251feb3ddc3b2e01d","64b003020eef62ee308107cc","64b0348b7deedf564310bb85","null","null","<p style=""font-size: 60px; font-family: BACS"">OJGQYkZ</p>","","","","","","","",""
"html-keyboard-response","139","300180","0.0-9.0-0.51","608abc6251feb3ddc3b2e01d","64b003020eef62ee308107cc","64b0348b7deedf564310bb85","null","null","<p style=""font-size: 60px; font-family: BACS"">JauQOQAr</p>","","","","","","","",""
"html-keyboard-response","140","301188","0.0-9.0-0.52","608abc6251feb3ddc3b2e01d","64b003020eef62ee308107cc","64b0348b7deedf564310bb85","null","null","<p style=""font-size: 60px; font-family: BACS"">EMbDPdBC</p>","","","","","","","",""
"html-keyboard-response","141","302203","0.0-9.0-0.53","608abc6251feb3ddc3b2e01d","64b003020eef62ee308107cc","64b0348b7deedf564310bb85","null","null","<p style=""font-size: 60px; font-family: BACS"">UdlGQYkZ</p>","","","","","","","",""
"html-keyboard-response","142","303210","0.0-9.0-0.54","608abc6251feb3ddc3b2e01d","64b003020eef62ee308107cc","64b0348b7deedf564310bb85","null","null","<p style=""font-size: 60px; font-family: BACS"">tKDmhMCkm</p>","","","","","","","",""
"html-keyboard-response","143","304215","0.0-9.0-0.55","608abc6251feb3ddc3b2e01d","64b003020eef62ee308107cc","64b0348b7deedf564310bb85","null","null","<p style=""font-size: 60px; font-family: BACS"">hCktbRC</p>","","","","","","","",""
"html-keyboard-response","144","305217","0.0-9.0-0.56","608abc6251feb3ddc3b2e01d","64b003020eef62ee308107cc","64b0348b7deedf564310bb85","null","null","<p style=""font-size: 60px; font-family: BACS"">COtBDCMdP</p>","","","","","","","",""
"html-keyboard-response","145","306232","0.0-9.0-0.57","608abc6251feb3ddc3b2e01d","64b003020eef62ee308107cc","64b0348b7deedf564310bb85","null","null","<p style=""font-size: 60px; font-family: BACS"">UdlGQlvk</p>","","","","","","","",""
"html-keyboard-response","146","307247","0.0-9.0-0.58","608abc6251feb3ddc3b2e01d","64b003020eef62ee308107cc","64b0348b7deedf564310bb85","null","null","<p style=""font-size: 60px; font-family: BACS"">tKDmhdBC</p>","","","","","","","",""
"html-keyboard-response","147","308261","0.0-9.0-0.59","608abc6251feb3ddc3b2e01d","64b003020eef62ee308107cc","64b0348b7deedf564310bb85","null","null","<p style=""font-size: 60px; font-family: BACS"">EMbDPEKBO</p>","","","","","","","",""
"html-keyboard-response","148","309265","0.0-9.0-0.60","608abc6251feb3ddc3b2e01d","64b003020eef62ee308107cc","64b0348b7deedf564310bb85","null","null","<p style=""font-size: 60px; font-family: BACS"">COtBDbRC</p>","","","","","","","",""
"html-keyboard-response","149","310274","0.0-9.0-0.61","608abc6251feb3ddc3b2e01d","64b003020eef62ee308107cc","64b0348b7deedf564310bb85","null","null","<p style=""font-size: 60px; font-family: BACS"">JmNkYkZ</p>","","","","","","","",""
"html-keyboard-response","150","311286","0.0-9.0-0.62","608abc6251feb3ddc3b2e01d","64b003020eef62ee308107cc","64b0348b7deedf564310bb85","null","null","<p style=""font-size: 60px; font-family: BACS"">chAhCMdP</p>","","","","","","","",""
"html-keyboard-response","151","312303","0.0-9.0-0.63","608abc6251feb3ddc3b2e01d","64b003020eef62ee308107cc","64b0348b7deedf564310bb85","null","null","<p style=""font-size: 60px; font-family: BACS"">rbYbucUN</p>","","","","","","","",""
"html-keyboard-response","152","313318","0.0-9.0-0.64","608abc6251feb3ddc3b2e01d","64b003020eef62ee308107cc","64b0348b7deedf564310bb85","null","null","<p style=""font-size: 60px; font-family: BACS"">LdQvlvk</p>","","","","","","","",""
"html-keyboard-response","153","314326","0.0-9.0-0.65","608abc6251feb3ddc3b2e01d","64b003020eef62ee308107cc","64b0348b7deedf564310bb85","null","null","<p style=""font-size: 60px; font-family: BACS"">DOBhYEKBO</p>","","","","","","","",""
"html-keyboard-response","154","315327","0.0-9.0-0.66","608abc6251feb3ddc3b2e01d","64b003020eef62ee308107cc","64b0348b7deedf564310bb85","null","null","<p style=""font-size: 60px; font-family: BACS"">OJGQlvk</p>","","","","","","","",""
"html-keyboard-response","155","316334","0.0-9.0-0.67","608abc6251feb3ddc3b2e01d","64b003020eef62ee308107cc","64b0348b7deedf564310bb85","null","null","<p style=""font-size: 60px; font-family: BACS"">dKRDMCkm</p>","","","","","","","",""
"html-keyboard-response","156","317335","0.0-9.0-0.68","608abc6251feb3ddc3b2e01d","64b003020eef62ee308107cc","64b0348b7deedf564310bb85","null","null","<p style=""font-size: 60px; font-family: BACS"">KTDTBCMdP</p>","","","","","","","",""
"html-keyboard-response","157","318344","0.0-9.0-0.69","608abc6251feb3ddc3b2e01d","64b003020eef62ee308107cc","64b0348b7deedf564310bb85","null","null","<p style=""font-size: 60px; font-family: BACS"">JmNkOQAr</p>","","","","","","","",""
"html-keyboard-response","158","319351","0.0-9.0-0.70","608abc6251feb3ddc3b2e01d","64b003020eef62ee308107cc","64b0348b7deedf564310bb85","null","null","<p style=""font-size: 60px; font-family: BACS"">chAhdBC</p>","","","","","","","",""
"html-keyboard-response","159","320354","0.0-9.0-0.71","608abc6251feb3ddc3b2e01d","64b003020eef62ee308107cc","64b0348b7deedf564310bb85","null","null","<p style=""font-size: 60px; font-family: BACS"">rbYbulLG</p>","","","","","","","",""
"html-keyboard-response","160","321368","0.0-9.0-0.72","608abc6251feb3ddc3b2e01d","64b003020eef62ee308107cc","64b0348b7deedf564310bb85","null","null","<p style=""font-size: 60px; font-family: BACS"">Gabklvk</p>","","","","","","","",""
"html-keyboard-response","161","322373","0.0-9.0-0.73","608abc6251feb3ddc3b2e01d","64b003020eef62ee308107cc","64b0348b7deedf564310bb85","null","null","<p style=""font-size: 60px; font-family: BACS"">JauQYkZ</p>","","","","","","","",""
"html-keyboard-response","162","323379","0.0-9.0-0.74","608abc6251feb3ddc3b2e01d","64b003020eef62ee308107cc","64b0348b7deedf564310bb85","null","null","<p style=""font-size: 60px; font-family: BACS"">DOBhYCMdP</p>","","","","","","","",""
"html-keyboard-response","163","324389","0.0-9.0-0.75","608abc6251feb3ddc3b2e01d","64b003020eef62ee308107cc","64b0348b7deedf564310bb85","null","null","<p style=""font-size: 60px; font-family: BACS"">auYAklLG</p>","","","","","","","",""
"html-keyboard-response","164","325390","0.0-9.0-0.76","608abc6251feb3ddc3b2e01d","64b003020eef62ee308107cc","64b0348b7deedf564310bb85","null","null","<p style=""font-size: 60px; font-family: BACS"">LdQvcUN</p>","","","","","","","",""
"html-keyboard-response","165","326391","0.0-9.0-0.77","608abc6251feb3ddc3b2e01d","64b003020eef62ee308107cc","64b0348b7deedf564310bb85","null","null","<p style=""font-size: 60px; font-family: BACS"">COtBDMCkm</p>","","","","","","","",""
"html-keyboard-response","166","327393","0.0-9.0-0.78","608abc6251feb3ddc3b2e01d","64b003020eef62ee308107cc","64b0348b7deedf564310bb85","null","null","<p style=""font-size: 60px; font-family: BACS"">auYAklvk</p>","","","","","","","",""
"html-keyboard-response","167","328404","0.0-9.0-0.79","608abc6251feb3ddc3b2e01d","64b003020eef62ee308107cc","64b0348b7deedf564310bb85","null","null","<p style=""font-size: 60px; font-family: BACS"">NaJbOQAr</p>","","","","","","","",""
"html-keyboard-response","168","331393","0.0-10.0","608abc6251feb3ddc3b2e01d","64b003020eef62ee308107cc","64b0348b7deedf564310bb85","2988"," ","<p>Ottimo, hai visto il secondo blocco di parole. Ora puoi prenderti una piccola pausa.</p>
      <p>Premi la barra quando sei pronta/o per riprendere.</p>","","","","","","","",""
"html-keyboard-response","169","332403","0.0-11.0-0.0","608abc6251feb3ddc3b2e01d","64b003020eef62ee308107cc","64b0348b7deedf564310bb85","null","null","<p style=""font-size: 60px; font-family: BACS"">NaJbOQAr</p>","","","","","","","",""
"html-keyboard-response","170","333404","0.0-11.0-0.1","608abc6251feb3ddc3b2e01d","64b003020eef62ee308107cc","64b0348b7deedf564310bb85","null","null","<p style=""font-size: 60px; font-family: BACS"">UdlGQYkZ</p>","","","","","","","",""
"html-keyboard-response","171","334418","0.0-11.0-0.2","608abc6251feb3ddc3b2e01d","64b003020eef62ee308107cc","64b0348b7deedf564310bb85","null","null","<p style=""font-size: 60px; font-family: BACS"">KTDTBdBC</p>","","","","","","","",""
"html-keyboard-response","172","335420","0.0-11.0-0.3","608abc6251feb3ddc3b2e01d","64b003020eef62ee308107cc","64b0348b7deedf564310bb85","null","null","<p style=""font-size: 60px; font-family: BACS"">OtlRCMdP</p>","","","","","","","",""
"html-keyboard-response","173","336422","0.0-11.0-0.4","608abc6251feb3ddc3b2e01d","64b003020eef62ee308107cc","64b0348b7deedf564310bb85","null","null","<p style=""font-size: 60px; font-family: BACS"">UdlGQlvk</p>","","","","","","","",""
"html-keyboard-response","174","337428","0.0-11.0-0.5","608abc6251feb3ddc3b2e01d","64b003020eef62ee308107cc","64b0348b7deedf564310bb85","null","null","<p style=""font-size: 60px; font-family: BACS"">OtlREKBO</p>","","","","","","","",""
"html-keyboard-response","175","338433","0.0-11.0-0.6","608abc6251feb3ddc3b2e01d","64b003020eef62ee308107cc","64b0348b7deedf564310bb85","null","null","<p style=""font-size: 60px; font-family: BACS"">DOBhYbRC</p>","","","","","","","",""
"html-keyboard-response","176","339447","0.0-11.0-0.7","608abc6251feb3ddc3b2e01d","64b003020eef62ee308107cc","64b0348b7deedf564310bb85","null","null","<p style=""font-size: 60px; font-family: BACS"">auYAklvk</p>","","","","","","","",""
"html-keyboard-response","177","340454","0.0-11.0-0.8","608abc6251feb3ddc3b2e01d","64b003020eef62ee308107cc","64b0348b7deedf564310bb85","null","null","<p style=""font-size: 60px; font-family: BACS"">DOBhYEKBO</p>","","","","","","","",""
"html-keyboard-response","178","341465","0.0-11.0-0.9","608abc6251feb3ddc3b2e01d","64b003020eef62ee308107cc","64b0348b7deedf564310bb85","null","null","<p style=""font-size: 60px; font-family: BACS"">UdlGQOQAr</p>","","","","","","","",""
"html-keyboard-response","179","342466","0.0-11.0-0.10","608abc6251feb3ddc3b2e01d","64b003020eef62ee308107cc","64b0348b7deedf564310bb85","null","null","<p style=""font-size: 60px; font-family: BACS"">TdTDEKBO</p>","","","","","","","",""
"html-keyboard-response","180","343473","0.0-11.0-0.11","608abc6251feb3ddc3b2e01d","64b003020eef62ee308107cc","64b0348b7deedf564310bb85","null","null","<p style=""font-size: 60px; font-family: BACS"">rbYbucUN</p>","","","","","","","",""
"html-keyboard-response","181","344487","0.0-11.0-0.12","608abc6251feb3ddc3b2e01d","64b003020eef62ee308107cc","64b0348b7deedf564310bb85","null","null","<p style=""font-size: 60px; font-family: BACS"">GabkYkZ</p>","","","","","","","",""
"html-keyboard-response","182","345501","0.0-11.0-0.13","608abc6251feb3ddc3b2e01d","64b003020eef62ee308107cc","64b0348b7deedf564310bb85","null","null","<p style=""font-size: 60px; font-family: BACS"">hCktdBC</p>","","","","","","","",""
"html-keyboard-response","183","346502","0.0-11.0-0.14","608abc6251feb3ddc3b2e01d","64b003020eef62ee308107cc","64b0348b7deedf564310bb85","null","null","<p style=""font-size: 60px; font-family: BACS"">chAhMCkm</p>","","","","","","","",""
"html-keyboard-response","184","347515","0.0-11.0-0.15","608abc6251feb3ddc3b2e01d","64b003020eef62ee308107cc","64b0348b7deedf564310bb85","null","null","<p style=""font-size: 60px; font-family: BACS"">tKDmhCMdP</p>","","","","","","","",""
"html-keyboard-response","185","348525","0.0-11.0-0.16","608abc6251feb3ddc3b2e01d","64b003020eef62ee308107cc","64b0348b7deedf564310bb85","null","null","<p style=""font-size: 60px; font-family: BACS"">JmNkYkZ</p>","","","","","","","",""
"html-keyboard-response","186","349531","0.0-11.0-0.17","608abc6251feb3ddc3b2e01d","64b003020eef62ee308107cc","64b0348b7deedf564310bb85","null","null","<p style=""font-size: 60px; font-family: BACS"">JauQOQAr</p>","","","","","","","",""
"html-keyboard-response","187","350537","0.0-11.0-0.18","608abc6251feb3ddc3b2e01d","64b003020eef62ee308107cc","64b0348b7deedf564310bb85","null","null","<p style=""font-size: 60px; font-family: BACS"">EMbDPEKBO</p>","","","","","","","",""
"html-keyboard-response","188","351553","0.0-11.0-0.19","608abc6251feb3ddc3b2e01d","64b003020eef62ee308107cc","64b0348b7deedf564310bb85","null","null","<p style=""font-size: 60px; font-family: BACS"">JauQlLG</p>","","","","","","","",""
"html-keyboard-response","189","352566","0.0-11.0-0.20","608abc6251feb3ddc3b2e01d","64b003020eef62ee308107cc","64b0348b7deedf564310bb85","null","null","<p style=""font-size: 60px; font-family: BACS"">tKDmhdBC</p>","","","","","","","",""
"html-keyboard-response","190","353567","0.0-11.0-0.21","608abc6251feb3ddc3b2e01d","64b003020eef62ee308107cc","64b0348b7deedf564310bb85","null","null","<p style=""font-size: 60px; font-family: BACS"">LdQvlvk</p>","","","","","","","",""
"html-keyboard-response","191","354568","0.0-11.0-0.22","608abc6251feb3ddc3b2e01d","64b003020eef62ee308107cc","64b0348b7deedf564310bb85","null","null","<p style=""font-size: 60px; font-family: BACS"">NaJbYkZ</p>","","","","","","","",""
"html-keyboard-response","192","355569","0.0-11.0-0.23","608abc6251feb3ddc3b2e01d","64b003020eef62ee308107cc","64b0348b7deedf564310bb85","null","null","<p style=""font-size: 60px; font-family: BACS"">EMbDPdBC</p>","","","","","","","",""
"html-keyboard-response","193","356570","0.0-11.0-0.24","608abc6251feb3ddc3b2e01d","64b003020eef62ee308107cc","64b0348b7deedf564310bb85","null","null","<p style=""font-size: 60px; font-family: BACS"">OJGQcUN</p>","","","","","","","",""
"html-keyboard-response","194","357581","0.0-11.0-0.25","608abc6251feb3ddc3b2e01d","64b003020eef62ee308107cc","64b0348b7deedf564310bb85","null","null","<p style=""font-size: 60px; font-family: BACS"">dKRDCMdP</p>","","","","","","","",""
"html-keyboard-response","195","358585","0.0-11.0-0.26","608abc6251feb3ddc3b2e01d","64b003020eef62ee308107cc","64b0348b7deedf564310bb85","null","null","<p style=""font-size: 60px; font-family: BACS"">auYAkYkZ</p>","","","","","","","",""
"html-keyboard-response","196","359586","0.0-11.0-0.27","608abc6251feb3ddc3b2e01d","64b003020eef62ee308107cc","64b0348b7deedf564310bb85","null","null","<p style=""font-size: 60px; font-family: BACS"">EMbDPCMdP</p>","","","","","","","",""
"html-keyboard-response","197","360589","0.0-11.0-0.28","608abc6251feb3ddc3b2e01d","64b003020eef62ee308107cc","64b0348b7deedf564310bb85","null","null","<p style=""font-size: 60px; font-family: BACS"">COtBDbRC</p>","","","","","","","",""
"html-keyboard-response","198","361595","0.0-11.0-0.29","608abc6251feb3ddc3b2e01d","64b003020eef62ee308107cc","64b0348b7deedf564310bb85","null","null","<p style=""font-size: 60px; font-family: BACS"">chAhCMdP</p>","","","","","","","",""
"html-keyboard-response","199","362596","0.0-11.0-0.30","608abc6251feb3ddc3b2e01d","64b003020eef62ee308107cc","64b0348b7deedf564310bb85","null","null","<p style=""font-size: 60px; font-family: BACS"">COtBDdBC</p>","","","","","","","",""
"html-keyboard-response","200","363607","0.0-11.0-0.31","608abc6251feb3ddc3b2e01d","64b003020eef62ee308107cc","64b0348b7deedf564310bb85","null","null","<p style=""font-size: 60px; font-family: BACS"">rbYbuOQAr</p>","","","","","","","",""
"html-keyboard-response","201","364623","0.0-11.0-0.32","608abc6251feb3ddc3b2e01d","64b003020eef62ee308107cc","64b0348b7deedf564310bb85","null","null","<p style=""font-size: 60px; font-family: BACS"">auYAklLG</p>","","","","","","","",""
"html-keyboard-response","202","365626","0.0-11.0-0.33","608abc6251feb3ddc3b2e01d","64b003020eef62ee308107cc","64b0348b7deedf564310bb85","null","null","<p style=""font-size: 60px; font-family: BACS"">OJGQlvk</p>","","","","","","","",""
"html-keyboard-response","203","366630","0.0-11.0-0.34","608abc6251feb3ddc3b2e01d","64b003020eef62ee308107cc","64b0348b7deedf564310bb85","null","null","<p style=""font-size: 60px; font-family: BACS"">EMbDPbRC</p>","","","","","","","",""
"html-keyboard-response","204","367644","0.0-11.0-0.35","608abc6251feb3ddc3b2e01d","64b003020eef62ee308107cc","64b0348b7deedf564310bb85","null","null","<p style=""font-size: 60px; font-family: BACS"">rcmuvlvk</p>","","","","","","","",""
"html-keyboard-response","205","368648","0.0-11.0-0.36","608abc6251feb3ddc3b2e01d","64b003020eef62ee308107cc","64b0348b7deedf564310bb85","null","null","<p style=""font-size: 60px; font-family: BACS"">rbYbulLG</p>","","","","","","","",""
"html-keyboard-response","206","369653","0.0-11.0-0.37","608abc6251feb3ddc3b2e01d","64b003020eef62ee308107cc","64b0348b7deedf564310bb85","null","null","<p style=""font-size: 60px; font-family: BACS"">COtBDCMdP</p>","","","","","","","",""
"html-keyboard-response","207","370659","0.0-11.0-0.38","608abc6251feb3ddc3b2e01d","64b003020eef62ee308107cc","64b0348b7deedf564310bb85","null","null","<p style=""font-size: 60px; font-family: BACS"">dKRDEKBO</p>","","","","","","","",""
"html-keyboard-response","208","371665","0.0-11.0-0.39","608abc6251feb3ddc3b2e01d","64b003020eef62ee308107cc","64b0348b7deedf564310bb85","null","null","<p style=""font-size: 60px; font-family: BACS"">hCktbRC</p>","","","","","","","",""
"html-keyboard-response","209","372679","0.0-11.0-0.40","608abc6251feb3ddc3b2e01d","64b003020eef62ee308107cc","64b0348b7deedf564310bb85","null","null","<p style=""font-size: 60px; font-family: BACS"">LdQvOQAr</p>","","","","","","","",""
"html-keyboard-response","210","373691","0.0-11.0-0.41","608abc6251feb3ddc3b2e01d","64b003020eef62ee308107cc","64b0348b7deedf564310bb85","null","null","<p style=""font-size: 60px; font-family: BACS"">OJGQlLG</p>","","","","","","","",""
"html-keyboard-response","211","374696","0.0-11.0-0.42","608abc6251feb3ddc3b2e01d","64b003020eef62ee308107cc","64b0348b7deedf564310bb85","null","null","<p style=""font-size: 60px; font-family: BACS"">DOBhYMCkm</p>","","","","","","","",""
"html-keyboard-response","212","375704","0.0-11.0-0.43","608abc6251feb3ddc3b2e01d","64b003020eef62ee308107cc","64b0348b7deedf564310bb85","null","null","<p style=""font-size: 60px; font-family: BACS"">rcmuvcUN</p>","","","","","","","",""
"html-keyboard-response","213","376710","0.0-11.0-0.44","608abc6251feb3ddc3b2e01d","64b003020eef62ee308107cc","64b0348b7deedf564310bb85","null","null","<p style=""font-size: 60px; font-family: BACS"">JauQYkZ</p>","","","","","","","",""
"html-keyboard-response","214","377719","0.0-11.0-0.45","608abc6251feb3ddc3b2e01d","64b003020eef62ee308107cc","64b0348b7deedf564310bb85","null","null","<p style=""font-size: 60px; font-family: BACS"">DOBhYCMdP</p>","","","","","","","",""
"html-keyboard-response","215","378723","0.0-11.0-0.46","608abc6251feb3ddc3b2e01d","64b003020eef62ee308107cc","64b0348b7deedf564310bb85","null","null","<p style=""font-size: 60px; font-family: BACS"">hCktEKBO</p>","","","","","","","",""
"html-keyboard-response","216","379734","0.0-11.0-0.47","608abc6251feb3ddc3b2e01d","64b003020eef62ee308107cc","64b0348b7deedf564310bb85","null","null","<p style=""font-size: 60px; font-family: BACS"">dKRDMCkm</p>","","","","","","","",""
"html-keyboard-response","217","380747","0.0-11.0-0.48","608abc6251feb3ddc3b2e01d","64b003020eef62ee308107cc","64b0348b7deedf564310bb85","null","null","<p style=""font-size: 60px; font-family: BACS"">OJGQYkZ</p>","","","","","","","",""
"html-keyboard-response","218","381748","0.0-11.0-0.49","608abc6251feb3ddc3b2e01d","64b003020eef62ee308107cc","64b0348b7deedf564310bb85","null","null","<p style=""font-size: 60px; font-family: BACS"">auYAkcUN</p>","","","","","","","",""
"html-keyboard-response","219","382749","0.0-11.0-0.50","608abc6251feb3ddc3b2e01d","64b003020eef62ee308107cc","64b0348b7deedf564310bb85","null","null","<p style=""font-size: 60px; font-family: BACS"">JmNklvk</p>","","","","","","","",""
"html-keyboard-response","220","383749","0.0-11.0-0.51","608abc6251feb3ddc3b2e01d","64b003020eef62ee308107cc","64b0348b7deedf564310bb85","null","null","<p style=""font-size: 60px; font-family: BACS"">LdQvYkZ</p>","","","","","","","",""
"html-keyboard-response","221","384754","0.0-11.0-0.52","608abc6251feb3ddc3b2e01d","64b003020eef62ee308107cc","64b0348b7deedf564310bb85","null","null","<p style=""font-size: 60px; font-family: BACS"">OtlRbRC</p>","","","","","","","",""
"html-keyboard-response","222","385760","0.0-11.0-0.53","608abc6251feb3ddc3b2e01d","64b003020eef62ee308107cc","64b0348b7deedf564310bb85","null","null","<p style=""font-size: 60px; font-family: BACS"">KTDTBMCkm</p>","","","","","","","",""
"html-keyboard-response","223","386766","0.0-11.0-0.54","608abc6251feb3ddc3b2e01d","64b003020eef62ee308107cc","64b0348b7deedf564310bb85","null","null","<p style=""font-size: 60px; font-family: BACS"">GabklLG</p>","","","","","","","",""
"html-keyboard-response","224","387772","0.0-11.0-0.55","608abc6251feb3ddc3b2e01d","64b003020eef62ee308107cc","64b0348b7deedf564310bb85","null","null","<p style=""font-size: 60px; font-family: BACS"">tKDmhEKBO</p>","","","","","","","",""
"html-keyboard-response","225","388779","0.0-11.0-0.56","608abc6251feb3ddc3b2e01d","64b003020eef62ee308107cc","64b0348b7deedf564310bb85","null","null","<p style=""font-size: 60px; font-family: BACS"">rbYbulvk</p>","","","","","","","",""
"html-keyboard-response","226","389784","0.0-11.0-0.57","608abc6251feb3ddc3b2e01d","64b003020eef62ee308107cc","64b0348b7deedf564310bb85","null","null","<p style=""font-size: 60px; font-family: BACS"">TdTDMCkm</p>","","","","","","","",""
"html-keyboard-response","227","390793","0.0-11.0-0.58","608abc6251feb3ddc3b2e01d","64b003020eef62ee308107cc","64b0348b7deedf564310bb85","null","null","<p style=""font-size: 60px; font-family: BACS"">OtlRdBC</p>","","","","","","","",""
"html-keyboard-response","228","391795","0.0-11.0-0.59","608abc6251feb3ddc3b2e01d","64b003020eef62ee308107cc","64b0348b7deedf564310bb85","null","null","<p style=""font-size: 60px; font-family: BACS"">NaJbcUN</p>","","","","","","","",""
"html-keyboard-response","229","392810","0.0-11.0-0.60","608abc6251feb3ddc3b2e01d","64b003020eef62ee308107cc","64b0348b7deedf564310bb85","null","null","<p style=""font-size: 60px; font-family: BACS"">dKRDbRC</p>","","","","","","","",""
"html-keyboard-response","230","393813","0.0-11.0-0.61","608abc6251feb3ddc3b2e01d","64b003020eef62ee308107cc","64b0348b7deedf564310bb85","null","null","<p style=""font-size: 60px; font-family: BACS"">NaJblLG</p>","","","","","","","",""
"html-keyboard-response","231","394822","0.0-11.0-0.62","608abc6251feb3ddc3b2e01d","64b003020eef62ee308107cc","64b0348b7deedf564310bb85","null","null","<p style=""font-size: 60px; font-family: BACS"">JauQcUN</p>","","","","","","","",""
"html-keyboard-response","232","395835","0.0-11.0-0.63","608abc6251feb3ddc3b2e01d","64b003020eef62ee308107cc","64b0348b7deedf564310bb85","null","null","<p style=""font-size: 60px; font-family: BACS"">COtBDMCkm</p>","","","","","","","",""
"html-keyboard-response","233","396851","0.0-11.0-0.64","608abc6251feb3ddc3b2e01d","64b003020eef62ee308107cc","64b0348b7deedf564310bb85","null","null","<p style=""font-size: 60px; font-family: BACS"">LdQvcUN</p>","","","","","","","",""
"html-keyboard-response","234","397860","0.0-11.0-0.65","608abc6251feb3ddc3b2e01d","64b003020eef62ee308107cc","64b0348b7deedf564310bb85","null","null","<p style=""font-size: 60px; font-family: BACS"">chAhEKBO</p>","","","","","","","",""
"html-keyboard-response","235","398872","0.0-11.0-0.66","608abc6251feb3ddc3b2e01d","64b003020eef62ee308107cc","64b0348b7deedf564310bb85","null","null","<p style=""font-size: 60px; font-family: BACS"">KTDTBCMdP</p>","","","","","","","",""
"html-keyboard-response","236","399872","0.0-11.0-0.67","608abc6251feb3ddc3b2e01d","64b003020eef62ee308107cc","64b0348b7deedf564310bb85","null","null","<p style=""font-size: 60px; font-family: BACS"">TdTDbRC</p>","","","","","","","",""
"html-keyboard-response","237","400888","0.0-11.0-0.68","608abc6251feb3ddc3b2e01d","64b003020eef62ee308107cc","64b0348b7deedf564310bb85","null","null","<p style=""font-size: 60px; font-family: BACS"">GabkOQAr</p>","","","","","","","",""
"html-keyboard-response","238","401899","0.0-11.0-0.69","608abc6251feb3ddc3b2e01d","64b003020eef62ee308107cc","64b0348b7deedf564310bb85","null","null","<p style=""font-size: 60px; font-family: BACS"">hCktMCkm</p>","","","","","","","",""
"html-keyboard-response","239","402909","0.0-11.0-0.70","608abc6251feb3ddc3b2e01d","64b003020eef62ee308107cc","64b0348b7deedf564310bb85","null","null","<p style=""font-size: 60px; font-family: BACS"">UdlGQcUN</p>","","","","","","","",""
"html-keyboard-response","240","403916","0.0-11.0-0.71","608abc6251feb3ddc3b2e01d","64b003020eef62ee308107cc","64b0348b7deedf564310bb85","null","null","<p style=""font-size: 60px; font-family: BACS"">rcmuvOQAr</p>","","","","","","","",""
"html-keyboard-response","241","404931","0.0-11.0-0.72","608abc6251feb3ddc3b2e01d","64b003020eef62ee308107cc","64b0348b7deedf564310bb85","null","null","<p style=""font-size: 60px; font-family: BACS"">Gabklvk</p>","","","","","","","",""
"html-keyboard-response","242","405931","0.0-11.0-0.73","608abc6251feb3ddc3b2e01d","64b003020eef62ee308107cc","64b0348b7deedf564310bb85","null","null","<p style=""font-size: 60px; font-family: BACS"">rcmuvlLG</p>","","","","","","","",""
"html-keyboard-response","243","406935","0.0-11.0-0.74","608abc6251feb3ddc3b2e01d","64b003020eef62ee308107cc","64b0348b7deedf564310bb85","null","null","<p style=""font-size: 60px; font-family: BACS"">tKDmhMCkm</p>","","","","","","","",""
"html-keyboard-response","244","407943","0.0-11.0-0.75","608abc6251feb3ddc3b2e01d","64b003020eef62ee308107cc","64b0348b7deedf564310bb85","null","null","<p style=""font-size: 60px; font-family: BACS"">KTDTBbRC</p>","","","","","","","",""
"html-keyboard-response","245","408944","0.0-11.0-0.76","608abc6251feb3ddc3b2e01d","64b003020eef62ee308107cc","64b0348b7deedf564310bb85","null","null","<p style=""font-size: 60px; font-family: BACS"">JmNklLG</p>","","","","","","","",""
"html-keyboard-response","246","409951","0.0-11.0-0.77","608abc6251feb3ddc3b2e01d","64b003020eef62ee308107cc","64b0348b7deedf564310bb85","null","null","<p style=""font-size: 60px; font-family: BACS"">chAhdBC</p>","","","","","","","",""
"html-keyboard-response","247","410961","0.0-11.0-0.78","608abc6251feb3ddc3b2e01d","64b003020eef62ee308107cc","64b0348b7deedf564310bb85","null","null","<p style=""font-size: 60px; font-family: BACS"">JmNkOQAr</p>","","","","","","","",""
"html-keyboard-response","248","411970","0.0-11.0-0.79","608abc6251feb3ddc3b2e01d","64b003020eef62ee308107cc","64b0348b7deedf564310bb85","null","null","<p style=""font-size: 60px; font-family: BACS"">TdTDdBC</p>","","","","","","","",""
"html-keyboard-response","249","414758","0.0-12.0","608abc6251feb3ddc3b2e01d","64b003020eef62ee308107cc","64b0348b7deedf564310bb85","2788"," ","<p>Ottimo, hai visto il terzo blocco di parole. Ora puoi prenderti una piccola pausa.</p>
      <p>Premi la barra quando sei pronta/o per riprendere.</p>","","","","","","","",""
"html-keyboard-response","250","415773","0.0-13.0-0.0","608abc6251feb3ddc3b2e01d","64b003020eef62ee308107cc","64b0348b7deedf564310bb85","null","null","<p style=""font-size: 60px; font-family: BACS"">rcmuvlvk</p>","","","","","","","",""
"html-keyboard-response","251","416783","0.0-13.0-0.1","608abc6251feb3ddc3b2e01d","64b003020eef62ee308107cc","64b0348b7deedf564310bb85","null","null","<p style=""font-size: 60px; font-family: BACS"">tKDmhCMdP</p>","","","","","","","",""
"html-keyboard-response","252","417790","0.0-13.0-0.2","608abc6251feb3ddc3b2e01d","64b003020eef62ee308107cc","64b0348b7deedf564310bb85","null","null","<p style=""font-size: 60px; font-family: BACS"">rcmuvlLG</p>","","","","","","","",""
"html-keyboard-response","253","418795","0.0-13.0-0.3","608abc6251feb3ddc3b2e01d","64b003020eef62ee308107cc","64b0348b7deedf564310bb85","null","null","<p style=""font-size: 60px; font-family: BACS"">EMbDPdBC</p>","","","","","","","",""
"html-keyboard-response","254","419803","0.0-13.0-0.4","608abc6251feb3ddc3b2e01d","64b003020eef62ee308107cc","64b0348b7deedf564310bb85","null","null","<p style=""font-size: 60px; font-family: BACS"">DOBhYCMdP</p>","","","","","","","",""
"html-keyboard-response","255","420815","0.0-13.0-0.5","608abc6251feb3ddc3b2e01d","64b003020eef62ee308107cc","64b0348b7deedf564310bb85","null","null","<p style=""font-size: 60px; font-family: BACS"">rbYbucUN</p>","","","","","","","",""
"html-keyboard-response","256","421823","0.0-13.0-0.6","608abc6251feb3ddc3b2e01d","64b003020eef62ee308107cc","64b0348b7deedf564310bb85","null","null","<p style=""font-size: 60px; font-family: BACS"">rcmuvOQAr</p>","","","","","","","",""
"html-keyboard-response","257","422824","0.0-13.0-0.7","608abc6251feb3ddc3b2e01d","64b003020eef62ee308107cc","64b0348b7deedf564310bb85","null","null","<p style=""font-size: 60px; font-family: BACS"">tKDmhMCkm</p>","","","","","","","",""
"html-keyboard-response","258","423838","0.0-13.0-0.8","608abc6251feb3ddc3b2e01d","64b003020eef62ee308107cc","64b0348b7deedf564310bb85","null","null","<p style=""font-size: 60px; font-family: BACS"">LdQvlvk</p>","","","","","","","",""
"html-keyboard-response","259","424842","0.0-13.0-0.9","608abc6251feb3ddc3b2e01d","64b003020eef62ee308107cc","64b0348b7deedf564310bb85","null","null","<p style=""font-size: 60px; font-family: BACS"">auYAkcUN</p>","","","","","","","",""
"html-keyboard-response","260","425858","0.0-13.0-0.10","608abc6251feb3ddc3b2e01d","64b003020eef62ee308107cc","64b0348b7deedf564310bb85","null","null","<p style=""font-size: 60px; font-family: BACS"">EMbDPCMdP</p>","","","","","","","",""
"html-keyboard-response","261","426872","0.0-13.0-0.11","608abc6251feb3ddc3b2e01d","64b003020eef62ee308107cc","64b0348b7deedf564310bb85","null","null","<p style=""font-size: 60px; font-family: BACS"">NaJbYkZ</p>","","","","","","","",""
"html-keyboard-response","262","427874","0.0-13.0-0.12","608abc6251feb3ddc3b2e01d","64b003020eef62ee308107cc","64b0348b7deedf564310bb85","null","null","<p style=""font-size: 60px; font-family: BACS"">OJGQlvk</p>","","","","","","","",""
"html-keyboard-response","263","428877","0.0-13.0-0.13","608abc6251feb3ddc3b2e01d","64b003020eef62ee308107cc","64b0348b7deedf564310bb85","null","null","<p style=""font-size: 60px; font-family: BACS"">JmNklLG</p>","","","","","","","",""
"html-keyboard-response","264","429879","0.0-13.0-0.14","608abc6251feb3ddc3b2e01d","64b003020eef62ee308107cc","64b0348b7deedf564310bb85","null","null","<p style=""font-size: 60px; font-family: BACS"">dKRDCMdP</p>","","","","","","","",""
"html-keyboard-response","265","430880","0.0-13.0-0.15","608abc6251feb3ddc3b2e01d","64b003020eef62ee308107cc","64b0348b7deedf564310bb85","null","null","<p style=""font-size: 60px; font-family: BACS"">UdlGQcUN</p>","","","","","","","",""
"html-keyboard-response","266","431889","0.0-13.0-0.16","608abc6251feb3ddc3b2e01d","64b003020eef62ee308107cc","64b0348b7deedf564310bb85","null","null","<p style=""font-size: 60px; font-family: BACS"">DOBhYMCkm</p>","","","","","","","",""
"html-keyboard-response","267","432902","0.0-13.0-0.17","608abc6251feb3ddc3b2e01d","64b003020eef62ee308107cc","64b0348b7deedf564310bb85","null","null","<p style=""font-size: 60px; font-family: BACS"">chAhdBC</p>","","","","","","","",""
"html-keyboard-response","268","433907","0.0-13.0-0.18","608abc6251feb3ddc3b2e01d","64b003020eef62ee308107cc","64b0348b7deedf564310bb85","null","null","<p style=""font-size: 60px; font-family: BACS"">auYAklLG</p>","","","","","","","",""
"html-keyboard-response","269","434909","0.0-13.0-0.19","608abc6251feb3ddc3b2e01d","64b003020eef62ee308107cc","64b0348b7deedf564310bb85","null","null","<p style=""font-size: 60px; font-family: BACS"">hCktbRC</p>","","","","","","","",""
"html-keyboard-response","270","435921","0.0-13.0-0.20","608abc6251feb3ddc3b2e01d","64b003020eef62ee308107cc","64b0348b7deedf564310bb85","null","null","<p style=""font-size: 60px; font-family: BACS"">NaJbcUN</p>","","","","","","","",""
"html-keyboard-response","271","436925","0.0-13.0-0.21","608abc6251feb3ddc3b2e01d","64b003020eef62ee308107cc","64b0348b7deedf564310bb85","null","null","<p style=""font-size: 60px; font-family: BACS"">KTDTBMCkm</p>","","","","","","","",""
"html-keyboard-response","272","437940","0.0-13.0-0.22","608abc6251feb3ddc3b2e01d","64b003020eef62ee308107cc","64b0348b7deedf564310bb85","null","null","<p style=""font-size: 60px; font-family: BACS"">TdTDdBC</p>","","","","","","","",""
"html-keyboard-response","273","438945","0.0-13.0-0.23","608abc6251feb3ddc3b2e01d","64b003020eef62ee308107cc","64b0348b7deedf564310bb85","null","null","<p style=""font-size: 60px; font-family: BACS"">JmNkYkZ</p>","","","","","","","",""
"html-keyboard-response","274","439959","0.0-13.0-0.24","608abc6251feb3ddc3b2e01d","64b003020eef62ee308107cc","64b0348b7deedf564310bb85","null","null","<p style=""font-size: 60px; font-family: BACS"">JauQOQAr</p>","","","","","","","",""
"html-keyboard-response","275","440973","0.0-13.0-0.25","608abc6251feb3ddc3b2e01d","64b003020eef62ee308107cc","64b0348b7deedf564310bb85","null","null","<p style=""font-size: 60px; font-family: BACS"">chAhMCkm</p>","","","","","","","",""
"html-keyboard-response","276","441982","0.0-13.0-0.26","608abc6251feb3ddc3b2e01d","64b003020eef62ee308107cc","64b0348b7deedf564310bb85","null","null","<p style=""font-size: 60px; font-family: BACS"">LdQvOQAr</p>","","","","","","","",""
"html-keyboard-response","277","442984","0.0-13.0-0.27","608abc6251feb3ddc3b2e01d","64b003020eef62ee308107cc","64b0348b7deedf564310bb85","null","null","<p style=""font-size: 60px; font-family: BACS"">hCktMCkm</p>","","","","","","","",""
"html-keyboard-response","278","443985","0.0-13.0-0.28","608abc6251feb3ddc3b2e01d","64b003020eef62ee308107cc","64b0348b7deedf564310bb85","null","null","<p style=""font-size: 60px; font-family: BACS"">TdTDbRC</p>","","","","","","","",""
"html-keyboard-response","279","444989","0.0-13.0-0.29","608abc6251feb3ddc3b2e01d","64b003020eef62ee308107cc","64b0348b7deedf564310bb85","null","null","<p style=""font-size: 60px; font-family: BACS"">rbYbulvk</p>","","","","","","","",""
"html-keyboard-response","280","445998","0.0-13.0-0.30","608abc6251feb3ddc3b2e01d","64b003020eef62ee308107cc","64b0348b7deedf564310bb85","null","null","<p style=""font-size: 60px; font-family: BACS"">OJGQcUN</p>","","","","","","","",""
"html-keyboard-response","281","447011","0.0-13.0-0.31","608abc6251feb3ddc3b2e01d","64b003020eef62ee308107cc","64b0348b7deedf564310bb85","null","null","<p style=""font-size: 60px; font-family: BACS"">TdTDEKBO</p>","","","","","","","",""
"html-keyboard-response","282","448020","0.0-13.0-0.32","608abc6251feb3ddc3b2e01d","64b003020eef62ee308107cc","64b0348b7deedf564310bb85","null","null","<p style=""font-size: 60px; font-family: BACS"">UdlGQYkZ</p>","","","","","","","",""
"html-keyboard-response","283","449021","0.0-13.0-0.33","608abc6251feb3ddc3b2e01d","64b003020eef62ee308107cc","64b0348b7deedf564310bb85","null","null","<p style=""font-size: 60px; font-family: BACS"">dKRDEKBO</p>","","","","","","","",""
"html-keyboard-response","284","450022","0.0-13.0-0.34","608abc6251feb3ddc3b2e01d","64b003020eef62ee308107cc","64b0348b7deedf564310bb85","null","null","<p style=""font-size: 60px; font-family: BACS"">UdlGQOQAr</p>","","","","","","","",""
"html-keyboard-response","285","451023","0.0-13.0-0.35","608abc6251feb3ddc3b2e01d","64b003020eef62ee308107cc","64b0348b7deedf564310bb85","null","null","<p style=""font-size: 60px; font-family: BACS"">GabklLG</p>","","","","","","","",""
"html-keyboard-response","286","452037","0.0-13.0-0.36","608abc6251feb3ddc3b2e01d","64b003020eef62ee308107cc","64b0348b7deedf564310bb85","null","null","<p style=""font-size: 60px; font-family: BACS"">rbYbuOQAr</p>","","","","","","","",""
"html-keyboard-response","287","453051","0.0-13.0-0.37","608abc6251feb3ddc3b2e01d","64b003020eef62ee308107cc","64b0348b7deedf564310bb85","null","null","<p style=""font-size: 60px; font-family: BACS"">JauQYkZ</p>","","","","","","","",""
"html-keyboard-response","288","454052","0.0-13.0-0.38","608abc6251feb3ddc3b2e01d","64b003020eef62ee308107cc","64b0348b7deedf564310bb85","null","null","<p style=""font-size: 60px; font-family: BACS"">JmNklvk</p>","","","","","","","",""
"html-keyboard-response","289","455053","0.0-13.0-0.39","608abc6251feb3ddc3b2e01d","64b003020eef62ee308107cc","64b0348b7deedf564310bb85","null","null","<p style=""font-size: 60px; font-family: BACS"">OJGQYkZ</p>","","","","","","","",""
"html-keyboard-response","290","456058","0.0-13.0-0.40","608abc6251feb3ddc3b2e01d","64b003020eef62ee308107cc","64b0348b7deedf564310bb85","null","null","<p style=""font-size: 60px; font-family: BACS"">KTDTBCMdP</p>","","","","","","","",""
"html-keyboard-response","291","457071","0.0-13.0-0.41","608abc6251feb3ddc3b2e01d","64b003020eef62ee308107cc","64b0348b7deedf564310bb85","null","null","<p style=""font-size: 60px; font-family: BACS"">DOBhYEKBO</p>","","","","","","","",""
"html-keyboard-response","292","458086","0.0-13.0-0.42","608abc6251feb3ddc3b2e01d","64b003020eef62ee308107cc","64b0348b7deedf564310bb85","null","null","<p style=""font-size: 60px; font-family: BACS"">dKRDMCkm</p>","","","","","","","",""
"html-keyboard-response","293","459088","0.0-13.0-0.43","608abc6251feb3ddc3b2e01d","64b003020eef62ee308107cc","64b0348b7deedf564310bb85","null","null","<p style=""font-size: 60px; font-family: BACS"">JauQlLG</p>","","","","","","","",""
"html-keyboard-response","294","460089","0.0-13.0-0.44","608abc6251feb3ddc3b2e01d","64b003020eef62ee308107cc","64b0348b7deedf564310bb85","null","null","<p style=""font-size: 60px; font-family: BACS"">GabkYkZ</p>","","","","","","","",""
"html-keyboard-response","295","461097","0.0-13.0-0.45","608abc6251feb3ddc3b2e01d","64b003020eef62ee308107cc","64b0348b7deedf564310bb85","null","null","<p style=""font-size: 60px; font-family: BACS"">EMbDPEKBO</p>","","","","","","","",""
"html-keyboard-response","296","462105","0.0-13.0-0.46","608abc6251feb3ddc3b2e01d","64b003020eef62ee308107cc","64b0348b7deedf564310bb85","null","null","<p style=""font-size: 60px; font-family: BACS"">dKRDbRC</p>","","","","","","","",""
"html-keyboard-response","297","463105","0.0-13.0-0.47","608abc6251feb3ddc3b2e01d","64b003020eef62ee308107cc","64b0348b7deedf564310bb85","null","null","<p style=""font-size: 60px; font-family: BACS"">rbYbulLG</p>","","","","","","","",""
"html-keyboard-response","298","464106","0.0-13.0-0.48","608abc6251feb3ddc3b2e01d","64b003020eef62ee308107cc","64b0348b7deedf564310bb85","null","null","<p style=""font-size: 60px; font-family: BACS"">TdTDMCkm</p>","","","","","","","",""
"html-keyboard-response","299","465107","0.0-13.0-0.49","608abc6251feb3ddc3b2e01d","64b003020eef62ee308107cc","64b0348b7deedf564310bb85","null","null","<p style=""font-size: 60px; font-family: BACS"">auYAklvk</p>","","","","","","","",""
"html-keyboard-response","300","466121","0.0-13.0-0.50","608abc6251feb3ddc3b2e01d","64b003020eef62ee308107cc","64b0348b7deedf564310bb85","null","null","<p style=""font-size: 60px; font-family: BACS"">rcmuvcUN</p>","","","","","","","",""
"html-keyboard-response","301","467122","0.0-13.0-0.51","608abc6251feb3ddc3b2e01d","64b003020eef62ee308107cc","64b0348b7deedf564310bb85","null","null","<p style=""font-size: 60px; font-family: BACS"">chAhEKBO</p>","","","","","","","",""
"html-keyboard-response","302","468137","0.0-13.0-0.52","608abc6251feb3ddc3b2e01d","64b003020eef62ee308107cc","64b0348b7deedf564310bb85","null","null","<p style=""font-size: 60px; font-family: BACS"">Gabklvk</p>","","","","","","","",""
"html-keyboard-response","303","469137","0.0-13.0-0.53","608abc6251feb3ddc3b2e01d","64b003020eef62ee308107cc","64b0348b7deedf564310bb85","null","null","<p style=""font-size: 60px; font-family: BACS"">COtBDMCkm</p>","","","","","","","",""
"html-keyboard-response","304","470138","0.0-13.0-0.54","608abc6251feb3ddc3b2e01d","64b003020eef62ee308107cc","64b0348b7deedf564310bb85","null","null","<p style=""font-size: 60px; font-family: BACS"">LdQvYkZ</p>","","","","","","","",""
"html-keyboard-response","305","471139","0.0-13.0-0.55","608abc6251feb3ddc3b2e01d","64b003020eef62ee308107cc","64b0348b7deedf564310bb85","null","null","<p style=""font-size: 60px; font-family: BACS"">OtlREKBO</p>","","","","","","","",""
"html-keyboard-response","306","472140","0.0-13.0-0.56","608abc6251feb3ddc3b2e01d","64b003020eef62ee308107cc","64b0348b7deedf564310bb85","null","null","<p style=""font-size: 60px; font-family: BACS"">tKDmhdBC</p>","","","","","","","",""
"html-keyboard-response","307","473152","0.0-13.0-0.57","608abc6251feb3ddc3b2e01d","64b003020eef62ee308107cc","64b0348b7deedf564310bb85","null","null","<p style=""font-size: 60px; font-family: BACS"">EMbDPbRC</p>","","","","","","","",""
"html-keyboard-response","308","474153","0.0-13.0-0.58","608abc6251feb3ddc3b2e01d","64b003020eef62ee308107cc","64b0348b7deedf564310bb85","null","null","<p style=""font-size: 60px; font-family: BACS"">COtBDCMdP</p>","","","","","","","",""
"html-keyboard-response","309","475155","0.0-13.0-0.59","608abc6251feb3ddc3b2e01d","64b003020eef62ee308107cc","64b0348b7deedf564310bb85","null","null","<p style=""font-size: 60px; font-family: BACS"">GabkOQAr</p>","","","","","","","",""
"html-keyboard-response","310","476167","0.0-13.0-0.60","608abc6251feb3ddc3b2e01d","64b003020eef62ee308107cc","64b0348b7deedf564310bb85","null","null","<p style=""font-size: 60px; font-family: BACS"">tKDmhEKBO</p>","","","","","","","",""
"html-keyboard-response","311","477168","0.0-13.0-0.61","608abc6251feb3ddc3b2e01d","64b003020eef62ee308107cc","64b0348b7deedf564310bb85","null","null","<p style=""font-size: 60px; font-family: BACS"">JauQcUN</p>","","","","","","","",""
"html-keyboard-response","312","478175","0.0-13.0-0.62","608abc6251feb3ddc3b2e01d","64b003020eef62ee308107cc","64b0348b7deedf564310bb85","null","null","<p style=""font-size: 60px; font-family: BACS"">NaJblLG</p>","","","","","","","",""
"html-keyboard-response","313","479183","0.0-13.0-0.63","608abc6251feb3ddc3b2e01d","64b003020eef62ee308107cc","64b0348b7deedf564310bb85","null","null","<p style=""font-size: 60px; font-family: BACS"">hCktdBC</p>","","","","","","","",""
"html-keyboard-response","314","480197","0.0-13.0-0.64","608abc6251feb3ddc3b2e01d","64b003020eef62ee308107cc","64b0348b7deedf564310bb85","null","null","<p style=""font-size: 60px; font-family: BACS"">LdQvcUN</p>","","","","","","","",""
"html-keyboard-response","315","481199","0.0-13.0-0.65","608abc6251feb3ddc3b2e01d","64b003020eef62ee308107cc","64b0348b7deedf564310bb85","null","null","<p style=""font-size: 60px; font-family: BACS"">NaJbOQAr</p>","","","","","","","",""
"html-keyboard-response","316","482213","0.0-13.0-0.66","608abc6251feb3ddc3b2e01d","64b003020eef62ee308107cc","64b0348b7deedf564310bb85","null","null","<p style=""font-size: 60px; font-family: BACS"">OtlRdBC</p>","","","","","","","",""
"html-keyboard-response","317","483225","0.0-13.0-0.67","608abc6251feb3ddc3b2e01d","64b003020eef62ee308107cc","64b0348b7deedf564310bb85","null","null","<p style=""font-size: 60px; font-family: BACS"">JmNkOQAr</p>","","","","","","","",""
"html-keyboard-response","318","484232","0.0-13.0-0.68","608abc6251feb3ddc3b2e01d","64b003020eef62ee308107cc","64b0348b7deedf564310bb85","null","null","<p style=""font-size: 60px; font-family: BACS"">OJGQlLG</p>","","","","","","","",""
"html-keyboard-response","319","485236","0.0-13.0-0.69","608abc6251feb3ddc3b2e01d","64b003020eef62ee308107cc","64b0348b7deedf564310bb85","null","null","<p style=""font-size: 60px; font-family: BACS"">OtlRbRC</p>","","","","","","","",""
"html-keyboard-response","320","486241","0.0-13.0-0.70","608abc6251feb3ddc3b2e01d","64b003020eef62ee308107cc","64b0348b7deedf564310bb85","null","null","<p style=""font-size: 60px; font-family: BACS"">COtBDdBC</p>","","","","","","","",""
"html-keyboard-response","321","487251","0.0-13.0-0.71","608abc6251feb3ddc3b2e01d","64b003020eef62ee308107cc","64b0348b7deedf564310bb85","null","null","<p style=""font-size: 60px; font-family: BACS"">KTDTBbRC</p>","","","","","","","",""
"html-keyboard-response","322","488257","0.0-13.0-0.72","608abc6251feb3ddc3b2e01d","64b003020eef62ee308107cc","64b0348b7deedf564310bb85","null","null","<p style=""font-size: 60px; font-family: BACS"">auYAkYkZ</p>","","","","","","","",""
"html-keyboard-response","323","489269","0.0-13.0-0.73","608abc6251feb3ddc3b2e01d","64b003020eef62ee308107cc","64b0348b7deedf564310bb85","null","null","<p style=""font-size: 60px; font-family: BACS"">chAhCMdP</p>","","","","","","","",""
"html-keyboard-response","324","490276","0.0-13.0-0.74","608abc6251feb3ddc3b2e01d","64b003020eef62ee308107cc","64b0348b7deedf564310bb85","null","null","<p style=""font-size: 60px; font-family: BACS"">KTDTBdBC</p>","","","","","","","",""
"html-keyboard-response","325","491281","0.0-13.0-0.75","608abc6251feb3ddc3b2e01d","64b003020eef62ee308107cc","64b0348b7deedf564310bb85","null","null","<p style=""font-size: 60px; font-family: BACS"">hCktEKBO</p>","","","","","","","",""
"html-keyboard-response","326","492291","0.0-13.0-0.76","608abc6251feb3ddc3b2e01d","64b003020eef62ee308107cc","64b0348b7deedf564310bb85","null","null","<p style=""font-size: 60px; font-family: BACS"">UdlGQlvk</p>","","","","","","","",""
"html-keyboard-response","327","493300","0.0-13.0-0.77","608abc6251feb3ddc3b2e01d","64b003020eef62ee308107cc","64b0348b7deedf564310bb85","null","null","<p style=""font-size: 60px; font-family: BACS"">DOBhYbRC</p>","","","","","","","",""
"html-keyboard-response","328","494305","0.0-13.0-0.78","608abc6251feb3ddc3b2e01d","64b003020eef62ee308107cc","64b0348b7deedf564310bb85","null","null","<p style=""font-size: 60px; font-family: BACS"">OtlRCMdP</p>","","","","","","","",""
"html-keyboard-response","329","495307","0.0-13.0-0.79","608abc6251feb3ddc3b2e01d","64b003020eef62ee308107cc","64b0348b7deedf564310bb85","null","null","<p style=""font-size: 60px; font-family: BACS"">COtBDbRC</p>","","","","","","","",""
"html-keyboard-response","330","498214","0.0-14.0","608abc6251feb3ddc3b2e01d","64b003020eef62ee308107cc","64b0348b7deedf564310bb85","2907"," ","<p>Ottimo, hai visto il quarto blocco di parole. Ora puoi prenderti una piccola pausa.</p>
      <p>Premi la barra quando sei pronta/o per riprendere.</p>","","","","","","","",""
"html-keyboard-response","331","499218","0.0-15.0-0.0","608abc6251feb3ddc3b2e01d","64b003020eef62ee308107cc","64b0348b7deedf564310bb85","null","null","<p style=""font-size: 60px; font-family: BACS"">rbYbulLG</p>","","","","","","","",""
"html-keyboard-response","332","500230","0.0-15.0-0.1","608abc6251feb3ddc3b2e01d","64b003020eef62ee308107cc","64b0348b7deedf564310bb85","null","null","<p style=""font-size: 60px; font-family: BACS"">rbYbulLG</p>","","","","","","","",""
"html-keyboard-response","333","501244","0.0-15.0-0.2","608abc6251feb3ddc3b2e01d","64b003020eef62ee308107cc","64b0348b7deedf564310bb85","null","null","<p style=""font-size: 60px; font-family: BACS"">rbYbulLG</p>","","","","","","","",""
"html-keyboard-response","334","502258","0.0-15.0-0.3","608abc6251feb3ddc3b2e01d","64b003020eef62ee308107cc","64b0348b7deedf564310bb85","null","null","<p style=""font-size: 60px; font-family: BACS"">rbYbulLG</p>","","","","","","","",""
"html-keyboard-response","335","503266","0.0-15.0-0.4","608abc6251feb3ddc3b2e01d","64b003020eef62ee308107cc","64b0348b7deedf564310bb85","null","null","<p style=""font-size: 60px; font-family: BACS"">rbYbulLG</p>","","","","","","","",""
"html-keyboard-response","336","504270","0.0-15.0-0.5","608abc6251feb3ddc3b2e01d","64b003020eef62ee308107cc","64b0348b7deedf564310bb85","null","null","<p style=""font-size: 60px; font-family: BACS"">rbYbulLG</p>","","","","","","","",""
"html-keyboard-response","337","505270","0.0-15.0-0.6","608abc6251feb3ddc3b2e01d","64b003020eef62ee308107cc","64b0348b7deedf564310bb85","null","null","<p style=""font-size: 60px; font-family: BACS"">rbYbulLG</p>","","","","","","","",""
"html-keyboard-response","338","506271","0.0-15.0-0.7","608abc6251feb3ddc3b2e01d","64b003020eef62ee308107cc","64b0348b7deedf564310bb85","null","null","<p style=""font-size: 60px; font-family: BACS"">rbYbulLG</p>","","","","","","","",""
"html-keyboard-response","339","507286","0.0-15.0-0.8","608abc6251feb3ddc3b2e01d","64b003020eef62ee308107cc","64b0348b7deedf564310bb85","null","null","<p style=""font-size: 60px; font-family: BACS"">rbYbulLG</p>","","","","","","","",""
"html-keyboard-response","340","508301","0.0-15.0-0.9","608abc6251feb3ddc3b2e01d","64b003020eef62ee308107cc","64b0348b7deedf564310bb85","null","null","<p style=""font-size: 60px; font-family: BACS"">rbYbulLG</p>","","","","","","","",""
"html-keyboard-response","341","509316","0.0-15.0-0.10","608abc6251feb3ddc3b2e01d","64b003020eef62ee308107cc","64b0348b7deedf564310bb85","null","null","<p style=""font-size: 60px; font-family: BACS"">rbYbulLG</p>","","","","","","","",""
"html-keyboard-response","342","510321","0.0-15.0-0.11","608abc6251feb3ddc3b2e01d","64b003020eef62ee308107cc","64b0348b7deedf564310bb85","null","null","<p style=""font-size: 60px; font-family: BACS"">rbYbulLG</p>","","","","","","","",""
"html-keyboard-response","343","511326","0.0-15.0-0.12","608abc6251feb3ddc3b2e01d","64b003020eef62ee308107cc","64b0348b7deedf564310bb85","null","null","<p style=""font-size: 60px; font-family: BACS"">rbYbulLG</p>","","","","","","","",""
"html-keyboard-response","344","512335","0.0-15.0-0.13","608abc6251feb3ddc3b2e01d","64b003020eef62ee308107cc","64b0348b7deedf564310bb85","null","null","<p style=""font-size: 60px; font-family: BACS"">rbYbulLG</p>","","","","","","","",""
"html-keyboard-response","345","513345","0.0-15.0-0.14","608abc6251feb3ddc3b2e01d","64b003020eef62ee308107cc","64b0348b7deedf564310bb85","null","null","<p style=""font-size: 60px; font-family: BACS"">rbYbulLG</p>","","","","","","","",""
"html-keyboard-response","346","514345","0.0-15.0-0.15","608abc6251feb3ddc3b2e01d","64b003020eef62ee308107cc","64b0348b7deedf564310bb85","null","null","<p style=""font-size: 60px; font-family: BACS"">rbYbulLG</p>","","","","","","","",""
"html-keyboard-response","347","515356","0.0-15.0-0.16","608abc6251feb3ddc3b2e01d","64b003020eef62ee308107cc","64b0348b7deedf564310bb85","null","null","<p style=""font-size: 60px; font-family: BACS"">rbYbulLG</p>","","","","","","","",""
"html-keyboard-response","348","516372","0.0-15.0-0.17","608abc6251feb3ddc3b2e01d","64b003020eef62ee308107cc","64b0348b7deedf564310bb85","null","null","<p style=""font-size: 60px; font-family: BACS"">rbYbulLG</p>","","","","","","","",""
"html-keyboard-response","349","517387","0.0-15.0-0.18","608abc6251feb3ddc3b2e01d","64b003020eef62ee308107cc","64b0348b7deedf564310bb85","null","null","<p style=""font-size: 60px; font-family: BACS"">rbYbulLG</p>","","","","","","","",""
"html-keyboard-response","350","518388","0.0-15.0-0.19","608abc6251feb3ddc3b2e01d","64b003020eef62ee308107cc","64b0348b7deedf564310bb85","null","null","<p style=""font-size: 60px; font-family: BACS"">rbYbulLG</p>","","","","","","","",""
"html-keyboard-response","351","519389","0.0-15.0-0.20","608abc6251feb3ddc3b2e01d","64b003020eef62ee308107cc","64b0348b7deedf564310bb85","null","null","<p style=""font-size: 60px; font-family: BACS"">rbYbulLG</p>","","","","","","","",""
"html-keyboard-response","352","520401","0.0-15.0-0.21","608abc6251feb3ddc3b2e01d","64b003020eef62ee308107cc","64b0348b7deedf564310bb85","null","null","<p style=""font-size: 60px; font-family: BACS"">rbYbulLG</p>","","","","","","","",""
"html-keyboard-response","353","521409","0.0-15.0-0.22","608abc6251feb3ddc3b2e01d","64b003020eef62ee308107cc","64b0348b7deedf564310bb85","null","null","<p style=""font-size: 60px; font-family: BACS"">rbYbulLG</p>","","","","","","","",""
"html-keyboard-response","354","522416","0.0-15.0-0.23","608abc6251feb3ddc3b2e01d","64b003020eef62ee308107cc","64b0348b7deedf564310bb85","null","null","<p style=""font-size: 60px; font-family: BACS"">rbYbulLG</p>","","","","","","","",""
"html-keyboard-response","355","523420","0.0-15.0-0.24","608abc6251feb3ddc3b2e01d","64b003020eef62ee308107cc","64b0348b7deedf564310bb85","null","null","<p style=""font-size: 60px; font-family: BACS"">rbYbulLG</p>","","","","","","","",""
"html-keyboard-response","356","524422","0.0-15.0-0.25","608abc6251feb3ddc3b2e01d","64b003020eef62ee308107cc","64b0348b7deedf564310bb85","null","null","<p style=""font-size: 60px; font-family: BACS"">rbYbulLG</p>","","","","","","","",""
"html-keyboard-response","357","525423","0.0-15.0-0.26","608abc6251feb3ddc3b2e01d","64b003020eef62ee308107cc","64b0348b7deedf564310bb85","null","null","<p style=""font-size: 60px; font-family: BACS"">rbYbulLG</p>","","","","","","","",""
"html-keyboard-response","358","526432","0.0-15.0-0.27","608abc6251feb3ddc3b2e01d","64b003020eef62ee308107cc","64b0348b7deedf564310bb85","null","null","<p style=""font-size: 60px; font-family: BACS"">rbYbulLG</p>","","","","","","","",""
"html-keyboard-response","359","527435","0.0-15.0-0.28","608abc6251feb3ddc3b2e01d","64b003020eef62ee308107cc","64b0348b7deedf564310bb85","null","null","<p style=""font-size: 60px; font-family: BACS"">rbYbulLG</p>","","","","","","","",""
"html-keyboard-response","360","528450","0.0-15.0-0.29","608abc6251feb3ddc3b2e01d","64b003020eef62ee308107cc","64b0348b7deedf564310bb85","null","null","<p style=""font-size: 60px; font-family: BACS"">rbYbulLG</p>","","","","","","","",""
"html-keyboard-response","361","529461","0.0-15.0-0.30","608abc6251feb3ddc3b2e01d","64b003020eef62ee308107cc","64b0348b7deedf564310bb85","null","null","<p style=""font-size: 60px; font-family: BACS"">rbYbulLG</p>","","","","","","","",""
"html-keyboard-response","362","530462","0.0-15.0-0.31","608abc6251feb3ddc3b2e01d","64b003020eef62ee308107cc","64b0348b7deedf564310bb85","null","null","<p style=""font-size: 60px; font-family: BACS"">rbYbulLG</p>","","","","","","","",""
"html-keyboard-response","363","531473","0.0-15.0-0.32","608abc6251feb3ddc3b2e01d","64b003020eef62ee308107cc","64b0348b7deedf564310bb85","null","null","<p style=""font-size: 60px; font-family: BACS"">rbYbulLG</p>","","","","","","","",""
"html-keyboard-response","364","532479","0.0-15.0-0.33","608abc6251feb3ddc3b2e01d","64b003020eef62ee308107cc","64b0348b7deedf564310bb85","null","null","<p style=""font-size: 60px; font-family: BACS"">rbYbulLG</p>","","","","","","","",""
"html-keyboard-response","365","533480","0.0-15.0-0.34","608abc6251feb3ddc3b2e01d","64b003020eef62ee308107cc","64b0348b7deedf564310bb85","null","null","<p style=""font-size: 60px; font-family: BACS"">rbYbulLG</p>","","","","","","","",""
"html-keyboard-response","366","534494","0.0-15.0-0.35","608abc6251feb3ddc3b2e01d","64b003020eef62ee308107cc","64b0348b7deedf564310bb85","null","null","<p style=""font-size: 60px; font-family: BACS"">rbYbulLG</p>","","","","","","","",""
"html-keyboard-response","367","535494","0.0-15.0-0.36","608abc6251feb3ddc3b2e01d","64b003020eef62ee308107cc","64b0348b7deedf564310bb85","null","null","<p style=""font-size: 60px; font-family: BACS"">rbYbulLG</p>","","","","","","","",""
"html-keyboard-response","368","536510","0.0-15.0-0.37","608abc6251feb3ddc3b2e01d","64b003020eef62ee308107cc","64b0348b7deedf564310bb85","null","null","<p style=""font-size: 60px; font-family: BACS"">rbYbulLG</p>","","","","","","","",""
"html-keyboard-response","369","537524","0.0-15.0-0.38","608abc6251feb3ddc3b2e01d","64b003020eef62ee308107cc","64b0348b7deedf564310bb85","null","null","<p style=""font-size: 60px; font-family: BACS"">rbYbulLG</p>","","","","","","","",""
"html-keyboard-response","370","538537","0.0-15.0-0.39","608abc6251feb3ddc3b2e01d","64b003020eef62ee308107cc","64b0348b7deedf564310bb85","null","null","<p style=""font-size: 60px; font-family: BACS"">rbYbulLG</p>","","","","","","","",""
"html-keyboard-response","371","539538","0.0-15.0-0.40","608abc6251feb3ddc3b2e01d","64b003020eef62ee308107cc","64b0348b7deedf564310bb85","null","null","<p style=""font-size: 60px; font-family: BACS"">rbYbulLG</p>","","","","","","","",""
"html-keyboard-response","372","540539","0.0-15.0-0.41","608abc6251feb3ddc3b2e01d","64b003020eef62ee308107cc","64b0348b7deedf564310bb85","null","null","<p style=""font-size: 60px; font-family: BACS"">rbYbulLG</p>","","","","","","","",""
"html-keyboard-response","373","541550","0.0-15.0-0.42","608abc6251feb3ddc3b2e01d","64b003020eef62ee308107cc","64b0348b7deedf564310bb85","null","null","<p style=""font-size: 60px; font-family: BACS"">rbYbulLG</p>","","","","","","","",""
"html-keyboard-response","374","542565","0.0-15.0-0.43","608abc6251feb3ddc3b2e01d","64b003020eef62ee308107cc","64b0348b7deedf564310bb85","null","null","<p style=""font-size: 60px; font-family: BACS"">rbYbulLG</p>","","","","","","","",""
"html-keyboard-response","375","543565","0.0-15.0-0.44","608abc6251feb3ddc3b2e01d","64b003020eef62ee308107cc","64b0348b7deedf564310bb85","null","null","<p style=""font-size: 60px; font-family: BACS"">rbYbulLG</p>","","","","","","","",""
"html-keyboard-response","376","544581","0.0-15.0-0.45","608abc6251feb3ddc3b2e01d","64b003020eef62ee308107cc","64b0348b7deedf564310bb85","null","null","<p style=""font-size: 60px; font-family: BACS"">rbYbulLG</p>","","","","","","","",""
"html-keyboard-response","377","545592","0.0-15.0-0.46","608abc6251feb3ddc3b2e01d","64b003020eef62ee308107cc","64b0348b7deedf564310bb85","null","null","<p style=""font-size: 60px; font-family: BACS"">rbYbulLG</p>","","","","","","","",""
"html-keyboard-response","378","546595","0.0-15.0-0.47","608abc6251feb3ddc3b2e01d","64b003020eef62ee308107cc","64b0348b7deedf564310bb85","null","null","<p style=""font-size: 60px; font-family: BACS"">rbYbulLG</p>","","","","","","","",""
"html-keyboard-response","379","547598","0.0-15.0-0.48","608abc6251feb3ddc3b2e01d","64b003020eef62ee308107cc","64b0348b7deedf564310bb85","null","null","<p style=""font-size: 60px; font-family: BACS"">rbYbulLG</p>","","","","","","","",""
"html-keyboard-response","380","548603","0.0-15.0-0.49","608abc6251feb3ddc3b2e01d","64b003020eef62ee308107cc","64b0348b7deedf564310bb85","null","null","<p style=""font-size: 60px; font-family: BACS"">rbYbulLG</p>","","","","","","","",""
"html-keyboard-response","381","549616","0.0-15.0-0.50","608abc6251feb3ddc3b2e01d","64b003020eef62ee308107cc","64b0348b7deedf564310bb85","null","null","<p style=""font-size: 60px; font-family: BACS"">rbYbulLG</p>","","","","","","","",""
"html-keyboard-response","382","550619","0.0-15.0-0.51","608abc6251feb3ddc3b2e01d","64b003020eef62ee308107cc","64b0348b7deedf564310bb85","null","null","<p style=""font-size: 60px; font-family: BACS"">rbYbulLG</p>","","","","","","","",""
"html-keyboard-response","383","551620","0.0-15.0-0.52","608abc6251feb3ddc3b2e01d","64b003020eef62ee308107cc","64b0348b7deedf564310bb85","null","null","<p style=""font-size: 60px; font-family: BACS"">rbYbulLG</p>","","","","","","","",""
"html-keyboard-response","384","552620","0.0-15.0-0.53","608abc6251feb3ddc3b2e01d","64b003020eef62ee308107cc","64b0348b7deedf564310bb85","null","null","<p style=""font-size: 60px; font-family: BACS"">rbYbulLG</p>","","","","","","","",""
"html-keyboard-response","385","553629","0.0-15.0-0.54","608abc6251feb3ddc3b2e01d","64b003020eef62ee308107cc","64b0348b7deedf564310bb85","null","null","<p style=""font-size: 60px; font-family: BACS"">rbYbulLG</p>","","","","","","","",""
"html-keyboard-response","386","554629","0.0-15.0-0.55","608abc6251feb3ddc3b2e01d","64b003020eef62ee308107cc","64b0348b7deedf564310bb85","null","null","<p style=""font-size: 60px; font-family: BACS"">rbYbulLG</p>","","","","","","","",""
"html-keyboard-response","387","555632","0.0-15.0-0.56","608abc6251feb3ddc3b2e01d","64b003020eef62ee308107cc","64b0348b7deedf564310bb85","null","null","<p style=""font-size: 60px; font-family: BACS"">rbYbulLG</p>","","","","","","","",""
"html-keyboard-response","388","556644","0.0-15.0-0.57","608abc6251feb3ddc3b2e01d","64b003020eef62ee308107cc","64b0348b7deedf564310bb85","null","null","<p style=""font-size: 60px; font-family: BACS"">rbYbulLG</p>","","","","","","","",""
"html-keyboard-response","389","557657","0.0-15.0-0.58","608abc6251feb3ddc3b2e01d","64b003020eef62ee308107cc","64b0348b7deedf564310bb85","null","null","<p style=""font-size: 60px; font-family: BACS"">rbYbulLG</p>","","","","","","","",""
"html-keyboard-response","390","558658","0.0-15.0-0.59","608abc6251feb3ddc3b2e01d","64b003020eef62ee308107cc","64b0348b7deedf564310bb85","null","null","<p style=""font-size: 60px; font-family: BACS"">rbYbulLG</p>","","","","","","","",""
"html-keyboard-response","391","559660","0.0-15.0-0.60","608abc6251feb3ddc3b2e01d","64b003020eef62ee308107cc","64b0348b7deedf564310bb85","null","null","<p style=""font-size: 60px; font-family: BACS"">rbYbulLG</p>","","","","","","","",""
"html-keyboard-response","392","560674","0.0-15.0-0.61","608abc6251feb3ddc3b2e01d","64b003020eef62ee308107cc","64b0348b7deedf564310bb85","null","null","<p style=""font-size: 60px; font-family: BACS"">rbYbulLG</p>","","","","","","","",""
"html-keyboard-response","393","561679","0.0-15.0-0.62","608abc6251feb3ddc3b2e01d","64b003020eef62ee308107cc","64b0348b7deedf564310bb85","null","null","<p style=""font-size: 60px; font-family: BACS"">rbYbulLG</p>","","","","","","","",""
"html-keyboard-response","394","562680","0.0-15.0-0.63","608abc6251feb3ddc3b2e01d","64b003020eef62ee308107cc","64b0348b7deedf564310bb85","null","null","<p style=""font-size: 60px; font-family: BACS"">rbYbulLG</p>","","","","","","","",""
"html-keyboard-response","395","563692","0.0-15.0-0.64","608abc6251feb3ddc3b2e01d","64b003020eef62ee308107cc","64b0348b7deedf564310bb85","null","null","<p style=""font-size: 60px; font-family: BACS"">rbYbulLG</p>","","","","","","","",""
"html-keyboard-response","396","564709","0.0-15.0-0.65","608abc6251feb3ddc3b2e01d","64b003020eef62ee308107cc","64b0348b7deedf564310bb85","null","null","<p style=""font-size: 60px; font-family: BACS"">rbYbulLG</p>","","","","","","","",""
"html-keyboard-response","397","565712","0.0-15.0-0.66","608abc6251feb3ddc3b2e01d","64b003020eef62ee308107cc","64b0348b7deedf564310bb85","null","null","<p style=""font-size: 60px; font-family: BACS"">rbYbulLG</p>","","","","","","","",""
"html-keyboard-response","398","566714","0.0-15.0-0.67","608abc6251feb3ddc3b2e01d","64b003020eef62ee308107cc","64b0348b7deedf564310bb85","null","null","<p style=""font-size: 60px; font-family: BACS"">rbYbulLG</p>","","","","","","","",""
"html-keyboard-response","399","567723","0.0-15.0-0.68","608abc6251feb3ddc3b2e01d","64b003020eef62ee308107cc","64b0348b7deedf564310bb85","null","null","<p style=""font-size: 60px; font-family: BACS"">rbYbulLG</p>","","","","","","","",""
"html-keyboard-response","400","568728","0.0-15.0-0.69","608abc6251feb3ddc3b2e01d","64b003020eef62ee308107cc","64b0348b7deedf564310bb85","null","null","<p style=""font-size: 60px; font-family: BACS"">rbYbulLG</p>","","","","","","","",""
