"trial_type","trial_index","time_elapsed","internal_node_id","subject_id","study_id","session_id","rt","response","stimulus","success","item","task","correct_response","testing_condition","correct","target","confound","name"
"pavlovia","0","1928","0.0-0.0","6171349b89a54d4823f9eca1","650c16f0f2faf8d7a0d14c09","651c1cba634883898e7a83fc","","","","","","","","","","","",""
"survey-html-form","1","15395","0.0-1.0","6171349b89a54d4823f9eca1","650c16f0f2faf8d7a0d14c09","651c1cba634883898e7a83fc","13465","{""ID"":""6171349b89a54d4823f9eca1""}","","","","","","","","","",""
"html-keyboard-response","2","95800","0.0-2.0","6171349b89a54d4823f9eca1","650c16f0f2faf8d7a0d14c09","651c1cba634883898e7a83fc","80405"," ","<p style=""font-size: 15px;"">Before beginning, we ask that you read the consent information and confirm your agreement to participate in the experiment.</p>
      <p style=""font-size: 15px;""> We ask that you remember that this is a research project and that your participation is entirely voluntary. You can stop your participation at any time, without needing to provide any explanation. The study we're asking you to participate in aims at examining how readers process written words. You will be engaged in a session of apprximately 20 minutes, followed by a brief questionnaire. You will have the opportunity to take a few breaks during the experiment. You will be paid £4 for your participation, corresponding to a rate of £8/hour. While this experiment looks at cognitive faculties, this experiment doesn't constitute clinical proof of eventual pathologies.</p>
      <p style=""font-size: 15px;"">All of the information collected thanks to yours and others' participation will be held in a secure password-protected server, and will not be shared with anyone not authorised to view it. Your personal information will be kept with an arbitrary participant ID. Thanks to this data anonymity process, any researcher analysing the data won't be able to track the information back to a specific participant. Therefore, this process will make identifying you impossibile, even when results from the study will be published in scientific reviews, presented at congresses, or at any other public forum. More generally, the collected data will be treated in accordance with the laws on privacy and conformity to the Legislative Degree n. 196 ""Code regarding the protection of personal data"" of the 30th of June 2003 and to the European Regulation 2016/670 (General Data Protection Regulation - GDPR). The Data Protection Officer is Avv. Valentina Carollo, who can be contacted at the following email addresses: <a href=""mailto:dpo@sissa.it"">dpo@sissa.it</a> or <a href=""mailto:rpd@sissa.it"">rpd@sissa.it</a> - PEC: <a href=""mailto:protocollo@pec.sissa.it"">protocollo@pec.sissa.it</a>.</p>
      <p style=""font-size: 15px;""> Before expressing your consent to participate, we would like to remind you again that in case you need explanations on any aspect of the experimental procedure, the researcher is at your disposition (<a href=""mailto:aliebelt@sissa.it"">aliebelt@sissa.it</a>, <a href=""mailto:davide.crepaldi@sissa.it"">davide.crepaldi@sissa.it</a>).</p>
      <p style=""font-size: 15px;"">If you would like to download the informed consent form, you can do so here: <a href=""BASL-Informed_Consent.pdf"" download>informed consent form</a>.</p>
      <p style=""font-size: 15px;"">We ask that you press the spacebar to proceed to the consent section.</p>","","","","","","","","",""
"survey-html-form","3","112360","0.0-3.0","6171349b89a54d4823f9eca1","650c16f0f2faf8d7a0d14c09","651c1cba634883898e7a83fc","16559","{""consent1"":""YES"",""consent2"":""YES"",""consent3"":""YES"",""consent4"":""YES"",""consent5"":""YES"",""consent6"":""YES""}","","","","","","","","","",""
"fullscreen","4","126393","0.0-4.0","6171349b89a54d4823f9eca1","650c16f0f2faf8d7a0d14c09","651c1cba634883898e7a83fc","","","","true","","","","","","","",""
"html-keyboard-response","5","155491","0.0-5.0","6171349b89a54d4823f9eca1","650c16f0f2faf8d7a0d14c09","651c1cba634883898e7a83fc","29097"," ","<p>Welcome, and thank you very much for your time!</p>
      <p>In this experiment, you'll be a language expert who's been asked to take a look at words that Earth has received in its first communication with aliens. Your task, in this first part of the experiment, is to pay close attention to the words you'll be shown; later, world leaders will ask you questions on what you saw. The words will be shown to you quite quickly; it seems that the aliens were in a hurry :-)</p>
      <p>Press the spacebar to continue.<p>","","","","","","","","",""
"html-keyboard-response","6","155546","0.0-6.0","6171349b89a54d4823f9eca1","650c16f0f2faf8d7a0d14c09","651c1cba634883898e7a83fc","null","null","<p style=""font-size: 120px; font-family: BACS""> </p>","","","","","","","","",""
"html-keyboard-response","7","166678","0.0-7.0","6171349b89a54d4823f9eca1","650c16f0f2faf8d7a0d14c09","651c1cba634883898e7a83fc","11132"," ","<p>Here is an example of the words you'll see:</p>
      <img src='esempio.png' height='400px'>
      <p>When you're ready to begin, press the spacebar.</p></div>","","","","","","","","",""
"html-keyboard-response","8","167692","0.0-8.0-0.0","6171349b89a54d4823f9eca1","650c16f0f2faf8d7a0d14c09","651c1cba634883898e7a83fc","null","null","<p style=""font-size: 60px; font-family: BACS"">tmAKRdCc</p>","","","","","","","","",""
"html-keyboard-response","9","168698","0.0-8.0-0.1","6171349b89a54d4823f9eca1","650c16f0f2faf8d7a0d14c09","651c1cba634883898e7a83fc","null","null","<p style=""font-size: 60px; font-family: BACS"">dMThkRCdc</p>","","","","","","","","",""
"html-keyboard-response","10","169702","0.0-8.0-0.2","6171349b89a54d4823f9eca1","650c16f0f2faf8d7a0d14c09","651c1cba634883898e7a83fc","null","null","<p style=""font-size: 60px; font-family: BACS"">kNuauUmb</p>","","","","","","","","",""
"html-keyboard-response","11","170710","0.0-8.0-0.3","6171349b89a54d4823f9eca1","650c16f0f2faf8d7a0d14c09","651c1cba634883898e7a83fc","null","null","<p style=""font-size: 60px; font-family: BACS"">GAcYJUNa</p>","","","","","","","","",""
"html-keyboard-response","12","171719","0.0-8.0-0.4","6171349b89a54d4823f9eca1","650c16f0f2faf8d7a0d14c09","651c1cba634883898e7a83fc","null","null","<p style=""font-size: 60px; font-family: BACS"">YNrAmcrdY</p>","","","","","","","","",""
"html-keyboard-response","13","172728","0.0-8.0-0.5","6171349b89a54d4823f9eca1","650c16f0f2faf8d7a0d14c09","651c1cba634883898e7a83fc","null","null","<p style=""font-size: 60px; font-family: BACS"">kKRCcMRl</p>","","","","","","","","",""
"html-keyboard-response","14","173735","0.0-8.0-0.6","6171349b89a54d4823f9eca1","650c16f0f2faf8d7a0d14c09","651c1cba634883898e7a83fc","null","null","<p style=""font-size: 60px; font-family: BACS"">GAcYcrdY</p>","","","","","","","","",""
"html-keyboard-response","15","174743","0.0-8.0-0.7","6171349b89a54d4823f9eca1","650c16f0f2faf8d7a0d14c09","651c1cba634883898e7a83fc","null","null","<p style=""font-size: 60px; font-family: BACS"">tdDdRCdc</p>","","","","","","","","",""
"html-keyboard-response","16","175758","0.0-8.0-0.8","6171349b89a54d4823f9eca1","650c16f0f2faf8d7a0d14c09","651c1cba634883898e7a83fc","null","null","<p style=""font-size: 60px; font-family: BACS"">tmAKcMRl</p>","","","","","","","","",""
"html-keyboard-response","17","176766","0.0-8.0-0.9","6171349b89a54d4823f9eca1","650c16f0f2faf8d7a0d14c09","651c1cba634883898e7a83fc","null","null","<p style=""font-size: 60px; font-family: BACS"">hTDdRCdc</p>","","","","","","","","",""
"html-keyboard-response","18","177776","0.0-8.0-0.10","6171349b89a54d4823f9eca1","650c16f0f2faf8d7a0d14c09","651c1cba634883898e7a83fc","null","null","<p style=""font-size: 60px; font-family: BACS"">ldAaJUNa</p>","","","","","","","","",""
"html-keyboard-response","19","178790","0.0-8.0-0.11","6171349b89a54d4823f9eca1","650c16f0f2faf8d7a0d14c09","651c1cba634883898e7a83fc","null","null","<p style=""font-size: 60px; font-family: BACS"">kKRCRCdc</p>","","","","","","","","",""
"html-keyboard-response","20","179796","0.0-8.0-0.12","6171349b89a54d4823f9eca1","650c16f0f2faf8d7a0d14c09","651c1cba634883898e7a83fc","null","null","<p style=""font-size: 60px; font-family: BACS"">ALGZcrdY</p>","","","","","","","","",""
"html-keyboard-response","21","180805","0.0-8.0-0.13","6171349b89a54d4823f9eca1","650c16f0f2faf8d7a0d14c09","651c1cba634883898e7a83fc","null","null","<p style=""font-size: 60px; font-family: BACS"">bvkrkbu</p>","","","","","","","","",""
"html-keyboard-response","22","181812","0.0-8.0-0.14","6171349b89a54d4823f9eca1","650c16f0f2faf8d7a0d14c09","651c1cba634883898e7a83fc","null","null","<p style=""font-size: 60px; font-family: BACS"">UaYLcrdY</p>","","","","","","","","",""
"html-keyboard-response","23","182823","0.0-8.0-0.15","6171349b89a54d4823f9eca1","650c16f0f2faf8d7a0d14c09","651c1cba634883898e7a83fc","null","null","<p style=""font-size: 60px; font-family: BACS"">bNdmGkbu</p>","","","","","","","","",""
"html-keyboard-response","24","183830","0.0-8.0-0.16","6171349b89a54d4823f9eca1","650c16f0f2faf8d7a0d14c09","651c1cba634883898e7a83fc","null","null","<p style=""font-size: 60px; font-family: BACS"">bvkrkGua</p>","","","","","","","","",""
"html-keyboard-response","25","184840","0.0-8.0-0.17","6171349b89a54d4823f9eca1","650c16f0f2faf8d7a0d14c09","651c1cba634883898e7a83fc","null","null","<p style=""font-size: 60px; font-family: BACS"">kCRmcMRl</p>","","","","","","","","",""
"html-keyboard-response","26","185850","0.0-8.0-0.18","6171349b89a54d4823f9eca1","650c16f0f2faf8d7a0d14c09","651c1cba634883898e7a83fc","null","null","<p style=""font-size: 60px; font-family: BACS"">UaYLuUmb</p>","","","","","","","","",""
"html-keyboard-response","27","186859","0.0-8.0-0.19","6171349b89a54d4823f9eca1","650c16f0f2faf8d7a0d14c09","651c1cba634883898e7a83fc","null","null","<p style=""font-size: 60px; font-family: BACS"">hkRKOtM</p>","","","","","","","","",""
"html-keyboard-response","28","187870","0.0-8.0-0.20","6171349b89a54d4823f9eca1","650c16f0f2faf8d7a0d14c09","651c1cba634883898e7a83fc","null","null","<p style=""font-size: 60px; font-family: BACS"">PCPDhRCdc</p>","","","","","","","","",""
"html-keyboard-response","29","188881","0.0-8.0-0.21","6171349b89a54d4823f9eca1","650c16f0f2faf8d7a0d14c09","651c1cba634883898e7a83fc","null","null","<p style=""font-size: 60px; font-family: BACS"">ldAakbu</p>","","","","","","","","",""
"html-keyboard-response","30","189888","0.0-8.0-0.22","6171349b89a54d4823f9eca1","650c16f0f2faf8d7a0d14c09","651c1cba634883898e7a83fc","null","null","<p style=""font-size: 60px; font-family: BACS"">kNuacrdY</p>","","","","","","","","",""
"html-keyboard-response","31","190896","0.0-8.0-0.23","6171349b89a54d4823f9eca1","650c16f0f2faf8d7a0d14c09","651c1cba634883898e7a83fc","null","null","<p style=""font-size: 60px; font-family: BACS"">ALGZkbu</p>","","","","","","","","",""
"html-keyboard-response","32","191905","0.0-8.0-0.24","6171349b89a54d4823f9eca1","650c16f0f2faf8d7a0d14c09","651c1cba634883898e7a83fc","null","null","<p style=""font-size: 60px; font-family: BACS"">dMThkRdCc</p>","","","","","","","","",""
"html-keyboard-response","33","192916","0.0-8.0-0.25","6171349b89a54d4823f9eca1","650c16f0f2faf8d7a0d14c09","651c1cba634883898e7a83fc","null","null","<p style=""font-size: 60px; font-family: BACS"">lRckAcMRl</p>","","","","","","","","",""
"html-keyboard-response","34","193926","0.0-8.0-0.26","6171349b89a54d4823f9eca1","650c16f0f2faf8d7a0d14c09","651c1cba634883898e7a83fc","null","null","<p style=""font-size: 60px; font-family: BACS"">bvkrJUNa</p>","","","","","","","","",""
"html-keyboard-response","35","194932","0.0-8.0-0.27","6171349b89a54d4823f9eca1","650c16f0f2faf8d7a0d14c09","651c1cba634883898e7a83fc","null","null","<p style=""font-size: 60px; font-family: BACS"">GAcYkGua</p>","","","","","","","","",""
"html-keyboard-response","36","195939","0.0-8.0-0.28","6171349b89a54d4823f9eca1","650c16f0f2faf8d7a0d14c09","651c1cba634883898e7a83fc","null","null","<p style=""font-size: 60px; font-family: BACS"">kCRmTmc</p>","","","","","","","","",""
"html-keyboard-response","37","196947","0.0-8.0-0.29","6171349b89a54d4823f9eca1","650c16f0f2faf8d7a0d14c09","651c1cba634883898e7a83fc","null","null","<p style=""font-size: 60px; font-family: BACS"">UaYLkGua</p>","","","","","","","","",""
"html-keyboard-response","38","197959","0.0-8.0-0.30","6171349b89a54d4823f9eca1","650c16f0f2faf8d7a0d14c09","651c1cba634883898e7a83fc","null","null","<p style=""font-size: 60px; font-family: BACS"">kNuakbu</p>","","","","","","","","",""
"html-keyboard-response","39","198973","0.0-8.0-0.31","6171349b89a54d4823f9eca1","650c16f0f2faf8d7a0d14c09","651c1cba634883898e7a83fc","null","null","<p style=""font-size: 60px; font-family: BACS"">cBROBRCdc</p>","","","","","","","","",""
"html-keyboard-response","40","199982","0.0-8.0-0.32","6171349b89a54d4823f9eca1","650c16f0f2faf8d7a0d14c09","651c1cba634883898e7a83fc","null","null","<p style=""font-size: 60px; font-family: BACS"">YNrAmJUNa</p>","","","","","","","","",""
"html-keyboard-response","41","200989","0.0-8.0-0.33","6171349b89a54d4823f9eca1","650c16f0f2faf8d7a0d14c09","651c1cba634883898e7a83fc","null","null","<p style=""font-size: 60px; font-family: BACS"">hTDdTmc</p>","","","","","","","","",""
"html-keyboard-response","42","202001","0.0-8.0-0.34","6171349b89a54d4823f9eca1","650c16f0f2faf8d7a0d14c09","651c1cba634883898e7a83fc","null","null","<p style=""font-size: 60px; font-family: BACS"">YduduUmb</p>","","","","","","","","",""
"html-keyboard-response","43","203012","0.0-8.0-0.35","6171349b89a54d4823f9eca1","650c16f0f2faf8d7a0d14c09","651c1cba634883898e7a83fc","null","null","<p style=""font-size: 60px; font-family: BACS"">UaYLkbu</p>","","","","","","","","",""
"html-keyboard-response","44","204018","0.0-8.0-0.36","6171349b89a54d4823f9eca1","650c16f0f2faf8d7a0d14c09","651c1cba634883898e7a83fc","null","null","<p style=""font-size: 60px; font-family: BACS"">GAcYuUmb</p>","","","","","","","","",""
"html-keyboard-response","45","205026","0.0-8.0-0.37","6171349b89a54d4823f9eca1","650c16f0f2faf8d7a0d14c09","651c1cba634883898e7a83fc","null","null","<p style=""font-size: 60px; font-family: BACS"">kNuakGua</p>","","","","","","","","",""
"html-keyboard-response","46","206034","0.0-8.0-0.38","6171349b89a54d4823f9eca1","650c16f0f2faf8d7a0d14c09","651c1cba634883898e7a83fc","null","null","<p style=""font-size: 60px; font-family: BACS"">lRckARCdc</p>","","","","","","","","",""
"html-keyboard-response","47","207044","0.0-8.0-0.39","6171349b89a54d4823f9eca1","650c16f0f2faf8d7a0d14c09","651c1cba634883898e7a83fc","null","null","<p style=""font-size: 60px; font-family: BACS"">dMThkTmc</p>","","","","","","","","",""
"html-keyboard-response","48","208056","0.0-8.0-0.40","6171349b89a54d4823f9eca1","650c16f0f2faf8d7a0d14c09","651c1cba634883898e7a83fc","null","null","<p style=""font-size: 60px; font-family: BACS"">bvkruUmb</p>","","","","","","","","",""
"html-keyboard-response","49","209070","0.0-8.0-0.41","6171349b89a54d4823f9eca1","650c16f0f2faf8d7a0d14c09","651c1cba634883898e7a83fc","null","null","<p style=""font-size: 60px; font-family: BACS"">kKRCOtM</p>","","","","","","","","",""
"html-keyboard-response","50","210079","0.0-8.0-0.42","6171349b89a54d4823f9eca1","650c16f0f2faf8d7a0d14c09","651c1cba634883898e7a83fc","null","null","<p style=""font-size: 60px; font-family: BACS"">hkRKcMRl</p>","","","","","","","","",""
"html-keyboard-response","51","211089","0.0-8.0-0.43","6171349b89a54d4823f9eca1","650c16f0f2faf8d7a0d14c09","651c1cba634883898e7a83fc","null","null","<p style=""font-size: 60px; font-family: BACS"">bNdmGkGua</p>","","","","","","","","",""
"html-keyboard-response","52","212103","0.0-8.0-0.44","6171349b89a54d4823f9eca1","650c16f0f2faf8d7a0d14c09","651c1cba634883898e7a83fc","null","null","<p style=""font-size: 60px; font-family: BACS"">ldAacrdY</p>","","","","","","","","",""
"html-keyboard-response","53","213112","0.0-8.0-0.45","6171349b89a54d4823f9eca1","650c16f0f2faf8d7a0d14c09","651c1cba634883898e7a83fc","null","null","<p style=""font-size: 60px; font-family: BACS"">tmAKOtM</p>","","","","","","","","",""
"html-keyboard-response","54","214121","0.0-8.0-0.46","6171349b89a54d4823f9eca1","650c16f0f2faf8d7a0d14c09","651c1cba634883898e7a83fc","null","null","<p style=""font-size: 60px; font-family: BACS"">cBROBTmc</p>","","","","","","","","",""
"html-keyboard-response","55","215134","0.0-8.0-0.47","6171349b89a54d4823f9eca1","650c16f0f2faf8d7a0d14c09","651c1cba634883898e7a83fc","null","null","<p style=""font-size: 60px; font-family: BACS"">YdudcrdY</p>","","","","","","","","",""
"html-keyboard-response","56","216144","0.0-8.0-0.48","6171349b89a54d4823f9eca1","650c16f0f2faf8d7a0d14c09","651c1cba634883898e7a83fc","null","null","<p style=""font-size: 60px; font-family: BACS"">PCPDhOtM</p>","","","","","","","","",""
"html-keyboard-response","57","217151","0.0-8.0-0.49","6171349b89a54d4823f9eca1","650c16f0f2faf8d7a0d14c09","651c1cba634883898e7a83fc","null","null","<p style=""font-size: 60px; font-family: BACS"">lRckATmc</p>","","","","","","","","",""
"html-keyboard-response","58","218167","0.0-8.0-0.50","6171349b89a54d4823f9eca1","650c16f0f2faf8d7a0d14c09","651c1cba634883898e7a83fc","null","null","<p style=""font-size: 60px; font-family: BACS"">kKRCRdCc</p>","","","","","","","","",""
"html-keyboard-response","59","219178","0.0-8.0-0.51","6171349b89a54d4823f9eca1","650c16f0f2faf8d7a0d14c09","651c1cba634883898e7a83fc","null","null","<p style=""font-size: 60px; font-family: BACS"">hTDdOtM</p>","","","","","","","","",""
"html-keyboard-response","60","220187","0.0-8.0-0.52","6171349b89a54d4823f9eca1","650c16f0f2faf8d7a0d14c09","651c1cba634883898e7a83fc","null","null","<p style=""font-size: 60px; font-family: BACS"">PCPDhcMRl</p>","","","","","","","","",""
"html-keyboard-response","61","221198","0.0-8.0-0.53","6171349b89a54d4823f9eca1","650c16f0f2faf8d7a0d14c09","651c1cba634883898e7a83fc","null","null","<p style=""font-size: 60px; font-family: BACS"">YNrAmkbu</p>","","","","","","","","",""
"html-keyboard-response","62","222208","0.0-8.0-0.54","6171349b89a54d4823f9eca1","650c16f0f2faf8d7a0d14c09","651c1cba634883898e7a83fc","null","null","<p style=""font-size: 60px; font-family: BACS"">ALGZuUmb</p>","","","","","","","","",""
"html-keyboard-response","63","223221","0.0-8.0-0.55","6171349b89a54d4823f9eca1","650c16f0f2faf8d7a0d14c09","651c1cba634883898e7a83fc","null","null","<p style=""font-size: 60px; font-family: BACS"">kCRmRCdc</p>","","","","","","","","",""
"html-keyboard-response","64","224228","0.0-8.0-0.56","6171349b89a54d4823f9eca1","650c16f0f2faf8d7a0d14c09","651c1cba634883898e7a83fc","null","null","<p style=""font-size: 60px; font-family: BACS"">YdudkGua</p>","","","","","","","","",""
"html-keyboard-response","65","225240","0.0-8.0-0.57","6171349b89a54d4823f9eca1","650c16f0f2faf8d7a0d14c09","651c1cba634883898e7a83fc","null","null","<p style=""font-size: 60px; font-family: BACS"">hkRKTmc</p>","","","","","","","","",""
"html-keyboard-response","66","226251","0.0-8.0-0.58","6171349b89a54d4823f9eca1","650c16f0f2faf8d7a0d14c09","651c1cba634883898e7a83fc","null","null","<p style=""font-size: 60px; font-family: BACS"">dMThkOtM</p>","","","","","","","","",""
"html-keyboard-response","67","227258","0.0-8.0-0.59","6171349b89a54d4823f9eca1","650c16f0f2faf8d7a0d14c09","651c1cba634883898e7a83fc","null","null","<p style=""font-size: 60px; font-family: BACS"">hTDdRdCc</p>","","","","","","","","",""
"html-keyboard-response","68","228269","0.0-8.0-0.60","6171349b89a54d4823f9eca1","650c16f0f2faf8d7a0d14c09","651c1cba634883898e7a83fc","null","null","<p style=""font-size: 60px; font-family: BACS"">kCRmOtM</p>","","","","","","","","",""
"html-keyboard-response","69","229278","0.0-8.0-0.61","6171349b89a54d4823f9eca1","650c16f0f2faf8d7a0d14c09","651c1cba634883898e7a83fc","null","null","<p style=""font-size: 60px; font-family: BACS"">cBROBRdCc</p>","","","","","","","","",""
"html-keyboard-response","70","230288","0.0-8.0-0.62","6171349b89a54d4823f9eca1","650c16f0f2faf8d7a0d14c09","651c1cba634883898e7a83fc","null","null","<p style=""font-size: 60px; font-family: BACS"">YdudJUNa</p>","","","","","","","","",""
"html-keyboard-response","71","231297","0.0-8.0-0.63","6171349b89a54d4823f9eca1","650c16f0f2faf8d7a0d14c09","651c1cba634883898e7a83fc","null","null","<p style=""font-size: 60px; font-family: BACS"">ldAakGua</p>","","","","","","","","",""
"html-keyboard-response","72","232304","0.0-8.0-0.64","6171349b89a54d4823f9eca1","650c16f0f2faf8d7a0d14c09","651c1cba634883898e7a83fc","null","null","<p style=""font-size: 60px; font-family: BACS"">tdDdTmc</p>","","","","","","","","",""
"html-keyboard-response","73","233311","0.0-8.0-0.65","6171349b89a54d4823f9eca1","650c16f0f2faf8d7a0d14c09","651c1cba634883898e7a83fc","null","null","<p style=""font-size: 60px; font-family: BACS"">hkRKRdCc</p>","","","","","","","","",""
"html-keyboard-response","74","234321","0.0-8.0-0.66","6171349b89a54d4823f9eca1","650c16f0f2faf8d7a0d14c09","651c1cba634883898e7a83fc","null","null","<p style=""font-size: 60px; font-family: BACS"">YNrAmuUmb</p>","","","","","","","","",""
"html-keyboard-response","75","235329","0.0-8.0-0.67","6171349b89a54d4823f9eca1","650c16f0f2faf8d7a0d14c09","651c1cba634883898e7a83fc","null","null","<p style=""font-size: 60px; font-family: BACS"">ALGZJUNa</p>","","","","","","","","",""
"html-keyboard-response","76","236340","0.0-8.0-0.68","6171349b89a54d4823f9eca1","650c16f0f2faf8d7a0d14c09","651c1cba634883898e7a83fc","null","null","<p style=""font-size: 60px; font-family: BACS"">lRckARdCc</p>","","","","","","","","",""
"html-keyboard-response","77","237353","0.0-8.0-0.69","6171349b89a54d4823f9eca1","650c16f0f2faf8d7a0d14c09","651c1cba634883898e7a83fc","null","null","<p style=""font-size: 60px; font-family: BACS"">ZJLmruUmb</p>","","","","","","","","",""
"html-keyboard-response","78","238363","0.0-8.0-0.70","6171349b89a54d4823f9eca1","650c16f0f2faf8d7a0d14c09","651c1cba634883898e7a83fc","null","null","<p style=""font-size: 60px; font-family: BACS"">cBROBcMRl</p>","","","","","","","","",""
"html-keyboard-response","79","239377","0.0-8.0-0.71","6171349b89a54d4823f9eca1","650c16f0f2faf8d7a0d14c09","651c1cba634883898e7a83fc","null","null","<p style=""font-size: 60px; font-family: BACS"">PCPDhRdCc</p>","","","","","","","","",""
"html-keyboard-response","80","240386","0.0-8.0-0.72","6171349b89a54d4823f9eca1","650c16f0f2faf8d7a0d14c09","651c1cba634883898e7a83fc","null","null","<p style=""font-size: 60px; font-family: BACS"">bNdmGcrdY</p>","","","","","","","","",""
"html-keyboard-response","81","241397","0.0-8.0-0.73","6171349b89a54d4823f9eca1","650c16f0f2faf8d7a0d14c09","651c1cba634883898e7a83fc","null","null","<p style=""font-size: 60px; font-family: BACS"">ZJLmrkbu</p>","","","","","","","","",""
"html-keyboard-response","82","242406","0.0-8.0-0.74","6171349b89a54d4823f9eca1","650c16f0f2faf8d7a0d14c09","651c1cba634883898e7a83fc","null","null","<p style=""font-size: 60px; font-family: BACS"">bNdmGJUNa</p>","","","","","","","","",""
"html-keyboard-response","83","243417","0.0-8.0-0.75","6171349b89a54d4823f9eca1","650c16f0f2faf8d7a0d14c09","651c1cba634883898e7a83fc","null","null","<p style=""font-size: 60px; font-family: BACS"">tdDdcMRl</p>","","","","","","","","",""
"html-keyboard-response","84","244422","0.0-8.0-0.76","6171349b89a54d4823f9eca1","650c16f0f2faf8d7a0d14c09","651c1cba634883898e7a83fc","null","null","<p style=""font-size: 60px; font-family: BACS"">ZJLmrJUNa</p>","","","","","","","","",""
"html-keyboard-response","85","245432","0.0-8.0-0.77","6171349b89a54d4823f9eca1","650c16f0f2faf8d7a0d14c09","651c1cba634883898e7a83fc","null","null","<p style=""font-size: 60px; font-family: BACS"">tmAKTmc</p>","","","","","","","","",""
"html-keyboard-response","86","246433","0.0-8.0-0.78","6171349b89a54d4823f9eca1","650c16f0f2faf8d7a0d14c09","651c1cba634883898e7a83fc","null","null","<p style=""font-size: 60px; font-family: BACS"">ZJLmrkGua</p>","","","","","","","","",""
"html-keyboard-response","87","247446","0.0-8.0-0.79","6171349b89a54d4823f9eca1","650c16f0f2faf8d7a0d14c09","651c1cba634883898e7a83fc","null","null","<p style=""font-size: 60px; font-family: BACS"">tdDdOtM</p>","","","","","","","","",""
"html-keyboard-response","88","338430","0.0-9.0","6171349b89a54d4823f9eca1","650c16f0f2faf8d7a0d14c09","651c1cba634883898e7a83fc","90983"," ","<p>Great, you've seen the first block of words. You may now take a short break.</p>
      <p>Press the spacebar when you're ready to continue.</p>","","","","","","","","",""
"html-keyboard-response","89","339444","0.0-10.0-0.0","6171349b89a54d4823f9eca1","650c16f0f2faf8d7a0d14c09","651c1cba634883898e7a83fc","null","null","<p style=""font-size: 60px; font-family: BACS"">kKRCRCdc</p>","","","","","","","","",""
"html-keyboard-response","90","340456","0.0-10.0-0.1","6171349b89a54d4823f9eca1","650c16f0f2faf8d7a0d14c09","651c1cba634883898e7a83fc","null","null","<p style=""font-size: 60px; font-family: BACS"">GAcYuUmb</p>","","","","","","","","",""
"html-keyboard-response","91","341466","0.0-10.0-0.2","6171349b89a54d4823f9eca1","650c16f0f2faf8d7a0d14c09","651c1cba634883898e7a83fc","null","null","<p style=""font-size: 60px; font-family: BACS"">lRckARCdc</p>","","","","","","","","",""
"html-keyboard-response","92","342475","0.0-10.0-0.3","6171349b89a54d4823f9eca1","650c16f0f2faf8d7a0d14c09","651c1cba634883898e7a83fc","null","null","<p style=""font-size: 60px; font-family: BACS"">tmAKRdCc</p>","","","","","","","","",""
"html-keyboard-response","93","343486","0.0-10.0-0.4","6171349b89a54d4823f9eca1","650c16f0f2faf8d7a0d14c09","651c1cba634883898e7a83fc","null","null","<p style=""font-size: 60px; font-family: BACS"">bvkrJUNa</p>","","","","","","","","",""
"html-keyboard-response","94","344495","0.0-10.0-0.5","6171349b89a54d4823f9eca1","650c16f0f2faf8d7a0d14c09","651c1cba634883898e7a83fc","null","null","<p style=""font-size: 60px; font-family: BACS"">YdudkGua</p>","","","","","","","","",""
"html-keyboard-response","95","345505","0.0-10.0-0.6","6171349b89a54d4823f9eca1","650c16f0f2faf8d7a0d14c09","651c1cba634883898e7a83fc","null","null","<p style=""font-size: 60px; font-family: BACS"">bNdmGJUNa</p>","","","","","","","","",""
"html-keyboard-response","96","346513","0.0-10.0-0.7","6171349b89a54d4823f9eca1","650c16f0f2faf8d7a0d14c09","651c1cba634883898e7a83fc","null","null","<p style=""font-size: 60px; font-family: BACS"">cBROBRCdc</p>","","","","","","","","",""
"html-keyboard-response","97","347524","0.0-10.0-0.8","6171349b89a54d4823f9eca1","650c16f0f2faf8d7a0d14c09","651c1cba634883898e7a83fc","null","null","<p style=""font-size: 60px; font-family: BACS"">UaYLcrdY</p>","","","","","","","","",""
"html-keyboard-response","98","348535","0.0-10.0-0.9","6171349b89a54d4823f9eca1","650c16f0f2faf8d7a0d14c09","651c1cba634883898e7a83fc","null","null","<p style=""font-size: 60px; font-family: BACS"">GAcYkGua</p>","","","","","","","","",""
"html-keyboard-response","99","349540","0.0-10.0-0.10","6171349b89a54d4823f9eca1","650c16f0f2faf8d7a0d14c09","651c1cba634883898e7a83fc","null","null","<p style=""font-size: 60px; font-family: BACS"">tdDdRCdc</p>","","","","","","","","",""
"html-keyboard-response","100","350552","0.0-10.0-0.11","6171349b89a54d4823f9eca1","650c16f0f2faf8d7a0d14c09","651c1cba634883898e7a83fc","null","null","<p style=""font-size: 60px; font-family: BACS"">ZJLmrkGua</p>","","","","","","","","",""
"html-keyboard-response","101","351558","0.0-10.0-0.12","6171349b89a54d4823f9eca1","650c16f0f2faf8d7a0d14c09","651c1cba634883898e7a83fc","null","null","<p style=""font-size: 60px; font-family: BACS"">hkRKRdCc</p>","","","","","","","","",""
"html-keyboard-response","102","352573","0.0-10.0-0.13","6171349b89a54d4823f9eca1","650c16f0f2faf8d7a0d14c09","651c1cba634883898e7a83fc","null","null","<p style=""font-size: 60px; font-family: BACS"">bvkrkbu</p>","","","","","","","","",""
"html-keyboard-response","103","353589","0.0-10.0-0.14","6171349b89a54d4823f9eca1","650c16f0f2faf8d7a0d14c09","651c1cba634883898e7a83fc","null","null","<p style=""font-size: 60px; font-family: BACS"">kNuauUmb</p>","","","","","","","","",""
"html-keyboard-response","104","354593","0.0-10.0-0.15","6171349b89a54d4823f9eca1","650c16f0f2faf8d7a0d14c09","651c1cba634883898e7a83fc","null","null","<p style=""font-size: 60px; font-family: BACS"">cBROBRdCc</p>","","","","","","","","",""
"html-keyboard-response","105","355600","0.0-10.0-0.16","6171349b89a54d4823f9eca1","650c16f0f2faf8d7a0d14c09","651c1cba634883898e7a83fc","null","null","<p style=""font-size: 60px; font-family: BACS"">kKRCOtM</p>","","","","","","","","",""
"html-keyboard-response","106","356611","0.0-10.0-0.17","6171349b89a54d4823f9eca1","650c16f0f2faf8d7a0d14c09","651c1cba634883898e7a83fc","null","null","<p style=""font-size: 60px; font-family: BACS"">YdudcrdY</p>","","","","","","","","",""
"html-keyboard-response","107","357616","0.0-10.0-0.18","6171349b89a54d4823f9eca1","650c16f0f2faf8d7a0d14c09","651c1cba634883898e7a83fc","null","null","<p style=""font-size: 60px; font-family: BACS"">ldAakbu</p>","","","","","","","","",""
"html-keyboard-response","108","358628","0.0-10.0-0.19","6171349b89a54d4823f9eca1","650c16f0f2faf8d7a0d14c09","651c1cba634883898e7a83fc","null","null","<p style=""font-size: 60px; font-family: BACS"">ALGZuUmb</p>","","","","","","","","",""
"html-keyboard-response","109","359635","0.0-10.0-0.20","6171349b89a54d4823f9eca1","650c16f0f2faf8d7a0d14c09","651c1cba634883898e7a83fc","null","null","<p style=""font-size: 60px; font-family: BACS"">YNrAmkbu</p>","","","","","","","","",""
"html-keyboard-response","110","360644","0.0-10.0-0.21","6171349b89a54d4823f9eca1","650c16f0f2faf8d7a0d14c09","651c1cba634883898e7a83fc","null","null","<p style=""font-size: 60px; font-family: BACS"">ldAakGua</p>","","","","","","","","",""
"html-keyboard-response","111","361654","0.0-10.0-0.22","6171349b89a54d4823f9eca1","650c16f0f2faf8d7a0d14c09","651c1cba634883898e7a83fc","null","null","<p style=""font-size: 60px; font-family: BACS"">kCRmOtM</p>","","","","","","","","",""
"html-keyboard-response","112","362664","0.0-10.0-0.23","6171349b89a54d4823f9eca1","650c16f0f2faf8d7a0d14c09","651c1cba634883898e7a83fc","null","null","<p style=""font-size: 60px; font-family: BACS"">YNrAmuUmb</p>","","","","","","","","",""
"html-keyboard-response","113","363676","0.0-10.0-0.24","6171349b89a54d4823f9eca1","650c16f0f2faf8d7a0d14c09","651c1cba634883898e7a83fc","null","null","<p style=""font-size: 60px; font-family: BACS"">kKRCRdCc</p>","","","","","","","","",""
"html-keyboard-response","114","364684","0.0-10.0-0.25","6171349b89a54d4823f9eca1","650c16f0f2faf8d7a0d14c09","651c1cba634883898e7a83fc","null","null","<p style=""font-size: 60px; font-family: BACS"">dMThkTmc</p>","","","","","","","","",""
"html-keyboard-response","115","365693","0.0-10.0-0.26","6171349b89a54d4823f9eca1","650c16f0f2faf8d7a0d14c09","651c1cba634883898e7a83fc","null","null","<p style=""font-size: 60px; font-family: BACS"">cBROBcMRl</p>","","","","","","","","",""
"html-keyboard-response","116","366708","0.0-10.0-0.27","6171349b89a54d4823f9eca1","650c16f0f2faf8d7a0d14c09","651c1cba634883898e7a83fc","null","null","<p style=""font-size: 60px; font-family: BACS"">ldAaJUNa</p>","","","","","","","","",""
"html-keyboard-response","117","367720","0.0-10.0-0.28","6171349b89a54d4823f9eca1","650c16f0f2faf8d7a0d14c09","651c1cba634883898e7a83fc","null","null","<p style=""font-size: 60px; font-family: BACS"">kNuakbu</p>","","","","","","","","",""
"html-keyboard-response","118","368728","0.0-10.0-0.29","6171349b89a54d4823f9eca1","650c16f0f2faf8d7a0d14c09","651c1cba634883898e7a83fc","null","null","<p style=""font-size: 60px; font-family: BACS"">YduduUmb</p>","","","","","","","","",""
"html-keyboard-response","119","369741","0.0-10.0-0.30","6171349b89a54d4823f9eca1","650c16f0f2faf8d7a0d14c09","651c1cba634883898e7a83fc","null","null","<p style=""font-size: 60px; font-family: BACS"">tmAKOtM</p>","","","","","","","","",""
"html-keyboard-response","120","370751","0.0-10.0-0.31","6171349b89a54d4823f9eca1","650c16f0f2faf8d7a0d14c09","651c1cba634883898e7a83fc","null","null","<p style=""font-size: 60px; font-family: BACS"">PCPDhRdCc</p>","","","","","","","","",""
"html-keyboard-response","121","371758","0.0-10.0-0.32","6171349b89a54d4823f9eca1","650c16f0f2faf8d7a0d14c09","651c1cba634883898e7a83fc","null","null","<p style=""font-size: 60px; font-family: BACS"">ALGZcrdY</p>","","","","","","","","",""
"html-keyboard-response","122","372767","0.0-10.0-0.33","6171349b89a54d4823f9eca1","650c16f0f2faf8d7a0d14c09","651c1cba634883898e7a83fc","null","null","<p style=""font-size: 60px; font-family: BACS"">bNdmGkbu</p>","","","","","","","","",""
"html-keyboard-response","123","373773","0.0-10.0-0.34","6171349b89a54d4823f9eca1","650c16f0f2faf8d7a0d14c09","651c1cba634883898e7a83fc","null","null","<p style=""font-size: 60px; font-family: BACS"">lRckARdCc</p>","","","","","","","","",""
"html-keyboard-response","124","374782","0.0-10.0-0.35","6171349b89a54d4823f9eca1","650c16f0f2faf8d7a0d14c09","651c1cba634883898e7a83fc","null","null","<p style=""font-size: 60px; font-family: BACS"">ZJLmruUmb</p>","","","","","","","","",""
"html-keyboard-response","125","375792","0.0-10.0-0.36","6171349b89a54d4823f9eca1","650c16f0f2faf8d7a0d14c09","651c1cba634883898e7a83fc","null","null","<p style=""font-size: 60px; font-family: BACS"">lRckAcMRl</p>","","","","","","","","",""
"html-keyboard-response","126","376801","0.0-10.0-0.37","6171349b89a54d4823f9eca1","650c16f0f2faf8d7a0d14c09","651c1cba634883898e7a83fc","null","null","<p style=""font-size: 60px; font-family: BACS"">kNuakGua</p>","","","","","","","","",""
"html-keyboard-response","127","377813","0.0-10.0-0.38","6171349b89a54d4823f9eca1","650c16f0f2faf8d7a0d14c09","651c1cba634883898e7a83fc","null","null","<p style=""font-size: 60px; font-family: BACS"">hTDdRCdc</p>","","","","","","","","",""
"html-keyboard-response","128","378820","0.0-10.0-0.39","6171349b89a54d4823f9eca1","650c16f0f2faf8d7a0d14c09","651c1cba634883898e7a83fc","null","null","<p style=""font-size: 60px; font-family: BACS"">tmAKTmc</p>","","","","","","","","",""
"html-keyboard-response","129","379829","0.0-10.0-0.40","6171349b89a54d4823f9eca1","650c16f0f2faf8d7a0d14c09","651c1cba634883898e7a83fc","null","null","<p style=""font-size: 60px; font-family: BACS"">kNuacrdY</p>","","","","","","","","",""
"html-keyboard-response","130","380835","0.0-10.0-0.41","6171349b89a54d4823f9eca1","650c16f0f2faf8d7a0d14c09","651c1cba634883898e7a83fc","null","null","<p style=""font-size: 60px; font-family: BACS"">lRckATmc</p>","","","","","","","","",""
"html-keyboard-response","131","381842","0.0-10.0-0.42","6171349b89a54d4823f9eca1","650c16f0f2faf8d7a0d14c09","651c1cba634883898e7a83fc","null","null","<p style=""font-size: 60px; font-family: BACS"">GAcYJUNa</p>","","","","","","","","",""
"html-keyboard-response","132","382852","0.0-10.0-0.43","6171349b89a54d4823f9eca1","650c16f0f2faf8d7a0d14c09","651c1cba634883898e7a83fc","null","null","<p style=""font-size: 60px; font-family: BACS"">dMThkRdCc</p>","","","","","","","","",""
"html-keyboard-response","133","383860","0.0-10.0-0.44","6171349b89a54d4823f9eca1","650c16f0f2faf8d7a0d14c09","651c1cba634883898e7a83fc","null","null","<p style=""font-size: 60px; font-family: BACS"">hkRKOtM</p>","","","","","","","","",""
"html-keyboard-response","134","384862","0.0-10.0-0.45","6171349b89a54d4823f9eca1","650c16f0f2faf8d7a0d14c09","651c1cba634883898e7a83fc","null","null","<p style=""font-size: 60px; font-family: BACS"">kCRmTmc</p>","","","","","","","","",""
"html-keyboard-response","135","385873","0.0-10.0-0.46","6171349b89a54d4823f9eca1","650c16f0f2faf8d7a0d14c09","651c1cba634883898e7a83fc","null","null","<p style=""font-size: 60px; font-family: BACS"">hkRKcMRl</p>","","","","","","","","",""
"html-keyboard-response","136","386882","0.0-10.0-0.47","6171349b89a54d4823f9eca1","650c16f0f2faf8d7a0d14c09","651c1cba634883898e7a83fc","null","null","<p style=""font-size: 60px; font-family: BACS"">bvkruUmb</p>","","","","","","","","",""
"html-keyboard-response","137","387889","0.0-10.0-0.48","6171349b89a54d4823f9eca1","650c16f0f2faf8d7a0d14c09","651c1cba634883898e7a83fc","null","null","<p style=""font-size: 60px; font-family: BACS"">PCPDhRCdc</p>","","","","","","","","",""
"html-keyboard-response","138","388896","0.0-10.0-0.49","6171349b89a54d4823f9eca1","650c16f0f2faf8d7a0d14c09","651c1cba634883898e7a83fc","null","null","<p style=""font-size: 60px; font-family: BACS"">cBROBTmc</p>","","","","","","","","",""
"html-keyboard-response","139","389905","0.0-10.0-0.50","6171349b89a54d4823f9eca1","650c16f0f2faf8d7a0d14c09","651c1cba634883898e7a83fc","null","null","<p style=""font-size: 60px; font-family: BACS"">kCRmRCdc</p>","","","","","","","","",""
"html-keyboard-response","140","390916","0.0-10.0-0.51","6171349b89a54d4823f9eca1","650c16f0f2faf8d7a0d14c09","651c1cba634883898e7a83fc","null","null","<p style=""font-size: 60px; font-family: BACS"">hkRKTmc</p>","","","","","","","","",""
"html-keyboard-response","141","391925","0.0-10.0-0.52","6171349b89a54d4823f9eca1","650c16f0f2faf8d7a0d14c09","651c1cba634883898e7a83fc","null","null","<p style=""font-size: 60px; font-family: BACS"">kKRCcMRl</p>","","","","","","","","",""
"html-keyboard-response","142","392929","0.0-10.0-0.53","6171349b89a54d4823f9eca1","650c16f0f2faf8d7a0d14c09","651c1cba634883898e7a83fc","null","null","<p style=""font-size: 60px; font-family: BACS"">bNdmGcrdY</p>","","","","","","","","",""
"html-keyboard-response","143","393938","0.0-10.0-0.54","6171349b89a54d4823f9eca1","650c16f0f2faf8d7a0d14c09","651c1cba634883898e7a83fc","null","null","<p style=""font-size: 60px; font-family: BACS"">hTDdTmc</p>","","","","","","","","",""
"html-keyboard-response","144","394948","0.0-10.0-0.55","6171349b89a54d4823f9eca1","650c16f0f2faf8d7a0d14c09","651c1cba634883898e7a83fc","null","null","<p style=""font-size: 60px; font-family: BACS"">tdDdOtM</p>","","","","","","","","",""
"html-keyboard-response","145","395957","0.0-10.0-0.56","6171349b89a54d4823f9eca1","650c16f0f2faf8d7a0d14c09","651c1cba634883898e7a83fc","null","null","<p style=""font-size: 60px; font-family: BACS"">bNdmGkGua</p>","","","","","","","","",""
"html-keyboard-response","146","396967","0.0-10.0-0.57","6171349b89a54d4823f9eca1","650c16f0f2faf8d7a0d14c09","651c1cba634883898e7a83fc","null","null","<p style=""font-size: 60px; font-family: BACS"">ALGZJUNa</p>","","","","","","","","",""
"html-keyboard-response","147","397974","0.0-10.0-0.58","6171349b89a54d4823f9eca1","650c16f0f2faf8d7a0d14c09","651c1cba634883898e7a83fc","null","null","<p style=""font-size: 60px; font-family: BACS"">PCPDhcMRl</p>","","","","","","","","",""
"html-keyboard-response","148","398983","0.0-10.0-0.59","6171349b89a54d4823f9eca1","650c16f0f2faf8d7a0d14c09","651c1cba634883898e7a83fc","null","null","<p style=""font-size: 60px; font-family: BACS"">YNrAmcrdY</p>","","","","","","","","",""
"html-keyboard-response","149","399994","0.0-10.0-0.60","6171349b89a54d4823f9eca1","650c16f0f2faf8d7a0d14c09","651c1cba634883898e7a83fc","null","null","<p style=""font-size: 60px; font-family: BACS"">kCRmcMRl</p>","","","","","","","","",""
"html-keyboard-response","150","401004","0.0-10.0-0.61","6171349b89a54d4823f9eca1","650c16f0f2faf8d7a0d14c09","651c1cba634883898e7a83fc","null","null","<p style=""font-size: 60px; font-family: BACS"">hTDdRdCc</p>","","","","","","","","",""
"html-keyboard-response","151","402013","0.0-10.0-0.62","6171349b89a54d4823f9eca1","650c16f0f2faf8d7a0d14c09","651c1cba634883898e7a83fc","null","null","<p style=""font-size: 60px; font-family: BACS"">YdudJUNa</p>","","","","","","","","",""
"html-keyboard-response","152","403020","0.0-10.0-0.63","6171349b89a54d4823f9eca1","650c16f0f2faf8d7a0d14c09","651c1cba634883898e7a83fc","null","null","<p style=""font-size: 60px; font-family: BACS"">PCPDhOtM</p>","","","","","","","","",""
"html-keyboard-response","153","404035","0.0-10.0-0.64","6171349b89a54d4823f9eca1","650c16f0f2faf8d7a0d14c09","651c1cba634883898e7a83fc","null","null","<p style=""font-size: 60px; font-family: BACS"">tmAKcMRl</p>","","","","","","","","",""
"html-keyboard-response","154","405043","0.0-10.0-0.65","6171349b89a54d4823f9eca1","650c16f0f2faf8d7a0d14c09","651c1cba634883898e7a83fc","null","null","<p style=""font-size: 60px; font-family: BACS"">ZJLmrkbu</p>","","","","","","","","",""
"html-keyboard-response","155","406051","0.0-10.0-0.66","6171349b89a54d4823f9eca1","650c16f0f2faf8d7a0d14c09","651c1cba634883898e7a83fc","null","null","<p style=""font-size: 60px; font-family: BACS"">GAcYcrdY</p>","","","","","","","","",""
"html-keyboard-response","156","407062","0.0-10.0-0.67","6171349b89a54d4823f9eca1","650c16f0f2faf8d7a0d14c09","651c1cba634883898e7a83fc","null","null","<p style=""font-size: 60px; font-family: BACS"">UaYLkbu</p>","","","","","","","","",""
"html-keyboard-response","157","408071","0.0-10.0-0.68","6171349b89a54d4823f9eca1","650c16f0f2faf8d7a0d14c09","651c1cba634883898e7a83fc","null","null","<p style=""font-size: 60px; font-family: BACS"">YNrAmJUNa</p>","","","","","","","","",""
"html-keyboard-response","158","409077","0.0-10.0-0.69","6171349b89a54d4823f9eca1","650c16f0f2faf8d7a0d14c09","651c1cba634883898e7a83fc","null","null","<p style=""font-size: 60px; font-family: BACS"">tdDdTmc</p>","","","","","","","","",""
"html-keyboard-response","159","410084","0.0-10.0-0.70","6171349b89a54d4823f9eca1","650c16f0f2faf8d7a0d14c09","651c1cba634883898e7a83fc","null","null","<p style=""font-size: 60px; font-family: BACS"">ALGZkbu</p>","","","","","","","","",""
"html-keyboard-response","160","411091","0.0-10.0-0.71","6171349b89a54d4823f9eca1","650c16f0f2faf8d7a0d14c09","651c1cba634883898e7a83fc","null","null","<p style=""font-size: 60px; font-family: BACS"">dMThkRCdc</p>","","","","","","","","",""
"html-keyboard-response","161","412101","0.0-10.0-0.72","6171349b89a54d4823f9eca1","650c16f0f2faf8d7a0d14c09","651c1cba634883898e7a83fc","null","null","<p style=""font-size: 60px; font-family: BACS"">hTDdOtM</p>","","","","","","","","",""
"html-keyboard-response","162","413112","0.0-10.0-0.73","6171349b89a54d4823f9eca1","650c16f0f2faf8d7a0d14c09","651c1cba634883898e7a83fc","null","null","<p style=""font-size: 60px; font-family: BACS"">ZJLmrJUNa</p>","","","","","","","","",""
"html-keyboard-response","163","414120","0.0-10.0-0.74","6171349b89a54d4823f9eca1","650c16f0f2faf8d7a0d14c09","651c1cba634883898e7a83fc","null","null","<p style=""font-size: 60px; font-family: BACS"">UaYLkGua</p>","","","","","","","","",""
"html-keyboard-response","164","415130","0.0-10.0-0.75","6171349b89a54d4823f9eca1","650c16f0f2faf8d7a0d14c09","651c1cba634883898e7a83fc","null","null","<p style=""font-size: 60px; font-family: BACS"">dMThkOtM</p>","","","","","","","","",""
"html-keyboard-response","165","416139","0.0-10.0-0.76","6171349b89a54d4823f9eca1","650c16f0f2faf8d7a0d14c09","651c1cba634883898e7a83fc","null","null","<p style=""font-size: 60px; font-family: BACS"">UaYLuUmb</p>","","","","","","","","",""
"html-keyboard-response","166","417143","0.0-10.0-0.77","6171349b89a54d4823f9eca1","650c16f0f2faf8d7a0d14c09","651c1cba634883898e7a83fc","null","null","<p style=""font-size: 60px; font-family: BACS"">tdDdcMRl</p>","","","","","","","","",""
"html-keyboard-response","167","418154","0.0-10.0-0.78","6171349b89a54d4823f9eca1","650c16f0f2faf8d7a0d14c09","651c1cba634883898e7a83fc","null","null","<p style=""font-size: 60px; font-family: BACS"">bvkrkGua</p>","","","","","","","","",""
"html-keyboard-response","168","419165","0.0-10.0-0.79","6171349b89a54d4823f9eca1","650c16f0f2faf8d7a0d14c09","651c1cba634883898e7a83fc","null","null","<p style=""font-size: 60px; font-family: BACS"">ldAacrdY</p>","","","","","","","","",""
"html-keyboard-response","169","444168","0.0-11.0","6171349b89a54d4823f9eca1","650c16f0f2faf8d7a0d14c09","651c1cba634883898e7a83fc","25003"," ","<p>Great, you've seen the second block of words. You may now take a short break.</p>
      <p>Press the spacebar when you're ready to continue.</p>","","","","","","","","",""
"html-keyboard-response","170","445182","0.0-12.0-0.0","6171349b89a54d4823f9eca1","650c16f0f2faf8d7a0d14c09","651c1cba634883898e7a83fc","null","null","<p style=""font-size: 60px; font-family: BACS"">tdDdRCdc</p>","","","","","","","","",""
"html-keyboard-response","171","446196","0.0-12.0-0.1","6171349b89a54d4823f9eca1","650c16f0f2faf8d7a0d14c09","651c1cba634883898e7a83fc","null","null","<p style=""font-size: 60px; font-family: BACS"">ldAakbu</p>","","","","","","","","",""
"html-keyboard-response","172","447203","0.0-12.0-0.2","6171349b89a54d4823f9eca1","650c16f0f2faf8d7a0d14c09","651c1cba634883898e7a83fc","null","null","<p style=""font-size: 60px; font-family: BACS"">bvkruUmb</p>","","","","","","","","",""
"html-keyboard-response","173","448206","0.0-12.0-0.3","6171349b89a54d4823f9eca1","650c16f0f2faf8d7a0d14c09","651c1cba634883898e7a83fc","null","null","<p style=""font-size: 60px; font-family: BACS"">tmAKcMRl</p>","","","","","","","","",""
"html-keyboard-response","174","449215","0.0-12.0-0.4","6171349b89a54d4823f9eca1","650c16f0f2faf8d7a0d14c09","651c1cba634883898e7a83fc","null","null","<p style=""font-size: 60px; font-family: BACS"">YNrAmJUNa</p>","","","","","","","","",""
"html-keyboard-response","175","450219","0.0-12.0-0.5","6171349b89a54d4823f9eca1","650c16f0f2faf8d7a0d14c09","651c1cba634883898e7a83fc","null","null","<p style=""font-size: 60px; font-family: BACS"">tmAKOtM</p>","","","","","","","","",""
"html-keyboard-response","176","451227","0.0-12.0-0.6","6171349b89a54d4823f9eca1","650c16f0f2faf8d7a0d14c09","651c1cba634883898e7a83fc","null","null","<p style=""font-size: 60px; font-family: BACS"">ldAakGua</p>","","","","","","","","",""
"html-keyboard-response","177","452236","0.0-12.0-0.7","6171349b89a54d4823f9eca1","650c16f0f2faf8d7a0d14c09","651c1cba634883898e7a83fc","null","null","<p style=""font-size: 60px; font-family: BACS"">PCPDhcMRl</p>","","","","","","","","",""
"html-keyboard-response","178","453245","0.0-12.0-0.8","6171349b89a54d4823f9eca1","650c16f0f2faf8d7a0d14c09","651c1cba634883898e7a83fc","null","null","<p style=""font-size: 60px; font-family: BACS"">YdudcrdY</p>","","","","","","","","",""
"html-keyboard-response","179","454254","0.0-12.0-0.9","6171349b89a54d4823f9eca1","650c16f0f2faf8d7a0d14c09","651c1cba634883898e7a83fc","null","null","<p style=""font-size: 60px; font-family: BACS"">kCRmTmc</p>","","","","","","","","",""
"html-keyboard-response","180","455265","0.0-12.0-0.10","6171349b89a54d4823f9eca1","650c16f0f2faf8d7a0d14c09","651c1cba634883898e7a83fc","null","null","<p style=""font-size: 60px; font-family: BACS"">tdDdcMRl</p>","","","","","","","","",""
"html-keyboard-response","181","456274","0.0-12.0-0.11","6171349b89a54d4823f9eca1","650c16f0f2faf8d7a0d14c09","651c1cba634883898e7a83fc","null","null","<p style=""font-size: 60px; font-family: BACS"">YduduUmb</p>","","","","","","","","",""
"html-keyboard-response","182","457284","0.0-12.0-0.12","6171349b89a54d4823f9eca1","650c16f0f2faf8d7a0d14c09","651c1cba634883898e7a83fc","null","null","<p style=""font-size: 60px; font-family: BACS"">YNrAmkbu</p>","","","","","","","","",""
"html-keyboard-response","183","458298","0.0-12.0-0.13","6171349b89a54d4823f9eca1","650c16f0f2faf8d7a0d14c09","651c1cba634883898e7a83fc","null","null","<p style=""font-size: 60px; font-family: BACS"">GAcYkGua</p>","","","","","","","","",""
"html-keyboard-response","184","459308","0.0-12.0-0.14","6171349b89a54d4823f9eca1","650c16f0f2faf8d7a0d14c09","651c1cba634883898e7a83fc","null","null","<p style=""font-size: 60px; font-family: BACS"">bvkrkbu</p>","","","","","","","","",""
"html-keyboard-response","185","460316","0.0-12.0-0.15","6171349b89a54d4823f9eca1","650c16f0f2faf8d7a0d14c09","651c1cba634883898e7a83fc","null","null","<p style=""font-size: 60px; font-family: BACS"">PCPDhOtM</p>","","","","","","","","",""
"html-keyboard-response","186","461329","0.0-12.0-0.16","6171349b89a54d4823f9eca1","650c16f0f2faf8d7a0d14c09","651c1cba634883898e7a83fc","null","null","<p style=""font-size: 60px; font-family: BACS"">cBROBRdCc</p>","","","","","","","","",""
"html-keyboard-response","187","462341","0.0-12.0-0.17","6171349b89a54d4823f9eca1","650c16f0f2faf8d7a0d14c09","651c1cba634883898e7a83fc","null","null","<p style=""font-size: 60px; font-family: BACS"">kNuacrdY</p>","","","","","","","","",""
"html-keyboard-response","188","463349","0.0-12.0-0.18","6171349b89a54d4823f9eca1","650c16f0f2faf8d7a0d14c09","651c1cba634883898e7a83fc","null","null","<p style=""font-size: 60px; font-family: BACS"">UaYLkbu</p>","","","","","","","","",""
"html-keyboard-response","189","464362","0.0-12.0-0.19","6171349b89a54d4823f9eca1","650c16f0f2faf8d7a0d14c09","651c1cba634883898e7a83fc","null","null","<p style=""font-size: 60px; font-family: BACS"">GAcYuUmb</p>","","","","","","","","",""
"html-keyboard-response","190","465373","0.0-12.0-0.20","6171349b89a54d4823f9eca1","650c16f0f2faf8d7a0d14c09","651c1cba634883898e7a83fc","null","null","<p style=""font-size: 60px; font-family: BACS"">kKRCRCdc</p>","","","","","","","","",""
"html-keyboard-response","191","466379","0.0-12.0-0.21","6171349b89a54d4823f9eca1","650c16f0f2faf8d7a0d14c09","651c1cba634883898e7a83fc","null","null","<p style=""font-size: 60px; font-family: BACS"">bNdmGcrdY</p>","","","","","","","","",""
"html-keyboard-response","192","467393","0.0-12.0-0.22","6171349b89a54d4823f9eca1","650c16f0f2faf8d7a0d14c09","651c1cba634883898e7a83fc","null","null","<p style=""font-size: 60px; font-family: BACS"">UaYLuUmb</p>","","","","","","","","",""
"html-keyboard-response","193","468402","0.0-12.0-0.23","6171349b89a54d4823f9eca1","650c16f0f2faf8d7a0d14c09","651c1cba634883898e7a83fc","null","null","<p style=""font-size: 60px; font-family: BACS"">GAcYcrdY</p>","","","","","","","","",""
"html-keyboard-response","194","469412","0.0-12.0-0.24","6171349b89a54d4823f9eca1","650c16f0f2faf8d7a0d14c09","651c1cba634883898e7a83fc","null","null","<p style=""font-size: 60px; font-family: BACS"">kNuauUmb</p>","","","","","","","","",""
"html-keyboard-response","195","470421","0.0-12.0-0.25","6171349b89a54d4823f9eca1","650c16f0f2faf8d7a0d14c09","651c1cba634883898e7a83fc","null","null","<p style=""font-size: 60px; font-family: BACS"">YdudJUNa</p>","","","","","","","","",""
"html-keyboard-response","196","471433","0.0-12.0-0.26","6171349b89a54d4823f9eca1","650c16f0f2faf8d7a0d14c09","651c1cba634883898e7a83fc","null","null","<p style=""font-size: 60px; font-family: BACS"">cBROBTmc</p>","","","","","","","","",""
"html-keyboard-response","197","472444","0.0-12.0-0.27","6171349b89a54d4823f9eca1","650c16f0f2faf8d7a0d14c09","651c1cba634883898e7a83fc","null","null","<p style=""font-size: 60px; font-family: BACS"">hTDdOtM</p>","","","","","","","","",""
"html-keyboard-response","198","473450","0.0-12.0-0.28","6171349b89a54d4823f9eca1","650c16f0f2faf8d7a0d14c09","651c1cba634883898e7a83fc","null","null","<p style=""font-size: 60px; font-family: BACS"">ZJLmrkbu</p>","","","","","","","","",""
"html-keyboard-response","199","474462","0.0-12.0-0.29","6171349b89a54d4823f9eca1","650c16f0f2faf8d7a0d14c09","651c1cba634883898e7a83fc","null","null","<p style=""font-size: 60px; font-family: BACS"">cBROBcMRl</p>","","","","","","","","",""
"html-keyboard-response","200","475472","0.0-12.0-0.30","6171349b89a54d4823f9eca1","650c16f0f2faf8d7a0d14c09","651c1cba634883898e7a83fc","null","null","<p style=""font-size: 60px; font-family: BACS"">kNuakGua</p>","","","","","","","","",""
"html-keyboard-response","201","476479","0.0-12.0-0.31","6171349b89a54d4823f9eca1","650c16f0f2faf8d7a0d14c09","651c1cba634883898e7a83fc","null","null","<p style=""font-size: 60px; font-family: BACS"">kCRmRCdc</p>","","","","","","","","",""
"html-keyboard-response","202","477490","0.0-12.0-0.32","6171349b89a54d4823f9eca1","650c16f0f2faf8d7a0d14c09","651c1cba634883898e7a83fc","null","null","<p style=""font-size: 60px; font-family: BACS"">YNrAmuUmb</p>","","","","","","","","",""
"html-keyboard-response","203","478491","0.0-12.0-0.33","6171349b89a54d4823f9eca1","650c16f0f2faf8d7a0d14c09","651c1cba634883898e7a83fc","null","null","<p style=""font-size: 60px; font-family: BACS"">ZJLmrkGua</p>","","","","","","","","",""
"html-keyboard-response","204","479504","0.0-12.0-0.34","6171349b89a54d4823f9eca1","650c16f0f2faf8d7a0d14c09","651c1cba634883898e7a83fc","null","null","<p style=""font-size: 60px; font-family: BACS"">dMThkRdCc</p>","","","","","","","","",""
"html-keyboard-response","205","480508","0.0-12.0-0.35","6171349b89a54d4823f9eca1","650c16f0f2faf8d7a0d14c09","651c1cba634883898e7a83fc","null","null","<p style=""font-size: 60px; font-family: BACS"">GAcYJUNa</p>","","","","","","","","",""
"html-keyboard-response","206","481516","0.0-12.0-0.36","6171349b89a54d4823f9eca1","650c16f0f2faf8d7a0d14c09","651c1cba634883898e7a83fc","null","null","<p style=""font-size: 60px; font-family: BACS"">UaYLcrdY</p>","","","","","","","","",""
"html-keyboard-response","207","482525","0.0-12.0-0.37","6171349b89a54d4823f9eca1","650c16f0f2faf8d7a0d14c09","651c1cba634883898e7a83fc","null","null","<p style=""font-size: 60px; font-family: BACS"">ZJLmrJUNa</p>","","","","","","","","",""
"html-keyboard-response","208","483532","0.0-12.0-0.38","6171349b89a54d4823f9eca1","650c16f0f2faf8d7a0d14c09","651c1cba634883898e7a83fc","null","null","<p style=""font-size: 60px; font-family: BACS"">PCPDhRdCc</p>","","","","","","","","",""
"html-keyboard-response","209","484537","0.0-12.0-0.39","6171349b89a54d4823f9eca1","650c16f0f2faf8d7a0d14c09","651c1cba634883898e7a83fc","null","null","<p style=""font-size: 60px; font-family: BACS"">hTDdRCdc</p>","","","","","","","","",""
"html-keyboard-response","210","485538","0.0-12.0-0.40","6171349b89a54d4823f9eca1","650c16f0f2faf8d7a0d14c09","651c1cba634883898e7a83fc","null","null","<p style=""font-size: 60px; font-family: BACS"">kKRCRdCc</p>","","","","","","","","",""
"html-keyboard-response","211","486539","0.0-12.0-0.41","6171349b89a54d4823f9eca1","650c16f0f2faf8d7a0d14c09","651c1cba634883898e7a83fc","null","null","<p style=""font-size: 60px; font-family: BACS"">bvkrJUNa</p>","","","","","","","","",""
"html-keyboard-response","212","487547","0.0-12.0-0.42","6171349b89a54d4823f9eca1","650c16f0f2faf8d7a0d14c09","651c1cba634883898e7a83fc","null","null","<p style=""font-size: 60px; font-family: BACS"">kCRmOtM</p>","","","","","","","","",""
"html-keyboard-response","213","488554","0.0-12.0-0.43","6171349b89a54d4823f9eca1","650c16f0f2faf8d7a0d14c09","651c1cba634883898e7a83fc","null","null","<p style=""font-size: 60px; font-family: BACS"">YdudkGua</p>","","","","","","","","",""
"html-keyboard-response","214","489558","0.0-12.0-0.44","6171349b89a54d4823f9eca1","650c16f0f2faf8d7a0d14c09","651c1cba634883898e7a83fc","null","null","<p style=""font-size: 60px; font-family: BACS"">tmAKRdCc</p>","","","","","","","","",""
"html-keyboard-response","215","490568","0.0-12.0-0.45","6171349b89a54d4823f9eca1","650c16f0f2faf8d7a0d14c09","651c1cba634883898e7a83fc","null","null","<p style=""font-size: 60px; font-family: BACS"">ALGZkbu</p>","","","","","","","","",""
"html-keyboard-response","216","491579","0.0-12.0-0.46","6171349b89a54d4823f9eca1","650c16f0f2faf8d7a0d14c09","651c1cba634883898e7a83fc","null","null","<p style=""font-size: 60px; font-family: BACS"">ldAaJUNa</p>","","","","","","","","",""
"html-keyboard-response","217","492591","0.0-12.0-0.47","6171349b89a54d4823f9eca1","650c16f0f2faf8d7a0d14c09","651c1cba634883898e7a83fc","null","null","<p style=""font-size: 60px; font-family: BACS"">dMThkRCdc</p>","","","","","","","","",""
"html-keyboard-response","218","493600","0.0-12.0-0.48","6171349b89a54d4823f9eca1","650c16f0f2faf8d7a0d14c09","651c1cba634883898e7a83fc","null","null","<p style=""font-size: 60px; font-family: BACS"">lRckAcMRl</p>","","","","","","","","",""
"html-keyboard-response","219","494609","0.0-12.0-0.49","6171349b89a54d4823f9eca1","650c16f0f2faf8d7a0d14c09","651c1cba634883898e7a83fc","null","null","<p style=""font-size: 60px; font-family: BACS"">tdDdTmc</p>","","","","","","","","",""
"html-keyboard-response","220","495622","0.0-12.0-0.50","6171349b89a54d4823f9eca1","650c16f0f2faf8d7a0d14c09","651c1cba634883898e7a83fc","null","null","<p style=""font-size: 60px; font-family: BACS"">ALGZuUmb</p>","","","","","","","","",""
"html-keyboard-response","221","496629","0.0-12.0-0.51","6171349b89a54d4823f9eca1","650c16f0f2faf8d7a0d14c09","651c1cba634883898e7a83fc","null","null","<p style=""font-size: 60px; font-family: BACS"">ldAacrdY</p>","","","","","","","","",""
"html-keyboard-response","222","497637","0.0-12.0-0.52","6171349b89a54d4823f9eca1","650c16f0f2faf8d7a0d14c09","651c1cba634883898e7a83fc","null","null","<p style=""font-size: 60px; font-family: BACS"">lRckATmc</p>","","","","","","","","",""
"html-keyboard-response","223","498644","0.0-12.0-0.53","6171349b89a54d4823f9eca1","650c16f0f2faf8d7a0d14c09","651c1cba634883898e7a83fc","null","null","<p style=""font-size: 60px; font-family: BACS"">ALGZJUNa</p>","","","","","","","","",""
"html-keyboard-response","224","499651","0.0-12.0-0.54","6171349b89a54d4823f9eca1","650c16f0f2faf8d7a0d14c09","651c1cba634883898e7a83fc","null","null","<p style=""font-size: 60px; font-family: BACS"">lRckARCdc</p>","","","","","","","","",""
"html-keyboard-response","225","500660","0.0-12.0-0.55","6171349b89a54d4823f9eca1","650c16f0f2faf8d7a0d14c09","651c1cba634883898e7a83fc","null","null","<p style=""font-size: 60px; font-family: BACS"">tmAKTmc</p>","","","","","","","","",""
"html-keyboard-response","226","501665","0.0-12.0-0.56","6171349b89a54d4823f9eca1","650c16f0f2faf8d7a0d14c09","651c1cba634883898e7a83fc","null","null","<p style=""font-size: 60px; font-family: BACS"">kKRCOtM</p>","","","","","","","","",""
"html-keyboard-response","227","502672","0.0-12.0-0.57","6171349b89a54d4823f9eca1","650c16f0f2faf8d7a0d14c09","651c1cba634883898e7a83fc","null","null","<p style=""font-size: 60px; font-family: BACS"">cBROBRCdc</p>","","","","","","","","",""
"html-keyboard-response","228","503686","0.0-12.0-0.58","6171349b89a54d4823f9eca1","650c16f0f2faf8d7a0d14c09","651c1cba634883898e7a83fc","null","null","<p style=""font-size: 60px; font-family: BACS"">ALGZcrdY</p>","","","","","","","","",""
"html-keyboard-response","229","504694","0.0-12.0-0.59","6171349b89a54d4823f9eca1","650c16f0f2faf8d7a0d14c09","651c1cba634883898e7a83fc","null","null","<p style=""font-size: 60px; font-family: BACS"">hkRKOtM</p>","","","","","","","","",""
"html-keyboard-response","230","505705","0.0-12.0-0.60","6171349b89a54d4823f9eca1","650c16f0f2faf8d7a0d14c09","651c1cba634883898e7a83fc","null","null","<p style=""font-size: 60px; font-family: BACS"">dMThkTmc</p>","","","","","","","","",""
"html-keyboard-response","231","506714","0.0-12.0-0.61","6171349b89a54d4823f9eca1","650c16f0f2faf8d7a0d14c09","651c1cba634883898e7a83fc","null","null","<p style=""font-size: 60px; font-family: BACS"">bNdmGkGua</p>","","","","","","","","",""
"html-keyboard-response","232","507724","0.0-12.0-0.62","6171349b89a54d4823f9eca1","650c16f0f2faf8d7a0d14c09","651c1cba634883898e7a83fc","null","null","<p style=""font-size: 60px; font-family: BACS"">hTDdRdCc</p>","","","","","","","","",""
"html-keyboard-response","233","508731","0.0-12.0-0.63","6171349b89a54d4823f9eca1","650c16f0f2faf8d7a0d14c09","651c1cba634883898e7a83fc","null","null","<p style=""font-size: 60px; font-family: BACS"">ZJLmruUmb</p>","","","","","","","","",""
"html-keyboard-response","234","509740","0.0-12.0-0.64","6171349b89a54d4823f9eca1","650c16f0f2faf8d7a0d14c09","651c1cba634883898e7a83fc","null","null","<p style=""font-size: 60px; font-family: BACS"">hTDdTmc</p>","","","","","","","","",""
"html-keyboard-response","235","510743","0.0-12.0-0.65","6171349b89a54d4823f9eca1","650c16f0f2faf8d7a0d14c09","651c1cba634883898e7a83fc","null","null","<p style=""font-size: 60px; font-family: BACS"">hkRKcMRl</p>","","","","","","","","",""
"html-keyboard-response","236","511748","0.0-12.0-0.66","6171349b89a54d4823f9eca1","650c16f0f2faf8d7a0d14c09","651c1cba634883898e7a83fc","null","null","<p style=""font-size: 60px; font-family: BACS"">PCPDhRCdc</p>","","","","","","","","",""
"html-keyboard-response","237","512756","0.0-12.0-0.67","6171349b89a54d4823f9eca1","650c16f0f2faf8d7a0d14c09","651c1cba634883898e7a83fc","null","null","<p style=""font-size: 60px; font-family: BACS"">bvkrkGua</p>","","","","","","","","",""
"html-keyboard-response","238","513768","0.0-12.0-0.68","6171349b89a54d4823f9eca1","650c16f0f2faf8d7a0d14c09","651c1cba634883898e7a83fc","null","null","<p style=""font-size: 60px; font-family: BACS"">kNuakbu</p>","","","","","","","","",""
"html-keyboard-response","239","514774","0.0-12.0-0.69","6171349b89a54d4823f9eca1","650c16f0f2faf8d7a0d14c09","651c1cba634883898e7a83fc","null","null","<p style=""font-size: 60px; font-family: BACS"">YNrAmcrdY</p>","","","","","","","","",""
"html-keyboard-response","240","515787","0.0-12.0-0.70","6171349b89a54d4823f9eca1","650c16f0f2faf8d7a0d14c09","651c1cba634883898e7a83fc","null","null","<p style=""font-size: 60px; font-family: BACS"">bNdmGJUNa</p>","","","","","","","","",""
"html-keyboard-response","241","516795","0.0-12.0-0.71","6171349b89a54d4823f9eca1","650c16f0f2faf8d7a0d14c09","651c1cba634883898e7a83fc","null","null","<p style=""font-size: 60px; font-family: BACS"">lRckARdCc</p>","","","","","","","","",""
"html-keyboard-response","242","517807","0.0-12.0-0.72","6171349b89a54d4823f9eca1","650c16f0f2faf8d7a0d14c09","651c1cba634883898e7a83fc","null","null","<p style=""font-size: 60px; font-family: BACS"">dMThkOtM</p>","","","","","","","","",""
"html-keyboard-response","243","518817","0.0-12.0-0.73","6171349b89a54d4823f9eca1","650c16f0f2faf8d7a0d14c09","651c1cba634883898e7a83fc","null","null","<p style=""font-size: 60px; font-family: BACS"">kKRCcMRl</p>","","","","","","","","",""
"html-keyboard-response","244","519828","0.0-12.0-0.74","6171349b89a54d4823f9eca1","650c16f0f2faf8d7a0d14c09","651c1cba634883898e7a83fc","null","null","<p style=""font-size: 60px; font-family: BACS"">hkRKRdCc</p>","","","","","","","","",""
"html-keyboard-response","245","520834","0.0-12.0-0.75","6171349b89a54d4823f9eca1","650c16f0f2faf8d7a0d14c09","651c1cba634883898e7a83fc","null","null","<p style=""font-size: 60px; font-family: BACS"">kCRmcMRl</p>","","","","","","","","",""
"html-keyboard-response","246","521842","0.0-12.0-0.76","6171349b89a54d4823f9eca1","650c16f0f2faf8d7a0d14c09","651c1cba634883898e7a83fc","null","null","<p style=""font-size: 60px; font-family: BACS"">hkRKTmc</p>","","","","","","","","",""
"html-keyboard-response","247","522855","0.0-12.0-0.77","6171349b89a54d4823f9eca1","650c16f0f2faf8d7a0d14c09","651c1cba634883898e7a83fc","null","null","<p style=""font-size: 60px; font-family: BACS"">bNdmGkbu</p>","","","","","","","","",""
"html-keyboard-response","248","523864","0.0-12.0-0.78","6171349b89a54d4823f9eca1","650c16f0f2faf8d7a0d14c09","651c1cba634883898e7a83fc","null","null","<p style=""font-size: 60px; font-family: BACS"">UaYLkGua</p>","","","","","","","","",""
"html-keyboard-response","249","524873","0.0-12.0-0.79","6171349b89a54d4823f9eca1","650c16f0f2faf8d7a0d14c09","651c1cba634883898e7a83fc","null","null","<p style=""font-size: 60px; font-family: BACS"">tdDdOtM</p>","","","","","","","","",""
"html-keyboard-response","250","580625","0.0-13.0","6171349b89a54d4823f9eca1","650c16f0f2faf8d7a0d14c09","651c1cba634883898e7a83fc","55751"," ","<p>Great, you've seen the third block of words. You may now take a short break.</p>
      <p>Press the spacebar when you're ready to continue.</p>","","","","","","","","",""
"html-keyboard-response","251","581632","0.0-14.0-0.0","6171349b89a54d4823f9eca1","650c16f0f2faf8d7a0d14c09","651c1cba634883898e7a83fc","null","null","<p style=""font-size: 60px; font-family: BACS"">GAcYuUmb</p>","","","","","","","","",""
"html-keyboard-response","252","582646","0.0-14.0-0.1","6171349b89a54d4823f9eca1","650c16f0f2faf8d7a0d14c09","651c1cba634883898e7a83fc","null","null","<p style=""font-size: 60px; font-family: BACS"">tmAKcMRl</p>","","","","","","","","",""
"html-keyboard-response","253","583655","0.0-14.0-0.2","6171349b89a54d4823f9eca1","650c16f0f2faf8d7a0d14c09","651c1cba634883898e7a83fc","null","null","<p style=""font-size: 60px; font-family: BACS"">bvkrkbu</p>","","","","","","","","",""
"html-keyboard-response","254","584661","0.0-14.0-0.3","6171349b89a54d4823f9eca1","650c16f0f2faf8d7a0d14c09","651c1cba634883898e7a83fc","null","null","<p style=""font-size: 60px; font-family: BACS"">YdudkGua</p>","","","","","","","","",""
"html-keyboard-response","255","585671","0.0-14.0-0.4","6171349b89a54d4823f9eca1","650c16f0f2faf8d7a0d14c09","651c1cba634883898e7a83fc","null","null","<p style=""font-size: 60px; font-family: BACS"">cBROBRdCc</p>","","","","","","","","",""
"html-keyboard-response","256","586677","0.0-14.0-0.5","6171349b89a54d4823f9eca1","650c16f0f2faf8d7a0d14c09","651c1cba634883898e7a83fc","null","null","<p style=""font-size: 60px; font-family: BACS"">GAcYkGua</p>","","","","","","","","",""
"html-keyboard-response","257","587689","0.0-14.0-0.6","6171349b89a54d4823f9eca1","650c16f0f2faf8d7a0d14c09","651c1cba634883898e7a83fc","null","null","<p style=""font-size: 60px; font-family: BACS"">dMThkRCdc</p>","","","","","","","","",""
"html-keyboard-response","258","588699","0.0-14.0-0.7","6171349b89a54d4823f9eca1","650c16f0f2faf8d7a0d14c09","651c1cba634883898e7a83fc","null","null","<p style=""font-size: 60px; font-family: BACS"">ldAakbu</p>","","","","","","","","",""
"html-keyboard-response","259","589706","0.0-14.0-0.8","6171349b89a54d4823f9eca1","650c16f0f2faf8d7a0d14c09","651c1cba634883898e7a83fc","null","null","<p style=""font-size: 60px; font-family: BACS"">bNdmGJUNa</p>","","","","","","","","",""
"html-keyboard-response","260","590714","0.0-14.0-0.9","6171349b89a54d4823f9eca1","650c16f0f2faf8d7a0d14c09","651c1cba634883898e7a83fc","null","null","<p style=""font-size: 60px; font-family: BACS"">dMThkTmc</p>","","","","","","","","",""
"html-keyboard-response","261","591724","0.0-14.0-0.10","6171349b89a54d4823f9eca1","650c16f0f2faf8d7a0d14c09","651c1cba634883898e7a83fc","null","null","<p style=""font-size: 60px; font-family: BACS"">bvkruUmb</p>","","","","","","","","",""
"html-keyboard-response","262","592732","0.0-14.0-0.11","6171349b89a54d4823f9eca1","650c16f0f2faf8d7a0d14c09","651c1cba634883898e7a83fc","null","null","<p style=""font-size: 60px; font-family: BACS"">kCRmTmc</p>","","","","","","","","",""
"html-keyboard-response","263","593742","0.0-14.0-0.12","6171349b89a54d4823f9eca1","650c16f0f2faf8d7a0d14c09","651c1cba634883898e7a83fc","null","null","<p style=""font-size: 60px; font-family: BACS"">hTDdRCdc</p>","","","","","","","","",""
"html-keyboard-response","264","594752","0.0-14.0-0.13","6171349b89a54d4823f9eca1","650c16f0f2faf8d7a0d14c09","651c1cba634883898e7a83fc","null","null","<p style=""font-size: 60px; font-family: BACS"">bNdmGcrdY</p>","","","","","","","","",""
"html-keyboard-response","265","595760","0.0-14.0-0.14","6171349b89a54d4823f9eca1","650c16f0f2faf8d7a0d14c09","651c1cba634883898e7a83fc","null","null","<p style=""font-size: 60px; font-family: BACS"">ZJLmrkbu</p>","","","","","","","","",""
"html-keyboard-response","266","596768","0.0-14.0-0.15","6171349b89a54d4823f9eca1","650c16f0f2faf8d7a0d14c09","651c1cba634883898e7a83fc","null","null","<p style=""font-size: 60px; font-family: BACS"">ALGZJUNa</p>","","","","","","","","",""
"html-keyboard-response","267","597776","0.0-14.0-0.16","6171349b89a54d4823f9eca1","650c16f0f2faf8d7a0d14c09","651c1cba634883898e7a83fc","null","null","<p style=""font-size: 60px; font-family: BACS"">tdDdOtM</p>","","","","","","","","",""
"html-keyboard-response","268","598787","0.0-14.0-0.17","6171349b89a54d4823f9eca1","650c16f0f2faf8d7a0d14c09","651c1cba634883898e7a83fc","null","null","<p style=""font-size: 60px; font-family: BACS"">bNdmGkGua</p>","","","","","","","","",""
"html-keyboard-response","269","599796","0.0-14.0-0.18","6171349b89a54d4823f9eca1","650c16f0f2faf8d7a0d14c09","651c1cba634883898e7a83fc","null","null","<p style=""font-size: 60px; font-family: BACS"">tmAKRdCc</p>","","","","","","","","",""
"html-keyboard-response","270","600805","0.0-14.0-0.19","6171349b89a54d4823f9eca1","650c16f0f2faf8d7a0d14c09","651c1cba634883898e7a83fc","null","null","<p style=""font-size: 60px; font-family: BACS"">YNrAmuUmb</p>","","","","","","","","",""
"html-keyboard-response","271","601812","0.0-14.0-0.20","6171349b89a54d4823f9eca1","650c16f0f2faf8d7a0d14c09","651c1cba634883898e7a83fc","null","null","<p style=""font-size: 60px; font-family: BACS"">tmAKTmc</p>","","","","","","","","",""
"html-keyboard-response","272","602821","0.0-14.0-0.21","6171349b89a54d4823f9eca1","650c16f0f2faf8d7a0d14c09","651c1cba634883898e7a83fc","null","null","<p style=""font-size: 60px; font-family: BACS"">ALGZkbu</p>","","","","","","","","",""
"html-keyboard-response","273","603830","0.0-14.0-0.22","6171349b89a54d4823f9eca1","650c16f0f2faf8d7a0d14c09","651c1cba634883898e7a83fc","null","null","<p style=""font-size: 60px; font-family: BACS"">UaYLkGua</p>","","","","","","","","",""
"html-keyboard-response","274","604845","0.0-14.0-0.23","6171349b89a54d4823f9eca1","650c16f0f2faf8d7a0d14c09","651c1cba634883898e7a83fc","null","null","<p style=""font-size: 60px; font-family: BACS"">YduduUmb</p>","","","","","","","","",""
"html-keyboard-response","275","605852","0.0-14.0-0.24","6171349b89a54d4823f9eca1","650c16f0f2faf8d7a0d14c09","651c1cba634883898e7a83fc","null","null","<p style=""font-size: 60px; font-family: BACS"">ldAaJUNa</p>","","","","","","","","",""
"html-keyboard-response","276","606868","0.0-14.0-0.25","6171349b89a54d4823f9eca1","650c16f0f2faf8d7a0d14c09","651c1cba634883898e7a83fc","null","null","<p style=""font-size: 60px; font-family: BACS"">tdDdRCdc</p>","","","","","","","","",""
"html-keyboard-response","277","607873","0.0-14.0-0.26","6171349b89a54d4823f9eca1","650c16f0f2faf8d7a0d14c09","651c1cba634883898e7a83fc","null","null","<p style=""font-size: 60px; font-family: BACS"">PCPDhRdCc</p>","","","","","","","","",""
"html-keyboard-response","278","608883","0.0-14.0-0.27","6171349b89a54d4823f9eca1","650c16f0f2faf8d7a0d14c09","651c1cba634883898e7a83fc","null","null","<p style=""font-size: 60px; font-family: BACS"">bvkrJUNa</p>","","","","","","","","",""
"html-keyboard-response","279","609890","0.0-14.0-0.28","6171349b89a54d4823f9eca1","650c16f0f2faf8d7a0d14c09","651c1cba634883898e7a83fc","null","null","<p style=""font-size: 60px; font-family: BACS"">hkRKOtM</p>","","","","","","","","",""
"html-keyboard-response","280","610897","0.0-14.0-0.29","6171349b89a54d4823f9eca1","650c16f0f2faf8d7a0d14c09","651c1cba634883898e7a83fc","null","null","<p style=""font-size: 60px; font-family: BACS"">ZJLmrkGua</p>","","","","","","","","",""
"html-keyboard-response","281","611897","0.0-14.0-0.30","6171349b89a54d4823f9eca1","650c16f0f2faf8d7a0d14c09","651c1cba634883898e7a83fc","null","null","<p style=""font-size: 60px; font-family: BACS"">cBROBTmc</p>","","","","","","","","",""
"html-keyboard-response","282","612911","0.0-14.0-0.31","6171349b89a54d4823f9eca1","650c16f0f2faf8d7a0d14c09","651c1cba634883898e7a83fc","null","null","<p style=""font-size: 60px; font-family: BACS"">tdDdcMRl</p>","","","","","","","","",""
"html-keyboard-response","283","613922","0.0-14.0-0.32","6171349b89a54d4823f9eca1","650c16f0f2faf8d7a0d14c09","651c1cba634883898e7a83fc","null","null","<p style=""font-size: 60px; font-family: BACS"">cBROBRCdc</p>","","","","","","","","",""
"html-keyboard-response","284","614936","0.0-14.0-0.33","6171349b89a54d4823f9eca1","650c16f0f2faf8d7a0d14c09","651c1cba634883898e7a83fc","null","null","<p style=""font-size: 60px; font-family: BACS"">kCRmOtM</p>","","","","","","","","",""
"html-keyboard-response","285","615943","0.0-14.0-0.34","6171349b89a54d4823f9eca1","650c16f0f2faf8d7a0d14c09","651c1cba634883898e7a83fc","null","null","<p style=""font-size: 60px; font-family: BACS"">bNdmGkbu</p>","","","","","","","","",""
"html-keyboard-response","286","616951","0.0-14.0-0.35","6171349b89a54d4823f9eca1","650c16f0f2faf8d7a0d14c09","651c1cba634883898e7a83fc","null","null","<p style=""font-size: 60px; font-family: BACS"">tdDdTmc</p>","","","","","","","","",""
"html-keyboard-response","287","617961","0.0-14.0-0.36","6171349b89a54d4823f9eca1","650c16f0f2faf8d7a0d14c09","651c1cba634883898e7a83fc","null","null","<p style=""font-size: 60px; font-family: BACS"">kKRCRdCc</p>","","","","","","","","",""
"html-keyboard-response","288","618966","0.0-14.0-0.37","6171349b89a54d4823f9eca1","650c16f0f2faf8d7a0d14c09","651c1cba634883898e7a83fc","null","null","<p style=""font-size: 60px; font-family: BACS"">hTDdOtM</p>","","","","","","","","",""
"html-keyboard-response","289","619976","0.0-14.0-0.38","6171349b89a54d4823f9eca1","650c16f0f2faf8d7a0d14c09","651c1cba634883898e7a83fc","null","null","<p style=""font-size: 60px; font-family: BACS"">ldAacrdY</p>","","","","","","","","",""
"html-keyboard-response","290","620988","0.0-14.0-0.39","6171349b89a54d4823f9eca1","650c16f0f2faf8d7a0d14c09","651c1cba634883898e7a83fc","null","null","<p style=""font-size: 60px; font-family: BACS"">kKRCcMRl</p>","","","","","","","","",""
"html-keyboard-response","291","621996","0.0-14.0-0.40","6171349b89a54d4823f9eca1","650c16f0f2faf8d7a0d14c09","651c1cba634883898e7a83fc","null","null","<p style=""font-size: 60px; font-family: BACS"">GAcYcrdY</p>","","","","","","","","",""
"html-keyboard-response","292","623008","0.0-14.0-0.41","6171349b89a54d4823f9eca1","650c16f0f2faf8d7a0d14c09","651c1cba634883898e7a83fc","null","null","<p style=""font-size: 60px; font-family: BACS"">YdudJUNa</p>","","","","","","","","",""
"html-keyboard-response","293","624015","0.0-14.0-0.42","6171349b89a54d4823f9eca1","650c16f0f2faf8d7a0d14c09","651c1cba634883898e7a83fc","null","null","<p style=""font-size: 60px; font-family: BACS"">hTDdTmc</p>","","","","","","","","",""
"html-keyboard-response","294","625027","0.0-14.0-0.43","6171349b89a54d4823f9eca1","650c16f0f2faf8d7a0d14c09","651c1cba634883898e7a83fc","null","null","<p style=""font-size: 60px; font-family: BACS"">ldAakGua</p>","","","","","","","","",""
"html-keyboard-response","295","626038","0.0-14.0-0.44","6171349b89a54d4823f9eca1","650c16f0f2faf8d7a0d14c09","651c1cba634883898e7a83fc","null","null","<p style=""font-size: 60px; font-family: BACS"">YNrAmcrdY</p>","","","","","","","","",""
"html-keyboard-response","296","627049","0.0-14.0-0.45","6171349b89a54d4823f9eca1","650c16f0f2faf8d7a0d14c09","651c1cba634883898e7a83fc","null","null","<p style=""font-size: 60px; font-family: BACS"">PCPDhRCdc</p>","","","","","","","","",""
"html-keyboard-response","297","628058","0.0-14.0-0.46","6171349b89a54d4823f9eca1","650c16f0f2faf8d7a0d14c09","651c1cba634883898e7a83fc","null","null","<p style=""font-size: 60px; font-family: BACS"">ZJLmrJUNa</p>","","","","","","","","",""
"html-keyboard-response","298","629069","0.0-14.0-0.47","6171349b89a54d4823f9eca1","650c16f0f2faf8d7a0d14c09","651c1cba634883898e7a83fc","null","null","<p style=""font-size: 60px; font-family: BACS"">hkRKRdCc</p>","","","","","","","","",""
"html-keyboard-response","299","630077","0.0-14.0-0.48","6171349b89a54d4823f9eca1","650c16f0f2faf8d7a0d14c09","651c1cba634883898e7a83fc","null","null","<p style=""font-size: 60px; font-family: BACS"">YNrAmJUNa</p>","","","","","","","","",""
"html-keyboard-response","300","631087","0.0-14.0-0.49","6171349b89a54d4823f9eca1","650c16f0f2faf8d7a0d14c09","651c1cba634883898e7a83fc","null","null","<p style=""font-size: 60px; font-family: BACS"">lRckARdCc</p>","","","","","","","","",""
"html-keyboard-response","301","632096","0.0-14.0-0.50","6171349b89a54d4823f9eca1","650c16f0f2faf8d7a0d14c09","651c1cba634883898e7a83fc","null","null","<p style=""font-size: 60px; font-family: BACS"">YNrAmkbu</p>","","","","","","","","",""
"html-keyboard-response","302","633105","0.0-14.0-0.51","6171349b89a54d4823f9eca1","650c16f0f2faf8d7a0d14c09","651c1cba634883898e7a83fc","null","null","<p style=""font-size: 60px; font-family: BACS"">kKRCRCdc</p>","","","","","","","","",""
"html-keyboard-response","303","634112","0.0-14.0-0.52","6171349b89a54d4823f9eca1","650c16f0f2faf8d7a0d14c09","651c1cba634883898e7a83fc","null","null","<p style=""font-size: 60px; font-family: BACS"">PCPDhOtM</p>","","","","","","","","",""
"html-keyboard-response","304","635121","0.0-14.0-0.53","6171349b89a54d4823f9eca1","650c16f0f2faf8d7a0d14c09","651c1cba634883898e7a83fc","null","null","<p style=""font-size: 60px; font-family: BACS"">dMThkRdCc</p>","","","","","","","","",""
"html-keyboard-response","305","636129","0.0-14.0-0.54","6171349b89a54d4823f9eca1","650c16f0f2faf8d7a0d14c09","651c1cba634883898e7a83fc","null","null","<p style=""font-size: 60px; font-family: BACS"">cBROBcMRl</p>","","","","","","","","",""
"html-keyboard-response","306","637133","0.0-14.0-0.55","6171349b89a54d4823f9eca1","650c16f0f2faf8d7a0d14c09","651c1cba634883898e7a83fc","null","null","<p style=""font-size: 60px; font-family: BACS"">lRckATmc</p>","","","","","","","","",""
"html-keyboard-response","307","638142","0.0-14.0-0.56","6171349b89a54d4823f9eca1","650c16f0f2faf8d7a0d14c09","651c1cba634883898e7a83fc","null","null","<p style=""font-size: 60px; font-family: BACS"">ALGZcrdY</p>","","","","","","","","",""
"html-keyboard-response","308","639152","0.0-14.0-0.57","6171349b89a54d4823f9eca1","650c16f0f2faf8d7a0d14c09","651c1cba634883898e7a83fc","null","null","<p style=""font-size: 60px; font-family: BACS"">kKRCOtM</p>","","","","","","","","",""
"html-keyboard-response","309","640163","0.0-14.0-0.58","6171349b89a54d4823f9eca1","650c16f0f2faf8d7a0d14c09","651c1cba634883898e7a83fc","null","null","<p style=""font-size: 60px; font-family: BACS"">kCRmcMRl</p>","","","","","","","","",""
"html-keyboard-response","310","641173","0.0-14.0-0.59","6171349b89a54d4823f9eca1","650c16f0f2faf8d7a0d14c09","651c1cba634883898e7a83fc","null","null","<p style=""font-size: 60px; font-family: BACS"">GAcYJUNa</p>","","","","","","","","",""
"html-keyboard-response","311","642186","0.0-14.0-0.60","6171349b89a54d4823f9eca1","650c16f0f2faf8d7a0d14c09","651c1cba634883898e7a83fc","null","null","<p style=""font-size: 60px; font-family: BACS"">kNuakbu</p>","","","","","","","","",""
"html-keyboard-response","312","643200","0.0-14.0-0.61","6171349b89a54d4823f9eca1","650c16f0f2faf8d7a0d14c09","651c1cba634883898e7a83fc","null","null","<p style=""font-size: 60px; font-family: BACS"">YdudcrdY</p>","","","","","","","","",""
"html-keyboard-response","313","644209","0.0-14.0-0.62","6171349b89a54d4823f9eca1","650c16f0f2faf8d7a0d14c09","651c1cba634883898e7a83fc","null","null","<p style=""font-size: 60px; font-family: BACS"">bvkrkGua</p>","","","","","","","","",""
"html-keyboard-response","314","645219","0.0-14.0-0.63","6171349b89a54d4823f9eca1","650c16f0f2faf8d7a0d14c09","651c1cba634883898e7a83fc","null","null","<p style=""font-size: 60px; font-family: BACS"">PCPDhcMRl</p>","","","","","","","","",""
"html-keyboard-response","315","646233","0.0-14.0-0.64","6171349b89a54d4823f9eca1","650c16f0f2faf8d7a0d14c09","651c1cba634883898e7a83fc","null","null","<p style=""font-size: 60px; font-family: BACS"">kNuacrdY</p>","","","","","","","","",""
"html-keyboard-response","316","647246","0.0-14.0-0.65","6171349b89a54d4823f9eca1","650c16f0f2faf8d7a0d14c09","651c1cba634883898e7a83fc","null","null","<p style=""font-size: 60px; font-family: BACS"">kCRmRCdc</p>","","","","","","","","",""
"html-keyboard-response","317","648255","0.0-14.0-0.66","6171349b89a54d4823f9eca1","650c16f0f2faf8d7a0d14c09","651c1cba634883898e7a83fc","null","null","<p style=""font-size: 60px; font-family: BACS"">hTDdRdCc</p>","","","","","","","","",""
"html-keyboard-response","318","649270","0.0-14.0-0.67","6171349b89a54d4823f9eca1","650c16f0f2faf8d7a0d14c09","651c1cba634883898e7a83fc","null","null","<p style=""font-size: 60px; font-family: BACS"">kNuauUmb</p>","","","","","","","","",""
"html-keyboard-response","319","650282","0.0-14.0-0.68","6171349b89a54d4823f9eca1","650c16f0f2faf8d7a0d14c09","651c1cba634883898e7a83fc","null","null","<p style=""font-size: 60px; font-family: BACS"">dMThkOtM</p>","","","","","","","","",""
"html-keyboard-response","320","651291","0.0-14.0-0.69","6171349b89a54d4823f9eca1","650c16f0f2faf8d7a0d14c09","651c1cba634883898e7a83fc","null","null","<p style=""font-size: 60px; font-family: BACS"">UaYLuUmb</p>","","","","","","","","",""
"html-keyboard-response","321","652297","0.0-14.0-0.70","6171349b89a54d4823f9eca1","650c16f0f2faf8d7a0d14c09","651c1cba634883898e7a83fc","null","null","<p style=""font-size: 60px; font-family: BACS"">hkRKTmc</p>","","","","","","","","",""
"html-keyboard-response","322","653309","0.0-14.0-0.71","6171349b89a54d4823f9eca1","650c16f0f2faf8d7a0d14c09","651c1cba634883898e7a83fc","null","null","<p style=""font-size: 60px; font-family: BACS"">ALGZuUmb</p>","","","","","","","","",""
"html-keyboard-response","323","654314","0.0-14.0-0.72","6171349b89a54d4823f9eca1","650c16f0f2faf8d7a0d14c09","651c1cba634883898e7a83fc","null","null","<p style=""font-size: 60px; font-family: BACS"">UaYLkbu</p>","","","","","","","","",""
"html-keyboard-response","324","655321","0.0-14.0-0.73","6171349b89a54d4823f9eca1","650c16f0f2faf8d7a0d14c09","651c1cba634883898e7a83fc","null","null","<p style=""font-size: 60px; font-family: BACS"">lRckARCdc</p>","","","","","","","","",""
"html-keyboard-response","325","656332","0.0-14.0-0.74","6171349b89a54d4823f9eca1","650c16f0f2faf8d7a0d14c09","651c1cba634883898e7a83fc","null","null","<p style=""font-size: 60px; font-family: BACS"">hkRKcMRl</p>","","","","","","","","",""
"html-keyboard-response","326","657339","0.0-14.0-0.75","6171349b89a54d4823f9eca1","650c16f0f2faf8d7a0d14c09","651c1cba634883898e7a83fc","null","null","<p style=""font-size: 60px; font-family: BACS"">UaYLcrdY</p>","","","","","","","","",""
"html-keyboard-response","327","658352","0.0-14.0-0.76","6171349b89a54d4823f9eca1","650c16f0f2faf8d7a0d14c09","651c1cba634883898e7a83fc","null","null","<p style=""font-size: 60px; font-family: BACS"">kNuakGua</p>","","","","","","","","",""
"html-keyboard-response","328","659365","0.0-14.0-0.77","6171349b89a54d4823f9eca1","650c16f0f2faf8d7a0d14c09","651c1cba634883898e7a83fc","null","null","<p style=""font-size: 60px; font-family: BACS"">lRckAcMRl</p>","","","","","","","","",""
"html-keyboard-response","329","660373","0.0-14.0-0.78","6171349b89a54d4823f9eca1","650c16f0f2faf8d7a0d14c09","651c1cba634883898e7a83fc","null","null","<p style=""font-size: 60px; font-family: BACS"">tmAKOtM</p>","","","","","","","","",""
"html-keyboard-response","330","661386","0.0-14.0-0.79","6171349b89a54d4823f9eca1","650c16f0f2faf8d7a0d14c09","651c1cba634883898e7a83fc","null","null","<p style=""font-size: 60px; font-family: BACS"">ZJLmruUmb</p>","","","","","","","","",""
"html-keyboard-response","331","730653","0.0-15.0","6171349b89a54d4823f9eca1","650c16f0f2faf8d7a0d14c09","651c1cba634883898e7a83fc","69267"," ","<p>Great, you've seen the fourth block of words. You may now take a short break.</p>
      <p>Press the spacebar when you're ready to continue.</p>","","","","","","","","",""
"html-keyboard-response","332","731663","0.0-16.0-0.0","6171349b89a54d4823f9eca1","650c16f0f2faf8d7a0d14c09","651c1cba634883898e7a83fc","null","null","<p style=""font-size: 60px; font-family: BACS"">tdDdOtM</p>","","","","","","","","",""
"html-keyboard-response","333","732670","0.0-16.0-0.1","6171349b89a54d4823f9eca1","650c16f0f2faf8d7a0d14c09","651c1cba634883898e7a83fc","null","null","<p style=""font-size: 60px; font-family: BACS"">tdDdOtM</p>","","","","","","","","",""
"html-keyboard-response","334","733681","0.0-16.0-0.2","6171349b89a54d4823f9eca1","650c16f0f2faf8d7a0d14c09","651c1cba634883898e7a83fc","null","null","<p style=""font-size: 60px; font-family: BACS"">tdDdOtM</p>","","","","","","","","",""
"html-keyboard-response","335","734685","0.0-16.0-0.3","6171349b89a54d4823f9eca1","650c16f0f2faf8d7a0d14c09","651c1cba634883898e7a83fc","null","null","<p style=""font-size: 60px; font-family: BACS"">tdDdOtM</p>","","","","","","","","",""
"html-keyboard-response","336","735694","0.0-16.0-0.4","6171349b89a54d4823f9eca1","650c16f0f2faf8d7a0d14c09","651c1cba634883898e7a83fc","null","null","<p style=""font-size: 60px; font-family: BACS"">tdDdOtM</p>","","","","","","","","",""
"html-keyboard-response","337","736699","0.0-16.0-0.5","6171349b89a54d4823f9eca1","650c16f0f2faf8d7a0d14c09","651c1cba634883898e7a83fc","null","null","<p style=""font-size: 60px; font-family: BACS"">tdDdOtM</p>","","","","","","","","",""
"html-keyboard-response","338","737710","0.0-16.0-0.6","6171349b89a54d4823f9eca1","650c16f0f2faf8d7a0d14c09","651c1cba634883898e7a83fc","null","null","<p style=""font-size: 60px; font-family: BACS"">tdDdOtM</p>","","","","","","","","",""
"html-keyboard-response","339","738725","0.0-16.0-0.7","6171349b89a54d4823f9eca1","650c16f0f2faf8d7a0d14c09","651c1cba634883898e7a83fc","null","null","<p style=""font-size: 60px; font-family: BACS"">tdDdOtM</p>","","","","","","","","",""
"html-keyboard-response","340","739735","0.0-16.0-0.8","6171349b89a54d4823f9eca1","650c16f0f2faf8d7a0d14c09","651c1cba634883898e7a83fc","null","null","<p style=""font-size: 60px; font-family: BACS"">tdDdOtM</p>","","","","","","","","",""
"html-keyboard-response","341","740740","0.0-16.0-0.9","6171349b89a54d4823f9eca1","650c16f0f2faf8d7a0d14c09","651c1cba634883898e7a83fc","null","null","<p style=""font-size: 60px; font-family: BACS"">tdDdOtM</p>","","","","","","","","",""
"html-keyboard-response","342","741749","0.0-16.0-0.10","6171349b89a54d4823f9eca1","650c16f0f2faf8d7a0d14c09","651c1cba634883898e7a83fc","null","null","<p style=""font-size: 60px; font-family: BACS"">tdDdOtM</p>","","","","","","","","",""
"html-keyboard-response","343","742760","0.0-16.0-0.11","6171349b89a54d4823f9eca1","650c16f0f2faf8d7a0d14c09","651c1cba634883898e7a83fc","null","null","<p style=""font-size: 60px; font-family: BACS"">tdDdOtM</p>","","","","","","","","",""
"html-keyboard-response","344","743771","0.0-16.0-0.12","6171349b89a54d4823f9eca1","650c16f0f2faf8d7a0d14c09","651c1cba634883898e7a83fc","null","null","<p style=""font-size: 60px; font-family: BACS"">tdDdOtM</p>","","","","","","","","",""
"html-keyboard-response","345","744788","0.0-16.0-0.13","6171349b89a54d4823f9eca1","650c16f0f2faf8d7a0d14c09","651c1cba634883898e7a83fc","null","null","<p style=""font-size: 60px; font-family: BACS"">tdDdOtM</p>","","","","","","","","",""
"html-keyboard-response","346","745800","0.0-16.0-0.14","6171349b89a54d4823f9eca1","650c16f0f2faf8d7a0d14c09","651c1cba634883898e7a83fc","null","null","<p style=""font-size: 60px; font-family: BACS"">tdDdOtM</p>","","","","","","","","",""
"html-keyboard-response","347","746805","0.0-16.0-0.15","6171349b89a54d4823f9eca1","650c16f0f2faf8d7a0d14c09","651c1cba634883898e7a83fc","null","null","<p style=""font-size: 60px; font-family: BACS"">tdDdOtM</p>","","","","","","","","",""
"html-keyboard-response","348","747816","0.0-16.0-0.16","6171349b89a54d4823f9eca1","650c16f0f2faf8d7a0d14c09","651c1cba634883898e7a83fc","null","null","<p style=""font-size: 60px; font-family: BACS"">tdDdOtM</p>","","","","","","","","",""
"html-keyboard-response","349","748829","0.0-16.0-0.17","6171349b89a54d4823f9eca1","650c16f0f2faf8d7a0d14c09","651c1cba634883898e7a83fc","null","null","<p style=""font-size: 60px; font-family: BACS"">tdDdOtM</p>","","","","","","","","",""
"html-keyboard-response","350","749837","0.0-16.0-0.18","6171349b89a54d4823f9eca1","650c16f0f2faf8d7a0d14c09","651c1cba634883898e7a83fc","null","null","<p style=""font-size: 60px; font-family: BACS"">tdDdOtM</p>","","","","","","","","",""
"html-keyboard-response","351","750844","0.0-16.0-0.19","6171349b89a54d4823f9eca1","650c16f0f2faf8d7a0d14c09","651c1cba634883898e7a83fc","null","null","<p style=""font-size: 60px; font-family: BACS"">tdDdOtM</p>","","","","","","","","",""
"html-keyboard-response","352","751848","0.0-16.0-0.20","6171349b89a54d4823f9eca1","650c16f0f2faf8d7a0d14c09","651c1cba634883898e7a83fc","null","null","<p style=""font-size: 60px; font-family: BACS"">tdDdOtM</p>","","","","","","","","",""
"html-keyboard-response","353","752854","0.0-16.0-0.21","6171349b89a54d4823f9eca1","650c16f0f2faf8d7a0d14c09","651c1cba634883898e7a83fc","null","null","<p style=""font-size: 60px; font-family: BACS"">tdDdOtM</p>","","","","","","","","",""
"html-keyboard-response","354","753861","0.0-16.0-0.22","6171349b89a54d4823f9eca1","650c16f0f2faf8d7a0d14c09","651c1cba634883898e7a83fc","null","null","<p style=""font-size: 60px; font-family: BACS"">tdDdOtM</p>","","","","","","","","",""
"html-keyboard-response","355","754872","0.0-16.0-0.23","6171349b89a54d4823f9eca1","650c16f0f2faf8d7a0d14c09","651c1cba634883898e7a83fc","null","null","<p style=""font-size: 60px; font-family: BACS"">tdDdOtM</p>","","","","","","","","",""
"html-keyboard-response","356","755879","0.0-16.0-0.24","6171349b89a54d4823f9eca1","650c16f0f2faf8d7a0d14c09","651c1cba634883898e7a83fc","null","null","<p style=""font-size: 60px; font-family: BACS"">tdDdOtM</p>","","","","","","","","",""
"html-keyboard-response","357","756888","0.0-16.0-0.25","6171349b89a54d4823f9eca1","650c16f0f2faf8d7a0d14c09","651c1cba634883898e7a83fc","null","null","<p style=""font-size: 60px; font-family: BACS"">tdDdOtM</p>","","","","","","","","",""
"html-keyboard-response","358","757896","0.0-16.0-0.26","6171349b89a54d4823f9eca1","650c16f0f2faf8d7a0d14c09","651c1cba634883898e7a83fc","null","null","<p style=""font-size: 60px; font-family: BACS"">tdDdOtM</p>","","","","","","","","",""
"html-keyboard-response","359","758904","0.0-16.0-0.27","6171349b89a54d4823f9eca1","650c16f0f2faf8d7a0d14c09","651c1cba634883898e7a83fc","null","null","<p style=""font-size: 60px; font-family: BACS"">tdDdOtM</p>","","","","","","","","",""
"html-keyboard-response","360","759908","0.0-16.0-0.28","6171349b89a54d4823f9eca1","650c16f0f2faf8d7a0d14c09","651c1cba634883898e7a83fc","null","null","<p style=""font-size: 60px; font-family: BACS"">tdDdOtM</p>","","","","","","","","",""
"html-keyboard-response","361","760921","0.0-16.0-0.29","6171349b89a54d4823f9eca1","650c16f0f2faf8d7a0d14c09","651c1cba634883898e7a83fc","null","null","<p style=""font-size: 60px; font-family: BACS"">tdDdOtM</p>","","","","","","","","",""
"html-keyboard-response","362","761931","0.0-16.0-0.30","6171349b89a54d4823f9eca1","650c16f0f2faf8d7a0d14c09","651c1cba634883898e7a83fc","null","null","<p style=""font-size: 60px; font-family: BACS"">tdDdOtM</p>","","","","","","","","",""
"html-keyboard-response","363","762938","0.0-16.0-0.31","6171349b89a54d4823f9eca1","650c16f0f2faf8d7a0d14c09","651c1cba634883898e7a83fc","null","null","<p style=""font-size: 60px; font-family: BACS"">tdDdOtM</p>","","","","","","","","",""
"html-keyboard-response","364","763953","0.0-16.0-0.32","6171349b89a54d4823f9eca1","650c16f0f2faf8d7a0d14c09","651c1cba634883898e7a83fc","null","null","<p style=""font-size: 60px; font-family: BACS"">tdDdOtM</p>","","","","","","","","",""
"html-keyboard-response","365","764966","0.0-16.0-0.33","6171349b89a54d4823f9eca1","650c16f0f2faf8d7a0d14c09","651c1cba634883898e7a83fc","null","null","<p style=""font-size: 60px; font-family: BACS"">tdDdOtM</p>","","","","","","","","",""
"html-keyboard-response","366","765974","0.0-16.0-0.34","6171349b89a54d4823f9eca1","650c16f0f2faf8d7a0d14c09","651c1cba634883898e7a83fc","null","null","<p style=""font-size: 60px; font-family: BACS"">tdDdOtM</p>","","","","","","","","",""
"html-keyboard-response","367","766981","0.0-16.0-0.35","6171349b89a54d4823f9eca1","650c16f0f2faf8d7a0d14c09","651c1cba634883898e7a83fc","null","null","<p style=""font-size: 60px; font-family: BACS"">tdDdOtM</p>","","","","","","","","",""
"html-keyboard-response","368","767987","0.0-16.0-0.36","6171349b89a54d4823f9eca1","650c16f0f2faf8d7a0d14c09","651c1cba634883898e7a83fc","null","null","<p style=""font-size: 60px; font-family: BACS"">tdDdOtM</p>","","","","","","","","",""
"html-keyboard-response","369","768996","0.0-16.0-0.37","6171349b89a54d4823f9eca1","650c16f0f2faf8d7a0d14c09","651c1cba634883898e7a83fc","null","null","<p style=""font-size: 60px; font-family: BACS"">tdDdOtM</p>","","","","","","","","",""
"html-keyboard-response","370","769997","0.0-16.0-0.38","6171349b89a54d4823f9eca1","650c16f0f2faf8d7a0d14c09","651c1cba634883898e7a83fc","null","null","<p style=""font-size: 60px; font-family: BACS"">tdDdOtM</p>","","","","","","","","",""
"html-keyboard-response","371","770999","0.0-16.0-0.39","6171349b89a54d4823f9eca1","650c16f0f2faf8d7a0d14c09","651c1cba634883898e7a83fc","null","null","<p style=""font-size: 60px; font-family: BACS"">tdDdOtM</p>","","","","","","","","",""
"html-keyboard-response","372","772005","0.0-16.0-0.40","6171349b89a54d4823f9eca1","650c16f0f2faf8d7a0d14c09","651c1cba634883898e7a83fc","null","null","<p style=""font-size: 60px; font-family: BACS"">tdDdOtM</p>","","","","","","","","",""
"html-keyboard-response","373","773014","0.0-16.0-0.41","6171349b89a54d4823f9eca1","650c16f0f2faf8d7a0d14c09","651c1cba634883898e7a83fc","null","null","<p style=""font-size: 60px; font-family: BACS"">tdDdOtM</p>","","","","","","","","",""
"html-keyboard-response","374","774022","0.0-16.0-0.42","6171349b89a54d4823f9eca1","650c16f0f2faf8d7a0d14c09","651c1cba634883898e7a83fc","null","null","<p style=""font-size: 60px; font-family: BACS"">tdDdOtM</p>","","","","","","","","",""
"html-keyboard-response","375","775031","0.0-16.0-0.43","6171349b89a54d4823f9eca1","650c16f0f2faf8d7a0d14c09","651c1cba634883898e7a83fc","null","null","<p style=""font-size: 60px; font-family: BACS"">tdDdOtM</p>","","","","","","","","",""
"html-keyboard-response","376","776040","0.0-16.0-0.44","6171349b89a54d4823f9eca1","650c16f0f2faf8d7a0d14c09","651c1cba634883898e7a83fc","null","null","<p style=""font-size: 60px; font-family: BACS"">tdDdOtM</p>","","","","","","","","",""
"html-keyboard-response","377","777051","0.0-16.0-0.45","6171349b89a54d4823f9eca1","650c16f0f2faf8d7a0d14c09","651c1cba634883898e7a83fc","null","null","<p style=""font-size: 60px; font-family: BACS"">tdDdOtM</p>","","","","","","","","",""
"html-keyboard-response","378","778059","0.0-16.0-0.46","6171349b89a54d4823f9eca1","650c16f0f2faf8d7a0d14c09","651c1cba634883898e7a83fc","null","null","<p style=""font-size: 60px; font-family: BACS"">tdDdOtM</p>","","","","","","","","",""
"html-keyboard-response","379","779069","0.0-16.0-0.47","6171349b89a54d4823f9eca1","650c16f0f2faf8d7a0d14c09","651c1cba634883898e7a83fc","null","null","<p style=""font-size: 60px; font-family: BACS"">tdDdOtM</p>","","","","","","","","",""
"html-keyboard-response","380","780081","0.0-16.0-0.48","6171349b89a54d4823f9eca1","650c16f0f2faf8d7a0d14c09","651c1cba634883898e7a83fc","null","null","<p style=""font-size: 60px; font-family: BACS"">tdDdOtM</p>","","","","","","","","",""
"html-keyboard-response","381","781090","0.0-16.0-0.49","6171349b89a54d4823f9eca1","650c16f0f2faf8d7a0d14c09","651c1cba634883898e7a83fc","null","null","<p style=""font-size: 60px; font-family: BACS"">tdDdOtM</p>","","","","","","","","",""
"html-keyboard-response","382","782098","0.0-16.0-0.50","6171349b89a54d4823f9eca1","650c16f0f2faf8d7a0d14c09","651c1cba634883898e7a83fc","null","null","<p style=""font-size: 60px; font-family: BACS"">tdDdOtM</p>","","","","","","","","",""
"html-keyboard-response","383","783111","0.0-16.0-0.51","6171349b89a54d4823f9eca1","650c16f0f2faf8d7a0d14c09","651c1cba634883898e7a83fc","null","null","<p style=""font-size: 60px; font-family: BACS"">tdDdOtM</p>","","","","","","","","",""
"html-keyboard-response","384","784117","0.0-16.0-0.52","6171349b89a54d4823f9eca1","650c16f0f2faf8d7a0d14c09","651c1cba634883898e7a83fc","null","null","<p style=""font-size: 60px; font-family: BACS"">tdDdOtM</p>","","","","","","","","",""
"html-keyboard-response","385","785124","0.0-16.0-0.53","6171349b89a54d4823f9eca1","650c16f0f2faf8d7a0d14c09","651c1cba634883898e7a83fc","null","null","<p style=""font-size: 60px; font-family: BACS"">tdDdOtM</p>","","","","","","","","",""
"html-keyboard-response","386","786140","0.0-16.0-0.54","6171349b89a54d4823f9eca1","650c16f0f2faf8d7a0d14c09","651c1cba634883898e7a83fc","null","null","<p style=""font-size: 60px; font-family: BACS"">tdDdOtM</p>","","","","","","","","",""
"html-keyboard-response","387","787147","0.0-16.0-0.55","6171349b89a54d4823f9eca1","650c16f0f2faf8d7a0d14c09","651c1cba634883898e7a83fc","null","null","<p style=""font-size: 60px; font-family: BACS"">tdDdOtM</p>","","","","","","","","",""
"html-keyboard-response","388","788154","0.0-16.0-0.56","6171349b89a54d4823f9eca1","650c16f0f2faf8d7a0d14c09","651c1cba634883898e7a83fc","null","null","<p style=""font-size: 60px; font-family: BACS"">tdDdOtM</p>","","","","","","","","",""
"html-keyboard-response","389","789159","0.0-16.0-0.57","6171349b89a54d4823f9eca1","650c16f0f2faf8d7a0d14c09","651c1cba634883898e7a83fc","null","null","<p style=""font-size: 60px; font-family: BACS"">tdDdOtM</p>","","","","","","","","",""
"html-keyboard-response","390","790167","0.0-16.0-0.58","6171349b89a54d4823f9eca1","650c16f0f2faf8d7a0d14c09","651c1cba634883898e7a83fc","null","null","<p style=""font-size: 60px; font-family: BACS"">tdDdOtM</p>","","","","","","","","",""
"html-keyboard-response","391","791173","0.0-16.0-0.59","6171349b89a54d4823f9eca1","650c16f0f2faf8d7a0d14c09","651c1cba634883898e7a83fc","null","null","<p style=""font-size: 60px; font-family: BACS"">tdDdOtM</p>","","","","","","","","",""
"html-keyboard-response","392","792181","0.0-16.0-0.60","6171349b89a54d4823f9eca1","650c16f0f2faf8d7a0d14c09","651c1cba634883898e7a83fc","null","null","<p style=""font-size: 60px; font-family: BACS"">tdDdOtM</p>","","","","","","","","",""
"html-keyboard-response","393","793187","0.0-16.0-0.61","6171349b89a54d4823f9eca1","650c16f0f2faf8d7a0d14c09","651c1cba634883898e7a83fc","null","null","<p style=""font-size: 60px; font-family: BACS"">tdDdOtM</p>","","","","","","","","",""
"html-keyboard-response","394","794195","0.0-16.0-0.62","6171349b89a54d4823f9eca1","650c16f0f2faf8d7a0d14c09","651c1cba634883898e7a83fc","null","null","<p style=""font-size: 60px; font-family: BACS"">tdDdOtM</p>","","","","","","","","",""
"html-keyboard-response","395","795203","0.0-16.0-0.63","6171349b89a54d4823f9eca1","650c16f0f2faf8d7a0d14c09","651c1cba634883898e7a83fc","null","null","<p style=""font-size: 60px; font-family: BACS"">tdDdOtM</p>","","","","","","","","",""
"html-keyboard-response","396","796210","0.0-16.0-0.64","6171349b89a54d4823f9eca1","650c16f0f2faf8d7a0d14c09","651c1cba634883898e7a83fc","null","null","<p style=""font-size: 60px; font-family: BACS"">tdDdOtM</p>","","","","","","","","",""
"html-keyboard-response","397","797221","0.0-16.0-0.65","6171349b89a54d4823f9eca1","650c16f0f2faf8d7a0d14c09","651c1cba634883898e7a83fc","null","null","<p style=""font-size: 60px; font-family: BACS"">tdDdOtM</p>","","","","","","","","",""
"html-keyboard-response","398","798229","0.0-16.0-0.66","6171349b89a54d4823f9eca1","650c16f0f2faf8d7a0d14c09","651c1cba634883898e7a83fc","null","null","<p style=""font-size: 60px; font-family: BACS"">tdDdOtM</p>","","","","","","","","",""
