trial_type,trial_index,time_elapsed,internal_node_id,subject_id,study_id,session_id,rt,response,stimulus,success,item,task,correct_response,testing_condition,correct,target,confound,name,view_history
pavlovia,0,983,0.0-0.0,5ea9611edec14d052ada0bae,650c16f0f2faf8d7a0d14c09,651c1e97cef5dc96a09501bf,,,,,,,,,,,,,
survey-html-form,1,7309,0.0-1.0,5ea9611edec14d052ada0bae,650c16f0f2faf8d7a0d14c09,651c1e97cef5dc96a09501bf,6324,"{""ID"":""5ea9611edec14d052ada0bae""}",,,,,,,,,,,
html-keyboard-response,2,19227,0.0-2.0,5ea9611edec14d052ada0bae,650c16f0f2faf8d7a0d14c09,651c1e97cef5dc96a09501bf,11917, ,"<p style=""font-size: 15px;"">Before beginning, we ask that you read the consent information and confirm your agreement to participate in the experiment.</p>
      <p style=""font-size: 15px;""> We ask that you remember that this is a research project and that your participation is entirely voluntary. You can stop your participation at any time, without needing to provide any explanation. The study we're asking you to participate in aims at examining how readers process written words. You will be engaged in a session of apprximately 20 minutes, followed by a brief questionnaire. You will have the opportunity to take a few breaks during the experiment. You will be paid £4 for your participation, corresponding to a rate of £8/hour. While this experiment looks at cognitive faculties, this experiment doesn't constitute clinical proof of eventual pathologies.</p>
      <p style=""font-size: 15px;"">All of the information collected thanks to yours and others' participation will be held in a secure password-protected server, and will not be shared with anyone not authorised to view it. Your personal information will be kept with an arbitrary participant ID. Thanks to this data anonymity process, any researcher analysing the data won't be able to track the information back to a specific participant. Therefore, this process will make identifying you impossibile, even when results from the study will be published in scientific reviews, presented at congresses, or at any other public forum. More generally, the collected data will be treated in accordance with the laws on privacy and conformity to the Legislative Degree n. 196 ""Code regarding the protection of personal data"" of the 30th of June 2003 and to the European Regulation 2016/670 (General Data Protection Regulation - GDPR). The Data Protection Officer is Avv. Valentina Carollo, who can be contacted at the following email addresses: <a href=""mailto:dpo@sissa.it"">dpo@sissa.it</a> or <a href=""mailto:rpd@sissa.it"">rpd@sissa.it</a> - PEC: <a href=""mailto:protocollo@pec.sissa.it"">protocollo@pec.sissa.it</a>.</p>
      <p style=""font-size: 15px;""> Before expressing your consent to participate, we would like to remind you again that in case you need explanations on any aspect of the experimental procedure, the researcher is at your disposition (<a href=""mailto:aliebelt@sissa.it"">aliebelt@sissa.it</a>, <a href=""mailto:davide.crepaldi@sissa.it"">davide.crepaldi@sissa.it</a>).</p>
      <p style=""font-size: 15px;"">If you would like to download the informed consent form, you can do so here: <a href=""BASL-Informed_Consent.pdf"" download>informed consent form</a>.</p>
      <p style=""font-size: 15px;"">We ask that you press the spacebar to proceed to the consent section.</p>",,,,,,,,,,
survey-html-form,3,27805,0.0-3.0,5ea9611edec14d052ada0bae,650c16f0f2faf8d7a0d14c09,651c1e97cef5dc96a09501bf,8578,"{""consent1"":""YES"",""consent2"":""YES"",""consent3"":""YES"",""consent4"":""YES"",""consent5"":""YES"",""consent6"":""YES""}",,,,,,,,,,,
fullscreen,4,33615,0.0-4.0,5ea9611edec14d052ada0bae,650c16f0f2faf8d7a0d14c09,651c1e97cef5dc96a09501bf,,,,TRUE,,,,,,,,,
html-keyboard-response,5,49578,0.0-5.0,5ea9611edec14d052ada0bae,650c16f0f2faf8d7a0d14c09,651c1e97cef5dc96a09501bf,15962, ,"<p>Welcome, and thank you very much for your time!</p>
      <p>In this experiment, you'll be a language expert who's been asked to take a look at words that Earth has received in its first communication with aliens. Your task, in this first part of the experiment, is to pay close attention to the words you'll be shown; later, world leaders will ask you questions on what you saw. The words will be shown to you quite quickly; it seems that the aliens were in a hurry :-)</p>
      <p>Press the spacebar to continue.<p>",,,,,,,,,,
html-keyboard-response,6,49629,0.0-6.0,5ea9611edec14d052ada0bae,650c16f0f2faf8d7a0d14c09,651c1e97cef5dc96a09501bf,null,null,"<p style=""font-size: 120px; font-family: BACS""> </p>",,,,,,,,,,
html-keyboard-response,7,58136,0.0-7.0,5ea9611edec14d052ada0bae,650c16f0f2faf8d7a0d14c09,651c1e97cef5dc96a09501bf,8507, ,"<p>Here is an example of the words you'll see:</p>
      <img src='esempio.png' height='400px'>
      <p>When you're ready to begin, press the spacebar.</p></div>",,,,,,,,,,
html-keyboard-response,8,59145,0.0-8.0-0.0,5ea9611edec14d052ada0bae,650c16f0f2faf8d7a0d14c09,651c1e97cef5dc96a09501bf,null,null,"<p style=""font-size: 60px; font-family: BACS"">OdlNmLUOk</p>",,,,,,,,,,
html-keyboard-response,9,60154,0.0-8.0-0.1,5ea9611edec14d052ada0bae,650c16f0f2faf8d7a0d14c09,651c1e97cef5dc96a09501bf,null,null,"<p style=""font-size: 60px; font-family: BACS"">UrOQLkNc</p>",,,,,,,,,,
html-keyboard-response,10,61167,0.0-8.0-0.2,5ea9611edec14d052ada0bae,650c16f0f2faf8d7a0d14c09,651c1e97cef5dc96a09501bf,null,null,"<p style=""font-size: 60px; font-family: BACS"">mBYlBbM</p>",,,,,,,,,,
html-keyboard-response,11,62176,0.0-8.0-0.3,5ea9611edec14d052ada0bae,650c16f0f2faf8d7a0d14c09,651c1e97cef5dc96a09501bf,null,null,"<p style=""font-size: 60px; font-family: BACS"">NJZlLkNc</p>",,,,,,,,,,
html-keyboard-response,12,63189,0.0-8.0-0.4,5ea9611edec14d052ada0bae,650c16f0f2faf8d7a0d14c09,651c1e97cef5dc96a09501bf,null,null,"<p style=""font-size: 60px; font-family: BACS"">YOaAbLUOk</p>",,,,,,,,,,
html-keyboard-response,13,64202,0.0-8.0-0.5,5ea9611edec14d052ada0bae,650c16f0f2faf8d7a0d14c09,651c1e97cef5dc96a09501bf,null,null,"<p style=""font-size: 60px; font-family: BACS"">QcQAJLkNc</p>",,,,,,,,,,
html-keyboard-response,14,65214,0.0-8.0-0.6,5ea9611edec14d052ada0bae,650c16f0f2faf8d7a0d14c09,651c1e97cef5dc96a09501bf,null,null,"<p style=""font-size: 60px; font-family: BACS"">ODBDAcMRl</p>",,,,,,,,,,
html-keyboard-response,15,66217,0.0-8.0-0.7,5ea9611edec14d052ada0bae,650c16f0f2faf8d7a0d14c09,651c1e97cef5dc96a09501bf,null,null,"<p style=""font-size: 60px; font-family: BACS"">kdEdYPMd</p>",,,,,,,,,,
html-keyboard-response,16,67228,0.0-8.0-0.8,5ea9611edec14d052ada0bae,650c16f0f2faf8d7a0d14c09,651c1e97cef5dc96a09501bf,null,null,"<p style=""font-size: 60px; font-family: BACS"">muYNLUOk</p>",,,,,,,,,,
html-keyboard-response,17,68241,0.0-8.0-0.9,5ea9611edec14d052ada0bae,650c16f0f2faf8d7a0d14c09,651c1e97cef5dc96a09501bf,null,null,"<p style=""font-size: 60px; font-family: BACS"">kPkRAmCd</p>",,,,,,,,,,
html-keyboard-response,18,69253,0.0-8.0-0.10,5ea9611edec14d052ada0bae,650c16f0f2faf8d7a0d14c09,651c1e97cef5dc96a09501bf,null,null,"<p style=""font-size: 60px; font-family: BACS"">KMDYtBbM</p>",,,,,,,,,,
html-keyboard-response,19,70263,0.0-8.0-0.11,5ea9611edec14d052ada0bae,650c16f0f2faf8d7a0d14c09,651c1e97cef5dc96a09501bf,null,null,"<p style=""font-size: 60px; font-family: BACS"">kdEdYmCd</p>",,,,,,,,,,
html-keyboard-response,20,71273,0.0-8.0-0.12,5ea9611edec14d052ada0bae,650c16f0f2faf8d7a0d14c09,651c1e97cef5dc96a09501bf,null,null,"<p style=""font-size: 60px; font-family: BACS"">ODBDAPMd</p>",,,,,,,,,,
html-keyboard-response,21,72288,0.0-8.0-0.13,5ea9611edec14d052ada0bae,650c16f0f2faf8d7a0d14c09,651c1e97cef5dc96a09501bf,null,null,"<p style=""font-size: 60px; font-family: BACS"">dGLAluUY</p>",,,,,,,,,,
html-keyboard-response,22,73298,0.0-8.0-0.14,5ea9611edec14d052ada0bae,650c16f0f2faf8d7a0d14c09,651c1e97cef5dc96a09501bf,null,null,"<p style=""font-size: 60px; font-family: BACS"">BECkBbM</p>",,,,,,,,,,
html-keyboard-response,23,74300,0.0-8.0-0.15,5ea9611edec14d052ada0bae,650c16f0f2faf8d7a0d14c09,651c1e97cef5dc96a09501bf,null,null,"<p style=""font-size: 60px; font-family: BACS"">PMPtkcMRl</p>",,,,,,,,,,
html-keyboard-response,24,75302,0.0-8.0-0.16,5ea9611edec14d052ada0bae,650c16f0f2faf8d7a0d14c09,651c1e97cef5dc96a09501bf,null,null,"<p style=""font-size: 60px; font-family: BACS"">kdEdYTPOM</p>",,,,,,,,,,
html-keyboard-response,25,76306,0.0-8.0-0.17,5ea9611edec14d052ada0bae,650c16f0f2faf8d7a0d14c09,651c1e97cef5dc96a09501bf,null,null,"<p style=""font-size: 60px; font-family: BACS"">AMkCPMd</p>",,,,,,,,,,
html-keyboard-response,26,77318,0.0-8.0-0.18,5ea9611edec14d052ada0bae,650c16f0f2faf8d7a0d14c09,651c1e97cef5dc96a09501bf,null,null,"<p style=""font-size: 60px; font-family: BACS"">NJZluUY</p>",,,,,,,,,,
html-keyboard-response,27,78330,0.0-8.0-0.19,5ea9611edec14d052ada0bae,650c16f0f2faf8d7a0d14c09,651c1e97cef5dc96a09501bf,null,null,"<p style=""font-size: 60px; font-family: BACS"">OdlNmOcN</p>",,,,,,,,,,
html-keyboard-response,28,79346,0.0-8.0-0.20,5ea9611edec14d052ada0bae,650c16f0f2faf8d7a0d14c09,651c1e97cef5dc96a09501bf,null,null,"<p style=""font-size: 60px; font-family: BACS"">mBYlmCd</p>",,,,,,,,,,
html-keyboard-response,29,80356,0.0-8.0-0.21,5ea9611edec14d052ada0bae,650c16f0f2faf8d7a0d14c09,651c1e97cef5dc96a09501bf,null,null,"<p style=""font-size: 60px; font-family: BACS"">ZcGdNOcN</p>",,,,,,,,,,
html-keyboard-response,30,81372,0.0-8.0-0.22,5ea9611edec14d052ada0bae,650c16f0f2faf8d7a0d14c09,651c1e97cef5dc96a09501bf,null,null,"<p style=""font-size: 60px; font-family: BACS"">KMDYtcMRl</p>",,,,,,,,,,
html-keyboard-response,31,82382,0.0-8.0-0.23,5ea9611edec14d052ada0bae,650c16f0f2faf8d7a0d14c09,651c1e97cef5dc96a09501bf,null,null,"<p style=""font-size: 60px; font-family: BACS"">muYNOcN</p>",,,,,,,,,,
html-keyboard-response,32,83397,0.0-8.0-0.24,5ea9611edec14d052ada0bae,650c16f0f2faf8d7a0d14c09,651c1e97cef5dc96a09501bf,null,null,"<p style=""font-size: 60px; font-family: BACS"">kPkRATPOM</p>",,,,,,,,,,
html-keyboard-response,33,84398,0.0-8.0-0.25,5ea9611edec14d052ada0bae,650c16f0f2faf8d7a0d14c09,651c1e97cef5dc96a09501bf,null,null,"<p style=""font-size: 60px; font-family: BACS"">UrOQuUY</p>",,,,,,,,,,
html-keyboard-response,34,85404,0.0-8.0-0.26,5ea9611edec14d052ada0bae,650c16f0f2faf8d7a0d14c09,651c1e97cef5dc96a09501bf,null,null,"<p style=""font-size: 60px; font-family: BACS"">YOaAbLkNc</p>",,,,,,,,,,
html-keyboard-response,35,86417,0.0-8.0-0.27,5ea9611edec14d052ada0bae,650c16f0f2faf8d7a0d14c09,651c1e97cef5dc96a09501bf,null,null,"<p style=""font-size: 60px; font-family: BACS"">AMkCTPOM</p>",,,,,,,,,,
html-keyboard-response,36,87431,0.0-8.0-0.28,5ea9611edec14d052ada0bae,650c16f0f2faf8d7a0d14c09,651c1e97cef5dc96a09501bf,null,null,"<p style=""font-size: 60px; font-family: BACS"">kdEdYBbM</p>",,,,,,,,,,
html-keyboard-response,37,88445,0.0-8.0-0.29,5ea9611edec14d052ada0bae,650c16f0f2faf8d7a0d14c09,651c1e97cef5dc96a09501bf,null,null,"<p style=""font-size: 60px; font-family: BACS"">dGLAlOcN</p>",,,,,,,,,,
html-keyboard-response,38,89457,0.0-8.0-0.30,5ea9611edec14d052ada0bae,650c16f0f2faf8d7a0d14c09,651c1e97cef5dc96a09501bf,null,null,"<p style=""font-size: 60px; font-family: BACS"">YuaNdGrbk</p>",,,,,,,,,,
html-keyboard-response,39,90471,0.0-8.0-0.31,5ea9611edec14d052ada0bae,650c16f0f2faf8d7a0d14c09,651c1e97cef5dc96a09501bf,null,null,"<p style=""font-size: 60px; font-family: BACS"">kPkRABbM</p>",,,,,,,,,,
html-keyboard-response,40,91472,0.0-8.0-0.32,5ea9611edec14d052ada0bae,650c16f0f2faf8d7a0d14c09,651c1e97cef5dc96a09501bf,null,null,"<p style=""font-size: 60px; font-family: BACS"">QcQAJOcN</p>",,,,,,,,,,
html-keyboard-response,41,92474,0.0-8.0-0.33,5ea9611edec14d052ada0bae,650c16f0f2faf8d7a0d14c09,651c1e97cef5dc96a09501bf,null,null,"<p style=""font-size: 60px; font-family: BACS"">YOaAbGrbk</p>",,,,,,,,,,
html-keyboard-response,42,93476,0.0-8.0-0.34,5ea9611edec14d052ada0bae,650c16f0f2faf8d7a0d14c09,651c1e97cef5dc96a09501bf,null,null,"<p style=""font-size: 60px; font-family: BACS"">dGLAlLkNc</p>",,,,,,,,,,
html-keyboard-response,43,94484,0.0-8.0-0.35,5ea9611edec14d052ada0bae,650c16f0f2faf8d7a0d14c09,651c1e97cef5dc96a09501bf,null,null,"<p style=""font-size: 60px; font-family: BACS"">ZcGdNLUOk</p>",,,,,,,,,,
html-keyboard-response,44,95487,0.0-8.0-0.36,5ea9611edec14d052ada0bae,650c16f0f2faf8d7a0d14c09,651c1e97cef5dc96a09501bf,null,null,"<p style=""font-size: 60px; font-family: BACS"">KMDYtPMd</p>",,,,,,,,,,
html-keyboard-response,45,96494,0.0-8.0-0.37,5ea9611edec14d052ada0bae,650c16f0f2faf8d7a0d14c09,651c1e97cef5dc96a09501bf,null,null,"<p style=""font-size: 60px; font-family: BACS"">BECkcMRl</p>",,,,,,,,,,
html-keyboard-response,46,97503,0.0-8.0-0.38,5ea9611edec14d052ada0bae,650c16f0f2faf8d7a0d14c09,651c1e97cef5dc96a09501bf,null,null,"<p style=""font-size: 60px; font-family: BACS"">PMPtkPMd</p>",,,,,,,,,,
html-keyboard-response,47,98514,0.0-8.0-0.39,5ea9611edec14d052ada0bae,650c16f0f2faf8d7a0d14c09,651c1e97cef5dc96a09501bf,null,null,"<p style=""font-size: 60px; font-family: BACS"">mBYlTPOM</p>",,,,,,,,,,
html-keyboard-response,48,99524,0.0-8.0-0.40,5ea9611edec14d052ada0bae,650c16f0f2faf8d7a0d14c09,651c1e97cef5dc96a09501bf,null,null,"<p style=""font-size: 60px; font-family: BACS"">muYNuUY</p>",,,,,,,,,,
html-keyboard-response,49,100526,0.0-8.0-0.41,5ea9611edec14d052ada0bae,650c16f0f2faf8d7a0d14c09,651c1e97cef5dc96a09501bf,null,null,"<p style=""font-size: 60px; font-family: BACS"">dGLAlGrbk</p>",,,,,,,,,,
html-keyboard-response,50,101529,0.0-8.0-0.42,5ea9611edec14d052ada0bae,650c16f0f2faf8d7a0d14c09,651c1e97cef5dc96a09501bf,null,null,"<p style=""font-size: 60px; font-family: BACS"">kPkRAPMd</p>",,,,,,,,,,
html-keyboard-response,51,102531,0.0-8.0-0.43,5ea9611edec14d052ada0bae,650c16f0f2faf8d7a0d14c09,651c1e97cef5dc96a09501bf,null,null,"<p style=""font-size: 60px; font-family: BACS"">AMkCmCd</p>",,,,,,,,,,
html-keyboard-response,52,103537,0.0-8.0-0.44,5ea9611edec14d052ada0bae,650c16f0f2faf8d7a0d14c09,651c1e97cef5dc96a09501bf,null,null,"<p style=""font-size: 60px; font-family: BACS"">ZcGdNLkNc</p>",,,,,,,,,,
html-keyboard-response,53,104539,0.0-8.0-0.45,5ea9611edec14d052ada0bae,650c16f0f2faf8d7a0d14c09,651c1e97cef5dc96a09501bf,null,null,"<p style=""font-size: 60px; font-family: BACS"">KMDYtmCd</p>",,,,,,,,,,
html-keyboard-response,54,105541,0.0-8.0-0.46,5ea9611edec14d052ada0bae,650c16f0f2faf8d7a0d14c09,651c1e97cef5dc96a09501bf,null,null,"<p style=""font-size: 60px; font-family: BACS"">RkmdCTPOM</p>",,,,,,,,,,
html-keyboard-response,55,106542,0.0-8.0-0.47,5ea9611edec14d052ada0bae,650c16f0f2faf8d7a0d14c09,651c1e97cef5dc96a09501bf,null,null,"<p style=""font-size: 60px; font-family: BACS"">lRckAcMRl</p>",,,,,,,,,,
html-keyboard-response,56,107553,0.0-8.0-0.48,5ea9611edec14d052ada0bae,650c16f0f2faf8d7a0d14c09,651c1e97cef5dc96a09501bf,null,null,"<p style=""font-size: 60px; font-family: BACS"">RkmdCmCd</p>",,,,,,,,,,
html-keyboard-response,57,108554,0.0-8.0-0.49,5ea9611edec14d052ada0bae,650c16f0f2faf8d7a0d14c09,651c1e97cef5dc96a09501bf,null,null,"<p style=""font-size: 60px; font-family: BACS"">NJZlLUOk</p>",,,,,,,,,,
html-keyboard-response,58,109556,0.0-8.0-0.50,5ea9611edec14d052ada0bae,650c16f0f2faf8d7a0d14c09,651c1e97cef5dc96a09501bf,null,null,"<p style=""font-size: 60px; font-family: BACS"">YuaNdOcN</p>",,,,,,,,,,
html-keyboard-response,59,110569,0.0-8.0-0.51,5ea9611edec14d052ada0bae,650c16f0f2faf8d7a0d14c09,651c1e97cef5dc96a09501bf,null,null,"<p style=""font-size: 60px; font-family: BACS"">ZcGdNuUY</p>",,,,,,,,,,
html-keyboard-response,60,111572,0.0-8.0-0.52,5ea9611edec14d052ada0bae,650c16f0f2faf8d7a0d14c09,651c1e97cef5dc96a09501bf,null,null,"<p style=""font-size: 60px; font-family: BACS"">PMPtkmCd</p>",,,,,,,,,,
html-keyboard-response,61,112584,0.0-8.0-0.53,5ea9611edec14d052ada0bae,650c16f0f2faf8d7a0d14c09,651c1e97cef5dc96a09501bf,null,null,"<p style=""font-size: 60px; font-family: BACS"">YuaNduUY</p>",,,,,,,,,,
html-keyboard-response,62,113593,0.0-8.0-0.54,5ea9611edec14d052ada0bae,650c16f0f2faf8d7a0d14c09,651c1e97cef5dc96a09501bf,null,null,"<p style=""font-size: 60px; font-family: BACS"">BECkPMd</p>",,,,,,,,,,
html-keyboard-response,63,114606,0.0-8.0-0.55,5ea9611edec14d052ada0bae,650c16f0f2faf8d7a0d14c09,651c1e97cef5dc96a09501bf,null,null,"<p style=""font-size: 60px; font-family: BACS"">ODBDATPOM</p>",,,,,,,,,,
html-keyboard-response,64,115614,0.0-8.0-0.56,5ea9611edec14d052ada0bae,650c16f0f2faf8d7a0d14c09,651c1e97cef5dc96a09501bf,null,null,"<p style=""font-size: 60px; font-family: BACS"">UrOQLUOk</p>",,,,,,,,,,
html-keyboard-response,65,116624,0.0-8.0-0.57,5ea9611edec14d052ada0bae,650c16f0f2faf8d7a0d14c09,651c1e97cef5dc96a09501bf,null,null,"<p style=""font-size: 60px; font-family: BACS"">ODBDABbM</p>",,,,,,,,,,
html-keyboard-response,66,117637,0.0-8.0-0.58,5ea9611edec14d052ada0bae,650c16f0f2faf8d7a0d14c09,651c1e97cef5dc96a09501bf,null,null,"<p style=""font-size: 60px; font-family: BACS"">YOaAbOcN</p>",,,,,,,,,,
html-keyboard-response,67,118646,0.0-8.0-0.59,5ea9611edec14d052ada0bae,650c16f0f2faf8d7a0d14c09,651c1e97cef5dc96a09501bf,null,null,"<p style=""font-size: 60px; font-family: BACS"">YuaNdLkNc</p>",,,,,,,,,,
html-keyboard-response,68,119649,0.0-8.0-0.60,5ea9611edec14d052ada0bae,650c16f0f2faf8d7a0d14c09,651c1e97cef5dc96a09501bf,null,null,"<p style=""font-size: 60px; font-family: BACS"">mBYlcMRl</p>",,,,,,,,,,
html-keyboard-response,69,120653,0.0-8.0-0.61,5ea9611edec14d052ada0bae,650c16f0f2faf8d7a0d14c09,651c1e97cef5dc96a09501bf,null,null,"<p style=""font-size: 60px; font-family: BACS"">RkmdCBbM</p>",,,,,,,,,,
html-keyboard-response,70,121666,0.0-8.0-0.62,5ea9611edec14d052ada0bae,650c16f0f2faf8d7a0d14c09,651c1e97cef5dc96a09501bf,null,null,"<p style=""font-size: 60px; font-family: BACS"">lRckAPMd</p>",,,,,,,,,,
html-keyboard-response,71,122681,0.0-8.0-0.63,5ea9611edec14d052ada0bae,650c16f0f2faf8d7a0d14c09,651c1e97cef5dc96a09501bf,null,null,"<p style=""font-size: 60px; font-family: BACS"">PMPtkBbM</p>",,,,,,,,,,
html-keyboard-response,72,123691,0.0-8.0-0.64,5ea9611edec14d052ada0bae,650c16f0f2faf8d7a0d14c09,651c1e97cef5dc96a09501bf,null,null,"<p style=""font-size: 60px; font-family: BACS"">GabkOcN</p>",,,,,,,,,,
html-keyboard-response,73,124704,0.0-8.0-0.65,5ea9611edec14d052ada0bae,650c16f0f2faf8d7a0d14c09,651c1e97cef5dc96a09501bf,null,null,"<p style=""font-size: 60px; font-family: BACS"">muYNGrbk</p>",,,,,,,,,,
html-keyboard-response,74,125711,0.0-8.0-0.66,5ea9611edec14d052ada0bae,650c16f0f2faf8d7a0d14c09,651c1e97cef5dc96a09501bf,null,null,"<p style=""font-size: 60px; font-family: BACS"">QcQAJuUY</p>",,,,,,,,,,
html-keyboard-response,75,126722,0.0-8.0-0.67,5ea9611edec14d052ada0bae,650c16f0f2faf8d7a0d14c09,651c1e97cef5dc96a09501bf,null,null,"<p style=""font-size: 60px; font-family: BACS"">BECkTPOM</p>",,,,,,,,,,
html-keyboard-response,76,127724,0.0-8.0-0.68,5ea9611edec14d052ada0bae,650c16f0f2faf8d7a0d14c09,651c1e97cef5dc96a09501bf,null,null,"<p style=""font-size: 60px; font-family: BACS"">OdlNmLkNc</p>",,,,,,,,,,
html-keyboard-response,77,128731,0.0-8.0-0.69,5ea9611edec14d052ada0bae,650c16f0f2faf8d7a0d14c09,651c1e97cef5dc96a09501bf,null,null,"<p style=""font-size: 60px; font-family: BACS"">GabkGrbk</p>",,,,,,,,,,
html-keyboard-response,78,129737,0.0-8.0-0.70,5ea9611edec14d052ada0bae,650c16f0f2faf8d7a0d14c09,651c1e97cef5dc96a09501bf,null,null,"<p style=""font-size: 60px; font-family: BACS"">lRckATPOM</p>",,,,,,,,,,
html-keyboard-response,79,130751,0.0-8.0-0.71,5ea9611edec14d052ada0bae,650c16f0f2faf8d7a0d14c09,651c1e97cef5dc96a09501bf,null,null,"<p style=""font-size: 60px; font-family: BACS"">AMkCcMRl</p>",,,,,,,,,,
html-keyboard-response,80,131763,0.0-8.0-0.72,5ea9611edec14d052ada0bae,650c16f0f2faf8d7a0d14c09,651c1e97cef5dc96a09501bf,null,null,"<p style=""font-size: 60px; font-family: BACS"">NJZlGrbk</p>",,,,,,,,,,
html-keyboard-response,81,132775,0.0-8.0-0.73,5ea9611edec14d052ada0bae,650c16f0f2faf8d7a0d14c09,651c1e97cef5dc96a09501bf,null,null,"<p style=""font-size: 60px; font-family: BACS"">GabkuUY</p>",,,,,,,,,,
html-keyboard-response,82,133788,0.0-8.0-0.74,5ea9611edec14d052ada0bae,650c16f0f2faf8d7a0d14c09,651c1e97cef5dc96a09501bf,null,null,"<p style=""font-size: 60px; font-family: BACS"">lRckAmCd</p>",,,,,,,,,,
html-keyboard-response,83,134803,0.0-8.0-0.75,5ea9611edec14d052ada0bae,650c16f0f2faf8d7a0d14c09,651c1e97cef5dc96a09501bf,null,null,"<p style=""font-size: 60px; font-family: BACS"">QcQAJLUOk</p>",,,,,,,,,,
html-keyboard-response,84,135816,0.0-8.0-0.76,5ea9611edec14d052ada0bae,650c16f0f2faf8d7a0d14c09,651c1e97cef5dc96a09501bf,null,null,"<p style=""font-size: 60px; font-family: BACS"">RkmdCcMRl</p>",,,,,,,,,,
html-keyboard-response,85,136819,0.0-8.0-0.77,5ea9611edec14d052ada0bae,650c16f0f2faf8d7a0d14c09,651c1e97cef5dc96a09501bf,null,null,"<p style=""font-size: 60px; font-family: BACS"">OdlNmGrbk</p>",,,,,,,,,,
html-keyboard-response,86,137823,0.0-8.0-0.78,5ea9611edec14d052ada0bae,650c16f0f2faf8d7a0d14c09,651c1e97cef5dc96a09501bf,null,null,"<p style=""font-size: 60px; font-family: BACS"">GabkLUOk</p>",,,,,,,,,,
html-keyboard-response,87,138828,0.0-8.0-0.79,5ea9611edec14d052ada0bae,650c16f0f2faf8d7a0d14c09,651c1e97cef5dc96a09501bf,null,null,"<p style=""font-size: 60px; font-family: BACS"">UrOQGrbk</p>",,,,,,,,,,
html-keyboard-response,88,142179,0.0-9.0,5ea9611edec14d052ada0bae,650c16f0f2faf8d7a0d14c09,651c1e97cef5dc96a09501bf,3350, ,"<p>Great, you've seen the first block of words. You may now take a short break.</p>
      <p>Press the spacebar when you're ready to continue.</p>",,,,,,,,,,
html-keyboard-response,89,143193,0.0-10.0-0.0,5ea9611edec14d052ada0bae,650c16f0f2faf8d7a0d14c09,651c1e97cef5dc96a09501bf,null,null,"<p style=""font-size: 60px; font-family: BACS"">GabkGrbk</p>",,,,,,,,,,
html-keyboard-response,90,144204,0.0-10.0-0.1,5ea9611edec14d052ada0bae,650c16f0f2faf8d7a0d14c09,651c1e97cef5dc96a09501bf,null,null,"<p style=""font-size: 60px; font-family: BACS"">kPkRABbM</p>",,,,,,,,,,
html-keyboard-response,91,145206,0.0-10.0-0.2,5ea9611edec14d052ada0bae,650c16f0f2faf8d7a0d14c09,651c1e97cef5dc96a09501bf,null,null,"<p style=""font-size: 60px; font-family: BACS"">RkmdCTPOM</p>",,,,,,,,,,
html-keyboard-response,92,146209,0.0-10.0-0.3,5ea9611edec14d052ada0bae,650c16f0f2faf8d7a0d14c09,651c1e97cef5dc96a09501bf,null,null,"<p style=""font-size: 60px; font-family: BACS"">AMkCmCd</p>",,,,,,,,,,
html-keyboard-response,93,147220,0.0-10.0-0.4,5ea9611edec14d052ada0bae,650c16f0f2faf8d7a0d14c09,651c1e97cef5dc96a09501bf,null,null,"<p style=""font-size: 60px; font-family: BACS"">NJZluUY</p>",,,,,,,,,,
html-keyboard-response,94,148232,0.0-10.0-0.5,5ea9611edec14d052ada0bae,650c16f0f2faf8d7a0d14c09,651c1e97cef5dc96a09501bf,null,null,"<p style=""font-size: 60px; font-family: BACS"">YuaNdOcN</p>",,,,,,,,,,
html-keyboard-response,95,149234,0.0-10.0-0.6,5ea9611edec14d052ada0bae,650c16f0f2faf8d7a0d14c09,651c1e97cef5dc96a09501bf,null,null,"<p style=""font-size: 60px; font-family: BACS"">RkmdCmCd</p>",,,,,,,,,,
html-keyboard-response,96,150239,0.0-10.0-0.7,5ea9611edec14d052ada0bae,650c16f0f2faf8d7a0d14c09,651c1e97cef5dc96a09501bf,null,null,"<p style=""font-size: 60px; font-family: BACS"">ZcGdNLkNc</p>",,,,,,,,,,
html-keyboard-response,97,151251,0.0-10.0-0.8,5ea9611edec14d052ada0bae,650c16f0f2faf8d7a0d14c09,651c1e97cef5dc96a09501bf,null,null,"<p style=""font-size: 60px; font-family: BACS"">ODBDABbM</p>",,,,,,,,,,
html-keyboard-response,98,152262,0.0-10.0-0.9,5ea9611edec14d052ada0bae,650c16f0f2faf8d7a0d14c09,651c1e97cef5dc96a09501bf,null,null,"<p style=""font-size: 60px; font-family: BACS"">muYNLUOk</p>",,,,,,,,,,
html-keyboard-response,99,153274,0.0-10.0-0.10,5ea9611edec14d052ada0bae,650c16f0f2faf8d7a0d14c09,651c1e97cef5dc96a09501bf,null,null,"<p style=""font-size: 60px; font-family: BACS"">NJZlLkNc</p>",,,,,,,,,,
html-keyboard-response,100,154275,0.0-10.0-0.11,5ea9611edec14d052ada0bae,650c16f0f2faf8d7a0d14c09,651c1e97cef5dc96a09501bf,null,null,"<p style=""font-size: 60px; font-family: BACS"">lRckAmCd</p>",,,,,,,,,,
html-keyboard-response,101,155284,0.0-10.0-0.12,5ea9611edec14d052ada0bae,650c16f0f2faf8d7a0d14c09,651c1e97cef5dc96a09501bf,null,null,"<p style=""font-size: 60px; font-family: BACS"">kPkRATPOM</p>",,,,,,,,,,
html-keyboard-response,102,156295,0.0-10.0-0.13,5ea9611edec14d052ada0bae,650c16f0f2faf8d7a0d14c09,651c1e97cef5dc96a09501bf,null,null,"<p style=""font-size: 60px; font-family: BACS"">UrOQLUOk</p>",,,,,,,,,,
html-keyboard-response,103,157307,0.0-10.0-0.14,5ea9611edec14d052ada0bae,650c16f0f2faf8d7a0d14c09,651c1e97cef5dc96a09501bf,null,null,"<p style=""font-size: 60px; font-family: BACS"">kdEdYPMd</p>",,,,,,,,,,
html-keyboard-response,104,158318,0.0-10.0-0.15,5ea9611edec14d052ada0bae,650c16f0f2faf8d7a0d14c09,651c1e97cef5dc96a09501bf,null,null,"<p style=""font-size: 60px; font-family: BACS"">KMDYtmCd</p>",,,,,,,,,,
html-keyboard-response,105,159331,0.0-10.0-0.16,5ea9611edec14d052ada0bae,650c16f0f2faf8d7a0d14c09,651c1e97cef5dc96a09501bf,null,null,"<p style=""font-size: 60px; font-family: BACS"">NJZlLUOk</p>",,,,,,,,,,
html-keyboard-response,106,160340,0.0-10.0-0.17,5ea9611edec14d052ada0bae,650c16f0f2faf8d7a0d14c09,651c1e97cef5dc96a09501bf,null,null,"<p style=""font-size: 60px; font-family: BACS"">mBYlBbM</p>",,,,,,,,,,
html-keyboard-response,107,161341,0.0-10.0-0.18,5ea9611edec14d052ada0bae,650c16f0f2faf8d7a0d14c09,651c1e97cef5dc96a09501bf,null,null,"<p style=""font-size: 60px; font-family: BACS"">OdlNmOcN</p>",,,,,,,,,,
html-keyboard-response,108,162353,0.0-10.0-0.19,5ea9611edec14d052ada0bae,650c16f0f2faf8d7a0d14c09,651c1e97cef5dc96a09501bf,null,null,"<p style=""font-size: 60px; font-family: BACS"">PMPtkcMRl</p>",,,,,,,,,,
html-keyboard-response,109,163364,0.0-10.0-0.20,5ea9611edec14d052ada0bae,650c16f0f2faf8d7a0d14c09,651c1e97cef5dc96a09501bf,null,null,"<p style=""font-size: 60px; font-family: BACS"">ZcGdNLUOk</p>",,,,,,,,,,
html-keyboard-response,110,164378,0.0-10.0-0.21,5ea9611edec14d052ada0bae,650c16f0f2faf8d7a0d14c09,651c1e97cef5dc96a09501bf,null,null,"<p style=""font-size: 60px; font-family: BACS"">lRckATPOM</p>",,,,,,,,,,
html-keyboard-response,111,165392,0.0-10.0-0.22,5ea9611edec14d052ada0bae,650c16f0f2faf8d7a0d14c09,651c1e97cef5dc96a09501bf,null,null,"<p style=""font-size: 60px; font-family: BACS"">muYNGrbk</p>",,,,,,,,,,
html-keyboard-response,112,166403,0.0-10.0-0.23,5ea9611edec14d052ada0bae,650c16f0f2faf8d7a0d14c09,651c1e97cef5dc96a09501bf,null,null,"<p style=""font-size: 60px; font-family: BACS"">QcQAJOcN</p>",,,,,,,,,,
html-keyboard-response,113,167411,0.0-10.0-0.24,5ea9611edec14d052ada0bae,650c16f0f2faf8d7a0d14c09,651c1e97cef5dc96a09501bf,null,null,"<p style=""font-size: 60px; font-family: BACS"">AMkCPMd</p>",,,,,,,,,,
html-keyboard-response,114,168423,0.0-10.0-0.25,5ea9611edec14d052ada0bae,650c16f0f2faf8d7a0d14c09,651c1e97cef5dc96a09501bf,null,null,"<p style=""font-size: 60px; font-family: BACS"">UrOQuUY</p>",,,,,,,,,,
html-keyboard-response,115,169425,0.0-10.0-0.26,5ea9611edec14d052ada0bae,650c16f0f2faf8d7a0d14c09,651c1e97cef5dc96a09501bf,null,null,"<p style=""font-size: 60px; font-family: BACS"">KMDYtPMd</p>",,,,,,,,,,
html-keyboard-response,116,170428,0.0-10.0-0.27,5ea9611edec14d052ada0bae,650c16f0f2faf8d7a0d14c09,651c1e97cef5dc96a09501bf,null,null,"<p style=""font-size: 60px; font-family: BACS"">YOaAbGrbk</p>",,,,,,,,,,
html-keyboard-response,117,171439,0.0-10.0-0.28,5ea9611edec14d052ada0bae,650c16f0f2faf8d7a0d14c09,651c1e97cef5dc96a09501bf,null,null,"<p style=""font-size: 60px; font-family: BACS"">QcQAJLUOk</p>",,,,,,,,,,
html-keyboard-response,118,172455,0.0-10.0-0.29,5ea9611edec14d052ada0bae,650c16f0f2faf8d7a0d14c09,651c1e97cef5dc96a09501bf,null,null,"<p style=""font-size: 60px; font-family: BACS"">dGLAlLkNc</p>",,,,,,,,,,
html-keyboard-response,119,173468,0.0-10.0-0.30,5ea9611edec14d052ada0bae,650c16f0f2faf8d7a0d14c09,651c1e97cef5dc96a09501bf,null,null,"<p style=""font-size: 60px; font-family: BACS"">kdEdYBbM</p>",,,,,,,,,,
html-keyboard-response,120,174470,0.0-10.0-0.31,5ea9611edec14d052ada0bae,650c16f0f2faf8d7a0d14c09,651c1e97cef5dc96a09501bf,null,null,"<p style=""font-size: 60px; font-family: BACS"">muYNuUY</p>",,,,,,,,,,
html-keyboard-response,121,175480,0.0-10.0-0.32,5ea9611edec14d052ada0bae,650c16f0f2faf8d7a0d14c09,651c1e97cef5dc96a09501bf,null,null,"<p style=""font-size: 60px; font-family: BACS"">YOaAbLkNc</p>",,,,,,,,,,
html-keyboard-response,122,176489,0.0-10.0-0.33,5ea9611edec14d052ada0bae,650c16f0f2faf8d7a0d14c09,651c1e97cef5dc96a09501bf,null,null,"<p style=""font-size: 60px; font-family: BACS"">dGLAlOcN</p>",,,,,,,,,,
html-keyboard-response,123,177502,0.0-10.0-0.34,5ea9611edec14d052ada0bae,650c16f0f2faf8d7a0d14c09,651c1e97cef5dc96a09501bf,null,null,"<p style=""font-size: 60px; font-family: BACS"">YuaNduUY</p>",,,,,,,,,,
html-keyboard-response,124,178517,0.0-10.0-0.35,5ea9611edec14d052ada0bae,650c16f0f2faf8d7a0d14c09,651c1e97cef5dc96a09501bf,null,null,"<p style=""font-size: 60px; font-family: BACS"">dGLAlGrbk</p>",,,,,,,,,,
html-keyboard-response,125,179531,0.0-10.0-0.36,5ea9611edec14d052ada0bae,650c16f0f2faf8d7a0d14c09,651c1e97cef5dc96a09501bf,null,null,"<p style=""font-size: 60px; font-family: BACS"">lRckAcMRl</p>",,,,,,,,,,
html-keyboard-response,126,180532,0.0-10.0-0.37,5ea9611edec14d052ada0bae,650c16f0f2faf8d7a0d14c09,651c1e97cef5dc96a09501bf,null,null,"<p style=""font-size: 60px; font-family: BACS"">mBYlTPOM</p>",,,,,,,,,,
html-keyboard-response,127,181548,0.0-10.0-0.38,5ea9611edec14d052ada0bae,650c16f0f2faf8d7a0d14c09,651c1e97cef5dc96a09501bf,null,null,"<p style=""font-size: 60px; font-family: BACS"">OdlNmLkNc</p>",,,,,,,,,,
html-keyboard-response,128,182564,0.0-10.0-0.39,5ea9611edec14d052ada0bae,650c16f0f2faf8d7a0d14c09,651c1e97cef5dc96a09501bf,null,null,"<p style=""font-size: 60px; font-family: BACS"">BECkBbM</p>",,,,,,,,,,
html-keyboard-response,129,183566,0.0-10.0-0.40,5ea9611edec14d052ada0bae,650c16f0f2faf8d7a0d14c09,651c1e97cef5dc96a09501bf,null,null,"<p style=""font-size: 60px; font-family: BACS"">GabkuUY</p>",,,,,,,,,,
html-keyboard-response,130,184570,0.0-10.0-0.41,5ea9611edec14d052ada0bae,650c16f0f2faf8d7a0d14c09,651c1e97cef5dc96a09501bf,null,null,"<p style=""font-size: 60px; font-family: BACS"">ODBDAcMRl</p>",,,,,,,,,,
html-keyboard-response,131,185573,0.0-10.0-0.42,5ea9611edec14d052ada0bae,650c16f0f2faf8d7a0d14c09,651c1e97cef5dc96a09501bf,null,null,"<p style=""font-size: 60px; font-family: BACS"">BECkPMd</p>",,,,,,,,,,
html-keyboard-response,132,186581,0.0-10.0-0.43,5ea9611edec14d052ada0bae,650c16f0f2faf8d7a0d14c09,651c1e97cef5dc96a09501bf,null,null,"<p style=""font-size: 60px; font-family: BACS"">kdEdYmCd</p>",,,,,,,,,,
html-keyboard-response,133,187589,0.0-10.0-0.44,5ea9611edec14d052ada0bae,650c16f0f2faf8d7a0d14c09,651c1e97cef5dc96a09501bf,null,null,"<p style=""font-size: 60px; font-family: BACS"">AMkCcMRl</p>",,,,,,,,,,
html-keyboard-response,134,188599,0.0-10.0-0.45,5ea9611edec14d052ada0bae,650c16f0f2faf8d7a0d14c09,651c1e97cef5dc96a09501bf,null,null,"<p style=""font-size: 60px; font-family: BACS"">RkmdCBbM</p>",,,,,,,,,,
html-keyboard-response,135,189614,0.0-10.0-0.46,5ea9611edec14d052ada0bae,650c16f0f2faf8d7a0d14c09,651c1e97cef5dc96a09501bf,null,null,"<p style=""font-size: 60px; font-family: BACS"">QcQAJuUY</p>",,,,,,,,,,
html-keyboard-response,136,190615,0.0-10.0-0.47,5ea9611edec14d052ada0bae,650c16f0f2faf8d7a0d14c09,651c1e97cef5dc96a09501bf,null,null,"<p style=""font-size: 60px; font-family: BACS"">UrOQLkNc</p>",,,,,,,,,,
html-keyboard-response,137,191628,0.0-10.0-0.48,5ea9611edec14d052ada0bae,650c16f0f2faf8d7a0d14c09,651c1e97cef5dc96a09501bf,null,null,"<p style=""font-size: 60px; font-family: BACS"">KMDYtBbM</p>",,,,,,,,,,
html-keyboard-response,138,192641,0.0-10.0-0.49,5ea9611edec14d052ada0bae,650c16f0f2faf8d7a0d14c09,651c1e97cef5dc96a09501bf,null,null,"<p style=""font-size: 60px; font-family: BACS"">OdlNmLUOk</p>",,,,,,,,,,
html-keyboard-response,139,193649,0.0-10.0-0.50,5ea9611edec14d052ada0bae,650c16f0f2faf8d7a0d14c09,651c1e97cef5dc96a09501bf,null,null,"<p style=""font-size: 60px; font-family: BACS"">muYNOcN</p>",,,,,,,,,,
html-keyboard-response,140,194660,0.0-10.0-0.51,5ea9611edec14d052ada0bae,650c16f0f2faf8d7a0d14c09,651c1e97cef5dc96a09501bf,null,null,"<p style=""font-size: 60px; font-family: BACS"">lRckAPMd</p>",,,,,,,,,,
html-keyboard-response,141,195662,0.0-10.0-0.52,5ea9611edec14d052ada0bae,650c16f0f2faf8d7a0d14c09,651c1e97cef5dc96a09501bf,null,null,"<p style=""font-size: 60px; font-family: BACS"">ODBDATPOM</p>",,,,,,,,,,
html-keyboard-response,142,196664,0.0-10.0-0.53,5ea9611edec14d052ada0bae,650c16f0f2faf8d7a0d14c09,651c1e97cef5dc96a09501bf,null,null,"<p style=""font-size: 60px; font-family: BACS"">YuaNdGrbk</p>",,,,,,,,,,
html-keyboard-response,143,197672,0.0-10.0-0.54,5ea9611edec14d052ada0bae,650c16f0f2faf8d7a0d14c09,651c1e97cef5dc96a09501bf,null,null,"<p style=""font-size: 60px; font-family: BACS"">dGLAluUY</p>",,,,,,,,,,
html-keyboard-response,144,198674,0.0-10.0-0.55,5ea9611edec14d052ada0bae,650c16f0f2faf8d7a0d14c09,651c1e97cef5dc96a09501bf,null,null,"<p style=""font-size: 60px; font-family: BACS"">YuaNdLkNc</p>",,,,,,,,,,
html-keyboard-response,145,199679,0.0-10.0-0.56,5ea9611edec14d052ada0bae,650c16f0f2faf8d7a0d14c09,651c1e97cef5dc96a09501bf,null,null,"<p style=""font-size: 60px; font-family: BACS"">GabkLUOk</p>",,,,,,,,,,
html-keyboard-response,146,200688,0.0-10.0-0.57,5ea9611edec14d052ada0bae,650c16f0f2faf8d7a0d14c09,651c1e97cef5dc96a09501bf,null,null,"<p style=""font-size: 60px; font-family: BACS"">PMPtkBbM</p>",,,,,,,,,,
html-keyboard-response,147,201693,0.0-10.0-0.58,5ea9611edec14d052ada0bae,650c16f0f2faf8d7a0d14c09,651c1e97cef5dc96a09501bf,null,null,"<p style=""font-size: 60px; font-family: BACS"">NJZlGrbk</p>",,,,,,,,,,
html-keyboard-response,148,202707,0.0-10.0-0.59,5ea9611edec14d052ada0bae,650c16f0f2faf8d7a0d14c09,651c1e97cef5dc96a09501bf,null,null,"<p style=""font-size: 60px; font-family: BACS"">ODBDAPMd</p>",,,,,,,,,,
html-keyboard-response,149,203708,0.0-10.0-0.60,5ea9611edec14d052ada0bae,650c16f0f2faf8d7a0d14c09,651c1e97cef5dc96a09501bf,null,null,"<p style=""font-size: 60px; font-family: BACS"">YOaAbLUOk</p>",,,,,,,,,,
html-keyboard-response,150,204722,0.0-10.0-0.61,5ea9611edec14d052ada0bae,650c16f0f2faf8d7a0d14c09,651c1e97cef5dc96a09501bf,null,null,"<p style=""font-size: 60px; font-family: BACS"">KMDYtcMRl</p>",,,,,,,,,,
html-keyboard-response,151,205731,0.0-10.0-0.62,5ea9611edec14d052ada0bae,650c16f0f2faf8d7a0d14c09,651c1e97cef5dc96a09501bf,null,null,"<p style=""font-size: 60px; font-family: BACS"">UrOQGrbk</p>",,,,,,,,,,
html-keyboard-response,152,206740,0.0-10.0-0.63,5ea9611edec14d052ada0bae,650c16f0f2faf8d7a0d14c09,651c1e97cef5dc96a09501bf,null,null,"<p style=""font-size: 60px; font-family: BACS"">PMPtkPMd</p>",,,,,,,,,,
html-keyboard-response,153,207750,0.0-10.0-0.64,5ea9611edec14d052ada0bae,650c16f0f2faf8d7a0d14c09,651c1e97cef5dc96a09501bf,null,null,"<p style=""font-size: 60px; font-family: BACS"">ZcGdNOcN</p>",,,,,,,,,,
html-keyboard-response,154,208758,0.0-10.0-0.65,5ea9611edec14d052ada0bae,650c16f0f2faf8d7a0d14c09,651c1e97cef5dc96a09501bf,null,null,"<p style=""font-size: 60px; font-family: BACS"">kdEdYTPOM</p>",,,,,,,,,,
html-keyboard-response,155,209767,0.0-10.0-0.66,5ea9611edec14d052ada0bae,650c16f0f2faf8d7a0d14c09,651c1e97cef5dc96a09501bf,null,null,"<p style=""font-size: 60px; font-family: BACS"">mBYlcMRl</p>",,,,,,,,,,
html-keyboard-response,156,210777,0.0-10.0-0.67,5ea9611edec14d052ada0bae,650c16f0f2faf8d7a0d14c09,651c1e97cef5dc96a09501bf,null,null,"<p style=""font-size: 60px; font-family: BACS"">BECkTPOM</p>",,,,,,,,,,
html-keyboard-response,157,211778,0.0-10.0-0.68,5ea9611edec14d052ada0bae,650c16f0f2faf8d7a0d14c09,651c1e97cef5dc96a09501bf,null,null,"<p style=""font-size: 60px; font-family: BACS"">mBYlmCd</p>",,,,,,,,,,
html-keyboard-response,158,212787,0.0-10.0-0.69,5ea9611edec14d052ada0bae,650c16f0f2faf8d7a0d14c09,651c1e97cef5dc96a09501bf,null,null,"<p style=""font-size: 60px; font-family: BACS"">AMkCTPOM</p>",,,,,,,,,,
html-keyboard-response,159,213792,0.0-10.0-0.70,5ea9611edec14d052ada0bae,650c16f0f2faf8d7a0d14c09,651c1e97cef5dc96a09501bf,null,null,"<p style=""font-size: 60px; font-family: BACS"">kPkRAPMd</p>",,,,,,,,,,
html-keyboard-response,160,214797,0.0-10.0-0.71,5ea9611edec14d052ada0bae,650c16f0f2faf8d7a0d14c09,651c1e97cef5dc96a09501bf,null,null,"<p style=""font-size: 60px; font-family: BACS"">QcQAJLkNc</p>",,,,,,,,,,
html-keyboard-response,161,215804,0.0-10.0-0.72,5ea9611edec14d052ada0bae,650c16f0f2faf8d7a0d14c09,651c1e97cef5dc96a09501bf,null,null,"<p style=""font-size: 60px; font-family: BACS"">PMPtkmCd</p>",,,,,,,,,,
html-keyboard-response,162,216820,0.0-10.0-0.73,5ea9611edec14d052ada0bae,650c16f0f2faf8d7a0d14c09,651c1e97cef5dc96a09501bf,null,null,"<p style=""font-size: 60px; font-family: BACS"">GabkOcN</p>",,,,,,,,,,
html-keyboard-response,163,217821,0.0-10.0-0.74,5ea9611edec14d052ada0bae,650c16f0f2faf8d7a0d14c09,651c1e97cef5dc96a09501bf,null,null,"<p style=""font-size: 60px; font-family: BACS"">RkmdCcMRl</p>",,,,,,,,,,
html-keyboard-response,164,218823,0.0-10.0-0.75,5ea9611edec14d052ada0bae,650c16f0f2faf8d7a0d14c09,651c1e97cef5dc96a09501bf,null,null,"<p style=""font-size: 60px; font-family: BACS"">ZcGdNuUY</p>",,,,,,,,,,
html-keyboard-response,165,219825,0.0-10.0-0.76,5ea9611edec14d052ada0bae,650c16f0f2faf8d7a0d14c09,651c1e97cef5dc96a09501bf,null,null,"<p style=""font-size: 60px; font-family: BACS"">BECkcMRl</p>",,,,,,,,,,
html-keyboard-response,166,220835,0.0-10.0-0.77,5ea9611edec14d052ada0bae,650c16f0f2faf8d7a0d14c09,651c1e97cef5dc96a09501bf,null,null,"<p style=""font-size: 60px; font-family: BACS"">kPkRAmCd</p>",,,,,,,,,,
html-keyboard-response,167,221846,0.0-10.0-0.78,5ea9611edec14d052ada0bae,650c16f0f2faf8d7a0d14c09,651c1e97cef5dc96a09501bf,null,null,"<p style=""font-size: 60px; font-family: BACS"">YOaAbOcN</p>",,,,,,,,,,
html-keyboard-response,168,222859,0.0-10.0-0.79,5ea9611edec14d052ada0bae,650c16f0f2faf8d7a0d14c09,651c1e97cef5dc96a09501bf,null,null,"<p style=""font-size: 60px; font-family: BACS"">OdlNmGrbk</p>",,,,,,,,,,
html-keyboard-response,169,327310,0.0-11.0,5ea9611edec14d052ada0bae,650c16f0f2faf8d7a0d14c09,651c1e97cef5dc96a09501bf,104451, ,"<p>Great, you've seen the second block of words. You may now take a short break.</p>
      <p>Press the spacebar when you're ready to continue.</p>",,,,,,,,,,
html-keyboard-response,170,328312,0.0-12.0-0.0,5ea9611edec14d052ada0bae,650c16f0f2faf8d7a0d14c09,651c1e97cef5dc96a09501bf,null,null,"<p style=""font-size: 60px; font-family: BACS"">RkmdCcMRl</p>",,,,,,,,,,
html-keyboard-response,171,329313,0.0-12.0-0.1,5ea9611edec14d052ada0bae,650c16f0f2faf8d7a0d14c09,651c1e97cef5dc96a09501bf,null,null,"<p style=""font-size: 60px; font-family: BACS"">muYNLUOk</p>",,,,,,,,,,
html-keyboard-response,172,330328,0.0-12.0-0.2,5ea9611edec14d052ada0bae,650c16f0f2faf8d7a0d14c09,651c1e97cef5dc96a09501bf,null,null,"<p style=""font-size: 60px; font-family: BACS"">UrOQLkNc</p>",,,,,,,,,,
html-keyboard-response,173,331329,0.0-12.0-0.3,5ea9611edec14d052ada0bae,650c16f0f2faf8d7a0d14c09,651c1e97cef5dc96a09501bf,null,null,"<p style=""font-size: 60px; font-family: BACS"">BECkTPOM</p>",,,,,,,,,,
html-keyboard-response,174,332335,0.0-12.0-0.4,5ea9611edec14d052ada0bae,650c16f0f2faf8d7a0d14c09,651c1e97cef5dc96a09501bf,null,null,"<p style=""font-size: 60px; font-family: BACS"">GabkGrbk</p>",,,,,,,,,,
html-keyboard-response,175,333337,0.0-12.0-0.5,5ea9611edec14d052ada0bae,650c16f0f2faf8d7a0d14c09,651c1e97cef5dc96a09501bf,null,null,"<p style=""font-size: 60px; font-family: BACS"">ZcGdNLUOk</p>",,,,,,,,,,
html-keyboard-response,176,334349,0.0-12.0-0.6,5ea9611edec14d052ada0bae,650c16f0f2faf8d7a0d14c09,651c1e97cef5dc96a09501bf,null,null,"<p style=""font-size: 60px; font-family: BACS"">NJZlLkNc</p>",,,,,,,,,,
html-keyboard-response,177,335350,0.0-12.0-0.7,5ea9611edec14d052ada0bae,650c16f0f2faf8d7a0d14c09,651c1e97cef5dc96a09501bf,null,null,"<p style=""font-size: 60px; font-family: BACS"">AMkCmCd</p>",,,,,,,,,,
html-keyboard-response,178,336352,0.0-12.0-0.8,5ea9611edec14d052ada0bae,650c16f0f2faf8d7a0d14c09,651c1e97cef5dc96a09501bf,null,null,"<p style=""font-size: 60px; font-family: BACS"">kPkRABbM</p>",,,,,,,,,,
html-keyboard-response,179,337360,0.0-12.0-0.9,5ea9611edec14d052ada0bae,650c16f0f2faf8d7a0d14c09,651c1e97cef5dc96a09501bf,null,null,"<p style=""font-size: 60px; font-family: BACS"">OdlNmLkNc</p>",,,,,,,,,,
html-keyboard-response,180,338367,0.0-12.0-0.10,5ea9611edec14d052ada0bae,650c16f0f2faf8d7a0d14c09,651c1e97cef5dc96a09501bf,null,null,"<p style=""font-size: 60px; font-family: BACS"">ZcGdNOcN</p>",,,,,,,,,,
html-keyboard-response,181,339380,0.0-12.0-0.11,5ea9611edec14d052ada0bae,650c16f0f2faf8d7a0d14c09,651c1e97cef5dc96a09501bf,null,null,"<p style=""font-size: 60px; font-family: BACS"">lRckAmCd</p>",,,,,,,,,,
html-keyboard-response,182,340387,0.0-12.0-0.12,5ea9611edec14d052ada0bae,650c16f0f2faf8d7a0d14c09,651c1e97cef5dc96a09501bf,null,null,"<p style=""font-size: 60px; font-family: BACS"">AMkCcMRl</p>",,,,,,,,,,
html-keyboard-response,183,341388,0.0-12.0-0.13,5ea9611edec14d052ada0bae,650c16f0f2faf8d7a0d14c09,651c1e97cef5dc96a09501bf,null,null,"<p style=""font-size: 60px; font-family: BACS"">UrOQuUY</p>",,,,,,,,,,
html-keyboard-response,184,342398,0.0-12.0-0.14,5ea9611edec14d052ada0bae,650c16f0f2faf8d7a0d14c09,651c1e97cef5dc96a09501bf,null,null,"<p style=""font-size: 60px; font-family: BACS"">BECkcMRl</p>",,,,,,,,,,
html-keyboard-response,185,343412,0.0-12.0-0.15,5ea9611edec14d052ada0bae,650c16f0f2faf8d7a0d14c09,651c1e97cef5dc96a09501bf,null,null,"<p style=""font-size: 60px; font-family: BACS"">ODBDATPOM</p>",,,,,,,,,,
html-keyboard-response,186,344419,0.0-12.0-0.16,5ea9611edec14d052ada0bae,650c16f0f2faf8d7a0d14c09,651c1e97cef5dc96a09501bf,null,null,"<p style=""font-size: 60px; font-family: BACS"">PMPtkPMd</p>",,,,,,,,,,
html-keyboard-response,187,345430,0.0-12.0-0.17,5ea9611edec14d052ada0bae,650c16f0f2faf8d7a0d14c09,651c1e97cef5dc96a09501bf,null,null,"<p style=""font-size: 60px; font-family: BACS"">dGLAlLkNc</p>",,,,,,,,,,
html-keyboard-response,188,346438,0.0-12.0-0.18,5ea9611edec14d052ada0bae,650c16f0f2faf8d7a0d14c09,651c1e97cef5dc96a09501bf,null,null,"<p style=""font-size: 60px; font-family: BACS"">NJZlGrbk</p>",,,,,,,,,,
html-keyboard-response,189,347452,0.0-12.0-0.19,5ea9611edec14d052ada0bae,650c16f0f2faf8d7a0d14c09,651c1e97cef5dc96a09501bf,null,null,"<p style=""font-size: 60px; font-family: BACS"">muYNOcN</p>",,,,,,,,,,
html-keyboard-response,190,348462,0.0-12.0-0.20,5ea9611edec14d052ada0bae,650c16f0f2faf8d7a0d14c09,651c1e97cef5dc96a09501bf,null,null,"<p style=""font-size: 60px; font-family: BACS"">kdEdYTPOM</p>",,,,,,,,,,
html-keyboard-response,191,349472,0.0-12.0-0.21,5ea9611edec14d052ada0bae,650c16f0f2faf8d7a0d14c09,651c1e97cef5dc96a09501bf,null,null,"<p style=""font-size: 60px; font-family: BACS"">mBYlcMRl</p>",,,,,,,,,,
html-keyboard-response,192,350481,0.0-12.0-0.22,5ea9611edec14d052ada0bae,650c16f0f2faf8d7a0d14c09,651c1e97cef5dc96a09501bf,null,null,"<p style=""font-size: 60px; font-family: BACS"">GabkLUOk</p>",,,,,,,,,,
html-keyboard-response,193,351492,0.0-12.0-0.23,5ea9611edec14d052ada0bae,650c16f0f2faf8d7a0d14c09,651c1e97cef5dc96a09501bf,null,null,"<p style=""font-size: 60px; font-family: BACS"">YOaAbOcN</p>",,,,,,,,,,
html-keyboard-response,194,352507,0.0-12.0-0.24,5ea9611edec14d052ada0bae,650c16f0f2faf8d7a0d14c09,651c1e97cef5dc96a09501bf,null,null,"<p style=""font-size: 60px; font-family: BACS"">lRckATPOM</p>",,,,,,,,,,
html-keyboard-response,195,353508,0.0-12.0-0.25,5ea9611edec14d052ada0bae,650c16f0f2faf8d7a0d14c09,651c1e97cef5dc96a09501bf,null,null,"<p style=""font-size: 60px; font-family: BACS"">kdEdYPMd</p>",,,,,,,,,,
html-keyboard-response,196,354518,0.0-12.0-0.26,5ea9611edec14d052ada0bae,650c16f0f2faf8d7a0d14c09,651c1e97cef5dc96a09501bf,null,null,"<p style=""font-size: 60px; font-family: BACS"">dGLAlGrbk</p>",,,,,,,,,,
html-keyboard-response,197,355523,0.0-12.0-0.27,5ea9611edec14d052ada0bae,650c16f0f2faf8d7a0d14c09,651c1e97cef5dc96a09501bf,null,null,"<p style=""font-size: 60px; font-family: BACS"">QcQAJLkNc</p>",,,,,,,,,,
html-keyboard-response,198,356535,0.0-12.0-0.28,5ea9611edec14d052ada0bae,650c16f0f2faf8d7a0d14c09,651c1e97cef5dc96a09501bf,null,null,"<p style=""font-size: 60px; font-family: BACS"">dGLAlOcN</p>",,,,,,,,,,
html-keyboard-response,199,357547,0.0-12.0-0.29,5ea9611edec14d052ada0bae,650c16f0f2faf8d7a0d14c09,651c1e97cef5dc96a09501bf,null,null,"<p style=""font-size: 60px; font-family: BACS"">kPkRAmCd</p>",,,,,,,,,,
html-keyboard-response,200,358550,0.0-12.0-0.30,5ea9611edec14d052ada0bae,650c16f0f2faf8d7a0d14c09,651c1e97cef5dc96a09501bf,null,null,"<p style=""font-size: 60px; font-family: BACS"">GabkOcN</p>",,,,,,,,,,
html-keyboard-response,201,359562,0.0-12.0-0.31,5ea9611edec14d052ada0bae,650c16f0f2faf8d7a0d14c09,651c1e97cef5dc96a09501bf,null,null,"<p style=""font-size: 60px; font-family: BACS"">UrOQGrbk</p>",,,,,,,,,,
html-keyboard-response,202,360568,0.0-12.0-0.32,5ea9611edec14d052ada0bae,650c16f0f2faf8d7a0d14c09,651c1e97cef5dc96a09501bf,null,null,"<p style=""font-size: 60px; font-family: BACS"">YOaAbLkNc</p>",,,,,,,,,,
html-keyboard-response,203,361584,0.0-12.0-0.33,5ea9611edec14d052ada0bae,650c16f0f2faf8d7a0d14c09,651c1e97cef5dc96a09501bf,null,null,"<p style=""font-size: 60px; font-family: BACS"">OdlNmGrbk</p>",,,,,,,,,,
html-keyboard-response,204,362597,0.0-12.0-0.34,5ea9611edec14d052ada0bae,650c16f0f2faf8d7a0d14c09,651c1e97cef5dc96a09501bf,null,null,"<p style=""font-size: 60px; font-family: BACS"">PMPtkBbM</p>",,,,,,,,,,
html-keyboard-response,205,363598,0.0-12.0-0.35,5ea9611edec14d052ada0bae,650c16f0f2faf8d7a0d14c09,651c1e97cef5dc96a09501bf,null,null,"<p style=""font-size: 60px; font-family: BACS"">NJZlLUOk</p>",,,,,,,,,,
html-keyboard-response,206,364605,0.0-12.0-0.36,5ea9611edec14d052ada0bae,650c16f0f2faf8d7a0d14c09,651c1e97cef5dc96a09501bf,null,null,"<p style=""font-size: 60px; font-family: BACS"">kPkRAPMd</p>",,,,,,,,,,
html-keyboard-response,207,365617,0.0-12.0-0.37,5ea9611edec14d052ada0bae,650c16f0f2faf8d7a0d14c09,651c1e97cef5dc96a09501bf,null,null,"<p style=""font-size: 60px; font-family: BACS"">AMkCTPOM</p>",,,,,,,,,,
html-keyboard-response,208,366617,0.0-12.0-0.38,5ea9611edec14d052ada0bae,650c16f0f2faf8d7a0d14c09,651c1e97cef5dc96a09501bf,null,null,"<p style=""font-size: 60px; font-family: BACS"">lRckAcMRl</p>",,,,,,,,,,
html-keyboard-response,209,367619,0.0-12.0-0.39,5ea9611edec14d052ada0bae,650c16f0f2faf8d7a0d14c09,651c1e97cef5dc96a09501bf,null,null,"<p style=""font-size: 60px; font-family: BACS"">ODBDABbM</p>",,,,,,,,,,
html-keyboard-response,210,368630,0.0-12.0-0.40,5ea9611edec14d052ada0bae,650c16f0f2faf8d7a0d14c09,651c1e97cef5dc96a09501bf,null,null,"<p style=""font-size: 60px; font-family: BACS"">RkmdCmCd</p>",,,,,,,,,,
html-keyboard-response,211,369638,0.0-12.0-0.41,5ea9611edec14d052ada0bae,650c16f0f2faf8d7a0d14c09,651c1e97cef5dc96a09501bf,null,null,"<p style=""font-size: 60px; font-family: BACS"">YuaNdOcN</p>",,,,,,,,,,
html-keyboard-response,212,370647,0.0-12.0-0.42,5ea9611edec14d052ada0bae,650c16f0f2faf8d7a0d14c09,651c1e97cef5dc96a09501bf,null,null,"<p style=""font-size: 60px; font-family: BACS"">YOaAbLUOk</p>",,,,,,,,,,
html-keyboard-response,213,371663,0.0-12.0-0.43,5ea9611edec14d052ada0bae,650c16f0f2faf8d7a0d14c09,651c1e97cef5dc96a09501bf,null,null,"<p style=""font-size: 60px; font-family: BACS"">AMkCPMd</p>",,,,,,,,,,
html-keyboard-response,214,372670,0.0-12.0-0.44,5ea9611edec14d052ada0bae,650c16f0f2faf8d7a0d14c09,651c1e97cef5dc96a09501bf,null,null,"<p style=""font-size: 60px; font-family: BACS"">kdEdYBbM</p>",,,,,,,,,,
html-keyboard-response,215,373671,0.0-12.0-0.45,5ea9611edec14d052ada0bae,650c16f0f2faf8d7a0d14c09,651c1e97cef5dc96a09501bf,null,null,"<p style=""font-size: 60px; font-family: BACS"">YuaNdLkNc</p>",,,,,,,,,,
html-keyboard-response,216,374683,0.0-12.0-0.46,5ea9611edec14d052ada0bae,650c16f0f2faf8d7a0d14c09,651c1e97cef5dc96a09501bf,null,null,"<p style=""font-size: 60px; font-family: BACS"">KMDYtBbM</p>",,,,,,,,,,
html-keyboard-response,217,375688,0.0-12.0-0.47,5ea9611edec14d052ada0bae,650c16f0f2faf8d7a0d14c09,651c1e97cef5dc96a09501bf,null,null,"<p style=""font-size: 60px; font-family: BACS"">PMPtkmCd</p>",,,,,,,,,,
html-keyboard-response,218,376689,0.0-12.0-0.48,5ea9611edec14d052ada0bae,650c16f0f2faf8d7a0d14c09,651c1e97cef5dc96a09501bf,null,null,"<p style=""font-size: 60px; font-family: BACS"">OdlNmLUOk</p>",,,,,,,,,,
html-keyboard-response,219,377690,0.0-12.0-0.49,5ea9611edec14d052ada0bae,650c16f0f2faf8d7a0d14c09,651c1e97cef5dc96a09501bf,null,null,"<p style=""font-size: 60px; font-family: BACS"">RkmdCBbM</p>",,,,,,,,,,
html-keyboard-response,220,378691,0.0-12.0-0.50,5ea9611edec14d052ada0bae,650c16f0f2faf8d7a0d14c09,651c1e97cef5dc96a09501bf,null,null,"<p style=""font-size: 60px; font-family: BACS"">kdEdYmCd</p>",,,,,,,,,,
html-keyboard-response,221,379701,0.0-12.0-0.51,5ea9611edec14d052ada0bae,650c16f0f2faf8d7a0d14c09,651c1e97cef5dc96a09501bf,null,null,"<p style=""font-size: 60px; font-family: BACS"">ZcGdNLkNc</p>",,,,,,,,,,
html-keyboard-response,222,380712,0.0-12.0-0.52,5ea9611edec14d052ada0bae,650c16f0f2faf8d7a0d14c09,651c1e97cef5dc96a09501bf,null,null,"<p style=""font-size: 60px; font-family: BACS"">QcQAJLUOk</p>",,,,,,,,,,
html-keyboard-response,223,381713,0.0-12.0-0.53,5ea9611edec14d052ada0bae,650c16f0f2faf8d7a0d14c09,651c1e97cef5dc96a09501bf,null,null,"<p style=""font-size: 60px; font-family: BACS"">BECkPMd</p>",,,,,,,,,,
html-keyboard-response,224,382714,0.0-12.0-0.54,5ea9611edec14d052ada0bae,650c16f0f2faf8d7a0d14c09,651c1e97cef5dc96a09501bf,null,null,"<p style=""font-size: 60px; font-family: BACS"">kPkRATPOM</p>",,,,,,,,,,
html-keyboard-response,225,383726,0.0-12.0-0.55,5ea9611edec14d052ada0bae,650c16f0f2faf8d7a0d14c09,651c1e97cef5dc96a09501bf,null,null,"<p style=""font-size: 60px; font-family: BACS"">lRckAPMd</p>",,,,,,,,,,
html-keyboard-response,226,384739,0.0-12.0-0.56,5ea9611edec14d052ada0bae,650c16f0f2faf8d7a0d14c09,651c1e97cef5dc96a09501bf,null,null,"<p style=""font-size: 60px; font-family: BACS"">KMDYtmCd</p>",,,,,,,,,,
html-keyboard-response,227,385745,0.0-12.0-0.57,5ea9611edec14d052ada0bae,650c16f0f2faf8d7a0d14c09,651c1e97cef5dc96a09501bf,null,null,"<p style=""font-size: 60px; font-family: BACS"">OdlNmOcN</p>",,,,,,,,,,
html-keyboard-response,228,386747,0.0-12.0-0.58,5ea9611edec14d052ada0bae,650c16f0f2faf8d7a0d14c09,651c1e97cef5dc96a09501bf,null,null,"<p style=""font-size: 60px; font-family: BACS"">mBYlBbM</p>",,,,,,,,,,
html-keyboard-response,229,387747,0.0-12.0-0.59,5ea9611edec14d052ada0bae,650c16f0f2faf8d7a0d14c09,651c1e97cef5dc96a09501bf,null,null,"<p style=""font-size: 60px; font-family: BACS"">muYNuUY</p>",,,,,,,,,,
html-keyboard-response,230,388763,0.0-12.0-0.60,5ea9611edec14d052ada0bae,650c16f0f2faf8d7a0d14c09,651c1e97cef5dc96a09501bf,null,null,"<p style=""font-size: 60px; font-family: BACS"">UrOQLUOk</p>",,,,,,,,,,
html-keyboard-response,231,389764,0.0-12.0-0.61,5ea9611edec14d052ada0bae,650c16f0f2faf8d7a0d14c09,651c1e97cef5dc96a09501bf,null,null,"<p style=""font-size: 60px; font-family: BACS"">ODBDAcMRl</p>",,,,,,,,,,
html-keyboard-response,232,390779,0.0-12.0-0.62,5ea9611edec14d052ada0bae,650c16f0f2faf8d7a0d14c09,651c1e97cef5dc96a09501bf,null,null,"<p style=""font-size: 60px; font-family: BACS"">muYNGrbk</p>",,,,,,,,,,
html-keyboard-response,233,391790,0.0-12.0-0.63,5ea9611edec14d052ada0bae,650c16f0f2faf8d7a0d14c09,651c1e97cef5dc96a09501bf,null,null,"<p style=""font-size: 60px; font-family: BACS"">YuaNduUY</p>",,,,,,,,,,
html-keyboard-response,234,392803,0.0-12.0-0.64,5ea9611edec14d052ada0bae,650c16f0f2faf8d7a0d14c09,651c1e97cef5dc96a09501bf,null,null,"<p style=""font-size: 60px; font-family: BACS"">ODBDAPMd</p>",,,,,,,,,,
html-keyboard-response,235,393815,0.0-12.0-0.65,5ea9611edec14d052ada0bae,650c16f0f2faf8d7a0d14c09,651c1e97cef5dc96a09501bf,null,null,"<p style=""font-size: 60px; font-family: BACS"">KMDYtcMRl</p>",,,,,,,,,,
html-keyboard-response,236,394827,0.0-12.0-0.66,5ea9611edec14d052ada0bae,650c16f0f2faf8d7a0d14c09,651c1e97cef5dc96a09501bf,null,null,"<p style=""font-size: 60px; font-family: BACS"">NJZluUY</p>",,,,,,,,,,
html-keyboard-response,237,395841,0.0-12.0-0.67,5ea9611edec14d052ada0bae,650c16f0f2faf8d7a0d14c09,651c1e97cef5dc96a09501bf,null,null,"<p style=""font-size: 60px; font-family: BACS"">QcQAJOcN</p>",,,,,,,,,,
html-keyboard-response,238,396852,0.0-12.0-0.68,5ea9611edec14d052ada0bae,650c16f0f2faf8d7a0d14c09,651c1e97cef5dc96a09501bf,null,null,"<p style=""font-size: 60px; font-family: BACS"">ZcGdNuUY</p>",,,,,,,,,,
html-keyboard-response,239,397860,0.0-12.0-0.69,5ea9611edec14d052ada0bae,650c16f0f2faf8d7a0d14c09,651c1e97cef5dc96a09501bf,null,null,"<p style=""font-size: 60px; font-family: BACS"">BECkBbM</p>",,,,,,,,,,
html-keyboard-response,240,398869,0.0-12.0-0.70,5ea9611edec14d052ada0bae,650c16f0f2faf8d7a0d14c09,651c1e97cef5dc96a09501bf,null,null,"<p style=""font-size: 60px; font-family: BACS"">YOaAbGrbk</p>",,,,,,,,,,
html-keyboard-response,241,399882,0.0-12.0-0.71,5ea9611edec14d052ada0bae,650c16f0f2faf8d7a0d14c09,651c1e97cef5dc96a09501bf,null,null,"<p style=""font-size: 60px; font-family: BACS"">QcQAJuUY</p>",,,,,,,,,,
html-keyboard-response,242,400892,0.0-12.0-0.72,5ea9611edec14d052ada0bae,650c16f0f2faf8d7a0d14c09,651c1e97cef5dc96a09501bf,null,null,"<p style=""font-size: 60px; font-family: BACS"">YuaNdGrbk</p>",,,,,,,,,,
html-keyboard-response,243,401893,0.0-12.0-0.73,5ea9611edec14d052ada0bae,650c16f0f2faf8d7a0d14c09,651c1e97cef5dc96a09501bf,null,null,"<p style=""font-size: 60px; font-family: BACS"">GabkuUY</p>",,,,,,,,,,
html-keyboard-response,244,402898,0.0-12.0-0.74,5ea9611edec14d052ada0bae,650c16f0f2faf8d7a0d14c09,651c1e97cef5dc96a09501bf,null,null,"<p style=""font-size: 60px; font-family: BACS"">KMDYtPMd</p>",,,,,,,,,,
html-keyboard-response,245,403900,0.0-12.0-0.75,5ea9611edec14d052ada0bae,650c16f0f2faf8d7a0d14c09,651c1e97cef5dc96a09501bf,null,null,"<p style=""font-size: 60px; font-family: BACS"">mBYlTPOM</p>",,,,,,,,,,
html-keyboard-response,246,404902,0.0-12.0-0.76,5ea9611edec14d052ada0bae,650c16f0f2faf8d7a0d14c09,651c1e97cef5dc96a09501bf,null,null,"<p style=""font-size: 60px; font-family: BACS"">PMPtkcMRl</p>",,,,,,,,,,
html-keyboard-response,247,405909,0.0-12.0-0.77,5ea9611edec14d052ada0bae,650c16f0f2faf8d7a0d14c09,651c1e97cef5dc96a09501bf,null,null,"<p style=""font-size: 60px; font-family: BACS"">RkmdCTPOM</p>",,,,,,,,,,
html-keyboard-response,248,406922,0.0-12.0-0.78,5ea9611edec14d052ada0bae,650c16f0f2faf8d7a0d14c09,651c1e97cef5dc96a09501bf,null,null,"<p style=""font-size: 60px; font-family: BACS"">mBYlmCd</p>",,,,,,,,,,
html-keyboard-response,249,407935,0.0-12.0-0.79,5ea9611edec14d052ada0bae,650c16f0f2faf8d7a0d14c09,651c1e97cef5dc96a09501bf,null,null,"<p style=""font-size: 60px; font-family: BACS"">dGLAluUY</p>",,,,,,,,,,
html-keyboard-response,250,435888,0.0-13.0,5ea9611edec14d052ada0bae,650c16f0f2faf8d7a0d14c09,651c1e97cef5dc96a09501bf,27953, ,"<p>Great, you've seen the third block of words. You may now take a short break.</p>
      <p>Press the spacebar when you're ready to continue.</p>",,,,,,,,,,
html-keyboard-response,251,436900,0.0-14.0-0.0,5ea9611edec14d052ada0bae,650c16f0f2faf8d7a0d14c09,651c1e97cef5dc96a09501bf,null,null,"<p style=""font-size: 60px; font-family: BACS"">lRckAcMRl</p>",,,,,,,,,,
html-keyboard-response,252,437909,0.0-14.0-0.1,5ea9611edec14d052ada0bae,650c16f0f2faf8d7a0d14c09,651c1e97cef5dc96a09501bf,null,null,"<p style=""font-size: 60px; font-family: BACS"">AMkCmCd</p>",,,,,,,,,,
html-keyboard-response,253,438922,0.0-14.0-0.2,5ea9611edec14d052ada0bae,650c16f0f2faf8d7a0d14c09,651c1e97cef5dc96a09501bf,null,null,"<p style=""font-size: 60px; font-family: BACS"">UrOQLUOk</p>",,,,,,,,,,
html-keyboard-response,254,439931,0.0-14.0-0.3,5ea9611edec14d052ada0bae,650c16f0f2faf8d7a0d14c09,651c1e97cef5dc96a09501bf,null,null,"<p style=""font-size: 60px; font-family: BACS"">YuaNdLkNc</p>",,,,,,,,,,
html-keyboard-response,255,440937,0.0-14.0-0.4,5ea9611edec14d052ada0bae,650c16f0f2faf8d7a0d14c09,651c1e97cef5dc96a09501bf,null,null,"<p style=""font-size: 60px; font-family: BACS"">ZcGdNLUOk</p>",,,,,,,,,,
html-keyboard-response,256,441945,0.0-14.0-0.5,5ea9611edec14d052ada0bae,650c16f0f2faf8d7a0d14c09,651c1e97cef5dc96a09501bf,null,null,"<p style=""font-size: 60px; font-family: BACS"">UrOQuUY</p>",,,,,,,,,,
html-keyboard-response,257,442957,0.0-14.0-0.6,5ea9611edec14d052ada0bae,650c16f0f2faf8d7a0d14c09,651c1e97cef5dc96a09501bf,null,null,"<p style=""font-size: 60px; font-family: BACS"">kPkRABbM</p>",,,,,,,,,,
html-keyboard-response,258,443969,0.0-14.0-0.7,5ea9611edec14d052ada0bae,650c16f0f2faf8d7a0d14c09,651c1e97cef5dc96a09501bf,null,null,"<p style=""font-size: 60px; font-family: BACS"">KMDYtPMd</p>",,,,,,,,,,
html-keyboard-response,259,444979,0.0-14.0-0.8,5ea9611edec14d052ada0bae,650c16f0f2faf8d7a0d14c09,651c1e97cef5dc96a09501bf,null,null,"<p style=""font-size: 60px; font-family: BACS"">BECkTPOM</p>",,,,,,,,,,
html-keyboard-response,260,445981,0.0-14.0-0.9,5ea9611edec14d052ada0bae,650c16f0f2faf8d7a0d14c09,651c1e97cef5dc96a09501bf,null,null,"<p style=""font-size: 60px; font-family: BACS"">kdEdYmCd</p>",,,,,,,,,,
html-keyboard-response,261,446988,0.0-14.0-0.10,5ea9611edec14d052ada0bae,650c16f0f2faf8d7a0d14c09,651c1e97cef5dc96a09501bf,null,null,"<p style=""font-size: 60px; font-family: BACS"">GabkOcN</p>",,,,,,,,,,
html-keyboard-response,262,448000,0.0-14.0-0.11,5ea9611edec14d052ada0bae,650c16f0f2faf8d7a0d14c09,651c1e97cef5dc96a09501bf,null,null,"<p style=""font-size: 60px; font-family: BACS"">kPkRAPMd</p>",,,,,,,,,,
html-keyboard-response,263,449011,0.0-14.0-0.12,5ea9611edec14d052ada0bae,650c16f0f2faf8d7a0d14c09,651c1e97cef5dc96a09501bf,null,null,"<p style=""font-size: 60px; font-family: BACS"">GabkuUY</p>",,,,,,,,,,
html-keyboard-response,264,450024,0.0-14.0-0.13,5ea9611edec14d052ada0bae,650c16f0f2faf8d7a0d14c09,651c1e97cef5dc96a09501bf,null,null,"<p style=""font-size: 60px; font-family: BACS"">muYNLUOk</p>",,,,,,,,,,
html-keyboard-response,265,451026,0.0-14.0-0.14,5ea9611edec14d052ada0bae,650c16f0f2faf8d7a0d14c09,651c1e97cef5dc96a09501bf,null,null,"<p style=""font-size: 60px; font-family: BACS"">dGLAlGrbk</p>",,,,,,,,,,
html-keyboard-response,266,452032,0.0-14.0-0.15,5ea9611edec14d052ada0bae,650c16f0f2faf8d7a0d14c09,651c1e97cef5dc96a09501bf,null,null,"<p style=""font-size: 60px; font-family: BACS"">QcQAJLUOk</p>",,,,,,,,,,
html-keyboard-response,267,453046,0.0-14.0-0.16,5ea9611edec14d052ada0bae,650c16f0f2faf8d7a0d14c09,651c1e97cef5dc96a09501bf,null,null,"<p style=""font-size: 60px; font-family: BACS"">OdlNmGrbk</p>",,,,,,,,,,
html-keyboard-response,268,454060,0.0-14.0-0.17,5ea9611edec14d052ada0bae,650c16f0f2faf8d7a0d14c09,651c1e97cef5dc96a09501bf,null,null,"<p style=""font-size: 60px; font-family: BACS"">RkmdCcMRl</p>",,,,,,,,,,
html-keyboard-response,269,455061,0.0-14.0-0.18,5ea9611edec14d052ada0bae,650c16f0f2faf8d7a0d14c09,651c1e97cef5dc96a09501bf,null,null,"<p style=""font-size: 60px; font-family: BACS"">PMPtkPMd</p>",,,,,,,,,,
html-keyboard-response,270,456063,0.0-14.0-0.19,5ea9611edec14d052ada0bae,650c16f0f2faf8d7a0d14c09,651c1e97cef5dc96a09501bf,null,null,"<p style=""font-size: 60px; font-family: BACS"">ZcGdNuUY</p>",,,,,,,,,,
html-keyboard-response,271,457065,0.0-14.0-0.20,5ea9611edec14d052ada0bae,650c16f0f2faf8d7a0d14c09,651c1e97cef5dc96a09501bf,null,null,"<p style=""font-size: 60px; font-family: BACS"">mBYlTPOM</p>",,,,,,,,,,
html-keyboard-response,272,458079,0.0-14.0-0.21,5ea9611edec14d052ada0bae,650c16f0f2faf8d7a0d14c09,651c1e97cef5dc96a09501bf,null,null,"<p style=""font-size: 60px; font-family: BACS"">YOaAbGrbk</p>",,,,,,,,,,
html-keyboard-response,273,459092,0.0-14.0-0.22,5ea9611edec14d052ada0bae,650c16f0f2faf8d7a0d14c09,651c1e97cef5dc96a09501bf,null,null,"<p style=""font-size: 60px; font-family: BACS"">mBYlmCd</p>",,,,,,,,,,
html-keyboard-response,274,460106,0.0-14.0-0.23,5ea9611edec14d052ada0bae,650c16f0f2faf8d7a0d14c09,651c1e97cef5dc96a09501bf,null,null,"<p style=""font-size: 60px; font-family: BACS"">KMDYtcMRl</p>",,,,,,,,,,
html-keyboard-response,275,461120,0.0-14.0-0.24,5ea9611edec14d052ada0bae,650c16f0f2faf8d7a0d14c09,651c1e97cef5dc96a09501bf,null,null,"<p style=""font-size: 60px; font-family: BACS"">YOaAbOcN</p>",,,,,,,,,,
html-keyboard-response,276,462130,0.0-14.0-0.25,5ea9611edec14d052ada0bae,650c16f0f2faf8d7a0d14c09,651c1e97cef5dc96a09501bf,null,null,"<p style=""font-size: 60px; font-family: BACS"">AMkCcMRl</p>",,,,,,,,,,
html-keyboard-response,277,463147,0.0-14.0-0.26,5ea9611edec14d052ada0bae,650c16f0f2faf8d7a0d14c09,651c1e97cef5dc96a09501bf,null,null,"<p style=""font-size: 60px; font-family: BACS"">BECkBbM</p>",,,,,,,,,,
html-keyboard-response,278,464158,0.0-14.0-0.27,5ea9611edec14d052ada0bae,650c16f0f2faf8d7a0d14c09,651c1e97cef5dc96a09501bf,null,null,"<p style=""font-size: 60px; font-family: BACS"">ZcGdNOcN</p>",,,,,,,,,,
html-keyboard-response,279,465166,0.0-14.0-0.28,5ea9611edec14d052ada0bae,650c16f0f2faf8d7a0d14c09,651c1e97cef5dc96a09501bf,null,null,"<p style=""font-size: 60px; font-family: BACS"">ODBDAcMRl</p>",,,,,,,,,,
html-keyboard-response,280,466169,0.0-14.0-0.29,5ea9611edec14d052ada0bae,650c16f0f2faf8d7a0d14c09,651c1e97cef5dc96a09501bf,null,null,"<p style=""font-size: 60px; font-family: BACS"">kPkRATPOM</p>",,,,,,,,,,
html-keyboard-response,281,467170,0.0-14.0-0.30,5ea9611edec14d052ada0bae,650c16f0f2faf8d7a0d14c09,651c1e97cef5dc96a09501bf,null,null,"<p style=""font-size: 60px; font-family: BACS"">UrOQGrbk</p>",,,,,,,,,,
html-keyboard-response,282,468172,0.0-14.0-0.31,5ea9611edec14d052ada0bae,650c16f0f2faf8d7a0d14c09,651c1e97cef5dc96a09501bf,null,null,"<p style=""font-size: 60px; font-family: BACS"">GabkLUOk</p>",,,,,,,,,,
html-keyboard-response,283,469176,0.0-14.0-0.32,5ea9611edec14d052ada0bae,650c16f0f2faf8d7a0d14c09,651c1e97cef5dc96a09501bf,null,null,"<p style=""font-size: 60px; font-family: BACS"">RkmdCTPOM</p>",,,,,,,,,,
html-keyboard-response,284,470178,0.0-14.0-0.33,5ea9611edec14d052ada0bae,650c16f0f2faf8d7a0d14c09,651c1e97cef5dc96a09501bf,null,null,"<p style=""font-size: 60px; font-family: BACS"">BECkPMd</p>",,,,,,,,,,
html-keyboard-response,285,471190,0.0-14.0-0.34,5ea9611edec14d052ada0bae,650c16f0f2faf8d7a0d14c09,651c1e97cef5dc96a09501bf,null,null,"<p style=""font-size: 60px; font-family: BACS"">ODBDATPOM</p>",,,,,,,,,,
html-keyboard-response,286,472192,0.0-14.0-0.35,5ea9611edec14d052ada0bae,650c16f0f2faf8d7a0d14c09,651c1e97cef5dc96a09501bf,null,null,"<p style=""font-size: 60px; font-family: BACS"">ZcGdNLkNc</p>",,,,,,,,,,
html-keyboard-response,287,473206,0.0-14.0-0.36,5ea9611edec14d052ada0bae,650c16f0f2faf8d7a0d14c09,651c1e97cef5dc96a09501bf,null,null,"<p style=""font-size: 60px; font-family: BACS"">AMkCPMd</p>",,,,,,,,,,
html-keyboard-response,288,474222,0.0-14.0-0.37,5ea9611edec14d052ada0bae,650c16f0f2faf8d7a0d14c09,651c1e97cef5dc96a09501bf,null,null,"<p style=""font-size: 60px; font-family: BACS"">dGLAluUY</p>",,,,,,,,,,
html-keyboard-response,289,475226,0.0-14.0-0.38,5ea9611edec14d052ada0bae,650c16f0f2faf8d7a0d14c09,651c1e97cef5dc96a09501bf,null,null,"<p style=""font-size: 60px; font-family: BACS"">OdlNmLkNc</p>",,,,,,,,,,
html-keyboard-response,290,476239,0.0-14.0-0.39,5ea9611edec14d052ada0bae,650c16f0f2faf8d7a0d14c09,651c1e97cef5dc96a09501bf,null,null,"<p style=""font-size: 60px; font-family: BACS"">kPkRAmCd</p>",,,,,,,,,,
html-keyboard-response,291,477251,0.0-14.0-0.40,5ea9611edec14d052ada0bae,650c16f0f2faf8d7a0d14c09,651c1e97cef5dc96a09501bf,null,null,"<p style=""font-size: 60px; font-family: BACS"">AMkCTPOM</p>",,,,,,,,,,
html-keyboard-response,292,478265,0.0-14.0-0.41,5ea9611edec14d052ada0bae,650c16f0f2faf8d7a0d14c09,651c1e97cef5dc96a09501bf,null,null,"<p style=""font-size: 60px; font-family: BACS"">kdEdYPMd</p>",,,,,,,,,,
html-keyboard-response,293,479281,0.0-14.0-0.42,5ea9611edec14d052ada0bae,650c16f0f2faf8d7a0d14c09,651c1e97cef5dc96a09501bf,null,null,"<p style=""font-size: 60px; font-family: BACS"">KMDYtBbM</p>",,,,,,,,,,
html-keyboard-response,294,480283,0.0-14.0-0.43,5ea9611edec14d052ada0bae,650c16f0f2faf8d7a0d14c09,651c1e97cef5dc96a09501bf,null,null,"<p style=""font-size: 60px; font-family: BACS"">dGLAlLkNc</p>",,,,,,,,,,
html-keyboard-response,295,481287,0.0-14.0-0.44,5ea9611edec14d052ada0bae,650c16f0f2faf8d7a0d14c09,651c1e97cef5dc96a09501bf,null,null,"<p style=""font-size: 60px; font-family: BACS"">lRckAPMd</p>",,,,,,,,,,
html-keyboard-response,296,482300,0.0-14.0-0.45,5ea9611edec14d052ada0bae,650c16f0f2faf8d7a0d14c09,651c1e97cef5dc96a09501bf,null,null,"<p style=""font-size: 60px; font-family: BACS"">mBYlBbM</p>",,,,,,,,,,
html-keyboard-response,297,483309,0.0-14.0-0.46,5ea9611edec14d052ada0bae,650c16f0f2faf8d7a0d14c09,651c1e97cef5dc96a09501bf,null,null,"<p style=""font-size: 60px; font-family: BACS"">BECkcMRl</p>",,,,,,,,,,
html-keyboard-response,298,484323,0.0-14.0-0.47,5ea9611edec14d052ada0bae,650c16f0f2faf8d7a0d14c09,651c1e97cef5dc96a09501bf,null,null,"<p style=""font-size: 60px; font-family: BACS"">YOaAbLkNc</p>",,,,,,,,,,
html-keyboard-response,299,485329,0.0-14.0-0.48,5ea9611edec14d052ada0bae,650c16f0f2faf8d7a0d14c09,651c1e97cef5dc96a09501bf,null,null,"<p style=""font-size: 60px; font-family: BACS"">PMPtkBbM</p>",,,,,,,,,,
html-keyboard-response,300,486343,0.0-14.0-0.49,5ea9611edec14d052ada0bae,650c16f0f2faf8d7a0d14c09,651c1e97cef5dc96a09501bf,null,null,"<p style=""font-size: 60px; font-family: BACS"">lRckAmCd</p>",,,,,,,,,,
html-keyboard-response,301,487351,0.0-14.0-0.50,5ea9611edec14d052ada0bae,650c16f0f2faf8d7a0d14c09,651c1e97cef5dc96a09501bf,null,null,"<p style=""font-size: 60px; font-family: BACS"">OdlNmOcN</p>",,,,,,,,,,
html-keyboard-response,302,488367,0.0-14.0-0.51,5ea9611edec14d052ada0bae,650c16f0f2faf8d7a0d14c09,651c1e97cef5dc96a09501bf,null,null,"<p style=""font-size: 60px; font-family: BACS"">QcQAJLkNc</p>",,,,,,,,,,
html-keyboard-response,303,489380,0.0-14.0-0.52,5ea9611edec14d052ada0bae,650c16f0f2faf8d7a0d14c09,651c1e97cef5dc96a09501bf,null,null,"<p style=""font-size: 60px; font-family: BACS"">GabkGrbk</p>",,,,,,,,,,
html-keyboard-response,304,490383,0.0-14.0-0.53,5ea9611edec14d052ada0bae,650c16f0f2faf8d7a0d14c09,651c1e97cef5dc96a09501bf,null,null,"<p style=""font-size: 60px; font-family: BACS"">YOaAbLUOk</p>",,,,,,,,,,
html-keyboard-response,305,491395,0.0-14.0-0.54,5ea9611edec14d052ada0bae,650c16f0f2faf8d7a0d14c09,651c1e97cef5dc96a09501bf,null,null,"<p style=""font-size: 60px; font-family: BACS"">muYNGrbk</p>",,,,,,,,,,
html-keyboard-response,306,492406,0.0-14.0-0.55,5ea9611edec14d052ada0bae,650c16f0f2faf8d7a0d14c09,651c1e97cef5dc96a09501bf,null,null,"<p style=""font-size: 60px; font-family: BACS"">ODBDABbM</p>",,,,,,,,,,
html-keyboard-response,307,493416,0.0-14.0-0.56,5ea9611edec14d052ada0bae,650c16f0f2faf8d7a0d14c09,651c1e97cef5dc96a09501bf,null,null,"<p style=""font-size: 60px; font-family: BACS"">NJZluUY</p>",,,,,,,,,,
html-keyboard-response,308,494426,0.0-14.0-0.57,5ea9611edec14d052ada0bae,650c16f0f2faf8d7a0d14c09,651c1e97cef5dc96a09501bf,null,null,"<p style=""font-size: 60px; font-family: BACS"">UrOQLkNc</p>",,,,,,,,,,
html-keyboard-response,309,495431,0.0-14.0-0.58,5ea9611edec14d052ada0bae,650c16f0f2faf8d7a0d14c09,651c1e97cef5dc96a09501bf,null,null,"<p style=""font-size: 60px; font-family: BACS"">lRckATPOM</p>",,,,,,,,,,
html-keyboard-response,310,496446,0.0-14.0-0.59,5ea9611edec14d052ada0bae,650c16f0f2faf8d7a0d14c09,651c1e97cef5dc96a09501bf,null,null,"<p style=""font-size: 60px; font-family: BACS"">YuaNdGrbk</p>",,,,,,,,,,
html-keyboard-response,311,497448,0.0-14.0-0.60,5ea9611edec14d052ada0bae,650c16f0f2faf8d7a0d14c09,651c1e97cef5dc96a09501bf,null,null,"<p style=""font-size: 60px; font-family: BACS"">RkmdCmCd</p>",,,,,,,,,,
html-keyboard-response,312,498462,0.0-14.0-0.61,5ea9611edec14d052ada0bae,650c16f0f2faf8d7a0d14c09,651c1e97cef5dc96a09501bf,null,null,"<p style=""font-size: 60px; font-family: BACS"">PMPtkcMRl</p>",,,,,,,,,,
html-keyboard-response,313,499475,0.0-14.0-0.62,5ea9611edec14d052ada0bae,650c16f0f2faf8d7a0d14c09,651c1e97cef5dc96a09501bf,null,null,"<p style=""font-size: 60px; font-family: BACS"">NJZlLUOk</p>",,,,,,,,,,
html-keyboard-response,314,500476,0.0-14.0-0.63,5ea9611edec14d052ada0bae,650c16f0f2faf8d7a0d14c09,651c1e97cef5dc96a09501bf,null,null,"<p style=""font-size: 60px; font-family: BACS"">muYNuUY</p>",,,,,,,,,,
html-keyboard-response,315,501483,0.0-14.0-0.64,5ea9611edec14d052ada0bae,650c16f0f2faf8d7a0d14c09,651c1e97cef5dc96a09501bf,null,null,"<p style=""font-size: 60px; font-family: BACS"">NJZlGrbk</p>",,,,,,,,,,
html-keyboard-response,316,502493,0.0-14.0-0.65,5ea9611edec14d052ada0bae,650c16f0f2faf8d7a0d14c09,651c1e97cef5dc96a09501bf,null,null,"<p style=""font-size: 60px; font-family: BACS"">RkmdCBbM</p>",,,,,,,,,,
html-keyboard-response,317,503501,0.0-14.0-0.66,5ea9611edec14d052ada0bae,650c16f0f2faf8d7a0d14c09,651c1e97cef5dc96a09501bf,null,null,"<p style=""font-size: 60px; font-family: BACS"">YuaNduUY</p>",,,,,,,,,,
html-keyboard-response,318,504513,0.0-14.0-0.67,5ea9611edec14d052ada0bae,650c16f0f2faf8d7a0d14c09,651c1e97cef5dc96a09501bf,null,null,"<p style=""font-size: 60px; font-family: BACS"">OdlNmLUOk</p>",,,,,,,,,,
html-keyboard-response,319,505525,0.0-14.0-0.68,5ea9611edec14d052ada0bae,650c16f0f2faf8d7a0d14c09,651c1e97cef5dc96a09501bf,null,null,"<p style=""font-size: 60px; font-family: BACS"">QcQAJOcN</p>",,,,,,,,,,
html-keyboard-response,320,506538,0.0-14.0-0.69,5ea9611edec14d052ada0bae,650c16f0f2faf8d7a0d14c09,651c1e97cef5dc96a09501bf,null,null,"<p style=""font-size: 60px; font-family: BACS"">PMPtkmCd</p>",,,,,,,,,,
html-keyboard-response,321,507540,0.0-14.0-0.70,5ea9611edec14d052ada0bae,650c16f0f2faf8d7a0d14c09,651c1e97cef5dc96a09501bf,null,null,"<p style=""font-size: 60px; font-family: BACS"">kdEdYBbM</p>",,,,,,,,,,
html-keyboard-response,322,508544,0.0-14.0-0.71,5ea9611edec14d052ada0bae,650c16f0f2faf8d7a0d14c09,651c1e97cef5dc96a09501bf,null,null,"<p style=""font-size: 60px; font-family: BACS"">QcQAJuUY</p>",,,,,,,,,,
html-keyboard-response,323,509557,0.0-14.0-0.72,5ea9611edec14d052ada0bae,650c16f0f2faf8d7a0d14c09,651c1e97cef5dc96a09501bf,null,null,"<p style=""font-size: 60px; font-family: BACS"">dGLAlOcN</p>",,,,,,,,,,
html-keyboard-response,324,510569,0.0-14.0-0.73,5ea9611edec14d052ada0bae,650c16f0f2faf8d7a0d14c09,651c1e97cef5dc96a09501bf,null,null,"<p style=""font-size: 60px; font-family: BACS"">mBYlcMRl</p>",,,,,,,,,,
html-keyboard-response,325,511579,0.0-14.0-0.74,5ea9611edec14d052ada0bae,650c16f0f2faf8d7a0d14c09,651c1e97cef5dc96a09501bf,null,null,"<p style=""font-size: 60px; font-family: BACS"">NJZlLkNc</p>",,,,,,,,,,
html-keyboard-response,326,512590,0.0-14.0-0.75,5ea9611edec14d052ada0bae,650c16f0f2faf8d7a0d14c09,651c1e97cef5dc96a09501bf,null,null,"<p style=""font-size: 60px; font-family: BACS"">muYNOcN</p>",,,,,,,,,,
html-keyboard-response,327,513605,0.0-14.0-0.76,5ea9611edec14d052ada0bae,650c16f0f2faf8d7a0d14c09,651c1e97cef5dc96a09501bf,null,null,"<p style=""font-size: 60px; font-family: BACS"">KMDYtmCd</p>",,,,,,,,,,
html-keyboard-response,328,514617,0.0-14.0-0.77,5ea9611edec14d052ada0bae,650c16f0f2faf8d7a0d14c09,651c1e97cef5dc96a09501bf,null,null,"<p style=""font-size: 60px; font-family: BACS"">YuaNdOcN</p>",,,,,,,,,,
html-keyboard-response,329,515628,0.0-14.0-0.78,5ea9611edec14d052ada0bae,650c16f0f2faf8d7a0d14c09,651c1e97cef5dc96a09501bf,null,null,"<p style=""font-size: 60px; font-family: BACS"">ODBDAPMd</p>",,,,,,,,,,
html-keyboard-response,330,516639,0.0-14.0-0.79,5ea9611edec14d052ada0bae,650c16f0f2faf8d7a0d14c09,651c1e97cef5dc96a09501bf,null,null,"<p style=""font-size: 60px; font-family: BACS"">kdEdYTPOM</p>",,,,,,,,,,
html-keyboard-response,331,632926,0.0-15.0,5ea9611edec14d052ada0bae,650c16f0f2faf8d7a0d14c09,651c1e97cef5dc96a09501bf,116285, ,"<p>Great, you've seen the fourth block of words. You may now take a short break.</p>
      <p>Press the spacebar when you're ready to continue.</p>",,,,,,,,,,
html-keyboard-response,332,633938,0.0-16.0-0.0,5ea9611edec14d052ada0bae,650c16f0f2faf8d7a0d14c09,651c1e97cef5dc96a09501bf,null,null,"<p style=""font-size: 60px; font-family: BACS"">UrOQGrbk</p>",,,,,,,,,,
html-keyboard-response,333,634945,0.0-16.0-0.1,5ea9611edec14d052ada0bae,650c16f0f2faf8d7a0d14c09,651c1e97cef5dc96a09501bf,null,null,"<p style=""font-size: 60px; font-family: BACS"">UrOQGrbk</p>",,,,,,,,,,
html-keyboard-response,334,635946,0.0-16.0-0.2,5ea9611edec14d052ada0bae,650c16f0f2faf8d7a0d14c09,651c1e97cef5dc96a09501bf,null,null,"<p style=""font-size: 60px; font-family: BACS"">UrOQGrbk</p>",,,,,,,,,,
html-keyboard-response,335,636951,0.0-16.0-0.3,5ea9611edec14d052ada0bae,650c16f0f2faf8d7a0d14c09,651c1e97cef5dc96a09501bf,null,null,"<p style=""font-size: 60px; font-family: BACS"">UrOQGrbk</p>",,,,,,,,,,
html-keyboard-response,336,637951,0.0-16.0-0.4,5ea9611edec14d052ada0bae,650c16f0f2faf8d7a0d14c09,651c1e97cef5dc96a09501bf,null,null,"<p style=""font-size: 60px; font-family: BACS"">UrOQGrbk</p>",,,,,,,,,,
html-keyboard-response,337,638955,0.0-16.0-0.5,5ea9611edec14d052ada0bae,650c16f0f2faf8d7a0d14c09,651c1e97cef5dc96a09501bf,null,null,"<p style=""font-size: 60px; font-family: BACS"">UrOQGrbk</p>",,,,,,,,,,
html-keyboard-response,338,639964,0.0-16.0-0.6,5ea9611edec14d052ada0bae,650c16f0f2faf8d7a0d14c09,651c1e97cef5dc96a09501bf,null,null,"<p style=""font-size: 60px; font-family: BACS"">UrOQGrbk</p>",,,,,,,,,,
html-keyboard-response,339,640979,0.0-16.0-0.7,5ea9611edec14d052ada0bae,650c16f0f2faf8d7a0d14c09,651c1e97cef5dc96a09501bf,null,null,"<p style=""font-size: 60px; font-family: BACS"">UrOQGrbk</p>",,,,,,,,,,
html-keyboard-response,340,641990,0.0-16.0-0.8,5ea9611edec14d052ada0bae,650c16f0f2faf8d7a0d14c09,651c1e97cef5dc96a09501bf,null,null,"<p style=""font-size: 60px; font-family: BACS"">UrOQGrbk</p>",,,,,,,,,,
html-keyboard-response,341,643002,0.0-16.0-0.9,5ea9611edec14d052ada0bae,650c16f0f2faf8d7a0d14c09,651c1e97cef5dc96a09501bf,null,null,"<p style=""font-size: 60px; font-family: BACS"">UrOQGrbk</p>",,,,,,,,,,
html-keyboard-response,342,644003,0.0-16.0-0.10,5ea9611edec14d052ada0bae,650c16f0f2faf8d7a0d14c09,651c1e97cef5dc96a09501bf,null,null,"<p style=""font-size: 60px; font-family: BACS"">UrOQGrbk</p>",,,,,,,,,,
html-keyboard-response,343,645006,0.0-16.0-0.11,5ea9611edec14d052ada0bae,650c16f0f2faf8d7a0d14c09,651c1e97cef5dc96a09501bf,null,null,"<p style=""font-size: 60px; font-family: BACS"">UrOQGrbk</p>",,,,,,,,,,
html-keyboard-response,344,646016,0.0-16.0-0.12,5ea9611edec14d052ada0bae,650c16f0f2faf8d7a0d14c09,651c1e97cef5dc96a09501bf,null,null,"<p style=""font-size: 60px; font-family: BACS"">UrOQGrbk</p>",,,,,,,,,,
html-keyboard-response,345,647030,0.0-16.0-0.13,5ea9611edec14d052ada0bae,650c16f0f2faf8d7a0d14c09,651c1e97cef5dc96a09501bf,null,null,"<p style=""font-size: 60px; font-family: BACS"">UrOQGrbk</p>",,,,,,,,,,
html-keyboard-response,346,648040,0.0-16.0-0.14,5ea9611edec14d052ada0bae,650c16f0f2faf8d7a0d14c09,651c1e97cef5dc96a09501bf,null,null,"<p style=""font-size: 60px; font-family: BACS"">UrOQGrbk</p>",,,,,,,,,,
html-keyboard-response,347,649041,0.0-16.0-0.15,5ea9611edec14d052ada0bae,650c16f0f2faf8d7a0d14c09,651c1e97cef5dc96a09501bf,null,null,"<p style=""font-size: 60px; font-family: BACS"">UrOQGrbk</p>",,,,,,,,,,
html-keyboard-response,348,650053,0.0-16.0-0.16,5ea9611edec14d052ada0bae,650c16f0f2faf8d7a0d14c09,651c1e97cef5dc96a09501bf,null,null,"<p style=""font-size: 60px; font-family: BACS"">UrOQGrbk</p>",,,,,,,,,,
html-keyboard-response,349,651063,0.0-16.0-0.17,5ea9611edec14d052ada0bae,650c16f0f2faf8d7a0d14c09,651c1e97cef5dc96a09501bf,null,null,"<p style=""font-size: 60px; font-family: BACS"">UrOQGrbk</p>",,,,,,,,,,
html-keyboard-response,350,652078,0.0-16.0-0.18,5ea9611edec14d052ada0bae,650c16f0f2faf8d7a0d14c09,651c1e97cef5dc96a09501bf,null,null,"<p style=""font-size: 60px; font-family: BACS"">UrOQGrbk</p>",,,,,,,,,,
html-keyboard-response,351,653079,0.0-16.0-0.19,5ea9611edec14d052ada0bae,650c16f0f2faf8d7a0d14c09,651c1e97cef5dc96a09501bf,null,null,"<p style=""font-size: 60px; font-family: BACS"">UrOQGrbk</p>",,,,,,,,,,
html-keyboard-response,352,654095,0.0-16.0-0.20,5ea9611edec14d052ada0bae,650c16f0f2faf8d7a0d14c09,651c1e97cef5dc96a09501bf,null,null,"<p style=""font-size: 60px; font-family: BACS"">UrOQGrbk</p>",,,,,,,,,,
html-keyboard-response,353,655096,0.0-16.0-0.21,5ea9611edec14d052ada0bae,650c16f0f2faf8d7a0d14c09,651c1e97cef5dc96a09501bf,null,null,"<p style=""font-size: 60px; font-family: BACS"">UrOQGrbk</p>",,,,,,,,,,
html-keyboard-response,354,656105,0.0-16.0-0.22,5ea9611edec14d052ada0bae,650c16f0f2faf8d7a0d14c09,651c1e97cef5dc96a09501bf,null,null,"<p style=""font-size: 60px; font-family: BACS"">UrOQGrbk</p>",,,,,,,,,,
html-keyboard-response,355,657107,0.0-16.0-0.23,5ea9611edec14d052ada0bae,650c16f0f2faf8d7a0d14c09,651c1e97cef5dc96a09501bf,null,null,"<p style=""font-size: 60px; font-family: BACS"">UrOQGrbk</p>",,,,,,,,,,
html-keyboard-response,356,658110,0.0-16.0-0.24,5ea9611edec14d052ada0bae,650c16f0f2faf8d7a0d14c09,651c1e97cef5dc96a09501bf,null,null,"<p style=""font-size: 60px; font-family: BACS"">UrOQGrbk</p>",,,,,,,,,,
html-keyboard-response,357,659111,0.0-16.0-0.25,5ea9611edec14d052ada0bae,650c16f0f2faf8d7a0d14c09,651c1e97cef5dc96a09501bf,null,null,"<p style=""font-size: 60px; font-family: BACS"">UrOQGrbk</p>",,,,,,,,,,
html-keyboard-response,358,660121,0.0-16.0-0.26,5ea9611edec14d052ada0bae,650c16f0f2faf8d7a0d14c09,651c1e97cef5dc96a09501bf,null,null,"<p style=""font-size: 60px; font-family: BACS"">UrOQGrbk</p>",,,,,,,,,,
html-keyboard-response,359,661130,0.0-16.0-0.27,5ea9611edec14d052ada0bae,650c16f0f2faf8d7a0d14c09,651c1e97cef5dc96a09501bf,null,null,"<p style=""font-size: 60px; font-family: BACS"">UrOQGrbk</p>",,,,,,,,,,
html-keyboard-response,360,662138,0.0-16.0-0.28,5ea9611edec14d052ada0bae,650c16f0f2faf8d7a0d14c09,651c1e97cef5dc96a09501bf,null,null,"<p style=""font-size: 60px; font-family: BACS"">UrOQGrbk</p>",,,,,,,,,,
html-keyboard-response,361,663149,0.0-16.0-0.29,5ea9611edec14d052ada0bae,650c16f0f2faf8d7a0d14c09,651c1e97cef5dc96a09501bf,null,null,"<p style=""font-size: 60px; font-family: BACS"">UrOQGrbk</p>",,,,,,,,,,
html-keyboard-response,362,664158,0.0-16.0-0.30,5ea9611edec14d052ada0bae,650c16f0f2faf8d7a0d14c09,651c1e97cef5dc96a09501bf,null,null,"<p style=""font-size: 60px; font-family: BACS"">UrOQGrbk</p>",,,,,,,,,,
html-keyboard-response,363,665168,0.0-16.0-0.31,5ea9611edec14d052ada0bae,650c16f0f2faf8d7a0d14c09,651c1e97cef5dc96a09501bf,null,null,"<p style=""font-size: 60px; font-family: BACS"">UrOQGrbk</p>",,,,,,,,,,
html-keyboard-response,364,666176,0.0-16.0-0.32,5ea9611edec14d052ada0bae,650c16f0f2faf8d7a0d14c09,651c1e97cef5dc96a09501bf,null,null,"<p style=""font-size: 60px; font-family: BACS"">UrOQGrbk</p>",,,,,,,,,,
html-keyboard-response,365,667186,0.0-16.0-0.33,5ea9611edec14d052ada0bae,650c16f0f2faf8d7a0d14c09,651c1e97cef5dc96a09501bf,null,null,"<p style=""font-size: 60px; font-family: BACS"">UrOQGrbk</p>",,,,,,,,,,
html-keyboard-response,366,668196,0.0-16.0-0.34,5ea9611edec14d052ada0bae,650c16f0f2faf8d7a0d14c09,651c1e97cef5dc96a09501bf,null,null,"<p style=""font-size: 60px; font-family: BACS"">UrOQGrbk</p>",,,,,,,,,,
html-keyboard-response,367,669210,0.0-16.0-0.35,5ea9611edec14d052ada0bae,650c16f0f2faf8d7a0d14c09,651c1e97cef5dc96a09501bf,null,null,"<p style=""font-size: 60px; font-family: BACS"">UrOQGrbk</p>",,,,,,,,,,
html-keyboard-response,368,670226,0.0-16.0-0.36,5ea9611edec14d052ada0bae,650c16f0f2faf8d7a0d14c09,651c1e97cef5dc96a09501bf,null,null,"<p style=""font-size: 60px; font-family: BACS"">UrOQGrbk</p>",,,,,,,,,,
html-keyboard-response,369,671241,0.0-16.0-0.37,5ea9611edec14d052ada0bae,650c16f0f2faf8d7a0d14c09,651c1e97cef5dc96a09501bf,null,null,"<p style=""font-size: 60px; font-family: BACS"">UrOQGrbk</p>",,,,,,,,,,
html-keyboard-response,370,672242,0.0-16.0-0.38,5ea9611edec14d052ada0bae,650c16f0f2faf8d7a0d14c09,651c1e97cef5dc96a09501bf,null,null,"<p style=""font-size: 60px; font-family: BACS"">UrOQGrbk</p>",,,,,,,,,,
html-keyboard-response,371,673247,0.0-16.0-0.39,5ea9611edec14d052ada0bae,650c16f0f2faf8d7a0d14c09,651c1e97cef5dc96a09501bf,null,null,"<p style=""font-size: 60px; font-family: BACS"">UrOQGrbk</p>",,,,,,,,,,
html-keyboard-response,372,674258,0.0-16.0-0.40,5ea9611edec14d052ada0bae,650c16f0f2faf8d7a0d14c09,651c1e97cef5dc96a09501bf,null,null,"<p style=""font-size: 60px; font-family: BACS"">UrOQGrbk</p>",,,,,,,,,,
html-keyboard-response,373,675258,0.0-16.0-0.41,5ea9611edec14d052ada0bae,650c16f0f2faf8d7a0d14c09,651c1e97cef5dc96a09501bf,null,null,"<p style=""font-size: 60px; font-family: BACS"">UrOQGrbk</p>",,,,,,,,,,
html-keyboard-response,374,676261,0.0-16.0-0.42,5ea9611edec14d052ada0bae,650c16f0f2faf8d7a0d14c09,651c1e97cef5dc96a09501bf,null,null,"<p style=""font-size: 60px; font-family: BACS"">UrOQGrbk</p>",,,,,,,,,,
html-keyboard-response,375,677272,0.0-16.0-0.43,5ea9611edec14d052ada0bae,650c16f0f2faf8d7a0d14c09,651c1e97cef5dc96a09501bf,null,null,"<p style=""font-size: 60px; font-family: BACS"">UrOQGrbk</p>",,,,,,,,,,
html-keyboard-response,376,678285,0.0-16.0-0.44,5ea9611edec14d052ada0bae,650c16f0f2faf8d7a0d14c09,651c1e97cef5dc96a09501bf,null,null,"<p style=""font-size: 60px; font-family: BACS"">UrOQGrbk</p>",,,,,,,,,,
html-keyboard-response,377,679288,0.0-16.0-0.45,5ea9611edec14d052ada0bae,650c16f0f2faf8d7a0d14c09,651c1e97cef5dc96a09501bf,null,null,"<p style=""font-size: 60px; font-family: BACS"">UrOQGrbk</p>",,,,,,,,,,
html-keyboard-response,378,680290,0.0-16.0-0.46,5ea9611edec14d052ada0bae,650c16f0f2faf8d7a0d14c09,651c1e97cef5dc96a09501bf,null,null,"<p style=""font-size: 60px; font-family: BACS"">UrOQGrbk</p>",,,,,,,,,,
html-keyboard-response,379,681291,0.0-16.0-0.47,5ea9611edec14d052ada0bae,650c16f0f2faf8d7a0d14c09,651c1e97cef5dc96a09501bf,null,null,"<p style=""font-size: 60px; font-family: BACS"">UrOQGrbk</p>",,,,,,,,,,
html-keyboard-response,380,682301,0.0-16.0-0.48,5ea9611edec14d052ada0bae,650c16f0f2faf8d7a0d14c09,651c1e97cef5dc96a09501bf,null,null,"<p style=""font-size: 60px; font-family: BACS"">UrOQGrbk</p>",,,,,,,,,,
html-keyboard-response,381,683310,0.0-16.0-0.49,5ea9611edec14d052ada0bae,650c16f0f2faf8d7a0d14c09,651c1e97cef5dc96a09501bf,null,null,"<p style=""font-size: 60px; font-family: BACS"">UrOQGrbk</p>",,,,,,,,,,
html-keyboard-response,382,684311,0.0-16.0-0.50,5ea9611edec14d052ada0bae,650c16f0f2faf8d7a0d14c09,651c1e97cef5dc96a09501bf,null,null,"<p style=""font-size: 60px; font-family: BACS"">UrOQGrbk</p>",,,,,,,,,,
html-keyboard-response,383,685315,0.0-16.0-0.51,5ea9611edec14d052ada0bae,650c16f0f2faf8d7a0d14c09,651c1e97cef5dc96a09501bf,null,null,"<p style=""font-size: 60px; font-family: BACS"">UrOQGrbk</p>",,,,,,,,,,
html-keyboard-response,384,686323,0.0-16.0-0.52,5ea9611edec14d052ada0bae,650c16f0f2faf8d7a0d14c09,651c1e97cef5dc96a09501bf,null,null,"<p style=""font-size: 60px; font-family: BACS"">UrOQGrbk</p>",,,,,,,,,,
html-keyboard-response,385,687336,0.0-16.0-0.53,5ea9611edec14d052ada0bae,650c16f0f2faf8d7a0d14c09,651c1e97cef5dc96a09501bf,null,null,"<p style=""font-size: 60px; font-family: BACS"">UrOQGrbk</p>",,,,,,,,,,
html-keyboard-response,386,688344,0.0-16.0-0.54,5ea9611edec14d052ada0bae,650c16f0f2faf8d7a0d14c09,651c1e97cef5dc96a09501bf,null,null,"<p style=""font-size: 60px; font-family: BACS"">UrOQGrbk</p>",,,,,,,,,,
html-keyboard-response,387,689356,0.0-16.0-0.55,5ea9611edec14d052ada0bae,650c16f0f2faf8d7a0d14c09,651c1e97cef5dc96a09501bf,null,null,"<p style=""font-size: 60px; font-family: BACS"">UrOQGrbk</p>",,,,,,,,,,
html-keyboard-response,388,690363,0.0-16.0-0.56,5ea9611edec14d052ada0bae,650c16f0f2faf8d7a0d14c09,651c1e97cef5dc96a09501bf,null,null,"<p style=""font-size: 60px; font-family: BACS"">UrOQGrbk</p>",,,,,,,,,,
html-keyboard-response,389,691377,0.0-16.0-0.57,5ea9611edec14d052ada0bae,650c16f0f2faf8d7a0d14c09,651c1e97cef5dc96a09501bf,null,null,"<p style=""font-size: 60px; font-family: BACS"">UrOQGrbk</p>",,,,,,,,,,
html-keyboard-response,390,692388,0.0-16.0-0.58,5ea9611edec14d052ada0bae,650c16f0f2faf8d7a0d14c09,651c1e97cef5dc96a09501bf,null,null,"<p style=""font-size: 60px; font-family: BACS"">UrOQGrbk</p>",,,,,,,,,,
html-keyboard-response,391,693393,0.0-16.0-0.59,5ea9611edec14d052ada0bae,650c16f0f2faf8d7a0d14c09,651c1e97cef5dc96a09501bf,null,null,"<p style=""font-size: 60px; font-family: BACS"">UrOQGrbk</p>",,,,,,,,,,
html-keyboard-response,392,694404,0.0-16.0-0.60,5ea9611edec14d052ada0bae,650c16f0f2faf8d7a0d14c09,651c1e97cef5dc96a09501bf,null,null,"<p style=""font-size: 60px; font-family: BACS"">UrOQGrbk</p>",,,,,,,,,,
html-keyboard-response,393,695414,0.0-16.0-0.61,5ea9611edec14d052ada0bae,650c16f0f2faf8d7a0d14c09,651c1e97cef5dc96a09501bf,null,null,"<p style=""font-size: 60px; font-family: BACS"">UrOQGrbk</p>",,,,,,,,,,
html-keyboard-response,394,696418,0.0-16.0-0.62,5ea9611edec14d052ada0bae,650c16f0f2faf8d7a0d14c09,651c1e97cef5dc96a09501bf,null,null,"<p style=""font-size: 60px; font-family: BACS"">UrOQGrbk</p>",,,,,,,,,,
html-keyboard-response,395,697421,0.0-16.0-0.63,5ea9611edec14d052ada0bae,650c16f0f2faf8d7a0d14c09,651c1e97cef5dc96a09501bf,null,null,"<p style=""font-size: 60px; font-family: BACS"">UrOQGrbk</p>",,,,,,,,,,
html-keyboard-response,396,698429,0.0-16.0-0.64,5ea9611edec14d052ada0bae,650c16f0f2faf8d7a0d14c09,651c1e97cef5dc96a09501bf,null,null,"<p style=""font-size: 60px; font-family: BACS"">UrOQGrbk</p>",,,,,,,,,,
html-keyboard-response,397,699437,0.0-16.0-0.65,5ea9611edec14d052ada0bae,650c16f0f2faf8d7a0d14c09,651c1e97cef5dc96a09501bf,null,null,"<p style=""font-size: 60px; font-family: BACS"">UrOQGrbk</p>",,,,,,,,,,
html-keyboard-response,398,700446,0.0-16.0-0.66,5ea9611edec14d052ada0bae,650c16f0f2faf8d7a0d14c09,651c1e97cef5dc96a09501bf,null,null,"<p style=""font-size: 60px; font-family: BACS"">UrOQGrbk</p>",,,,,,,,,,
html-keyboard-response,399,701447,0.0-16.0-0.67,5ea9611edec14d052ada0bae,650c16f0f2faf8d7a0d14c09,651c1e97cef5dc96a09501bf,null,null,"<p style=""font-size: 60px; font-family: BACS"">UrOQGrbk</p>",,,,,,,,,,
html-keyboard-response,400,702451,0.0-16.0-0.68,5ea9611edec14d052ada0bae,650c16f0f2faf8d7a0d14c09,651c1e97cef5dc96a09501bf,null,null,"<p style=""font-size: 60px; font-family: BACS"">UrOQGrbk</p>",,,,,,,,,,
html-keyboard-response,401,703467,0.0-16.0-0.69,5ea9611edec14d052ada0bae,650c16f0f2faf8d7a0d14c09,651c1e97cef5dc96a09501bf,null,null,"<p style=""font-size: 60px; font-family: BACS"">UrOQGrbk</p>",,,,,,,,,,
html-keyboard-response,402,704468,0.0-16.0-0.70,5ea9611edec14d052ada0bae,650c16f0f2faf8d7a0d14c09,651c1e97cef5dc96a09501bf,null,null,"<p style=""font-size: 60px; font-family: BACS"">UrOQGrbk</p>",,,,,,,,,,
html-keyboard-response,403,705469,0.0-16.0-0.71,5ea9611edec14d052ada0bae,650c16f0f2faf8d7a0d14c09,651c1e97cef5dc96a09501bf,null,null,"<p style=""font-size: 60px; font-family: BACS"">UrOQGrbk</p>",,,,,,,,,,
html-keyboard-response,404,706478,0.0-16.0-0.72,5ea9611edec14d052ada0bae,650c16f0f2faf8d7a0d14c09,651c1e97cef5dc96a09501bf,null,null,"<p style=""font-size: 60px; font-family: BACS"">UrOQGrbk</p>",,,,,,,,,,
html-keyboard-response,405,707490,0.0-16.0-0.73,5ea9611edec14d052ada0bae,650c16f0f2faf8d7a0d14c09,651c1e97cef5dc96a09501bf,null,null,"<p style=""font-size: 60px; font-family: BACS"">UrOQGrbk</p>",,,,,,,,,,
html-keyboard-response,406,708500,0.0-16.0-0.74,5ea9611edec14d052ada0bae,650c16f0f2faf8d7a0d14c09,651c1e97cef5dc96a09501bf,null,null,"<p style=""font-size: 60px; font-family: BACS"">UrOQGrbk</p>",,,,,,,,,,
html-keyboard-response,407,709510,0.0-16.0-0.75,5ea9611edec14d052ada0bae,650c16f0f2faf8d7a0d14c09,651c1e97cef5dc96a09501bf,null,null,"<p style=""font-size: 60px; font-family: BACS"">UrOQGrbk</p>",,,,,,,,,,
html-keyboard-response,408,710525,0.0-16.0-0.76,5ea9611edec14d052ada0bae,650c16f0f2faf8d7a0d14c09,651c1e97cef5dc96a09501bf,null,null,"<p style=""font-size: 60px; font-family: BACS"">UrOQGrbk</p>",,,,,,,,,,
html-keyboard-response,409,711526,0.0-16.0-0.77,5ea9611edec14d052ada0bae,650c16f0f2faf8d7a0d14c09,651c1e97cef5dc96a09501bf,null,null,"<p style=""font-size: 60px; font-family: BACS"">UrOQGrbk</p>",,,,,,,,,,
html-keyboard-response,410,712531,0.0-16.0-0.78,5ea9611edec14d052ada0bae,650c16f0f2faf8d7a0d14c09,651c1e97cef5dc96a09501bf,null,null,"<p style=""font-size: 60px; font-family: BACS"">UrOQGrbk</p>",,,,,,,,,,
html-keyboard-response,411,713538,0.0-16.0-0.79,5ea9611edec14d052ada0bae,650c16f0f2faf8d7a0d14c09,651c1e97cef5dc96a09501bf,null,null,"<p style=""font-size: 60px; font-family: BACS"">UrOQGrbk</p>",,,,,,,,,,
html-keyboard-response,412,718893,0.0-17.0,5ea9611edec14d052ada0bae,650c16f0f2faf8d7a0d14c09,651c1e97cef5dc96a09501bf,5354, ,"<p>Great, you've seen the fifth block of words. You may now take a short break.</p>
      <p>Press the spacebar when you're ready to continue.</p>",,,,,,,,,,
html-keyboard-response,413,719896,0.0-18.0-0.0,5ea9611edec14d052ada0bae,650c16f0f2faf8d7a0d14c09,651c1e97cef5dc96a09501bf,null,null,"<p style=""font-size: 60px; font-family: BACS"">ODBDABbM</p>",,,,,,,,,,
html-keyboard-response,414,720909,0.0-18.0-0.1,5ea9611edec14d052ada0bae,650c16f0f2faf8d7a0d14c09,651c1e97cef5dc96a09501bf,null,null,"<p style=""font-size: 60px; font-family: BACS"">lRckAPMd</p>",,,,,,,,,,
html-keyboard-response,415,721920,0.0-18.0-0.2,5ea9611edec14d052ada0bae,650c16f0f2faf8d7a0d14c09,651c1e97cef5dc96a09501bf,null,null,"<p style=""font-size: 60px; font-family: BACS"">dGLAlLkNc</p>",,,,,,,,,,
html-keyboard-response,416,722930,0.0-18.0-0.3,5ea9611edec14d052ada0bae,650c16f0f2faf8d7a0d14c09,651c1e97cef5dc96a09501bf,null,null,"<p style=""font-size: 60px; font-family: BACS"">kdEdYmCd</p>",,,,,,,,,,
html-keyboard-response,417,723942,0.0-18.0-0.4,5ea9611edec14d052ada0bae,650c16f0f2faf8d7a0d14c09,651c1e97cef5dc96a09501bf,null,null,"<p style=""font-size: 60px; font-family: BACS"">AMkCPMd</p>",,,,,,,,,,
html-keyboard-response,418,724955,0.0-18.0-0.5,5ea9611edec14d052ada0bae,650c16f0f2faf8d7a0d14c09,651c1e97cef5dc96a09501bf,null,null,"<p style=""font-size: 60px; font-family: BACS"">UrOQLkNc</p>",,,,,,,,,,
html-keyboard-response,419,725961,0.0-18.0-0.6,5ea9611edec14d052ada0bae,650c16f0f2faf8d7a0d14c09,651c1e97cef5dc96a09501bf,null,null,"<p style=""font-size: 60px; font-family: BACS"">dGLAluUY</p>",,,,,,,,,,
html-keyboard-response,420,726975,0.0-18.0-0.7,5ea9611edec14d052ada0bae,650c16f0f2faf8d7a0d14c09,651c1e97cef5dc96a09501bf,null,null,"<p style=""font-size: 60px; font-family: BACS"">UrOQLUOk</p>",,,,,,,,,,
html-keyboard-response,421,727985,0.0-18.0-0.8,5ea9611edec14d052ada0bae,650c16f0f2faf8d7a0d14c09,651c1e97cef5dc96a09501bf,null,null,"<p style=""font-size: 60px; font-family: BACS"">RkmdCTPOM</p>",,,,,,,,,,
html-keyboard-response,422,728994,0.0-18.0-0.9,5ea9611edec14d052ada0bae,650c16f0f2faf8d7a0d14c09,651c1e97cef5dc96a09501bf,null,null,"<p style=""font-size: 60px; font-family: BACS"">NJZlLUOk</p>",,,,,,,,,,
html-keyboard-response,423,729995,0.0-18.0-0.10,5ea9611edec14d052ada0bae,650c16f0f2faf8d7a0d14c09,651c1e97cef5dc96a09501bf,null,null,"<p style=""font-size: 60px; font-family: BACS"">KMDYtPMd</p>",,,,,,,,,,
html-keyboard-response,424,731006,0.0-18.0-0.11,5ea9611edec14d052ada0bae,650c16f0f2faf8d7a0d14c09,651c1e97cef5dc96a09501bf,null,null,"<p style=""font-size: 60px; font-family: BACS"">mBYlTPOM</p>",,,,,,,,,,
html-keyboard-response,425,732008,0.0-18.0-0.12,5ea9611edec14d052ada0bae,650c16f0f2faf8d7a0d14c09,651c1e97cef5dc96a09501bf,null,null,"<p style=""font-size: 60px; font-family: BACS"">OdlNmLUOk</p>",,,,,,,,,,
html-keyboard-response,426,733009,0.0-18.0-0.13,5ea9611edec14d052ada0bae,650c16f0f2faf8d7a0d14c09,651c1e97cef5dc96a09501bf,null,null,"<p style=""font-size: 60px; font-family: BACS"">mBYlcMRl</p>",,,,,,,,,,
html-keyboard-response,427,734023,0.0-18.0-0.14,5ea9611edec14d052ada0bae,650c16f0f2faf8d7a0d14c09,651c1e97cef5dc96a09501bf,null,null,"<p style=""font-size: 60px; font-family: BACS"">UrOQGrbk</p>",,,,,,,,,,
html-keyboard-response,428,735023,0.0-18.0-0.15,5ea9611edec14d052ada0bae,650c16f0f2faf8d7a0d14c09,651c1e97cef5dc96a09501bf,null,null,"<p style=""font-size: 60px; font-family: BACS"">QcQAJuUY</p>",,,,,,,,,,
html-keyboard-response,429,736033,0.0-18.0-0.16,5ea9611edec14d052ada0bae,650c16f0f2faf8d7a0d14c09,651c1e97cef5dc96a09501bf,null,null,"<p style=""font-size: 60px; font-family: BACS"">lRckAcMRl</p>",,,,,,,,,,
html-keyboard-response,430,737035,0.0-18.0-0.17,5ea9611edec14d052ada0bae,650c16f0f2faf8d7a0d14c09,651c1e97cef5dc96a09501bf,null,null,"<p style=""font-size: 60px; font-family: BACS"">PMPtkBbM</p>",,,,,,,,,,
html-keyboard-response,431,738040,0.0-18.0-0.18,5ea9611edec14d052ada0bae,650c16f0f2faf8d7a0d14c09,651c1e97cef5dc96a09501bf,null,null,"<p style=""font-size: 60px; font-family: BACS"">AMkCTPOM</p>",,,,,,,,,,
html-keyboard-response,432,739050,0.0-18.0-0.19,5ea9611edec14d052ada0bae,650c16f0f2faf8d7a0d14c09,651c1e97cef5dc96a09501bf,null,null,"<p style=""font-size: 60px; font-family: BACS"">kPkRAmCd</p>",,,,,,,,,,
html-keyboard-response,433,740060,0.0-18.0-0.20,5ea9611edec14d052ada0bae,650c16f0f2faf8d7a0d14c09,651c1e97cef5dc96a09501bf,null,null,"<p style=""font-size: 60px; font-family: BACS"">YOaAbOcN</p>",,,,,,,,,,
html-keyboard-response,434,741062,0.0-18.0-0.21,5ea9611edec14d052ada0bae,650c16f0f2faf8d7a0d14c09,651c1e97cef5dc96a09501bf,null,null,"<p style=""font-size: 60px; font-family: BACS"">GabkGrbk</p>",,,,,,,,,,
html-keyboard-response,435,742063,0.0-18.0-0.22,5ea9611edec14d052ada0bae,650c16f0f2faf8d7a0d14c09,651c1e97cef5dc96a09501bf,null,null,"<p style=""font-size: 60px; font-family: BACS"">kdEdYTPOM</p>",,,,,,,,,,
html-keyboard-response,436,743072,0.0-18.0-0.23,5ea9611edec14d052ada0bae,650c16f0f2faf8d7a0d14c09,651c1e97cef5dc96a09501bf,null,null,"<p style=""font-size: 60px; font-family: BACS"">muYNLUOk</p>",,,,,,,,,,
html-keyboard-response,437,744085,0.0-18.0-0.24,5ea9611edec14d052ada0bae,650c16f0f2faf8d7a0d14c09,651c1e97cef5dc96a09501bf,null,null,"<p style=""font-size: 60px; font-family: BACS"">ZcGdNuUY</p>",,,,,,,,,,
html-keyboard-response,438,745090,0.0-18.0-0.25,5ea9611edec14d052ada0bae,650c16f0f2faf8d7a0d14c09,651c1e97cef5dc96a09501bf,null,null,"<p style=""font-size: 60px; font-family: BACS"">KMDYtBbM</p>",,,,,,,,,,
html-keyboard-response,439,746105,0.0-18.0-0.26,5ea9611edec14d052ada0bae,650c16f0f2faf8d7a0d14c09,651c1e97cef5dc96a09501bf,null,null,"<p style=""font-size: 60px; font-family: BACS"">ODBDATPOM</p>",,,,,,,,,,
html-keyboard-response,440,747116,0.0-18.0-0.27,5ea9611edec14d052ada0bae,650c16f0f2faf8d7a0d14c09,651c1e97cef5dc96a09501bf,null,null,"<p style=""font-size: 60px; font-family: BACS"">RkmdCcMRl</p>",,,,,,,,,,
html-keyboard-response,441,748125,0.0-18.0-0.28,5ea9611edec14d052ada0bae,650c16f0f2faf8d7a0d14c09,651c1e97cef5dc96a09501bf,null,null,"<p style=""font-size: 60px; font-family: BACS"">mBYlBbM</p>",,,,,,,,,,
html-keyboard-response,442,749126,0.0-18.0-0.29,5ea9611edec14d052ada0bae,650c16f0f2faf8d7a0d14c09,651c1e97cef5dc96a09501bf,null,null,"<p style=""font-size: 60px; font-family: BACS"">kPkRATPOM</p>",,,,,,,,,,
html-keyboard-response,443,750128,0.0-18.0-0.30,5ea9611edec14d052ada0bae,650c16f0f2faf8d7a0d14c09,651c1e97cef5dc96a09501bf,null,null,"<p style=""font-size: 60px; font-family: BACS"">KMDYtmCd</p>",,,,,,,,,,
html-keyboard-response,444,751141,0.0-18.0-0.31,5ea9611edec14d052ada0bae,650c16f0f2faf8d7a0d14c09,651c1e97cef5dc96a09501bf,null,null,"<p style=""font-size: 60px; font-family: BACS"">BECkPMd</p>",,,,,,,,,,
html-keyboard-response,445,752148,0.0-18.0-0.32,5ea9611edec14d052ada0bae,650c16f0f2faf8d7a0d14c09,651c1e97cef5dc96a09501bf,null,null,"<p style=""font-size: 60px; font-family: BACS"">ZcGdNLUOk</p>",,,,,,,,,,
html-keyboard-response,446,753148,0.0-18.0-0.33,5ea9611edec14d052ada0bae,650c16f0f2faf8d7a0d14c09,651c1e97cef5dc96a09501bf,null,null,"<p style=""font-size: 60px; font-family: BACS"">QcQAJLkNc</p>",,,,,,,,,,
html-keyboard-response,447,754150,0.0-18.0-0.34,5ea9611edec14d052ada0bae,650c16f0f2faf8d7a0d14c09,651c1e97cef5dc96a09501bf,null,null,"<p style=""font-size: 60px; font-family: BACS"">PMPtkmCd</p>",,,,,,,,,,
html-keyboard-response,448,755162,0.0-18.0-0.35,5ea9611edec14d052ada0bae,650c16f0f2faf8d7a0d14c09,651c1e97cef5dc96a09501bf,null,null,"<p style=""font-size: 60px; font-family: BACS"">ZcGdNLkNc</p>",,,,,,,,,,
html-keyboard-response,449,756169,0.0-18.0-0.36,5ea9611edec14d052ada0bae,650c16f0f2faf8d7a0d14c09,651c1e97cef5dc96a09501bf,null,null,"<p style=""font-size: 60px; font-family: BACS"">dGLAlGrbk</p>",,,,,,,,,,
html-keyboard-response,450,757182,0.0-18.0-0.37,5ea9611edec14d052ada0bae,650c16f0f2faf8d7a0d14c09,651c1e97cef5dc96a09501bf,null,null,"<p style=""font-size: 60px; font-family: BACS"">muYNOcN</p>",,,,,,,,,,
html-keyboard-response,451,758184,0.0-18.0-0.38,5ea9611edec14d052ada0bae,650c16f0f2faf8d7a0d14c09,651c1e97cef5dc96a09501bf,null,null,"<p style=""font-size: 60px; font-family: BACS"">kPkRAPMd</p>",,,,,,,,,,
html-keyboard-response,452,759187,0.0-18.0-0.39,5ea9611edec14d052ada0bae,650c16f0f2faf8d7a0d14c09,651c1e97cef5dc96a09501bf,null,null,"<p style=""font-size: 60px; font-family: BACS"">GabkOcN</p>",,,,,,,,,,
html-keyboard-response,453,760199,0.0-18.0-0.40,5ea9611edec14d052ada0bae,650c16f0f2faf8d7a0d14c09,651c1e97cef5dc96a09501bf,null,null,"<p style=""font-size: 60px; font-family: BACS"">KMDYtcMRl</p>",,,,,,,,,,
html-keyboard-response,454,761206,0.0-18.0-0.41,5ea9611edec14d052ada0bae,650c16f0f2faf8d7a0d14c09,651c1e97cef5dc96a09501bf,null,null,"<p style=""font-size: 60px; font-family: BACS"">kdEdYBbM</p>",,,,,,,,,,
html-keyboard-response,455,762213,0.0-18.0-0.42,5ea9611edec14d052ada0bae,650c16f0f2faf8d7a0d14c09,651c1e97cef5dc96a09501bf,null,null,"<p style=""font-size: 60px; font-family: BACS"">ZcGdNOcN</p>",,,,,,,,,,
html-keyboard-response,456,763227,0.0-18.0-0.43,5ea9611edec14d052ada0bae,650c16f0f2faf8d7a0d14c09,651c1e97cef5dc96a09501bf,null,null,"<p style=""font-size: 60px; font-family: BACS"">GabkLUOk</p>",,,,,,,,,,
html-keyboard-response,457,764237,0.0-18.0-0.44,5ea9611edec14d052ada0bae,650c16f0f2faf8d7a0d14c09,651c1e97cef5dc96a09501bf,null,null,"<p style=""font-size: 60px; font-family: BACS"">BECkTPOM</p>",,,,,,,,,,
html-keyboard-response,458,765243,0.0-18.0-0.45,5ea9611edec14d052ada0bae,650c16f0f2faf8d7a0d14c09,651c1e97cef5dc96a09501bf,null,null,"<p style=""font-size: 60px; font-family: BACS"">dGLAlOcN</p>",,,,,,,,,,
html-keyboard-response,459,766245,0.0-18.0-0.46,5ea9611edec14d052ada0bae,650c16f0f2faf8d7a0d14c09,651c1e97cef5dc96a09501bf,null,null,"<p style=""font-size: 60px; font-family: BACS"">ODBDAPMd</p>",,,,,,,,,,
html-keyboard-response,460,767252,0.0-18.0-0.47,5ea9611edec14d052ada0bae,650c16f0f2faf8d7a0d14c09,651c1e97cef5dc96a09501bf,null,null,"<p style=""font-size: 60px; font-family: BACS"">lRckAmCd</p>",,,,,,,,,,
html-keyboard-response,461,768253,0.0-18.0-0.48,5ea9611edec14d052ada0bae,650c16f0f2faf8d7a0d14c09,651c1e97cef5dc96a09501bf,null,null,"<p style=""font-size: 60px; font-family: BACS"">YuaNdLkNc</p>",,,,,,,,,,
html-keyboard-response,462,769255,0.0-18.0-0.49,5ea9611edec14d052ada0bae,650c16f0f2faf8d7a0d14c09,651c1e97cef5dc96a09501bf,null,null,"<p style=""font-size: 60px; font-family: BACS"">BECkcMRl</p>",,,,,,,,,,
html-keyboard-response,463,770260,0.0-18.0-0.50,5ea9611edec14d052ada0bae,650c16f0f2faf8d7a0d14c09,651c1e97cef5dc96a09501bf,null,null,"<p style=""font-size: 60px; font-family: BACS"">muYNGrbk</p>",,,,,,,,,,
html-keyboard-response,464,771261,0.0-18.0-0.51,5ea9611edec14d052ada0bae,650c16f0f2faf8d7a0d14c09,651c1e97cef5dc96a09501bf,null,null,"<p style=""font-size: 60px; font-family: BACS"">BECkBbM</p>",,,,,,,,,,
html-keyboard-response,465,772267,0.0-18.0-0.52,5ea9611edec14d052ada0bae,650c16f0f2faf8d7a0d14c09,651c1e97cef5dc96a09501bf,null,null,"<p style=""font-size: 60px; font-family: BACS"">AMkCmCd</p>",,,,,,,,,,
