"trial_type","trial_index","time_elapsed","internal_node_id","subject_id","study_id","session_id","rt","response","stimulus","success","item","task","correct_response","testing_condition","correct","target","confound","name"
"pavlovia","0","766","0.0-0.0","5ec6d06c67b0da0fb6f85e83","650c16f0f2faf8d7a0d14c09","651c1d5c6531011b4724a5e5","","","","","","","","","","","",""
"survey-html-form","1","9486","0.0-1.0","5ec6d06c67b0da0fb6f85e83","650c16f0f2faf8d7a0d14c09","651c1d5c6531011b4724a5e5","8719","{""ID"":""5ec6d06c67b0da0fb6f85e83""}","","","","","","","","","",""
"html-keyboard-response","2","12307","0.0-2.0","5ec6d06c67b0da0fb6f85e83","650c16f0f2faf8d7a0d14c09","651c1d5c6531011b4724a5e5","2820"," ","<p style=""font-size: 15px;"">Before beginning, we ask that you read the consent information and confirm your agreement to participate in the experiment.</p>
      <p style=""font-size: 15px;""> We ask that you remember that this is a research project and that your participation is entirely voluntary. You can stop your participation at any time, without needing to provide any explanation. The study we're asking you to participate in aims at examining how readers process written words. You will be engaged in a session of apprximately 20 minutes, followed by a brief questionnaire. You will have the opportunity to take a few breaks during the experiment. You will be paid £4 for your participation, corresponding to a rate of £8/hour. While this experiment looks at cognitive faculties, this experiment doesn't constitute clinical proof of eventual pathologies.</p>
      <p style=""font-size: 15px;"">All of the information collected thanks to yours and others' participation will be held in a secure password-protected server, and will not be shared with anyone not authorised to view it. Your personal information will be kept with an arbitrary participant ID. Thanks to this data anonymity process, any researcher analysing the data won't be able to track the information back to a specific participant. Therefore, this process will make identifying you impossibile, even when results from the study will be published in scientific reviews, presented at congresses, or at any other public forum. More generally, the collected data will be treated in accordance with the laws on privacy and conformity to the Legislative Degree n. 196 ""Code regarding the protection of personal data"" of the 30th of June 2003 and to the European Regulation 2016/670 (General Data Protection Regulation - GDPR). The Data Protection Officer is Avv. Valentina Carollo, who can be contacted at the following email addresses: <a href=""mailto:dpo@sissa.it"">dpo@sissa.it</a> or <a href=""mailto:rpd@sissa.it"">rpd@sissa.it</a> - PEC: <a href=""mailto:protocollo@pec.sissa.it"">protocollo@pec.sissa.it</a>.</p>
      <p style=""font-size: 15px;""> Before expressing your consent to participate, we would like to remind you again that in case you need explanations on any aspect of the experimental procedure, the researcher is at your disposition (<a href=""mailto:aliebelt@sissa.it"">aliebelt@sissa.it</a>, <a href=""mailto:davide.crepaldi@sissa.it"">davide.crepaldi@sissa.it</a>).</p>
      <p style=""font-size: 15px;"">If you would like to download the informed consent form, you can do so here: <a href=""BASL-Informed_Consent.pdf"" download>informed consent form</a>.</p>
      <p style=""font-size: 15px;"">We ask that you press the spacebar to proceed to the consent section.</p>","","","","","","","","",""
"survey-html-form","3","17277","0.0-3.0","5ec6d06c67b0da0fb6f85e83","650c16f0f2faf8d7a0d14c09","651c1d5c6531011b4724a5e5","4970","{""consent1"":""YES"",""consent2"":""YES"",""consent3"":""YES"",""consent4"":""YES"",""consent5"":""YES"",""consent6"":""YES""}","","","","","","","","","",""
"fullscreen","4","20783","0.0-4.0","5ec6d06c67b0da0fb6f85e83","650c16f0f2faf8d7a0d14c09","651c1d5c6531011b4724a5e5","","","","true","","","","","","","",""
"html-keyboard-response","5","32488","0.0-5.0","5ec6d06c67b0da0fb6f85e83","650c16f0f2faf8d7a0d14c09","651c1d5c6531011b4724a5e5","11704"," ","<p>Welcome, and thank you very much for your time!</p>
      <p>In this experiment, you'll be a language expert who's been asked to take a look at words that Earth has received in its first communication with aliens. Your task, in this first part of the experiment, is to pay close attention to the words you'll be shown; later, world leaders will ask you questions on what you saw. The words will be shown to you quite quickly; it seems that the aliens were in a hurry :-)</p>
      <p>Press the spacebar to continue.<p>","","","","","","","","",""
"html-keyboard-response","6","32539","0.0-6.0","5ec6d06c67b0da0fb6f85e83","650c16f0f2faf8d7a0d14c09","651c1d5c6531011b4724a5e5","null","null","<p style=""font-size: 120px; font-family: BACS""> </p>","","","","","","","","",""
"html-keyboard-response","7","37249","0.0-7.0","5ec6d06c67b0da0fb6f85e83","650c16f0f2faf8d7a0d14c09","651c1d5c6531011b4724a5e5","4710"," ","<p>Here is an example of the words you'll see:</p>
      <img src='esempio.png' height='400px'>
      <p>When you're ready to begin, press the spacebar.</p></div>","","","","","","","","",""
"html-keyboard-response","8","38260","0.0-8.0-0.0","5ec6d06c67b0da0fb6f85e83","650c16f0f2faf8d7a0d14c09","651c1d5c6531011b4724a5e5","null","null","<p style=""font-size: 60px; font-family: BACS"">ACcObTE</p>","","","","","","","","",""
"html-keyboard-response","9","39264","0.0-8.0-0.1","5ec6d06c67b0da0fb6f85e83","650c16f0f2faf8d7a0d14c09","651c1d5c6531011b4724a5e5","null","null","<p style=""font-size: 60px; font-family: BACS"">vYLUuda</p>","","","","","","","","",""
"html-keyboard-response","10","40275","0.0-8.0-0.2","5ec6d06c67b0da0fb6f85e83","650c16f0f2faf8d7a0d14c09","651c1d5c6531011b4724a5e5","null","null","<p style=""font-size: 60px; font-family: BACS"">lcOcrZYd</p>","","","","","","","","",""
"html-keyboard-response","11","41288","0.0-8.0-0.3","5ec6d06c67b0da0fb6f85e83","650c16f0f2faf8d7a0d14c09","651c1d5c6531011b4724a5e5","null","null","<p style=""font-size: 60px; font-family: BACS"">rvAJArv</p>","","","","","","","","",""
"html-keyboard-response","12","42301","0.0-8.0-0.4","5ec6d06c67b0da0fb6f85e83","650c16f0f2faf8d7a0d14c09","651c1d5c6531011b4724a5e5","null","null","<p style=""font-size: 60px; font-family: BACS"">ckdAmBCAd</p>","","","","","","","","",""
"html-keyboard-response","13","43316","0.0-8.0-0.5","5ec6d06c67b0da0fb6f85e83","650c16f0f2faf8d7a0d14c09","651c1d5c6531011b4724a5e5","null","null","<p style=""font-size: 60px; font-family: BACS"">bmbNrZYd</p>","","","","","","","","",""
"html-keyboard-response","14","44330","0.0-8.0-0.6","5ec6d06c67b0da0fb6f85e83","650c16f0f2faf8d7a0d14c09","651c1d5c6531011b4724a5e5","null","null","<p style=""font-size: 60px; font-family: BACS"">rvAJuda</p>","","","","","","","","",""
"html-keyboard-response","15","45336","0.0-8.0-0.7","5ec6d06c67b0da0fb6f85e83","650c16f0f2faf8d7a0d14c09","651c1d5c6531011b4724a5e5","null","null","<p style=""font-size: 60px; font-family: BACS"">mhtcbTE</p>","","","","","","","","",""
"html-keyboard-response","16","46350","0.0-8.0-0.8","5ec6d06c67b0da0fb6f85e83","650c16f0f2faf8d7a0d14c09","651c1d5c6531011b4724a5e5","null","null","<p style=""font-size: 60px; font-family: BACS"">MlthKOYC</p>","","","","","","","","",""
"html-keyboard-response","17","47363","0.0-8.0-0.9","5ec6d06c67b0da0fb6f85e83","650c16f0f2faf8d7a0d14c09","651c1d5c6531011b4724a5e5","null","null","<p style=""font-size: 60px; font-family: BACS"">BATOcYht</p>","","","","","","","","",""
"html-keyboard-response","18","48376","0.0-8.0-0.10","5ec6d06c67b0da0fb6f85e83","650c16f0f2faf8d7a0d14c09","651c1d5c6531011b4724a5e5","null","null","<p style=""font-size: 60px; font-family: BACS"">Ldrbvravu</p>","","","","","","","","",""
"html-keyboard-response","19","49388","0.0-8.0-0.11","5ec6d06c67b0da0fb6f85e83","650c16f0f2faf8d7a0d14c09","651c1d5c6531011b4724a5e5","null","null","<p style=""font-size: 60px; font-family: BACS"">vYLUuOAO</p>","","","","","","","","",""
"html-keyboard-response","20","50403","0.0-8.0-0.12","5ec6d06c67b0da0fb6f85e83","650c16f0f2faf8d7a0d14c09","651c1d5c6531011b4724a5e5","null","null","<p style=""font-size: 60px; font-family: BACS"">LdrbvArv</p>","","","","","","","","",""
"html-keyboard-response","21","51416","0.0-8.0-0.13","5ec6d06c67b0da0fb6f85e83","650c16f0f2faf8d7a0d14c09","651c1d5c6531011b4724a5e5","null","null","<p style=""font-size: 60px; font-family: BACS"">BATOclMck</p>","","","","","","","","",""
"html-keyboard-response","22","52431","0.0-8.0-0.14","5ec6d06c67b0da0fb6f85e83","650c16f0f2faf8d7a0d14c09","651c1d5c6531011b4724a5e5","null","null","<p style=""font-size: 60px; font-family: BACS"">aOLZUuda</p>","","","","","","","","",""
"html-keyboard-response","23","53446","0.0-8.0-0.15","5ec6d06c67b0da0fb6f85e83","650c16f0f2faf8d7a0d14c09","651c1d5c6531011b4724a5e5","null","null","<p style=""font-size: 60px; font-family: BACS"">vYLUrZYd</p>","","","","","","","","",""
"html-keyboard-response","24","54455","0.0-8.0-0.16","5ec6d06c67b0da0fb6f85e83","650c16f0f2faf8d7a0d14c09","651c1d5c6531011b4724a5e5","null","null","<p style=""font-size: 60px; font-family: BACS"">KDPAYht</p>","","","","","","","","",""
"html-keyboard-response","25","55471","0.0-8.0-0.17","5ec6d06c67b0da0fb6f85e83","650c16f0f2faf8d7a0d14c09","651c1d5c6531011b4724a5e5","null","null","<p style=""font-size: 60px; font-family: BACS"">lcOcArv</p>","","","","","","","","",""
"html-keyboard-response","26","56484","0.0-8.0-0.18","5ec6d06c67b0da0fb6f85e83","650c16f0f2faf8d7a0d14c09","651c1d5c6531011b4724a5e5","null","null","<p style=""font-size: 60px; font-family: BACS"">ckdAmYht</p>","","","","","","","","",""
"html-keyboard-response","27","57494","0.0-8.0-0.19","5ec6d06c67b0da0fb6f85e83","650c16f0f2faf8d7a0d14c09","651c1d5c6531011b4724a5e5","null","null","<p style=""font-size: 60px; font-family: BACS"">lcOcuda</p>","","","","","","","","",""
"html-keyboard-response","28","58510","0.0-8.0-0.20","5ec6d06c67b0da0fb6f85e83","650c16f0f2faf8d7a0d14c09","651c1d5c6531011b4724a5e5","null","null","<p style=""font-size: 60px; font-family: BACS"">UJkGravu</p>","","","","","","","","",""
"html-keyboard-response","29","59511","0.0-8.0-0.21","5ec6d06c67b0da0fb6f85e83","650c16f0f2faf8d7a0d14c09","651c1d5c6531011b4724a5e5","null","null","<p style=""font-size: 60px; font-family: BACS"">hlctEYht</p>","","","","","","","","",""
"html-keyboard-response","30","60520","0.0-8.0-0.22","5ec6d06c67b0da0fb6f85e83","650c16f0f2faf8d7a0d14c09","651c1d5c6531011b4724a5e5","null","null","<p style=""font-size: 60px; font-family: BACS"">kGlUravu</p>","","","","","","","","",""
"html-keyboard-response","31","61524","0.0-8.0-0.23","5ec6d06c67b0da0fb6f85e83","650c16f0f2faf8d7a0d14c09","651c1d5c6531011b4724a5e5","null","null","<p style=""font-size: 60px; font-family: BACS"">hlkTbTE</p>","","","","","","","","",""
"html-keyboard-response","32","62539","0.0-8.0-0.24","5ec6d06c67b0da0fb6f85e83","650c16f0f2faf8d7a0d14c09","651c1d5c6531011b4724a5e5","null","null","<p style=""font-size: 60px; font-family: BACS"">YJkbuOAO</p>","","","","","","","","",""
"html-keyboard-response","33","63551","0.0-8.0-0.25","5ec6d06c67b0da0fb6f85e83","650c16f0f2faf8d7a0d14c09","651c1d5c6531011b4724a5e5","null","null","<p style=""font-size: 60px; font-family: BACS"">hlkTKOYC</p>","","","","","","","","",""
"html-keyboard-response","34","64565","0.0-8.0-0.26","5ec6d06c67b0da0fb6f85e83","650c16f0f2faf8d7a0d14c09","651c1d5c6531011b4724a5e5","null","null","<p style=""font-size: 60px; font-family: BACS"">UJkGuOAO</p>","","","","","","","","",""
"html-keyboard-response","35","65579","0.0-8.0-0.27","5ec6d06c67b0da0fb6f85e83","650c16f0f2faf8d7a0d14c09","651c1d5c6531011b4724a5e5","null","null","<p style=""font-size: 60px; font-family: BACS"">AMkCYht</p>","","","","","","","","",""
"html-keyboard-response","36","66593","0.0-8.0-0.28","5ec6d06c67b0da0fb6f85e83","650c16f0f2faf8d7a0d14c09","651c1d5c6531011b4724a5e5","null","null","<p style=""font-size: 60px; font-family: BACS"">KDPABCAd</p>","","","","","","","","",""
"html-keyboard-response","37","67608","0.0-8.0-0.29","5ec6d06c67b0da0fb6f85e83","650c16f0f2faf8d7a0d14c09","651c1d5c6531011b4724a5e5","null","null","<p style=""font-size: 60px; font-family: BACS"">kGlUrZYd</p>","","","","","","","","",""
"html-keyboard-response","38","68621","0.0-8.0-0.30","5ec6d06c67b0da0fb6f85e83","650c16f0f2faf8d7a0d14c09","651c1d5c6531011b4724a5e5","null","null","<p style=""font-size: 60px; font-family: BACS"">hlctEbTE</p>","","","","","","","","",""
"html-keyboard-response","39","69622","0.0-8.0-0.31","5ec6d06c67b0da0fb6f85e83","650c16f0f2faf8d7a0d14c09","651c1d5c6531011b4724a5e5","null","null","<p style=""font-size: 60px; font-family: BACS"">OAblcArv</p>","","","","","","","","",""
"html-keyboard-response","40","70634","0.0-8.0-0.32","5ec6d06c67b0da0fb6f85e83","650c16f0f2faf8d7a0d14c09","651c1d5c6531011b4724a5e5","null","null","<p style=""font-size: 60px; font-family: BACS"">ckdAmbTE</p>","","","","","","","","",""
"html-keyboard-response","41","71649","0.0-8.0-0.33","5ec6d06c67b0da0fb6f85e83","650c16f0f2faf8d7a0d14c09","651c1d5c6531011b4724a5e5","null","null","<p style=""font-size: 60px; font-family: BACS"">hlctElMck</p>","","","","","","","","",""
"html-keyboard-response","42","72664","0.0-8.0-0.34","5ec6d06c67b0da0fb6f85e83","650c16f0f2faf8d7a0d14c09","651c1d5c6531011b4724a5e5","null","null","<p style=""font-size: 60px; font-family: BACS"">OAblcrZYd</p>","","","","","","","","",""
"html-keyboard-response","43","73679","0.0-8.0-0.35","5ec6d06c67b0da0fb6f85e83","650c16f0f2faf8d7a0d14c09","651c1d5c6531011b4724a5e5","null","null","<p style=""font-size: 60px; font-family: BACS"">YJkbuda</p>","","","","","","","","",""
"html-keyboard-response","44","74691","0.0-8.0-0.36","5ec6d06c67b0da0fb6f85e83","650c16f0f2faf8d7a0d14c09","651c1d5c6531011b4724a5e5","null","null","<p style=""font-size: 60px; font-family: BACS"">rvAJrZYd</p>","","","","","","","","",""
"html-keyboard-response","45","75694","0.0-8.0-0.37","5ec6d06c67b0da0fb6f85e83","650c16f0f2faf8d7a0d14c09","651c1d5c6531011b4724a5e5","null","null","<p style=""font-size: 60px; font-family: BACS"">mhtcBCAd</p>","","","","","","","","",""
"html-keyboard-response","46","76697","0.0-8.0-0.38","5ec6d06c67b0da0fb6f85e83","650c16f0f2faf8d7a0d14c09","651c1d5c6531011b4724a5e5","null","null","<p style=""font-size: 60px; font-family: BACS"">ACcOlMck</p>","","","","","","","","",""
"html-keyboard-response","47","77699","0.0-8.0-0.39","5ec6d06c67b0da0fb6f85e83","650c16f0f2faf8d7a0d14c09","651c1d5c6531011b4724a5e5","null","null","<p style=""font-size: 60px; font-family: BACS"">BATOcbTE</p>","","","","","","","","",""
"html-keyboard-response","48","78713","0.0-8.0-0.40","5ec6d06c67b0da0fb6f85e83","650c16f0f2faf8d7a0d14c09","651c1d5c6531011b4724a5e5","null","null","<p style=""font-size: 60px; font-family: BACS"">Ldrbvuda</p>","","","","","","","","",""
"html-keyboard-response","49","79724","0.0-8.0-0.41","5ec6d06c67b0da0fb6f85e83","650c16f0f2faf8d7a0d14c09","651c1d5c6531011b4724a5e5","null","null","<p style=""font-size: 60px; font-family: BACS"">YJkbArv</p>","","","","","","","","",""
"html-keyboard-response","50","80739","0.0-8.0-0.42","5ec6d06c67b0da0fb6f85e83","650c16f0f2faf8d7a0d14c09","651c1d5c6531011b4724a5e5","null","null","<p style=""font-size: 60px; font-family: BACS"">LdrbvrZYd</p>","","","","","","","","",""
"html-keyboard-response","51","81754","0.0-8.0-0.43","5ec6d06c67b0da0fb6f85e83","650c16f0f2faf8d7a0d14c09","651c1d5c6531011b4724a5e5","null","null","<p style=""font-size: 60px; font-family: BACS"">ckdAmKOYC</p>","","","","","","","","",""
"html-keyboard-response","52","82767","0.0-8.0-0.44","5ec6d06c67b0da0fb6f85e83","650c16f0f2faf8d7a0d14c09","651c1d5c6531011b4724a5e5","null","null","<p style=""font-size: 60px; font-family: BACS"">UJkGrZYd</p>","","","","","","","","",""
"html-keyboard-response","53","83767","0.0-8.0-0.45","5ec6d06c67b0da0fb6f85e83","650c16f0f2faf8d7a0d14c09","651c1d5c6531011b4724a5e5","null","null","<p style=""font-size: 60px; font-family: BACS"">ACcOBCAd</p>","","","","","","","","",""
"html-keyboard-response","54","84779","0.0-8.0-0.46","5ec6d06c67b0da0fb6f85e83","650c16f0f2faf8d7a0d14c09","651c1d5c6531011b4724a5e5","null","null","<p style=""font-size: 60px; font-family: BACS"">rvAJravu</p>","","","","","","","","",""
"html-keyboard-response","55","85781","0.0-8.0-0.47","5ec6d06c67b0da0fb6f85e83","650c16f0f2faf8d7a0d14c09","651c1d5c6531011b4724a5e5","null","null","<p style=""font-size: 60px; font-family: BACS"">lcOcuOAO</p>","","","","","","","","",""
"html-keyboard-response","56","86784","0.0-8.0-0.48","5ec6d06c67b0da0fb6f85e83","650c16f0f2faf8d7a0d14c09","651c1d5c6531011b4724a5e5","null","null","<p style=""font-size: 60px; font-family: BACS"">AMkCBCAd</p>","","","","","","","","",""
"html-keyboard-response","57","87795","0.0-8.0-0.49","5ec6d06c67b0da0fb6f85e83","650c16f0f2faf8d7a0d14c09","651c1d5c6531011b4724a5e5","null","null","<p style=""font-size: 60px; font-family: BACS"">DhMtlMck</p>","","","","","","","","",""
"html-keyboard-response","58","88807","0.0-8.0-0.50","5ec6d06c67b0da0fb6f85e83","650c16f0f2faf8d7a0d14c09","651c1d5c6531011b4724a5e5","null","null","<p style=""font-size: 60px; font-family: BACS"">aOLZUravu</p>","","","","","","","","",""
"html-keyboard-response","59","89808","0.0-8.0-0.51","5ec6d06c67b0da0fb6f85e83","650c16f0f2faf8d7a0d14c09","651c1d5c6531011b4724a5e5","null","null","<p style=""font-size: 60px; font-family: BACS"">MlthlMck</p>","","","","","","","","",""
"html-keyboard-response","60","90822","0.0-8.0-0.52","5ec6d06c67b0da0fb6f85e83","650c16f0f2faf8d7a0d14c09","651c1d5c6531011b4724a5e5","null","null","<p style=""font-size: 60px; font-family: BACS"">ACcOKOYC</p>","","","","","","","","",""
"html-keyboard-response","61","91836","0.0-8.0-0.53","5ec6d06c67b0da0fb6f85e83","650c16f0f2faf8d7a0d14c09","651c1d5c6531011b4724a5e5","null","null","<p style=""font-size: 60px; font-family: BACS"">aOLZUArv</p>","","","","","","","","",""
"html-keyboard-response","62","92849","0.0-8.0-0.54","5ec6d06c67b0da0fb6f85e83","650c16f0f2faf8d7a0d14c09","651c1d5c6531011b4724a5e5","null","null","<p style=""font-size: 60px; font-family: BACS"">MlthYht</p>","","","","","","","","",""
"html-keyboard-response","63","93860","0.0-8.0-0.55","5ec6d06c67b0da0fb6f85e83","650c16f0f2faf8d7a0d14c09","651c1d5c6531011b4724a5e5","null","null","<p style=""font-size: 60px; font-family: BACS"">YJkbravu</p>","","","","","","","","",""
"html-keyboard-response","64","94872","0.0-8.0-0.56","5ec6d06c67b0da0fb6f85e83","650c16f0f2faf8d7a0d14c09","651c1d5c6531011b4724a5e5","null","null","<p style=""font-size: 60px; font-family: BACS"">hlkTlMck</p>","","","","","","","","",""
"html-keyboard-response","65","95887","0.0-8.0-0.57","5ec6d06c67b0da0fb6f85e83","650c16f0f2faf8d7a0d14c09","651c1d5c6531011b4724a5e5","null","null","<p style=""font-size: 60px; font-family: BACS"">AMkCbTE</p>","","","","","","","","",""
"html-keyboard-response","66","96902","0.0-8.0-0.58","5ec6d06c67b0da0fb6f85e83","650c16f0f2faf8d7a0d14c09","651c1d5c6531011b4724a5e5","null","null","<p style=""font-size: 60px; font-family: BACS"">BATOcKOYC</p>","","","","","","","","",""
"html-keyboard-response","67","97916","0.0-8.0-0.59","5ec6d06c67b0da0fb6f85e83","650c16f0f2faf8d7a0d14c09","651c1d5c6531011b4724a5e5","null","null","<p style=""font-size: 60px; font-family: BACS"">hlkTBCAd</p>","","","","","","","","",""
"html-keyboard-response","68","98927","0.0-8.0-0.60","5ec6d06c67b0da0fb6f85e83","650c16f0f2faf8d7a0d14c09","651c1d5c6531011b4724a5e5","null","null","<p style=""font-size: 60px; font-family: BACS"">DhMtKOYC</p>","","","","","","","","",""
"html-keyboard-response","69","99942","0.0-8.0-0.61","5ec6d06c67b0da0fb6f85e83","650c16f0f2faf8d7a0d14c09","651c1d5c6531011b4724a5e5","null","null","<p style=""font-size: 60px; font-family: BACS"">aOLZUuOAO</p>","","","","","","","","",""
"html-keyboard-response","70","100945","0.0-8.0-0.62","5ec6d06c67b0da0fb6f85e83","650c16f0f2faf8d7a0d14c09","651c1d5c6531011b4724a5e5","null","null","<p style=""font-size: 60px; font-family: BACS"">DhMtbTE</p>","","","","","","","","",""
"html-keyboard-response","71","101958","0.0-8.0-0.63","5ec6d06c67b0da0fb6f85e83","650c16f0f2faf8d7a0d14c09","651c1d5c6531011b4724a5e5","null","null","<p style=""font-size: 60px; font-family: BACS"">MlthBCAd</p>","","","","","","","","",""
"html-keyboard-response","72","102970","0.0-8.0-0.64","5ec6d06c67b0da0fb6f85e83","650c16f0f2faf8d7a0d14c09","651c1d5c6531011b4724a5e5","null","null","<p style=""font-size: 60px; font-family: BACS"">mhtcYht</p>","","","","","","","","",""
"html-keyboard-response","73","103983","0.0-8.0-0.65","5ec6d06c67b0da0fb6f85e83","650c16f0f2faf8d7a0d14c09","651c1d5c6531011b4724a5e5","null","null","<p style=""font-size: 60px; font-family: BACS"">OAblcuda</p>","","","","","","","","",""
"html-keyboard-response","74","104995","0.0-8.0-0.66","5ec6d06c67b0da0fb6f85e83","650c16f0f2faf8d7a0d14c09","651c1d5c6531011b4724a5e5","null","null","<p style=""font-size: 60px; font-family: BACS"">UJkGArv</p>","","","","","","","","",""
"html-keyboard-response","75","106007","0.0-8.0-0.67","5ec6d06c67b0da0fb6f85e83","650c16f0f2faf8d7a0d14c09","651c1d5c6531011b4724a5e5","null","null","<p style=""font-size: 60px; font-family: BACS"">bmbNravu</p>","","","","","","","","",""
"html-keyboard-response","76","107017","0.0-8.0-0.68","5ec6d06c67b0da0fb6f85e83","650c16f0f2faf8d7a0d14c09","651c1d5c6531011b4724a5e5","null","null","<p style=""font-size: 60px; font-family: BACS"">hlctEBCAd</p>","","","","","","","","",""
"html-keyboard-response","77","108027","0.0-8.0-0.69","5ec6d06c67b0da0fb6f85e83","650c16f0f2faf8d7a0d14c09","651c1d5c6531011b4724a5e5","null","null","<p style=""font-size: 60px; font-family: BACS"">vYLUravu</p>","","","","","","","","",""
"html-keyboard-response","78","109040","0.0-8.0-0.70","5ec6d06c67b0da0fb6f85e83","650c16f0f2faf8d7a0d14c09","651c1d5c6531011b4724a5e5","null","null","<p style=""font-size: 60px; font-family: BACS"">KDPAlMck</p>","","","","","","","","",""
"html-keyboard-response","79","110054","0.0-8.0-0.71","5ec6d06c67b0da0fb6f85e83","650c16f0f2faf8d7a0d14c09","651c1d5c6531011b4724a5e5","null","null","<p style=""font-size: 60px; font-family: BACS"">bmbNuOAO</p>","","","","","","","","",""
"html-keyboard-response","80","111068","0.0-8.0-0.72","5ec6d06c67b0da0fb6f85e83","650c16f0f2faf8d7a0d14c09","651c1d5c6531011b4724a5e5","null","null","<p style=""font-size: 60px; font-family: BACS"">mhtclMck</p>","","","","","","","","",""
"html-keyboard-response","81","112069","0.0-8.0-0.73","5ec6d06c67b0da0fb6f85e83","650c16f0f2faf8d7a0d14c09","651c1d5c6531011b4724a5e5","null","null","<p style=""font-size: 60px; font-family: BACS"">kGlUuOAO</p>","","","","","","","","",""
"html-keyboard-response","82","113084","0.0-8.0-0.74","5ec6d06c67b0da0fb6f85e83","650c16f0f2faf8d7a0d14c09","651c1d5c6531011b4724a5e5","null","null","<p style=""font-size: 60px; font-family: BACS"">bmbNuda</p>","","","","","","","","",""
"html-keyboard-response","83","114097","0.0-8.0-0.75","5ec6d06c67b0da0fb6f85e83","650c16f0f2faf8d7a0d14c09","651c1d5c6531011b4724a5e5","null","null","<p style=""font-size: 60px; font-family: BACS"">KDPAKOYC</p>","","","","","","","","",""
"html-keyboard-response","84","115111","0.0-8.0-0.76","5ec6d06c67b0da0fb6f85e83","650c16f0f2faf8d7a0d14c09","651c1d5c6531011b4724a5e5","null","null","<p style=""font-size: 60px; font-family: BACS"">DhMtYht</p>","","","","","","","","",""
"html-keyboard-response","85","116123","0.0-8.0-0.77","5ec6d06c67b0da0fb6f85e83","650c16f0f2faf8d7a0d14c09","651c1d5c6531011b4724a5e5","null","null","<p style=""font-size: 60px; font-family: BACS"">AMkCKOYC</p>","","","","","","","","",""
"html-keyboard-response","86","117139","0.0-8.0-0.78","5ec6d06c67b0da0fb6f85e83","650c16f0f2faf8d7a0d14c09","651c1d5c6531011b4724a5e5","null","null","<p style=""font-size: 60px; font-family: BACS"">kGlUArv</p>","","","","","","","","",""
"html-keyboard-response","87","118153","0.0-8.0-0.79","5ec6d06c67b0da0fb6f85e83","650c16f0f2faf8d7a0d14c09","651c1d5c6531011b4724a5e5","null","null","<p style=""font-size: 60px; font-family: BACS"">OAblcuOAO</p>","","","","","","","","",""
"html-keyboard-response","88","159609","0.0-9.0","5ec6d06c67b0da0fb6f85e83","650c16f0f2faf8d7a0d14c09","651c1d5c6531011b4724a5e5","41455"," ","<p>Great, you've seen the first block of words. You may now take a short break.</p>
      <p>Press the spacebar when you're ready to continue.</p>","","","","","","","","",""
"html-keyboard-response","89","160612","0.0-10.0-0.0","5ec6d06c67b0da0fb6f85e83","650c16f0f2faf8d7a0d14c09","651c1d5c6531011b4724a5e5","null","null","<p style=""font-size: 60px; font-family: BACS"">UJkGrZYd</p>","","","","","","","","",""
"html-keyboard-response","90","161623","0.0-10.0-0.1","5ec6d06c67b0da0fb6f85e83","650c16f0f2faf8d7a0d14c09","651c1d5c6531011b4724a5e5","null","null","<p style=""font-size: 60px; font-family: BACS"">bmbNravu</p>","","","","","","","","",""
"html-keyboard-response","91","162636","0.0-10.0-0.2","5ec6d06c67b0da0fb6f85e83","650c16f0f2faf8d7a0d14c09","651c1d5c6531011b4724a5e5","null","null","<p style=""font-size: 60px; font-family: BACS"">lcOcuOAO</p>","","","","","","","","",""
"html-keyboard-response","92","163648","0.0-10.0-0.3","5ec6d06c67b0da0fb6f85e83","650c16f0f2faf8d7a0d14c09","651c1d5c6531011b4724a5e5","null","null","<p style=""font-size: 60px; font-family: BACS"">KDPAlMck</p>","","","","","","","","",""
"html-keyboard-response","93","164661","0.0-10.0-0.4","5ec6d06c67b0da0fb6f85e83","650c16f0f2faf8d7a0d14c09","651c1d5c6531011b4724a5e5","null","null","<p style=""font-size: 60px; font-family: BACS"">YJkbArv</p>","","","","","","","","",""
"html-keyboard-response","94","165670","0.0-10.0-0.5","5ec6d06c67b0da0fb6f85e83","650c16f0f2faf8d7a0d14c09","651c1d5c6531011b4724a5e5","null","null","<p style=""font-size: 60px; font-family: BACS"">KDPAKOYC</p>","","","","","","","","",""
"html-keyboard-response","95","166683","0.0-10.0-0.6","5ec6d06c67b0da0fb6f85e83","650c16f0f2faf8d7a0d14c09","651c1d5c6531011b4724a5e5","null","null","<p style=""font-size: 60px; font-family: BACS"">aOLZUuda</p>","","","","","","","","",""
"html-keyboard-response","96","167698","0.0-10.0-0.7","5ec6d06c67b0da0fb6f85e83","650c16f0f2faf8d7a0d14c09","651c1d5c6531011b4724a5e5","null","null","<p style=""font-size: 60px; font-family: BACS"">Ldrbvravu</p>","","","","","","","","",""
"html-keyboard-response","97","168710","0.0-10.0-0.8","5ec6d06c67b0da0fb6f85e83","650c16f0f2faf8d7a0d14c09","651c1d5c6531011b4724a5e5","null","null","<p style=""font-size: 60px; font-family: BACS"">OAblcuOAO</p>","","","","","","","","",""
"html-keyboard-response","98","169712","0.0-10.0-0.9","5ec6d06c67b0da0fb6f85e83","650c16f0f2faf8d7a0d14c09","651c1d5c6531011b4724a5e5","null","null","<p style=""font-size: 60px; font-family: BACS"">BATOcKOYC</p>","","","","","","","","",""
"html-keyboard-response","99","170725","0.0-10.0-0.10","5ec6d06c67b0da0fb6f85e83","650c16f0f2faf8d7a0d14c09","651c1d5c6531011b4724a5e5","null","null","<p style=""font-size: 60px; font-family: BACS"">rvAJArv</p>","","","","","","","","",""
"html-keyboard-response","100","171738","0.0-10.0-0.11","5ec6d06c67b0da0fb6f85e83","650c16f0f2faf8d7a0d14c09","651c1d5c6531011b4724a5e5","null","null","<p style=""font-size: 60px; font-family: BACS"">hlctEBCAd</p>","","","","","","","","",""
"html-keyboard-response","101","172749","0.0-10.0-0.12","5ec6d06c67b0da0fb6f85e83","650c16f0f2faf8d7a0d14c09","651c1d5c6531011b4724a5e5","null","null","<p style=""font-size: 60px; font-family: BACS"">bmbNuOAO</p>","","","","","","","","",""
"html-keyboard-response","102","173760","0.0-10.0-0.13","5ec6d06c67b0da0fb6f85e83","650c16f0f2faf8d7a0d14c09","651c1d5c6531011b4724a5e5","null","null","<p style=""font-size: 60px; font-family: BACS"">mhtcbTE</p>","","","","","","","","",""
"html-keyboard-response","103","174765","0.0-10.0-0.14","5ec6d06c67b0da0fb6f85e83","650c16f0f2faf8d7a0d14c09","651c1d5c6531011b4724a5e5","null","null","<p style=""font-size: 60px; font-family: BACS"">MlthBCAd</p>","","","","","","","","",""
"html-keyboard-response","104","175777","0.0-10.0-0.15","5ec6d06c67b0da0fb6f85e83","650c16f0f2faf8d7a0d14c09","651c1d5c6531011b4724a5e5","null","null","<p style=""font-size: 60px; font-family: BACS"">hlctEbTE</p>","","","","","","","","",""
"html-keyboard-response","105","176791","0.0-10.0-0.16","5ec6d06c67b0da0fb6f85e83","650c16f0f2faf8d7a0d14c09","651c1d5c6531011b4724a5e5","null","null","<p style=""font-size: 60px; font-family: BACS"">rvAJuda</p>","","","","","","","","",""
"html-keyboard-response","106","177805","0.0-10.0-0.17","5ec6d06c67b0da0fb6f85e83","650c16f0f2faf8d7a0d14c09","651c1d5c6531011b4724a5e5","null","null","<p style=""font-size: 60px; font-family: BACS"">ACcOlMck</p>","","","","","","","","",""
"html-keyboard-response","107","178807","0.0-10.0-0.18","5ec6d06c67b0da0fb6f85e83","650c16f0f2faf8d7a0d14c09","651c1d5c6531011b4724a5e5","null","null","<p style=""font-size: 60px; font-family: BACS"">DhMtYht</p>","","","","","","","","",""
"html-keyboard-response","108","179808","0.0-10.0-0.19","5ec6d06c67b0da0fb6f85e83","650c16f0f2faf8d7a0d14c09","651c1d5c6531011b4724a5e5","null","null","<p style=""font-size: 60px; font-family: BACS"">UJkGravu</p>","","","","","","","","",""
"html-keyboard-response","109","180822","0.0-10.0-0.20","5ec6d06c67b0da0fb6f85e83","650c16f0f2faf8d7a0d14c09","651c1d5c6531011b4724a5e5","null","null","<p style=""font-size: 60px; font-family: BACS"">LdrbvArv</p>","","","","","","","","",""
"html-keyboard-response","110","181826","0.0-10.0-0.21","5ec6d06c67b0da0fb6f85e83","650c16f0f2faf8d7a0d14c09","651c1d5c6531011b4724a5e5","null","null","<p style=""font-size: 60px; font-family: BACS"">KDPAYht</p>","","","","","","","","",""
"html-keyboard-response","111","182828","0.0-10.0-0.22","5ec6d06c67b0da0fb6f85e83","650c16f0f2faf8d7a0d14c09","651c1d5c6531011b4724a5e5","null","null","<p style=""font-size: 60px; font-family: BACS"">lcOcrZYd</p>","","","","","","","","",""
"html-keyboard-response","112","183842","0.0-10.0-0.23","5ec6d06c67b0da0fb6f85e83","650c16f0f2faf8d7a0d14c09","651c1d5c6531011b4724a5e5","null","null","<p style=""font-size: 60px; font-family: BACS"">ACcOKOYC</p>","","","","","","","","",""
"html-keyboard-response","113","184852","0.0-10.0-0.24","5ec6d06c67b0da0fb6f85e83","650c16f0f2faf8d7a0d14c09","651c1d5c6531011b4724a5e5","null","null","<p style=""font-size: 60px; font-family: BACS"">bmbNrZYd</p>","","","","","","","","",""
"html-keyboard-response","114","185867","0.0-10.0-0.25","5ec6d06c67b0da0fb6f85e83","650c16f0f2faf8d7a0d14c09","651c1d5c6531011b4724a5e5","null","null","<p style=""font-size: 60px; font-family: BACS"">DhMtbTE</p>","","","","","","","","",""
"html-keyboard-response","115","186881","0.0-10.0-0.26","5ec6d06c67b0da0fb6f85e83","650c16f0f2faf8d7a0d14c09","651c1d5c6531011b4724a5e5","null","null","<p style=""font-size: 60px; font-family: BACS"">hlctEYht</p>","","","","","","","","",""
"html-keyboard-response","116","187895","0.0-10.0-0.27","5ec6d06c67b0da0fb6f85e83","650c16f0f2faf8d7a0d14c09","651c1d5c6531011b4724a5e5","null","null","<p style=""font-size: 60px; font-family: BACS"">KDPABCAd</p>","","","","","","","","",""
"html-keyboard-response","117","188908","0.0-10.0-0.28","5ec6d06c67b0da0fb6f85e83","650c16f0f2faf8d7a0d14c09","651c1d5c6531011b4724a5e5","null","null","<p style=""font-size: 60px; font-family: BACS"">vYLUrZYd</p>","","","","","","","","",""
"html-keyboard-response","118","189924","0.0-10.0-0.29","5ec6d06c67b0da0fb6f85e83","650c16f0f2faf8d7a0d14c09","651c1d5c6531011b4724a5e5","null","null","<p style=""font-size: 60px; font-family: BACS"">ACcOBCAd</p>","","","","","","","","",""
"html-keyboard-response","119","190938","0.0-10.0-0.30","5ec6d06c67b0da0fb6f85e83","650c16f0f2faf8d7a0d14c09","651c1d5c6531011b4724a5e5","null","null","<p style=""font-size: 60px; font-family: BACS"">BATOcbTE</p>","","","","","","","","",""
"html-keyboard-response","120","191940","0.0-10.0-0.31","5ec6d06c67b0da0fb6f85e83","650c16f0f2faf8d7a0d14c09","651c1d5c6531011b4724a5e5","null","null","<p style=""font-size: 60px; font-family: BACS"">vYLUravu</p>","","","","","","","","",""
"html-keyboard-response","121","192954","0.0-10.0-0.32","5ec6d06c67b0da0fb6f85e83","650c16f0f2faf8d7a0d14c09","651c1d5c6531011b4724a5e5","null","null","<p style=""font-size: 60px; font-family: BACS"">LdrbvrZYd</p>","","","","","","","","",""
"html-keyboard-response","122","193964","0.0-10.0-0.33","5ec6d06c67b0da0fb6f85e83","650c16f0f2faf8d7a0d14c09","651c1d5c6531011b4724a5e5","null","null","<p style=""font-size: 60px; font-family: BACS"">mhtcYht</p>","","","","","","","","",""
"html-keyboard-response","123","194980","0.0-10.0-0.34","5ec6d06c67b0da0fb6f85e83","650c16f0f2faf8d7a0d14c09","651c1d5c6531011b4724a5e5","null","null","<p style=""font-size: 60px; font-family: BACS"">hlkTKOYC</p>","","","","","","","","",""
"html-keyboard-response","124","195994","0.0-10.0-0.35","5ec6d06c67b0da0fb6f85e83","650c16f0f2faf8d7a0d14c09","651c1d5c6531011b4724a5e5","null","null","<p style=""font-size: 60px; font-family: BACS"">ckdAmBCAd</p>","","","","","","","","",""
"html-keyboard-response","125","197005","0.0-10.0-0.36","5ec6d06c67b0da0fb6f85e83","650c16f0f2faf8d7a0d14c09","651c1d5c6531011b4724a5e5","null","null","<p style=""font-size: 60px; font-family: BACS"">ACcObTE</p>","","","","","","","","",""
"html-keyboard-response","126","198019","0.0-10.0-0.37","5ec6d06c67b0da0fb6f85e83","650c16f0f2faf8d7a0d14c09","651c1d5c6531011b4724a5e5","null","null","<p style=""font-size: 60px; font-family: BACS"">YJkbuOAO</p>","","","","","","","","",""
"html-keyboard-response","127","199027","0.0-10.0-0.38","5ec6d06c67b0da0fb6f85e83","650c16f0f2faf8d7a0d14c09","651c1d5c6531011b4724a5e5","null","null","<p style=""font-size: 60px; font-family: BACS"">lcOcuda</p>","","","","","","","","",""
"html-keyboard-response","128","200029","0.0-10.0-0.39","5ec6d06c67b0da0fb6f85e83","650c16f0f2faf8d7a0d14c09","651c1d5c6531011b4724a5e5","null","null","<p style=""font-size: 60px; font-family: BACS"">hlctElMck</p>","","","","","","","","",""
"html-keyboard-response","129","201043","0.0-10.0-0.40","5ec6d06c67b0da0fb6f85e83","650c16f0f2faf8d7a0d14c09","651c1d5c6531011b4724a5e5","null","null","<p style=""font-size: 60px; font-family: BACS"">AMkCKOYC</p>","","","","","","","","",""
"html-keyboard-response","130","202056","0.0-10.0-0.41","5ec6d06c67b0da0fb6f85e83","650c16f0f2faf8d7a0d14c09","651c1d5c6531011b4724a5e5","null","null","<p style=""font-size: 60px; font-family: BACS"">UJkGArv</p>","","","","","","","","",""
"html-keyboard-response","131","203057","0.0-10.0-0.42","5ec6d06c67b0da0fb6f85e83","650c16f0f2faf8d7a0d14c09","651c1d5c6531011b4724a5e5","null","null","<p style=""font-size: 60px; font-family: BACS"">rvAJravu</p>","","","","","","","","",""
"html-keyboard-response","132","204069","0.0-10.0-0.43","5ec6d06c67b0da0fb6f85e83","650c16f0f2faf8d7a0d14c09","651c1d5c6531011b4724a5e5","null","null","<p style=""font-size: 60px; font-family: BACS"">vYLUuda</p>","","","","","","","","",""
"html-keyboard-response","133","205072","0.0-10.0-0.44","5ec6d06c67b0da0fb6f85e83","650c16f0f2faf8d7a0d14c09","651c1d5c6531011b4724a5e5","null","null","<p style=""font-size: 60px; font-family: BACS"">mhtcBCAd</p>","","","","","","","","",""
"html-keyboard-response","134","206088","0.0-10.0-0.45","5ec6d06c67b0da0fb6f85e83","650c16f0f2faf8d7a0d14c09","651c1d5c6531011b4724a5e5","null","null","<p style=""font-size: 60px; font-family: BACS"">OAblcArv</p>","","","","","","","","",""
"html-keyboard-response","135","207100","0.0-10.0-0.46","5ec6d06c67b0da0fb6f85e83","650c16f0f2faf8d7a0d14c09","651c1d5c6531011b4724a5e5","null","null","<p style=""font-size: 60px; font-family: BACS"">hlkTBCAd</p>","","","","","","","","",""
"html-keyboard-response","136","208116","0.0-10.0-0.47","5ec6d06c67b0da0fb6f85e83","650c16f0f2faf8d7a0d14c09","651c1d5c6531011b4724a5e5","null","null","<p style=""font-size: 60px; font-family: BACS"">ckdAmbTE</p>","","","","","","","","",""
"html-keyboard-response","137","209127","0.0-10.0-0.48","5ec6d06c67b0da0fb6f85e83","650c16f0f2faf8d7a0d14c09","651c1d5c6531011b4724a5e5","null","null","<p style=""font-size: 60px; font-family: BACS"">Ldrbvuda</p>","","","","","","","","",""
"html-keyboard-response","138","210129","0.0-10.0-0.49","5ec6d06c67b0da0fb6f85e83","650c16f0f2faf8d7a0d14c09","651c1d5c6531011b4724a5e5","null","null","<p style=""font-size: 60px; font-family: BACS"">AMkCBCAd</p>","","","","","","","","",""
"html-keyboard-response","139","211144","0.0-10.0-0.50","5ec6d06c67b0da0fb6f85e83","650c16f0f2faf8d7a0d14c09","651c1d5c6531011b4724a5e5","null","null","<p style=""font-size: 60px; font-family: BACS"">BATOclMck</p>","","","","","","","","",""
"html-keyboard-response","140","212145","0.0-10.0-0.51","5ec6d06c67b0da0fb6f85e83","650c16f0f2faf8d7a0d14c09","651c1d5c6531011b4724a5e5","null","null","<p style=""font-size: 60px; font-family: BACS"">YJkbuda</p>","","","","","","","","",""
"html-keyboard-response","141","213157","0.0-10.0-0.52","5ec6d06c67b0da0fb6f85e83","650c16f0f2faf8d7a0d14c09","651c1d5c6531011b4724a5e5","null","null","<p style=""font-size: 60px; font-family: BACS"">aOLZUravu</p>","","","","","","","","",""
"html-keyboard-response","142","214171","0.0-10.0-0.53","5ec6d06c67b0da0fb6f85e83","650c16f0f2faf8d7a0d14c09","651c1d5c6531011b4724a5e5","null","null","<p style=""font-size: 60px; font-family: BACS"">mhtclMck</p>","","","","","","","","",""
"html-keyboard-response","143","215181","0.0-10.0-0.54","5ec6d06c67b0da0fb6f85e83","650c16f0f2faf8d7a0d14c09","651c1d5c6531011b4724a5e5","null","null","<p style=""font-size: 60px; font-family: BACS"">ckdAmYht</p>","","","","","","","","",""
"html-keyboard-response","144","216190","0.0-10.0-0.55","5ec6d06c67b0da0fb6f85e83","650c16f0f2faf8d7a0d14c09","651c1d5c6531011b4724a5e5","null","null","<p style=""font-size: 60px; font-family: BACS"">MlthlMck</p>","","","","","","","","",""
"html-keyboard-response","145","217205","0.0-10.0-0.56","5ec6d06c67b0da0fb6f85e83","650c16f0f2faf8d7a0d14c09","651c1d5c6531011b4724a5e5","null","null","<p style=""font-size: 60px; font-family: BACS"">kGlUuOAO</p>","","","","","","","","",""
"html-keyboard-response","146","218219","0.0-10.0-0.57","5ec6d06c67b0da0fb6f85e83","650c16f0f2faf8d7a0d14c09","651c1d5c6531011b4724a5e5","null","null","<p style=""font-size: 60px; font-family: BACS"">lcOcArv</p>","","","","","","","","",""
"html-keyboard-response","147","219221","0.0-10.0-0.58","5ec6d06c67b0da0fb6f85e83","650c16f0f2faf8d7a0d14c09","651c1d5c6531011b4724a5e5","null","null","<p style=""font-size: 60px; font-family: BACS"">kGlUrZYd</p>","","","","","","","","",""
"html-keyboard-response","148","220221","0.0-10.0-0.59","5ec6d06c67b0da0fb6f85e83","650c16f0f2faf8d7a0d14c09","651c1d5c6531011b4724a5e5","null","null","<p style=""font-size: 60px; font-family: BACS"">AMkCbTE</p>","","","","","","","","",""
"html-keyboard-response","149","221231","0.0-10.0-0.60","5ec6d06c67b0da0fb6f85e83","650c16f0f2faf8d7a0d14c09","651c1d5c6531011b4724a5e5","null","null","<p style=""font-size: 60px; font-family: BACS"">DhMtlMck</p>","","","","","","","","",""
"html-keyboard-response","150","222243","0.0-10.0-0.61","5ec6d06c67b0da0fb6f85e83","650c16f0f2faf8d7a0d14c09","651c1d5c6531011b4724a5e5","null","null","<p style=""font-size: 60px; font-family: BACS"">AMkCYht</p>","","","","","","","","",""
"html-keyboard-response","151","223256","0.0-10.0-0.62","5ec6d06c67b0da0fb6f85e83","650c16f0f2faf8d7a0d14c09","651c1d5c6531011b4724a5e5","null","null","<p style=""font-size: 60px; font-family: BACS"">aOLZUArv</p>","","","","","","","","",""
"html-keyboard-response","152","224271","0.0-10.0-0.63","5ec6d06c67b0da0fb6f85e83","650c16f0f2faf8d7a0d14c09","651c1d5c6531011b4724a5e5","null","null","<p style=""font-size: 60px; font-family: BACS"">hlkTlMck</p>","","","","","","","","",""
"html-keyboard-response","153","225282","0.0-10.0-0.64","5ec6d06c67b0da0fb6f85e83","650c16f0f2faf8d7a0d14c09","651c1d5c6531011b4724a5e5","null","null","<p style=""font-size: 60px; font-family: BACS"">YJkbravu</p>","","","","","","","","",""
"html-keyboard-response","154","226297","0.0-10.0-0.65","5ec6d06c67b0da0fb6f85e83","650c16f0f2faf8d7a0d14c09","651c1d5c6531011b4724a5e5","null","null","<p style=""font-size: 60px; font-family: BACS"">aOLZUuOAO</p>","","","","","","","","",""
"html-keyboard-response","155","227298","0.0-10.0-0.66","5ec6d06c67b0da0fb6f85e83","650c16f0f2faf8d7a0d14c09","651c1d5c6531011b4724a5e5","null","null","<p style=""font-size: 60px; font-family: BACS"">OAblcuda</p>","","","","","","","","",""
"html-keyboard-response","156","228314","0.0-10.0-0.67","5ec6d06c67b0da0fb6f85e83","650c16f0f2faf8d7a0d14c09","651c1d5c6531011b4724a5e5","null","null","<p style=""font-size: 60px; font-family: BACS"">MlthYht</p>","","","","","","","","",""
"html-keyboard-response","157","229327","0.0-10.0-0.68","5ec6d06c67b0da0fb6f85e83","650c16f0f2faf8d7a0d14c09","651c1d5c6531011b4724a5e5","null","null","<p style=""font-size: 60px; font-family: BACS"">vYLUuOAO</p>","","","","","","","","",""
"html-keyboard-response","158","230338","0.0-10.0-0.69","5ec6d06c67b0da0fb6f85e83","650c16f0f2faf8d7a0d14c09","651c1d5c6531011b4724a5e5","null","null","<p style=""font-size: 60px; font-family: BACS"">BATOcYht</p>","","","","","","","","",""
"html-keyboard-response","159","231352","0.0-10.0-0.70","5ec6d06c67b0da0fb6f85e83","650c16f0f2faf8d7a0d14c09","651c1d5c6531011b4724a5e5","null","null","<p style=""font-size: 60px; font-family: BACS"">kGlUravu</p>","","","","","","","","",""
"html-keyboard-response","160","232367","0.0-10.0-0.71","5ec6d06c67b0da0fb6f85e83","650c16f0f2faf8d7a0d14c09","651c1d5c6531011b4724a5e5","null","null","<p style=""font-size: 60px; font-family: BACS"">DhMtKOYC</p>","","","","","","","","",""
"html-keyboard-response","161","233381","0.0-10.0-0.72","5ec6d06c67b0da0fb6f85e83","650c16f0f2faf8d7a0d14c09","651c1d5c6531011b4724a5e5","null","null","<p style=""font-size: 60px; font-family: BACS"">bmbNuda</p>","","","","","","","","",""
"html-keyboard-response","162","234392","0.0-10.0-0.73","5ec6d06c67b0da0fb6f85e83","650c16f0f2faf8d7a0d14c09","651c1d5c6531011b4724a5e5","null","null","<p style=""font-size: 60px; font-family: BACS"">kGlUArv</p>","","","","","","","","",""
"html-keyboard-response","163","235405","0.0-10.0-0.74","5ec6d06c67b0da0fb6f85e83","650c16f0f2faf8d7a0d14c09","651c1d5c6531011b4724a5e5","null","null","<p style=""font-size: 60px; font-family: BACS"">MlthKOYC</p>","","","","","","","","",""
"html-keyboard-response","164","236420","0.0-10.0-0.75","5ec6d06c67b0da0fb6f85e83","650c16f0f2faf8d7a0d14c09","651c1d5c6531011b4724a5e5","null","null","<p style=""font-size: 60px; font-family: BACS"">rvAJrZYd</p>","","","","","","","","",""
"html-keyboard-response","165","237436","0.0-10.0-0.76","5ec6d06c67b0da0fb6f85e83","650c16f0f2faf8d7a0d14c09","651c1d5c6531011b4724a5e5","null","null","<p style=""font-size: 60px; font-family: BACS"">ckdAmKOYC</p>","","","","","","","","",""
"html-keyboard-response","166","238449","0.0-10.0-0.77","5ec6d06c67b0da0fb6f85e83","650c16f0f2faf8d7a0d14c09","651c1d5c6531011b4724a5e5","null","null","<p style=""font-size: 60px; font-family: BACS"">OAblcrZYd</p>","","","","","","","","",""
"html-keyboard-response","167","239461","0.0-10.0-0.78","5ec6d06c67b0da0fb6f85e83","650c16f0f2faf8d7a0d14c09","651c1d5c6531011b4724a5e5","null","null","<p style=""font-size: 60px; font-family: BACS"">UJkGuOAO</p>","","","","","","","","",""
"html-keyboard-response","168","240465","0.0-10.0-0.79","5ec6d06c67b0da0fb6f85e83","650c16f0f2faf8d7a0d14c09","651c1d5c6531011b4724a5e5","null","null","<p style=""font-size: 60px; font-family: BACS"">hlkTbTE</p>","","","","","","","","",""
"html-keyboard-response","169","267487","0.0-11.0","5ec6d06c67b0da0fb6f85e83","650c16f0f2faf8d7a0d14c09","651c1d5c6531011b4724a5e5","27022"," ","<p>Great, you've seen the second block of words. You may now take a short break.</p>
      <p>Press the spacebar when you're ready to continue.</p>","","","","","","","","",""
"html-keyboard-response","170","268488","0.0-12.0-0.0","5ec6d06c67b0da0fb6f85e83","650c16f0f2faf8d7a0d14c09","651c1d5c6531011b4724a5e5","null","null","<p style=""font-size: 60px; font-family: BACS"">OAblcuOAO</p>","","","","","","","","",""
"html-keyboard-response","171","269497","0.0-12.0-0.1","5ec6d06c67b0da0fb6f85e83","650c16f0f2faf8d7a0d14c09","651c1d5c6531011b4724a5e5","null","null","<p style=""font-size: 60px; font-family: BACS"">ACcObTE</p>","","","","","","","","",""
"html-keyboard-response","172","270512","0.0-12.0-0.2","5ec6d06c67b0da0fb6f85e83","650c16f0f2faf8d7a0d14c09","651c1d5c6531011b4724a5e5","null","null","<p style=""font-size: 60px; font-family: BACS"">LdrbvrZYd</p>","","","","","","","","",""
"html-keyboard-response","173","271526","0.0-12.0-0.3","5ec6d06c67b0da0fb6f85e83","650c16f0f2faf8d7a0d14c09","651c1d5c6531011b4724a5e5","null","null","<p style=""font-size: 60px; font-family: BACS"">MlthKOYC</p>","","","","","","","","",""
"html-keyboard-response","174","272542","0.0-12.0-0.4","5ec6d06c67b0da0fb6f85e83","650c16f0f2faf8d7a0d14c09","651c1d5c6531011b4724a5e5","null","null","<p style=""font-size: 60px; font-family: BACS"">DhMtlMck</p>","","","","","","","","",""
"html-keyboard-response","175","273557","0.0-12.0-0.5","5ec6d06c67b0da0fb6f85e83","650c16f0f2faf8d7a0d14c09","651c1d5c6531011b4724a5e5","null","null","<p style=""font-size: 60px; font-family: BACS"">ckdAmYht</p>","","","","","","","","",""
"html-keyboard-response","176","274571","0.0-12.0-0.6","5ec6d06c67b0da0fb6f85e83","650c16f0f2faf8d7a0d14c09","651c1d5c6531011b4724a5e5","null","null","<p style=""font-size: 60px; font-family: BACS"">ACcOlMck</p>","","","","","","","","",""
"html-keyboard-response","177","275585","0.0-12.0-0.7","5ec6d06c67b0da0fb6f85e83","650c16f0f2faf8d7a0d14c09","651c1d5c6531011b4724a5e5","null","null","<p style=""font-size: 60px; font-family: BACS"">hlctEYht</p>","","","","","","","","",""
"html-keyboard-response","178","276588","0.0-12.0-0.8","5ec6d06c67b0da0fb6f85e83","650c16f0f2faf8d7a0d14c09","651c1d5c6531011b4724a5e5","null","null","<p style=""font-size: 60px; font-family: BACS"">MlthBCAd</p>","","","","","","","","",""
"html-keyboard-response","179","277604","0.0-12.0-0.9","5ec6d06c67b0da0fb6f85e83","650c16f0f2faf8d7a0d14c09","651c1d5c6531011b4724a5e5","null","null","<p style=""font-size: 60px; font-family: BACS"">BATOclMck</p>","","","","","","","","",""
"html-keyboard-response","180","278618","0.0-12.0-0.10","5ec6d06c67b0da0fb6f85e83","650c16f0f2faf8d7a0d14c09","651c1d5c6531011b4724a5e5","null","null","<p style=""font-size: 60px; font-family: BACS"">mhtcBCAd</p>","","","","","","","","",""
"html-keyboard-response","181","279634","0.0-12.0-0.11","5ec6d06c67b0da0fb6f85e83","650c16f0f2faf8d7a0d14c09","651c1d5c6531011b4724a5e5","null","null","<p style=""font-size: 60px; font-family: BACS"">aOLZUravu</p>","","","","","","","","",""
"html-keyboard-response","182","280649","0.0-12.0-0.12","5ec6d06c67b0da0fb6f85e83","650c16f0f2faf8d7a0d14c09","651c1d5c6531011b4724a5e5","null","null","<p style=""font-size: 60px; font-family: BACS"">KDPAYht</p>","","","","","","","","",""
"html-keyboard-response","183","281662","0.0-12.0-0.13","5ec6d06c67b0da0fb6f85e83","650c16f0f2faf8d7a0d14c09","651c1d5c6531011b4724a5e5","null","null","<p style=""font-size: 60px; font-family: BACS"">OAblcArv</p>","","","","","","","","",""
"html-keyboard-response","184","282675","0.0-12.0-0.14","5ec6d06c67b0da0fb6f85e83","650c16f0f2faf8d7a0d14c09","651c1d5c6531011b4724a5e5","null","null","<p style=""font-size: 60px; font-family: BACS"">rvAJuda</p>","","","","","","","","",""
"html-keyboard-response","185","283685","0.0-12.0-0.15","5ec6d06c67b0da0fb6f85e83","650c16f0f2faf8d7a0d14c09","651c1d5c6531011b4724a5e5","null","null","<p style=""font-size: 60px; font-family: BACS"">YJkbArv</p>","","","","","","","","",""
"html-keyboard-response","186","284687","0.0-12.0-0.16","5ec6d06c67b0da0fb6f85e83","650c16f0f2faf8d7a0d14c09","651c1d5c6531011b4724a5e5","null","null","<p style=""font-size: 60px; font-family: BACS"">kGlUravu</p>","","","","","","","","",""
"html-keyboard-response","187","285701","0.0-12.0-0.17","5ec6d06c67b0da0fb6f85e83","650c16f0f2faf8d7a0d14c09","651c1d5c6531011b4724a5e5","null","null","<p style=""font-size: 60px; font-family: BACS"">ckdAmBCAd</p>","","","","","","","","",""
"html-keyboard-response","188","286715","0.0-12.0-0.18","5ec6d06c67b0da0fb6f85e83","650c16f0f2faf8d7a0d14c09","651c1d5c6531011b4724a5e5","null","null","<p style=""font-size: 60px; font-family: BACS"">bmbNrZYd</p>","","","","","","","","",""
"html-keyboard-response","189","287730","0.0-12.0-0.19","5ec6d06c67b0da0fb6f85e83","650c16f0f2faf8d7a0d14c09","651c1d5c6531011b4724a5e5","null","null","<p style=""font-size: 60px; font-family: BACS"">mhtcYht</p>","","","","","","","","",""
"html-keyboard-response","190","288746","0.0-12.0-0.20","5ec6d06c67b0da0fb6f85e83","650c16f0f2faf8d7a0d14c09","651c1d5c6531011b4724a5e5","null","null","<p style=""font-size: 60px; font-family: BACS"">hlkTKOYC</p>","","","","","","","","",""
"html-keyboard-response","191","289747","0.0-12.0-0.21","5ec6d06c67b0da0fb6f85e83","650c16f0f2faf8d7a0d14c09","651c1d5c6531011b4724a5e5","null","null","<p style=""font-size: 60px; font-family: BACS"">UJkGravu</p>","","","","","","","","",""
"html-keyboard-response","192","290763","0.0-12.0-0.22","5ec6d06c67b0da0fb6f85e83","650c16f0f2faf8d7a0d14c09","651c1d5c6531011b4724a5e5","null","null","<p style=""font-size: 60px; font-family: BACS"">BATOcKOYC</p>","","","","","","","","",""
"html-keyboard-response","193","291776","0.0-12.0-0.23","5ec6d06c67b0da0fb6f85e83","650c16f0f2faf8d7a0d14c09","651c1d5c6531011b4724a5e5","null","null","<p style=""font-size: 60px; font-family: BACS"">AMkCBCAd</p>","","","","","","","","",""
"html-keyboard-response","194","292787","0.0-12.0-0.24","5ec6d06c67b0da0fb6f85e83","650c16f0f2faf8d7a0d14c09","651c1d5c6531011b4724a5e5","null","null","<p style=""font-size: 60px; font-family: BACS"">kGlUrZYd</p>","","","","","","","","",""
"html-keyboard-response","195","293802","0.0-12.0-0.25","5ec6d06c67b0da0fb6f85e83","650c16f0f2faf8d7a0d14c09","651c1d5c6531011b4724a5e5","null","null","<p style=""font-size: 60px; font-family: BACS"">AMkCKOYC</p>","","","","","","","","",""
"html-keyboard-response","196","294818","0.0-12.0-0.26","5ec6d06c67b0da0fb6f85e83","650c16f0f2faf8d7a0d14c09","651c1d5c6531011b4724a5e5","null","null","<p style=""font-size: 60px; font-family: BACS"">DhMtbTE</p>","","","","","","","","",""
"html-keyboard-response","197","295832","0.0-12.0-0.27","5ec6d06c67b0da0fb6f85e83","650c16f0f2faf8d7a0d14c09","651c1d5c6531011b4724a5e5","null","null","<p style=""font-size: 60px; font-family: BACS"">Ldrbvuda</p>","","","","","","","","",""
"html-keyboard-response","198","296834","0.0-12.0-0.28","5ec6d06c67b0da0fb6f85e83","650c16f0f2faf8d7a0d14c09","651c1d5c6531011b4724a5e5","null","null","<p style=""font-size: 60px; font-family: BACS"">bmbNuOAO</p>","","","","","","","","",""
"html-keyboard-response","199","297846","0.0-12.0-0.29","5ec6d06c67b0da0fb6f85e83","650c16f0f2faf8d7a0d14c09","651c1d5c6531011b4724a5e5","null","null","<p style=""font-size: 60px; font-family: BACS"">rvAJravu</p>","","","","","","","","",""
"html-keyboard-response","200","298861","0.0-12.0-0.30","5ec6d06c67b0da0fb6f85e83","650c16f0f2faf8d7a0d14c09","651c1d5c6531011b4724a5e5","null","null","<p style=""font-size: 60px; font-family: BACS"">ACcOBCAd</p>","","","","","","","","",""
"html-keyboard-response","201","299876","0.0-12.0-0.31","5ec6d06c67b0da0fb6f85e83","650c16f0f2faf8d7a0d14c09","651c1d5c6531011b4724a5e5","null","null","<p style=""font-size: 60px; font-family: BACS"">KDPAKOYC</p>","","","","","","","","",""
"html-keyboard-response","202","300877","0.0-12.0-0.32","5ec6d06c67b0da0fb6f85e83","650c16f0f2faf8d7a0d14c09","651c1d5c6531011b4724a5e5","null","null","<p style=""font-size: 60px; font-family: BACS"">aOLZUuda</p>","","","","","","","","",""
"html-keyboard-response","203","301888","0.0-12.0-0.33","5ec6d06c67b0da0fb6f85e83","650c16f0f2faf8d7a0d14c09","651c1d5c6531011b4724a5e5","null","null","<p style=""font-size: 60px; font-family: BACS"">rvAJrZYd</p>","","","","","","","","",""
"html-keyboard-response","204","302903","0.0-12.0-0.34","5ec6d06c67b0da0fb6f85e83","650c16f0f2faf8d7a0d14c09","651c1d5c6531011b4724a5e5","null","null","<p style=""font-size: 60px; font-family: BACS"">mhtcbTE</p>","","","","","","","","",""
"html-keyboard-response","205","303917","0.0-12.0-0.35","5ec6d06c67b0da0fb6f85e83","650c16f0f2faf8d7a0d14c09","651c1d5c6531011b4724a5e5","null","null","<p style=""font-size: 60px; font-family: BACS"">MlthlMck</p>","","","","","","","","",""
"html-keyboard-response","206","304930","0.0-12.0-0.36","5ec6d06c67b0da0fb6f85e83","650c16f0f2faf8d7a0d14c09","651c1d5c6531011b4724a5e5","null","null","<p style=""font-size: 60px; font-family: BACS"">UJkGuOAO</p>","","","","","","","","",""
"html-keyboard-response","207","305940","0.0-12.0-0.37","5ec6d06c67b0da0fb6f85e83","650c16f0f2faf8d7a0d14c09","651c1d5c6531011b4724a5e5","null","null","<p style=""font-size: 60px; font-family: BACS"">KDPABCAd</p>","","","","","","","","",""
"html-keyboard-response","208","306942","0.0-12.0-0.38","5ec6d06c67b0da0fb6f85e83","650c16f0f2faf8d7a0d14c09","651c1d5c6531011b4724a5e5","null","null","<p style=""font-size: 60px; font-family: BACS"">UJkGrZYd</p>","","","","","","","","",""
"html-keyboard-response","209","307942","0.0-12.0-0.39","5ec6d06c67b0da0fb6f85e83","650c16f0f2faf8d7a0d14c09","651c1d5c6531011b4724a5e5","null","null","<p style=""font-size: 60px; font-family: BACS"">LdrbvArv</p>","","","","","","","","",""
"html-keyboard-response","210","308954","0.0-12.0-0.40","5ec6d06c67b0da0fb6f85e83","650c16f0f2faf8d7a0d14c09","651c1d5c6531011b4724a5e5","null","null","<p style=""font-size: 60px; font-family: BACS"">YJkbuda</p>","","","","","","","","",""
"html-keyboard-response","211","309969","0.0-12.0-0.41","5ec6d06c67b0da0fb6f85e83","650c16f0f2faf8d7a0d14c09","651c1d5c6531011b4724a5e5","null","null","<p style=""font-size: 60px; font-family: BACS"">BATOcbTE</p>","","","","","","","","",""
"html-keyboard-response","212","310981","0.0-12.0-0.42","5ec6d06c67b0da0fb6f85e83","650c16f0f2faf8d7a0d14c09","651c1d5c6531011b4724a5e5","null","null","<p style=""font-size: 60px; font-family: BACS"">kGlUuOAO</p>","","","","","","","","",""
"html-keyboard-response","213","311992","0.0-12.0-0.43","5ec6d06c67b0da0fb6f85e83","650c16f0f2faf8d7a0d14c09","651c1d5c6531011b4724a5e5","null","null","<p style=""font-size: 60px; font-family: BACS"">hlctEBCAd</p>","","","","","","","","",""
"html-keyboard-response","214","313004","0.0-12.0-0.44","5ec6d06c67b0da0fb6f85e83","650c16f0f2faf8d7a0d14c09","651c1d5c6531011b4724a5e5","null","null","<p style=""font-size: 60px; font-family: BACS"">BATOcYht</p>","","","","","","","","",""
"html-keyboard-response","215","314017","0.0-12.0-0.45","5ec6d06c67b0da0fb6f85e83","650c16f0f2faf8d7a0d14c09","651c1d5c6531011b4724a5e5","null","null","<p style=""font-size: 60px; font-family: BACS"">Ldrbvravu</p>","","","","","","","","",""
"html-keyboard-response","216","315030","0.0-12.0-0.46","5ec6d06c67b0da0fb6f85e83","650c16f0f2faf8d7a0d14c09","651c1d5c6531011b4724a5e5","null","null","<p style=""font-size: 60px; font-family: BACS"">hlkTbTE</p>","","","","","","","","",""
"html-keyboard-response","217","316042","0.0-12.0-0.47","5ec6d06c67b0da0fb6f85e83","650c16f0f2faf8d7a0d14c09","651c1d5c6531011b4724a5e5","null","null","<p style=""font-size: 60px; font-family: BACS"">OAblcrZYd</p>","","","","","","","","",""
"html-keyboard-response","218","317052","0.0-12.0-0.48","5ec6d06c67b0da0fb6f85e83","650c16f0f2faf8d7a0d14c09","651c1d5c6531011b4724a5e5","null","null","<p style=""font-size: 60px; font-family: BACS"">DhMtKOYC</p>","","","","","","","","",""
"html-keyboard-response","219","318058","0.0-12.0-0.49","5ec6d06c67b0da0fb6f85e83","650c16f0f2faf8d7a0d14c09","651c1d5c6531011b4724a5e5","null","null","<p style=""font-size: 60px; font-family: BACS"">KDPAlMck</p>","","","","","","","","",""
"html-keyboard-response","220","319071","0.0-12.0-0.50","5ec6d06c67b0da0fb6f85e83","650c16f0f2faf8d7a0d14c09","651c1d5c6531011b4724a5e5","null","null","<p style=""font-size: 60px; font-family: BACS"">AMkCbTE</p>","","","","","","","","",""
"html-keyboard-response","221","320074","0.0-12.0-0.51","5ec6d06c67b0da0fb6f85e83","650c16f0f2faf8d7a0d14c09","651c1d5c6531011b4724a5e5","null","null","<p style=""font-size: 60px; font-family: BACS"">vYLUravu</p>","","","","","","","","",""
"html-keyboard-response","222","321088","0.0-12.0-0.52","5ec6d06c67b0da0fb6f85e83","650c16f0f2faf8d7a0d14c09","651c1d5c6531011b4724a5e5","null","null","<p style=""font-size: 60px; font-family: BACS"">hlctEbTE</p>","","","","","","","","",""
"html-keyboard-response","223","322090","0.0-12.0-0.53","5ec6d06c67b0da0fb6f85e83","650c16f0f2faf8d7a0d14c09","651c1d5c6531011b4724a5e5","null","null","<p style=""font-size: 60px; font-family: BACS"">vYLUuda</p>","","","","","","","","",""
"html-keyboard-response","224","323103","0.0-12.0-0.54","5ec6d06c67b0da0fb6f85e83","650c16f0f2faf8d7a0d14c09","651c1d5c6531011b4724a5e5","null","null","<p style=""font-size: 60px; font-family: BACS"">YJkbravu</p>","","","","","","","","",""
"html-keyboard-response","225","324115","0.0-12.0-0.55","5ec6d06c67b0da0fb6f85e83","650c16f0f2faf8d7a0d14c09","651c1d5c6531011b4724a5e5","null","null","<p style=""font-size: 60px; font-family: BACS"">ACcOKOYC</p>","","","","","","","","",""
"html-keyboard-response","226","325117","0.0-12.0-0.56","5ec6d06c67b0da0fb6f85e83","650c16f0f2faf8d7a0d14c09","651c1d5c6531011b4724a5e5","null","null","<p style=""font-size: 60px; font-family: BACS"">bmbNuda</p>","","","","","","","","",""
"html-keyboard-response","227","326119","0.0-12.0-0.57","5ec6d06c67b0da0fb6f85e83","650c16f0f2faf8d7a0d14c09","651c1d5c6531011b4724a5e5","null","null","<p style=""font-size: 60px; font-family: BACS"">DhMtYht</p>","","","","","","","","",""
"html-keyboard-response","228","327131","0.0-12.0-0.58","5ec6d06c67b0da0fb6f85e83","650c16f0f2faf8d7a0d14c09","651c1d5c6531011b4724a5e5","null","null","<p style=""font-size: 60px; font-family: BACS"">bmbNravu</p>","","","","","","","","",""
"html-keyboard-response","229","328144","0.0-12.0-0.59","5ec6d06c67b0da0fb6f85e83","650c16f0f2faf8d7a0d14c09","651c1d5c6531011b4724a5e5","null","null","<p style=""font-size: 60px; font-family: BACS"">vYLUuOAO</p>","","","","","","","","",""
"html-keyboard-response","230","329159","0.0-12.0-0.60","5ec6d06c67b0da0fb6f85e83","650c16f0f2faf8d7a0d14c09","651c1d5c6531011b4724a5e5","null","null","<p style=""font-size: 60px; font-family: BACS"">OAblcuda</p>","","","","","","","","",""
"html-keyboard-response","231","330173","0.0-12.0-0.61","5ec6d06c67b0da0fb6f85e83","650c16f0f2faf8d7a0d14c09","651c1d5c6531011b4724a5e5","null","null","<p style=""font-size: 60px; font-family: BACS"">UJkGArv</p>","","","","","","","","",""
"html-keyboard-response","232","331186","0.0-12.0-0.62","5ec6d06c67b0da0fb6f85e83","650c16f0f2faf8d7a0d14c09","651c1d5c6531011b4724a5e5","null","null","<p style=""font-size: 60px; font-family: BACS"">ckdAmbTE</p>","","","","","","","","",""
"html-keyboard-response","233","332195","0.0-12.0-0.63","5ec6d06c67b0da0fb6f85e83","650c16f0f2faf8d7a0d14c09","651c1d5c6531011b4724a5e5","null","null","<p style=""font-size: 60px; font-family: BACS"">lcOcuOAO</p>","","","","","","","","",""
"html-keyboard-response","234","333208","0.0-12.0-0.64","5ec6d06c67b0da0fb6f85e83","650c16f0f2faf8d7a0d14c09","651c1d5c6531011b4724a5e5","null","null","<p style=""font-size: 60px; font-family: BACS"">vYLUrZYd</p>","","","","","","","","",""
"html-keyboard-response","235","334221","0.0-12.0-0.65","5ec6d06c67b0da0fb6f85e83","650c16f0f2faf8d7a0d14c09","651c1d5c6531011b4724a5e5","null","null","<p style=""font-size: 60px; font-family: BACS"">ckdAmKOYC</p>","","","","","","","","",""
"html-keyboard-response","236","335234","0.0-12.0-0.66","5ec6d06c67b0da0fb6f85e83","650c16f0f2faf8d7a0d14c09","651c1d5c6531011b4724a5e5","null","null","<p style=""font-size: 60px; font-family: BACS"">lcOcuda</p>","","","","","","","","",""
"html-keyboard-response","237","336237","0.0-12.0-0.67","5ec6d06c67b0da0fb6f85e83","650c16f0f2faf8d7a0d14c09","651c1d5c6531011b4724a5e5","null","null","<p style=""font-size: 60px; font-family: BACS"">AMkCYht</p>","","","","","","","","",""
"html-keyboard-response","238","337253","0.0-12.0-0.68","5ec6d06c67b0da0fb6f85e83","650c16f0f2faf8d7a0d14c09","651c1d5c6531011b4724a5e5","null","null","<p style=""font-size: 60px; font-family: BACS"">rvAJArv</p>","","","","","","","","",""
"html-keyboard-response","239","338255","0.0-12.0-0.69","5ec6d06c67b0da0fb6f85e83","650c16f0f2faf8d7a0d14c09","651c1d5c6531011b4724a5e5","null","null","<p style=""font-size: 60px; font-family: BACS"">aOLZUuOAO</p>","","","","","","","","",""
"html-keyboard-response","240","339257","0.0-12.0-0.70","5ec6d06c67b0da0fb6f85e83","650c16f0f2faf8d7a0d14c09","651c1d5c6531011b4724a5e5","null","null","<p style=""font-size: 60px; font-family: BACS"">lcOcrZYd</p>","","","","","","","","",""
"html-keyboard-response","241","340271","0.0-12.0-0.71","5ec6d06c67b0da0fb6f85e83","650c16f0f2faf8d7a0d14c09","651c1d5c6531011b4724a5e5","null","null","<p style=""font-size: 60px; font-family: BACS"">aOLZUArv</p>","","","","","","","","",""
"html-keyboard-response","242","341273","0.0-12.0-0.72","5ec6d06c67b0da0fb6f85e83","650c16f0f2faf8d7a0d14c09","651c1d5c6531011b4724a5e5","null","null","<p style=""font-size: 60px; font-family: BACS"">hlctElMck</p>","","","","","","","","",""
"html-keyboard-response","243","342287","0.0-12.0-0.73","5ec6d06c67b0da0fb6f85e83","650c16f0f2faf8d7a0d14c09","651c1d5c6531011b4724a5e5","null","null","<p style=""font-size: 60px; font-family: BACS"">kGlUArv</p>","","","","","","","","",""
"html-keyboard-response","244","343301","0.0-12.0-0.74","5ec6d06c67b0da0fb6f85e83","650c16f0f2faf8d7a0d14c09","651c1d5c6531011b4724a5e5","null","null","<p style=""font-size: 60px; font-family: BACS"">YJkbuOAO</p>","","","","","","","","",""
"html-keyboard-response","245","344313","0.0-12.0-0.75","5ec6d06c67b0da0fb6f85e83","650c16f0f2faf8d7a0d14c09","651c1d5c6531011b4724a5e5","null","null","<p style=""font-size: 60px; font-family: BACS"">hlkTBCAd</p>","","","","","","","","",""
"html-keyboard-response","246","345325","0.0-12.0-0.76","5ec6d06c67b0da0fb6f85e83","650c16f0f2faf8d7a0d14c09","651c1d5c6531011b4724a5e5","null","null","<p style=""font-size: 60px; font-family: BACS"">MlthYht</p>","","","","","","","","",""
"html-keyboard-response","247","346339","0.0-12.0-0.77","5ec6d06c67b0da0fb6f85e83","650c16f0f2faf8d7a0d14c09","651c1d5c6531011b4724a5e5","null","null","<p style=""font-size: 60px; font-family: BACS"">hlkTlMck</p>","","","","","","","","",""
"html-keyboard-response","248","347345","0.0-12.0-0.78","5ec6d06c67b0da0fb6f85e83","650c16f0f2faf8d7a0d14c09","651c1d5c6531011b4724a5e5","null","null","<p style=""font-size: 60px; font-family: BACS"">lcOcArv</p>","","","","","","","","",""
"html-keyboard-response","249","348347","0.0-12.0-0.79","5ec6d06c67b0da0fb6f85e83","650c16f0f2faf8d7a0d14c09","651c1d5c6531011b4724a5e5","null","null","<p style=""font-size: 60px; font-family: BACS"">mhtclMck</p>","","","","","","","","",""
"html-keyboard-response","250","364455","0.0-13.0","5ec6d06c67b0da0fb6f85e83","650c16f0f2faf8d7a0d14c09","651c1d5c6531011b4724a5e5","16108"," ","<p>Great, you've seen the third block of words. You may now take a short break.</p>
      <p>Press the spacebar when you're ready to continue.</p>","","","","","","","","",""
"html-keyboard-response","251","365462","0.0-14.0-0.0","5ec6d06c67b0da0fb6f85e83","650c16f0f2faf8d7a0d14c09","651c1d5c6531011b4724a5e5","null","null","<p style=""font-size: 60px; font-family: BACS"">MlthlMck</p>","","","","","","","","",""
"html-keyboard-response","252","366478","0.0-14.0-0.1","5ec6d06c67b0da0fb6f85e83","650c16f0f2faf8d7a0d14c09","651c1d5c6531011b4724a5e5","null","null","<p style=""font-size: 60px; font-family: BACS"">bmbNuOAO</p>","","","","","","","","",""
"html-keyboard-response","253","367489","0.0-14.0-0.2","5ec6d06c67b0da0fb6f85e83","650c16f0f2faf8d7a0d14c09","651c1d5c6531011b4724a5e5","null","null","<p style=""font-size: 60px; font-family: BACS"">AMkCbTE</p>","","","","","","","","",""
"html-keyboard-response","254","368503","0.0-14.0-0.3","5ec6d06c67b0da0fb6f85e83","650c16f0f2faf8d7a0d14c09","651c1d5c6531011b4724a5e5","null","null","<p style=""font-size: 60px; font-family: BACS"">hlctEYht</p>","","","","","","","","",""
"html-keyboard-response","255","369518","0.0-14.0-0.4","5ec6d06c67b0da0fb6f85e83","650c16f0f2faf8d7a0d14c09","651c1d5c6531011b4724a5e5","null","null","<p style=""font-size: 60px; font-family: BACS"">kGlUuOAO</p>","","","","","","","","",""
"html-keyboard-response","256","370534","0.0-14.0-0.5","5ec6d06c67b0da0fb6f85e83","650c16f0f2faf8d7a0d14c09","651c1d5c6531011b4724a5e5","null","null","<p style=""font-size: 60px; font-family: BACS"">mhtcBCAd</p>","","","","","","","","",""
"html-keyboard-response","257","371549","0.0-14.0-0.6","5ec6d06c67b0da0fb6f85e83","650c16f0f2faf8d7a0d14c09","651c1d5c6531011b4724a5e5","null","null","<p style=""font-size: 60px; font-family: BACS"">LdrbvrZYd</p>","","","","","","","","",""
"html-keyboard-response","258","372563","0.0-14.0-0.7","5ec6d06c67b0da0fb6f85e83","650c16f0f2faf8d7a0d14c09","651c1d5c6531011b4724a5e5","null","null","<p style=""font-size: 60px; font-family: BACS"">vYLUuda</p>","","","","","","","","",""
"html-keyboard-response","259","373574","0.0-14.0-0.8","5ec6d06c67b0da0fb6f85e83","650c16f0f2faf8d7a0d14c09","651c1d5c6531011b4724a5e5","null","null","<p style=""font-size: 60px; font-family: BACS"">ACcOlMck</p>","","","","","","","","",""
"html-keyboard-response","260","374584","0.0-14.0-0.9","5ec6d06c67b0da0fb6f85e83","650c16f0f2faf8d7a0d14c09","651c1d5c6531011b4724a5e5","null","null","<p style=""font-size: 60px; font-family: BACS"">OAblcuOAO</p>","","","","","","","","",""
"html-keyboard-response","261","375600","0.0-14.0-0.10","5ec6d06c67b0da0fb6f85e83","650c16f0f2faf8d7a0d14c09","651c1d5c6531011b4724a5e5","null","null","<p style=""font-size: 60px; font-family: BACS"">BATOclMck</p>","","","","","","","","",""
"html-keyboard-response","262","376607","0.0-14.0-0.11","5ec6d06c67b0da0fb6f85e83","650c16f0f2faf8d7a0d14c09","651c1d5c6531011b4724a5e5","null","null","<p style=""font-size: 60px; font-family: BACS"">YJkbArv</p>","","","","","","","","",""
"html-keyboard-response","263","377621","0.0-14.0-0.12","5ec6d06c67b0da0fb6f85e83","650c16f0f2faf8d7a0d14c09","651c1d5c6531011b4724a5e5","null","null","<p style=""font-size: 60px; font-family: BACS"">aOLZUravu</p>","","","","","","","","",""
"html-keyboard-response","264","378635","0.0-14.0-0.13","5ec6d06c67b0da0fb6f85e83","650c16f0f2faf8d7a0d14c09","651c1d5c6531011b4724a5e5","null","null","<p style=""font-size: 60px; font-family: BACS"">bmbNrZYd</p>","","","","","","","","",""
"html-keyboard-response","265","379651","0.0-14.0-0.14","5ec6d06c67b0da0fb6f85e83","650c16f0f2faf8d7a0d14c09","651c1d5c6531011b4724a5e5","null","null","<p style=""font-size: 60px; font-family: BACS"">YJkbravu</p>","","","","","","","","",""
"html-keyboard-response","266","380665","0.0-14.0-0.15","5ec6d06c67b0da0fb6f85e83","650c16f0f2faf8d7a0d14c09","651c1d5c6531011b4724a5e5","null","null","<p style=""font-size: 60px; font-family: BACS"">ACcOBCAd</p>","","","","","","","","",""
"html-keyboard-response","267","381671","0.0-14.0-0.16","5ec6d06c67b0da0fb6f85e83","650c16f0f2faf8d7a0d14c09","651c1d5c6531011b4724a5e5","null","null","<p style=""font-size: 60px; font-family: BACS"">kGlUrZYd</p>","","","","","","","","",""
"html-keyboard-response","268","382683","0.0-14.0-0.17","5ec6d06c67b0da0fb6f85e83","650c16f0f2faf8d7a0d14c09","651c1d5c6531011b4724a5e5","null","null","<p style=""font-size: 60px; font-family: BACS"">UJkGuOAO</p>","","","","","","","","",""
"html-keyboard-response","269","383698","0.0-14.0-0.18","5ec6d06c67b0da0fb6f85e83","650c16f0f2faf8d7a0d14c09","651c1d5c6531011b4724a5e5","null","null","<p style=""font-size: 60px; font-family: BACS"">rvAJArv</p>","","","","","","","","",""
"html-keyboard-response","270","384707","0.0-14.0-0.19","5ec6d06c67b0da0fb6f85e83","650c16f0f2faf8d7a0d14c09","651c1d5c6531011b4724a5e5","null","null","<p style=""font-size: 60px; font-family: BACS"">OAblcrZYd</p>","","","","","","","","",""
"html-keyboard-response","271","385719","0.0-14.0-0.20","5ec6d06c67b0da0fb6f85e83","650c16f0f2faf8d7a0d14c09","651c1d5c6531011b4724a5e5","null","null","<p style=""font-size: 60px; font-family: BACS"">AMkCKOYC</p>","","","","","","","","",""
"html-keyboard-response","272","386722","0.0-14.0-0.21","5ec6d06c67b0da0fb6f85e83","650c16f0f2faf8d7a0d14c09","651c1d5c6531011b4724a5e5","null","null","<p style=""font-size: 60px; font-family: BACS"">UJkGravu</p>","","","","","","","","",""
"html-keyboard-response","273","387723","0.0-14.0-0.22","5ec6d06c67b0da0fb6f85e83","650c16f0f2faf8d7a0d14c09","651c1d5c6531011b4724a5e5","null","null","<p style=""font-size: 60px; font-family: BACS"">YJkbuOAO</p>","","","","","","","","",""
"html-keyboard-response","274","388737","0.0-14.0-0.23","5ec6d06c67b0da0fb6f85e83","650c16f0f2faf8d7a0d14c09","651c1d5c6531011b4724a5e5","null","null","<p style=""font-size: 60px; font-family: BACS"">ckdAmbTE</p>","","","","","","","","",""
"html-keyboard-response","275","389739","0.0-14.0-0.24","5ec6d06c67b0da0fb6f85e83","650c16f0f2faf8d7a0d14c09","651c1d5c6531011b4724a5e5","null","null","<p style=""font-size: 60px; font-family: BACS"">OAblcuda</p>","","","","","","","","",""
"html-keyboard-response","276","390748","0.0-14.0-0.25","5ec6d06c67b0da0fb6f85e83","650c16f0f2faf8d7a0d14c09","651c1d5c6531011b4724a5e5","null","null","<p style=""font-size: 60px; font-family: BACS"">DhMtbTE</p>","","","","","","","","",""
"html-keyboard-response","277","391749","0.0-14.0-0.26","5ec6d06c67b0da0fb6f85e83","650c16f0f2faf8d7a0d14c09","651c1d5c6531011b4724a5e5","null","null","<p style=""font-size: 60px; font-family: BACS"">AMkCYht</p>","","","","","","","","",""
"html-keyboard-response","278","392750","0.0-14.0-0.27","5ec6d06c67b0da0fb6f85e83","650c16f0f2faf8d7a0d14c09","651c1d5c6531011b4724a5e5","null","null","<p style=""font-size: 60px; font-family: BACS"">lcOcuda</p>","","","","","","","","",""
"html-keyboard-response","279","393765","0.0-14.0-0.28","5ec6d06c67b0da0fb6f85e83","650c16f0f2faf8d7a0d14c09","651c1d5c6531011b4724a5e5","null","null","<p style=""font-size: 60px; font-family: BACS"">hlctEbTE</p>","","","","","","","","",""
"html-keyboard-response","280","394780","0.0-14.0-0.29","5ec6d06c67b0da0fb6f85e83","650c16f0f2faf8d7a0d14c09","651c1d5c6531011b4724a5e5","null","null","<p style=""font-size: 60px; font-family: BACS"">aOLZUuda</p>","","","","","","","","",""
"html-keyboard-response","281","395792","0.0-14.0-0.30","5ec6d06c67b0da0fb6f85e83","650c16f0f2faf8d7a0d14c09","651c1d5c6531011b4724a5e5","null","null","<p style=""font-size: 60px; font-family: BACS"">DhMtlMck</p>","","","","","","","","",""
"html-keyboard-response","282","396805","0.0-14.0-0.31","5ec6d06c67b0da0fb6f85e83","650c16f0f2faf8d7a0d14c09","651c1d5c6531011b4724a5e5","null","null","<p style=""font-size: 60px; font-family: BACS"">lcOcArv</p>","","","","","","","","",""
"html-keyboard-response","283","397808","0.0-14.0-0.32","5ec6d06c67b0da0fb6f85e83","650c16f0f2faf8d7a0d14c09","651c1d5c6531011b4724a5e5","null","null","<p style=""font-size: 60px; font-family: BACS"">ACcObTE</p>","","","","","","","","",""
"html-keyboard-response","284","398822","0.0-14.0-0.33","5ec6d06c67b0da0fb6f85e83","650c16f0f2faf8d7a0d14c09","651c1d5c6531011b4724a5e5","null","null","<p style=""font-size: 60px; font-family: BACS"">ckdAmBCAd</p>","","","","","","","","",""
"html-keyboard-response","285","399837","0.0-14.0-0.34","5ec6d06c67b0da0fb6f85e83","650c16f0f2faf8d7a0d14c09","651c1d5c6531011b4724a5e5","null","null","<p style=""font-size: 60px; font-family: BACS"">aOLZUuOAO</p>","","","","","","","","",""
"html-keyboard-response","286","400840","0.0-14.0-0.35","5ec6d06c67b0da0fb6f85e83","650c16f0f2faf8d7a0d14c09","651c1d5c6531011b4724a5e5","null","null","<p style=""font-size: 60px; font-family: BACS"">YJkbuda</p>","","","","","","","","",""
"html-keyboard-response","287","401842","0.0-14.0-0.36","5ec6d06c67b0da0fb6f85e83","650c16f0f2faf8d7a0d14c09","651c1d5c6531011b4724a5e5","null","null","<p style=""font-size: 60px; font-family: BACS"">mhtclMck</p>","","","","","","","","",""
"html-keyboard-response","288","402855","0.0-14.0-0.37","5ec6d06c67b0da0fb6f85e83","650c16f0f2faf8d7a0d14c09","651c1d5c6531011b4724a5e5","null","null","<p style=""font-size: 60px; font-family: BACS"">rvAJrZYd</p>","","","","","","","","",""
"html-keyboard-response","289","403867","0.0-14.0-0.38","5ec6d06c67b0da0fb6f85e83","650c16f0f2faf8d7a0d14c09","651c1d5c6531011b4724a5e5","null","null","<p style=""font-size: 60px; font-family: BACS"">KDPAlMck</p>","","","","","","","","",""
"html-keyboard-response","290","404877","0.0-14.0-0.39","5ec6d06c67b0da0fb6f85e83","650c16f0f2faf8d7a0d14c09","651c1d5c6531011b4724a5e5","null","null","<p style=""font-size: 60px; font-family: BACS"">ckdAmKOYC</p>","","","","","","","","",""
"html-keyboard-response","291","405893","0.0-14.0-0.40","5ec6d06c67b0da0fb6f85e83","650c16f0f2faf8d7a0d14c09","651c1d5c6531011b4724a5e5","null","null","<p style=""font-size: 60px; font-family: BACS"">hlctEBCAd</p>","","","","","","","","",""
"html-keyboard-response","292","406897","0.0-14.0-0.41","5ec6d06c67b0da0fb6f85e83","650c16f0f2faf8d7a0d14c09","651c1d5c6531011b4724a5e5","null","null","<p style=""font-size: 60px; font-family: BACS"">kGlUravu</p>","","","","","","","","",""
"html-keyboard-response","293","407899","0.0-14.0-0.42","5ec6d06c67b0da0fb6f85e83","650c16f0f2faf8d7a0d14c09","651c1d5c6531011b4724a5e5","null","null","<p style=""font-size: 60px; font-family: BACS"">vYLUrZYd</p>","","","","","","","","",""
"html-keyboard-response","294","408911","0.0-14.0-0.43","5ec6d06c67b0da0fb6f85e83","650c16f0f2faf8d7a0d14c09","651c1d5c6531011b4724a5e5","null","null","<p style=""font-size: 60px; font-family: BACS"">BATOcYht</p>","","","","","","","","",""
"html-keyboard-response","295","409924","0.0-14.0-0.44","5ec6d06c67b0da0fb6f85e83","650c16f0f2faf8d7a0d14c09","651c1d5c6531011b4724a5e5","null","null","<p style=""font-size: 60px; font-family: BACS"">ACcOKOYC</p>","","","","","","","","",""
"html-keyboard-response","296","410937","0.0-14.0-0.45","5ec6d06c67b0da0fb6f85e83","650c16f0f2faf8d7a0d14c09","651c1d5c6531011b4724a5e5","null","null","<p style=""font-size: 60px; font-family: BACS"">bmbNuda</p>","","","","","","","","",""
"html-keyboard-response","297","411950","0.0-14.0-0.46","5ec6d06c67b0da0fb6f85e83","650c16f0f2faf8d7a0d14c09","651c1d5c6531011b4724a5e5","null","null","<p style=""font-size: 60px; font-family: BACS"">lcOcrZYd</p>","","","","","","","","",""
"html-keyboard-response","298","412963","0.0-14.0-0.47","5ec6d06c67b0da0fb6f85e83","650c16f0f2faf8d7a0d14c09","651c1d5c6531011b4724a5e5","null","null","<p style=""font-size: 60px; font-family: BACS"">vYLUuOAO</p>","","","","","","","","",""
"html-keyboard-response","299","413973","0.0-14.0-0.48","5ec6d06c67b0da0fb6f85e83","650c16f0f2faf8d7a0d14c09","651c1d5c6531011b4724a5e5","null","null","<p style=""font-size: 60px; font-family: BACS"">UJkGArv</p>","","","","","","","","",""
"html-keyboard-response","300","414985","0.0-14.0-0.49","5ec6d06c67b0da0fb6f85e83","650c16f0f2faf8d7a0d14c09","651c1d5c6531011b4724a5e5","null","null","<p style=""font-size: 60px; font-family: BACS"">vYLUravu</p>","","","","","","","","",""
"html-keyboard-response","301","415994","0.0-14.0-0.50","5ec6d06c67b0da0fb6f85e83","650c16f0f2faf8d7a0d14c09","651c1d5c6531011b4724a5e5","null","null","<p style=""font-size: 60px; font-family: BACS"">MlthKOYC</p>","","","","","","","","",""
"html-keyboard-response","302","417005","0.0-14.0-0.51","5ec6d06c67b0da0fb6f85e83","650c16f0f2faf8d7a0d14c09","651c1d5c6531011b4724a5e5","null","null","<p style=""font-size: 60px; font-family: BACS"">hlkTBCAd</p>","","","","","","","","",""
"html-keyboard-response","303","418016","0.0-14.0-0.52","5ec6d06c67b0da0fb6f85e83","650c16f0f2faf8d7a0d14c09","651c1d5c6531011b4724a5e5","null","null","<p style=""font-size: 60px; font-family: BACS"">lcOcuOAO</p>","","","","","","","","",""
"html-keyboard-response","304","419030","0.0-14.0-0.53","5ec6d06c67b0da0fb6f85e83","650c16f0f2faf8d7a0d14c09","651c1d5c6531011b4724a5e5","null","null","<p style=""font-size: 60px; font-family: BACS"">Ldrbvuda</p>","","","","","","","","",""
"html-keyboard-response","305","420032","0.0-14.0-0.54","5ec6d06c67b0da0fb6f85e83","650c16f0f2faf8d7a0d14c09","651c1d5c6531011b4724a5e5","null","null","<p style=""font-size: 60px; font-family: BACS"">mhtcYht</p>","","","","","","","","",""
"html-keyboard-response","306","421044","0.0-14.0-0.55","5ec6d06c67b0da0fb6f85e83","650c16f0f2faf8d7a0d14c09","651c1d5c6531011b4724a5e5","null","null","<p style=""font-size: 60px; font-family: BACS"">hlkTbTE</p>","","","","","","","","",""
"html-keyboard-response","307","422060","0.0-14.0-0.56","5ec6d06c67b0da0fb6f85e83","650c16f0f2faf8d7a0d14c09","651c1d5c6531011b4724a5e5","null","null","<p style=""font-size: 60px; font-family: BACS"">AMkCBCAd</p>","","","","","","","","",""
"html-keyboard-response","308","423075","0.0-14.0-0.57","5ec6d06c67b0da0fb6f85e83","650c16f0f2faf8d7a0d14c09","651c1d5c6531011b4724a5e5","null","null","<p style=""font-size: 60px; font-family: BACS"">hlkTKOYC</p>","","","","","","","","",""
"html-keyboard-response","309","424087","0.0-14.0-0.58","5ec6d06c67b0da0fb6f85e83","650c16f0f2faf8d7a0d14c09","651c1d5c6531011b4724a5e5","null","null","<p style=""font-size: 60px; font-family: BACS"">mhtcbTE</p>","","","","","","","","",""
"html-keyboard-response","310","425099","0.0-14.0-0.59","5ec6d06c67b0da0fb6f85e83","650c16f0f2faf8d7a0d14c09","651c1d5c6531011b4724a5e5","null","null","<p style=""font-size: 60px; font-family: BACS"">LdrbvArv</p>","","","","","","","","",""
"html-keyboard-response","311","426114","0.0-14.0-0.60","5ec6d06c67b0da0fb6f85e83","650c16f0f2faf8d7a0d14c09","651c1d5c6531011b4724a5e5","null","null","<p style=""font-size: 60px; font-family: BACS"">BATOcKOYC</p>","","","","","","","","",""
"html-keyboard-response","312","427129","0.0-14.0-0.61","5ec6d06c67b0da0fb6f85e83","650c16f0f2faf8d7a0d14c09","651c1d5c6531011b4724a5e5","null","null","<p style=""font-size: 60px; font-family: BACS"">OAblcArv</p>","","","","","","","","",""
"html-keyboard-response","313","428142","0.0-14.0-0.62","5ec6d06c67b0da0fb6f85e83","650c16f0f2faf8d7a0d14c09","651c1d5c6531011b4724a5e5","null","null","<p style=""font-size: 60px; font-family: BACS"">MlthYht</p>","","","","","","","","",""
"html-keyboard-response","314","429156","0.0-14.0-0.63","5ec6d06c67b0da0fb6f85e83","650c16f0f2faf8d7a0d14c09","651c1d5c6531011b4724a5e5","null","null","<p style=""font-size: 60px; font-family: BACS"">rvAJuda</p>","","","","","","","","",""
"html-keyboard-response","315","430157","0.0-14.0-0.64","5ec6d06c67b0da0fb6f85e83","650c16f0f2faf8d7a0d14c09","651c1d5c6531011b4724a5e5","null","null","<p style=""font-size: 60px; font-family: BACS"">aOLZUArv</p>","","","","","","","","",""
"html-keyboard-response","316","431169","0.0-14.0-0.65","5ec6d06c67b0da0fb6f85e83","650c16f0f2faf8d7a0d14c09","651c1d5c6531011b4724a5e5","null","null","<p style=""font-size: 60px; font-family: BACS"">UJkGrZYd</p>","","","","","","","","",""
"html-keyboard-response","317","432184","0.0-14.0-0.66","5ec6d06c67b0da0fb6f85e83","650c16f0f2faf8d7a0d14c09","651c1d5c6531011b4724a5e5","null","null","<p style=""font-size: 60px; font-family: BACS"">KDPABCAd</p>","","","","","","","","",""
"html-keyboard-response","318","433198","0.0-14.0-0.67","5ec6d06c67b0da0fb6f85e83","650c16f0f2faf8d7a0d14c09","651c1d5c6531011b4724a5e5","null","null","<p style=""font-size: 60px; font-family: BACS"">hlkTlMck</p>","","","","","","","","",""
"html-keyboard-response","319","434214","0.0-14.0-0.68","5ec6d06c67b0da0fb6f85e83","650c16f0f2faf8d7a0d14c09","651c1d5c6531011b4724a5e5","null","null","<p style=""font-size: 60px; font-family: BACS"">Ldrbvravu</p>","","","","","","","","",""
"html-keyboard-response","320","435227","0.0-14.0-0.69","5ec6d06c67b0da0fb6f85e83","650c16f0f2faf8d7a0d14c09","651c1d5c6531011b4724a5e5","null","null","<p style=""font-size: 60px; font-family: BACS"">DhMtYht</p>","","","","","","","","",""
"html-keyboard-response","321","436229","0.0-14.0-0.70","5ec6d06c67b0da0fb6f85e83","650c16f0f2faf8d7a0d14c09","651c1d5c6531011b4724a5e5","null","null","<p style=""font-size: 60px; font-family: BACS"">MlthBCAd</p>","","","","","","","","",""
"html-keyboard-response","322","437242","0.0-14.0-0.71","5ec6d06c67b0da0fb6f85e83","650c16f0f2faf8d7a0d14c09","651c1d5c6531011b4724a5e5","null","null","<p style=""font-size: 60px; font-family: BACS"">DhMtKOYC</p>","","","","","","","","",""
"html-keyboard-response","323","438244","0.0-14.0-0.72","5ec6d06c67b0da0fb6f85e83","650c16f0f2faf8d7a0d14c09","651c1d5c6531011b4724a5e5","null","null","<p style=""font-size: 60px; font-family: BACS"">rvAJravu</p>","","","","","","","","",""
"html-keyboard-response","324","439255","0.0-14.0-0.73","5ec6d06c67b0da0fb6f85e83","650c16f0f2faf8d7a0d14c09","651c1d5c6531011b4724a5e5","null","null","<p style=""font-size: 60px; font-family: BACS"">ckdAmYht</p>","","","","","","","","",""
"html-keyboard-response","325","440270","0.0-14.0-0.74","5ec6d06c67b0da0fb6f85e83","650c16f0f2faf8d7a0d14c09","651c1d5c6531011b4724a5e5","null","null","<p style=""font-size: 60px; font-family: BACS"">kGlUArv</p>","","","","","","","","",""
"html-keyboard-response","326","441284","0.0-14.0-0.75","5ec6d06c67b0da0fb6f85e83","650c16f0f2faf8d7a0d14c09","651c1d5c6531011b4724a5e5","null","null","<p style=""font-size: 60px; font-family: BACS"">BATOcbTE</p>","","","","","","","","",""
"html-keyboard-response","327","442298","0.0-14.0-0.76","5ec6d06c67b0da0fb6f85e83","650c16f0f2faf8d7a0d14c09","651c1d5c6531011b4724a5e5","null","null","<p style=""font-size: 60px; font-family: BACS"">KDPAYht</p>","","","","","","","","",""
"html-keyboard-response","328","443310","0.0-14.0-0.77","5ec6d06c67b0da0fb6f85e83","650c16f0f2faf8d7a0d14c09","651c1d5c6531011b4724a5e5","null","null","<p style=""font-size: 60px; font-family: BACS"">hlctElMck</p>","","","","","","","","",""
"html-keyboard-response","329","444322","0.0-14.0-0.78","5ec6d06c67b0da0fb6f85e83","650c16f0f2faf8d7a0d14c09","651c1d5c6531011b4724a5e5","null","null","<p style=""font-size: 60px; font-family: BACS"">KDPAKOYC</p>","","","","","","","","",""
"html-keyboard-response","330","445336","0.0-14.0-0.79","5ec6d06c67b0da0fb6f85e83","650c16f0f2faf8d7a0d14c09","651c1d5c6531011b4724a5e5","null","null","<p style=""font-size: 60px; font-family: BACS"">bmbNravu</p>","","","","","","","","",""
"html-keyboard-response","331","448816","0.0-15.0","5ec6d06c67b0da0fb6f85e83","650c16f0f2faf8d7a0d14c09","651c1d5c6531011b4724a5e5","3480"," ","<p>Great, you've seen the fourth block of words. You may now take a short break.</p>
      <p>Press the spacebar when you're ready to continue.</p>","","","","","","","","",""
"html-keyboard-response","332","449831","0.0-16.0-0.0","5ec6d06c67b0da0fb6f85e83","650c16f0f2faf8d7a0d14c09","651c1d5c6531011b4724a5e5","null","null","<p style=""font-size: 60px; font-family: BACS"">OAblcuOAO</p>","","","","","","","","",""
"html-keyboard-response","333","450841","0.0-16.0-0.1","5ec6d06c67b0da0fb6f85e83","650c16f0f2faf8d7a0d14c09","651c1d5c6531011b4724a5e5","null","null","<p style=""font-size: 60px; font-family: BACS"">OAblcuOAO</p>","","","","","","","","",""
"html-keyboard-response","334","451852","0.0-16.0-0.2","5ec6d06c67b0da0fb6f85e83","650c16f0f2faf8d7a0d14c09","651c1d5c6531011b4724a5e5","null","null","<p style=""font-size: 60px; font-family: BACS"">OAblcuOAO</p>","","","","","","","","",""
"html-keyboard-response","335","452856","0.0-16.0-0.3","5ec6d06c67b0da0fb6f85e83","650c16f0f2faf8d7a0d14c09","651c1d5c6531011b4724a5e5","null","null","<p style=""font-size: 60px; font-family: BACS"">OAblcuOAO</p>","","","","","","","","",""
"html-keyboard-response","336","453872","0.0-16.0-0.4","5ec6d06c67b0da0fb6f85e83","650c16f0f2faf8d7a0d14c09","651c1d5c6531011b4724a5e5","null","null","<p style=""font-size: 60px; font-family: BACS"">OAblcuOAO</p>","","","","","","","","",""
"html-keyboard-response","337","454888","0.0-16.0-0.5","5ec6d06c67b0da0fb6f85e83","650c16f0f2faf8d7a0d14c09","651c1d5c6531011b4724a5e5","null","null","<p style=""font-size: 60px; font-family: BACS"">OAblcuOAO</p>","","","","","","","","",""
"html-keyboard-response","338","455890","0.0-16.0-0.6","5ec6d06c67b0da0fb6f85e83","650c16f0f2faf8d7a0d14c09","651c1d5c6531011b4724a5e5","null","null","<p style=""font-size: 60px; font-family: BACS"">OAblcuOAO</p>","","","","","","","","",""
"html-keyboard-response","339","456901","0.0-16.0-0.7","5ec6d06c67b0da0fb6f85e83","650c16f0f2faf8d7a0d14c09","651c1d5c6531011b4724a5e5","null","null","<p style=""font-size: 60px; font-family: BACS"">OAblcuOAO</p>","","","","","","","","",""
"html-keyboard-response","340","457902","0.0-16.0-0.8","5ec6d06c67b0da0fb6f85e83","650c16f0f2faf8d7a0d14c09","651c1d5c6531011b4724a5e5","null","null","<p style=""font-size: 60px; font-family: BACS"">OAblcuOAO</p>","","","","","","","","",""
"html-keyboard-response","341","458904","0.0-16.0-0.9","5ec6d06c67b0da0fb6f85e83","650c16f0f2faf8d7a0d14c09","651c1d5c6531011b4724a5e5","null","null","<p style=""font-size: 60px; font-family: BACS"">OAblcuOAO</p>","","","","","","","","",""
"html-keyboard-response","342","459914","0.0-16.0-0.10","5ec6d06c67b0da0fb6f85e83","650c16f0f2faf8d7a0d14c09","651c1d5c6531011b4724a5e5","null","null","<p style=""font-size: 60px; font-family: BACS"">OAblcuOAO</p>","","","","","","","","",""
"html-keyboard-response","343","460924","0.0-16.0-0.11","5ec6d06c67b0da0fb6f85e83","650c16f0f2faf8d7a0d14c09","651c1d5c6531011b4724a5e5","null","null","<p style=""font-size: 60px; font-family: BACS"">OAblcuOAO</p>","","","","","","","","",""
"html-keyboard-response","344","461925","0.0-16.0-0.12","5ec6d06c67b0da0fb6f85e83","650c16f0f2faf8d7a0d14c09","651c1d5c6531011b4724a5e5","null","null","<p style=""font-size: 60px; font-family: BACS"">OAblcuOAO</p>","","","","","","","","",""
"html-keyboard-response","345","462937","0.0-16.0-0.13","5ec6d06c67b0da0fb6f85e83","650c16f0f2faf8d7a0d14c09","651c1d5c6531011b4724a5e5","null","null","<p style=""font-size: 60px; font-family: BACS"">OAblcuOAO</p>","","","","","","","","",""
"html-keyboard-response","346","463951","0.0-16.0-0.14","5ec6d06c67b0da0fb6f85e83","650c16f0f2faf8d7a0d14c09","651c1d5c6531011b4724a5e5","null","null","<p style=""font-size: 60px; font-family: BACS"">OAblcuOAO</p>","","","","","","","","",""
"html-keyboard-response","347","464962","0.0-16.0-0.15","5ec6d06c67b0da0fb6f85e83","650c16f0f2faf8d7a0d14c09","651c1d5c6531011b4724a5e5","null","null","<p style=""font-size: 60px; font-family: BACS"">OAblcuOAO</p>","","","","","","","","",""
"html-keyboard-response","348","465967","0.0-16.0-0.16","5ec6d06c67b0da0fb6f85e83","650c16f0f2faf8d7a0d14c09","651c1d5c6531011b4724a5e5","null","null","<p style=""font-size: 60px; font-family: BACS"">OAblcuOAO</p>","","","","","","","","",""
"html-keyboard-response","349","466977","0.0-16.0-0.17","5ec6d06c67b0da0fb6f85e83","650c16f0f2faf8d7a0d14c09","651c1d5c6531011b4724a5e5","null","null","<p style=""font-size: 60px; font-family: BACS"">OAblcuOAO</p>","","","","","","","","",""
"html-keyboard-response","350","467990","0.0-16.0-0.18","5ec6d06c67b0da0fb6f85e83","650c16f0f2faf8d7a0d14c09","651c1d5c6531011b4724a5e5","null","null","<p style=""font-size: 60px; font-family: BACS"">OAblcuOAO</p>","","","","","","","","",""
"html-keyboard-response","351","468998","0.0-16.0-0.19","5ec6d06c67b0da0fb6f85e83","650c16f0f2faf8d7a0d14c09","651c1d5c6531011b4724a5e5","null","null","<p style=""font-size: 60px; font-family: BACS"">OAblcuOAO</p>","","","","","","","","",""
"html-keyboard-response","352","470000","0.0-16.0-0.20","5ec6d06c67b0da0fb6f85e83","650c16f0f2faf8d7a0d14c09","651c1d5c6531011b4724a5e5","null","null","<p style=""font-size: 60px; font-family: BACS"">OAblcuOAO</p>","","","","","","","","",""
"html-keyboard-response","353","471015","0.0-16.0-0.21","5ec6d06c67b0da0fb6f85e83","650c16f0f2faf8d7a0d14c09","651c1d5c6531011b4724a5e5","null","null","<p style=""font-size: 60px; font-family: BACS"">OAblcuOAO</p>","","","","","","","","",""
"html-keyboard-response","354","472030","0.0-16.0-0.22","5ec6d06c67b0da0fb6f85e83","650c16f0f2faf8d7a0d14c09","651c1d5c6531011b4724a5e5","null","null","<p style=""font-size: 60px; font-family: BACS"">OAblcuOAO</p>","","","","","","","","",""
"html-keyboard-response","355","473034","0.0-16.0-0.23","5ec6d06c67b0da0fb6f85e83","650c16f0f2faf8d7a0d14c09","651c1d5c6531011b4724a5e5","null","null","<p style=""font-size: 60px; font-family: BACS"">OAblcuOAO</p>","","","","","","","","",""
"html-keyboard-response","356","474049","0.0-16.0-0.24","5ec6d06c67b0da0fb6f85e83","650c16f0f2faf8d7a0d14c09","651c1d5c6531011b4724a5e5","null","null","<p style=""font-size: 60px; font-family: BACS"">OAblcuOAO</p>","","","","","","","","",""
"html-keyboard-response","357","475051","0.0-16.0-0.25","5ec6d06c67b0da0fb6f85e83","650c16f0f2faf8d7a0d14c09","651c1d5c6531011b4724a5e5","null","null","<p style=""font-size: 60px; font-family: BACS"">OAblcuOAO</p>","","","","","","","","",""
"html-keyboard-response","358","476064","0.0-16.0-0.26","5ec6d06c67b0da0fb6f85e83","650c16f0f2faf8d7a0d14c09","651c1d5c6531011b4724a5e5","null","null","<p style=""font-size: 60px; font-family: BACS"">OAblcuOAO</p>","","","","","","","","",""
"html-keyboard-response","359","477065","0.0-16.0-0.27","5ec6d06c67b0da0fb6f85e83","650c16f0f2faf8d7a0d14c09","651c1d5c6531011b4724a5e5","null","null","<p style=""font-size: 60px; font-family: BACS"">OAblcuOAO</p>","","","","","","","","",""
"html-keyboard-response","360","478075","0.0-16.0-0.28","5ec6d06c67b0da0fb6f85e83","650c16f0f2faf8d7a0d14c09","651c1d5c6531011b4724a5e5","null","null","<p style=""font-size: 60px; font-family: BACS"">OAblcuOAO</p>","","","","","","","","",""
"html-keyboard-response","361","479088","0.0-16.0-0.29","5ec6d06c67b0da0fb6f85e83","650c16f0f2faf8d7a0d14c09","651c1d5c6531011b4724a5e5","null","null","<p style=""font-size: 60px; font-family: BACS"">OAblcuOAO</p>","","","","","","","","",""
"html-keyboard-response","362","480104","0.0-16.0-0.30","5ec6d06c67b0da0fb6f85e83","650c16f0f2faf8d7a0d14c09","651c1d5c6531011b4724a5e5","null","null","<p style=""font-size: 60px; font-family: BACS"">OAblcuOAO</p>","","","","","","","","",""
"html-keyboard-response","363","481119","0.0-16.0-0.31","5ec6d06c67b0da0fb6f85e83","650c16f0f2faf8d7a0d14c09","651c1d5c6531011b4724a5e5","null","null","<p style=""font-size: 60px; font-family: BACS"">OAblcuOAO</p>","","","","","","","","",""
"html-keyboard-response","364","482135","0.0-16.0-0.32","5ec6d06c67b0da0fb6f85e83","650c16f0f2faf8d7a0d14c09","651c1d5c6531011b4724a5e5","null","null","<p style=""font-size: 60px; font-family: BACS"">OAblcuOAO</p>","","","","","","","","",""
"html-keyboard-response","365","483147","0.0-16.0-0.33","5ec6d06c67b0da0fb6f85e83","650c16f0f2faf8d7a0d14c09","651c1d5c6531011b4724a5e5","null","null","<p style=""font-size: 60px; font-family: BACS"">OAblcuOAO</p>","","","","","","","","",""
"html-keyboard-response","366","484151","0.0-16.0-0.34","5ec6d06c67b0da0fb6f85e83","650c16f0f2faf8d7a0d14c09","651c1d5c6531011b4724a5e5","null","null","<p style=""font-size: 60px; font-family: BACS"">OAblcuOAO</p>","","","","","","","","",""
"html-keyboard-response","367","485166","0.0-16.0-0.35","5ec6d06c67b0da0fb6f85e83","650c16f0f2faf8d7a0d14c09","651c1d5c6531011b4724a5e5","null","null","<p style=""font-size: 60px; font-family: BACS"">OAblcuOAO</p>","","","","","","","","",""
"html-keyboard-response","368","486181","0.0-16.0-0.36","5ec6d06c67b0da0fb6f85e83","650c16f0f2faf8d7a0d14c09","651c1d5c6531011b4724a5e5","null","null","<p style=""font-size: 60px; font-family: BACS"">OAblcuOAO</p>","","","","","","","","",""
"html-keyboard-response","369","487183","0.0-16.0-0.37","5ec6d06c67b0da0fb6f85e83","650c16f0f2faf8d7a0d14c09","651c1d5c6531011b4724a5e5","null","null","<p style=""font-size: 60px; font-family: BACS"">OAblcuOAO</p>","","","","","","","","",""
"html-keyboard-response","370","488197","0.0-16.0-0.38","5ec6d06c67b0da0fb6f85e83","650c16f0f2faf8d7a0d14c09","651c1d5c6531011b4724a5e5","null","null","<p style=""font-size: 60px; font-family: BACS"">OAblcuOAO</p>","","","","","","","","",""
"html-keyboard-response","371","489208","0.0-16.0-0.39","5ec6d06c67b0da0fb6f85e83","650c16f0f2faf8d7a0d14c09","651c1d5c6531011b4724a5e5","null","null","<p style=""font-size: 60px; font-family: BACS"">OAblcuOAO</p>","","","","","","","","",""
"html-keyboard-response","372","490216","0.0-16.0-0.40","5ec6d06c67b0da0fb6f85e83","650c16f0f2faf8d7a0d14c09","651c1d5c6531011b4724a5e5","null","null","<p style=""font-size: 60px; font-family: BACS"">OAblcuOAO</p>","","","","","","","","",""
"html-keyboard-response","373","491218","0.0-16.0-0.41","5ec6d06c67b0da0fb6f85e83","650c16f0f2faf8d7a0d14c09","651c1d5c6531011b4724a5e5","null","null","<p style=""font-size: 60px; font-family: BACS"">OAblcuOAO</p>","","","","","","","","",""
"html-keyboard-response","374","492232","0.0-16.0-0.42","5ec6d06c67b0da0fb6f85e83","650c16f0f2faf8d7a0d14c09","651c1d5c6531011b4724a5e5","null","null","<p style=""font-size: 60px; font-family: BACS"">OAblcuOAO</p>","","","","","","","","",""
"html-keyboard-response","375","493245","0.0-16.0-0.43","5ec6d06c67b0da0fb6f85e83","650c16f0f2faf8d7a0d14c09","651c1d5c6531011b4724a5e5","null","null","<p style=""font-size: 60px; font-family: BACS"">OAblcuOAO</p>","","","","","","","","",""
"html-keyboard-response","376","494246","0.0-16.0-0.44","5ec6d06c67b0da0fb6f85e83","650c16f0f2faf8d7a0d14c09","651c1d5c6531011b4724a5e5","null","null","<p style=""font-size: 60px; font-family: BACS"">OAblcuOAO</p>","","","","","","","","",""
"html-keyboard-response","377","495257","0.0-16.0-0.45","5ec6d06c67b0da0fb6f85e83","650c16f0f2faf8d7a0d14c09","651c1d5c6531011b4724a5e5","null","null","<p style=""font-size: 60px; font-family: BACS"">OAblcuOAO</p>","","","","","","","","",""
"html-keyboard-response","378","496272","0.0-16.0-0.46","5ec6d06c67b0da0fb6f85e83","650c16f0f2faf8d7a0d14c09","651c1d5c6531011b4724a5e5","null","null","<p style=""font-size: 60px; font-family: BACS"">OAblcuOAO</p>","","","","","","","","",""
"html-keyboard-response","379","497285","0.0-16.0-0.47","5ec6d06c67b0da0fb6f85e83","650c16f0f2faf8d7a0d14c09","651c1d5c6531011b4724a5e5","null","null","<p style=""font-size: 60px; font-family: BACS"">OAblcuOAO</p>","","","","","","","","",""
"html-keyboard-response","380","498299","0.0-16.0-0.48","5ec6d06c67b0da0fb6f85e83","650c16f0f2faf8d7a0d14c09","651c1d5c6531011b4724a5e5","null","null","<p style=""font-size: 60px; font-family: BACS"">OAblcuOAO</p>","","","","","","","","",""
"html-keyboard-response","381","499315","0.0-16.0-0.49","5ec6d06c67b0da0fb6f85e83","650c16f0f2faf8d7a0d14c09","651c1d5c6531011b4724a5e5","null","null","<p style=""font-size: 60px; font-family: BACS"">OAblcuOAO</p>","","","","","","","","",""
"html-keyboard-response","382","500330","0.0-16.0-0.50","5ec6d06c67b0da0fb6f85e83","650c16f0f2faf8d7a0d14c09","651c1d5c6531011b4724a5e5","null","null","<p style=""font-size: 60px; font-family: BACS"">OAblcuOAO</p>","","","","","","","","",""
"html-keyboard-response","383","501342","0.0-16.0-0.51","5ec6d06c67b0da0fb6f85e83","650c16f0f2faf8d7a0d14c09","651c1d5c6531011b4724a5e5","null","null","<p style=""font-size: 60px; font-family: BACS"">OAblcuOAO</p>","","","","","","","","",""
"html-keyboard-response","384","502347","0.0-16.0-0.52","5ec6d06c67b0da0fb6f85e83","650c16f0f2faf8d7a0d14c09","651c1d5c6531011b4724a5e5","null","null","<p style=""font-size: 60px; font-family: BACS"">OAblcuOAO</p>","","","","","","","","",""
"html-keyboard-response","385","503352","0.0-16.0-0.53","5ec6d06c67b0da0fb6f85e83","650c16f0f2faf8d7a0d14c09","651c1d5c6531011b4724a5e5","null","null","<p style=""font-size: 60px; font-family: BACS"">OAblcuOAO</p>","","","","","","","","",""
"html-keyboard-response","386","504365","0.0-16.0-0.54","5ec6d06c67b0da0fb6f85e83","650c16f0f2faf8d7a0d14c09","651c1d5c6531011b4724a5e5","null","null","<p style=""font-size: 60px; font-family: BACS"">OAblcuOAO</p>","","","","","","","","",""
"html-keyboard-response","387","505377","0.0-16.0-0.55","5ec6d06c67b0da0fb6f85e83","650c16f0f2faf8d7a0d14c09","651c1d5c6531011b4724a5e5","null","null","<p style=""font-size: 60px; font-family: BACS"">OAblcuOAO</p>","","","","","","","","",""
"html-keyboard-response","388","506392","0.0-16.0-0.56","5ec6d06c67b0da0fb6f85e83","650c16f0f2faf8d7a0d14c09","651c1d5c6531011b4724a5e5","null","null","<p style=""font-size: 60px; font-family: BACS"">OAblcuOAO</p>","","","","","","","","",""
"html-keyboard-response","389","507393","0.0-16.0-0.57","5ec6d06c67b0da0fb6f85e83","650c16f0f2faf8d7a0d14c09","651c1d5c6531011b4724a5e5","null","null","<p style=""font-size: 60px; font-family: BACS"">OAblcuOAO</p>","","","","","","","","",""
"html-keyboard-response","390","508398","0.0-16.0-0.58","5ec6d06c67b0da0fb6f85e83","650c16f0f2faf8d7a0d14c09","651c1d5c6531011b4724a5e5","null","null","<p style=""font-size: 60px; font-family: BACS"">OAblcuOAO</p>","","","","","","","","",""
"html-keyboard-response","391","509413","0.0-16.0-0.59","5ec6d06c67b0da0fb6f85e83","650c16f0f2faf8d7a0d14c09","651c1d5c6531011b4724a5e5","null","null","<p style=""font-size: 60px; font-family: BACS"">OAblcuOAO</p>","","","","","","","","",""
"html-keyboard-response","392","510415","0.0-16.0-0.60","5ec6d06c67b0da0fb6f85e83","650c16f0f2faf8d7a0d14c09","651c1d5c6531011b4724a5e5","null","null","<p style=""font-size: 60px; font-family: BACS"">OAblcuOAO</p>","","","","","","","","",""
"html-keyboard-response","393","511418","0.0-16.0-0.61","5ec6d06c67b0da0fb6f85e83","650c16f0f2faf8d7a0d14c09","651c1d5c6531011b4724a5e5","null","null","<p style=""font-size: 60px; font-family: BACS"">OAblcuOAO</p>","","","","","","","","",""
"html-keyboard-response","394","512432","0.0-16.0-0.62","5ec6d06c67b0da0fb6f85e83","650c16f0f2faf8d7a0d14c09","651c1d5c6531011b4724a5e5","null","null","<p style=""font-size: 60px; font-family: BACS"">OAblcuOAO</p>","","","","","","","","",""
"html-keyboard-response","395","513433","0.0-16.0-0.63","5ec6d06c67b0da0fb6f85e83","650c16f0f2faf8d7a0d14c09","651c1d5c6531011b4724a5e5","null","null","<p style=""font-size: 60px; font-family: BACS"">OAblcuOAO</p>","","","","","","","","",""
"html-keyboard-response","396","514445","0.0-16.0-0.64","5ec6d06c67b0da0fb6f85e83","650c16f0f2faf8d7a0d14c09","651c1d5c6531011b4724a5e5","null","null","<p style=""font-size: 60px; font-family: BACS"">OAblcuOAO</p>","","","","","","","","",""
"html-keyboard-response","397","515455","0.0-16.0-0.65","5ec6d06c67b0da0fb6f85e83","650c16f0f2faf8d7a0d14c09","651c1d5c6531011b4724a5e5","null","null","<p style=""font-size: 60px; font-family: BACS"">OAblcuOAO</p>","","","","","","","","",""
"html-keyboard-response","398","516471","0.0-16.0-0.66","5ec6d06c67b0da0fb6f85e83","650c16f0f2faf8d7a0d14c09","651c1d5c6531011b4724a5e5","null","null","<p style=""font-size: 60px; font-family: BACS"">OAblcuOAO</p>","","","","","","","","",""
