"trial_type","trial_index","time_elapsed","internal_node_id","subject_id","study_id","session_id","rt","response","stimulus","success","item","task","correct_response","testing_condition","correct","target","confound","name"
"pavlovia","0","656","0.0-0.0","5ea9cd383b32cf15448a86ac","650c16f0f2faf8d7a0d14c09","651c1ded5fc6eee35b061f67","","","","","","","","","","","",""
"survey-html-form","1","5741","0.0-1.0","5ea9cd383b32cf15448a86ac","650c16f0f2faf8d7a0d14c09","651c1ded5fc6eee35b061f67","5085","{""ID"":""5ea9cd383b32cf15448a86ac""}","","","","","","","","","",""
"html-keyboard-response","2","20297","0.0-2.0","5ea9cd383b32cf15448a86ac","650c16f0f2faf8d7a0d14c09","651c1ded5fc6eee35b061f67","14555"," ","<p style=""font-size: 15px;"">Before beginning, we ask that you read the consent information and confirm your agreement to participate in the experiment.</p>
      <p style=""font-size: 15px;""> We ask that you remember that this is a research project and that your participation is entirely voluntary. You can stop your participation at any time, without needing to provide any explanation. The study we're asking you to participate in aims at examining how readers process written words. You will be engaged in a session of apprximately 20 minutes, followed by a brief questionnaire. You will have the opportunity to take a few breaks during the experiment. You will be paid £4 for your participation, corresponding to a rate of £8/hour. While this experiment looks at cognitive faculties, this experiment doesn't constitute clinical proof of eventual pathologies.</p>
      <p style=""font-size: 15px;"">All of the information collected thanks to yours and others' participation will be held in a secure password-protected server, and will not be shared with anyone not authorised to view it. Your personal information will be kept with an arbitrary participant ID. Thanks to this data anonymity process, any researcher analysing the data won't be able to track the information back to a specific participant. Therefore, this process will make identifying you impossibile, even when results from the study will be published in scientific reviews, presented at congresses, or at any other public forum. More generally, the collected data will be treated in accordance with the laws on privacy and conformity to the Legislative Degree n. 196 ""Code regarding the protection of personal data"" of the 30th of June 2003 and to the European Regulation 2016/670 (General Data Protection Regulation - GDPR). The Data Protection Officer is Avv. Valentina Carollo, who can be contacted at the following email addresses: <a href=""mailto:dpo@sissa.it"">dpo@sissa.it</a> or <a href=""mailto:rpd@sissa.it"">rpd@sissa.it</a> - PEC: <a href=""mailto:protocollo@pec.sissa.it"">protocollo@pec.sissa.it</a>.</p>
      <p style=""font-size: 15px;""> Before expressing your consent to participate, we would like to remind you again that in case you need explanations on any aspect of the experimental procedure, the researcher is at your disposition (<a href=""mailto:aliebelt@sissa.it"">aliebelt@sissa.it</a>, <a href=""mailto:davide.crepaldi@sissa.it"">davide.crepaldi@sissa.it</a>).</p>
      <p style=""font-size: 15px;"">If you would like to download the informed consent form, you can do so here: <a href=""BASL-Informed_Consent.pdf"" download>informed consent form</a>.</p>
      <p style=""font-size: 15px;"">We ask that you press the spacebar to proceed to the consent section.</p>","","","","","","","","",""
"survey-html-form","3","37738","0.0-3.0","5ea9cd383b32cf15448a86ac","650c16f0f2faf8d7a0d14c09","651c1ded5fc6eee35b061f67","17441","{""consent1"":""YES"",""consent2"":""YES"",""consent3"":""YES"",""consent4"":""YES"",""consent5"":""YES"",""consent6"":""YES""}","","","","","","","","","",""
"fullscreen","4","44173","0.0-4.0","5ea9cd383b32cf15448a86ac","650c16f0f2faf8d7a0d14c09","651c1ded5fc6eee35b061f67","","","","true","","","","","","","",""
"html-keyboard-response","5","53878","0.0-5.0","5ea9cd383b32cf15448a86ac","650c16f0f2faf8d7a0d14c09","651c1ded5fc6eee35b061f67","9705"," ","<p>Welcome, and thank you very much for your time!</p>
      <p>In this experiment, you'll be a language expert who's been asked to take a look at words that Earth has received in its first communication with aliens. Your task, in this first part of the experiment, is to pay close attention to the words you'll be shown; later, world leaders will ask you questions on what you saw. The words will be shown to you quite quickly; it seems that the aliens were in a hurry :-)</p>
      <p>Press the spacebar to continue.<p>","","","","","","","","",""
"html-keyboard-response","6","53930","0.0-6.0","5ea9cd383b32cf15448a86ac","650c16f0f2faf8d7a0d14c09","651c1ded5fc6eee35b061f67","null","null","<p style=""font-size: 120px; font-family: BACS""> </p>","","","","","","","","",""
"html-keyboard-response","7","58668","0.0-7.0","5ea9cd383b32cf15448a86ac","650c16f0f2faf8d7a0d14c09","651c1ded5fc6eee35b061f67","4738"," ","<p>Here is an example of the words you'll see:</p>
      <img src='esempio.png' height='400px'>
      <p>When you're ready to begin, press the spacebar.</p></div>","","","","","","","","",""
"html-keyboard-response","8","59669","0.0-8.0-0.0","5ea9cd383b32cf15448a86ac","650c16f0f2faf8d7a0d14c09","651c1ded5fc6eee35b061f67","null","null","<p style=""font-size: 60px; font-family: BACS"">ckdAmTmTm</p>","","","","","","","","",""
"html-keyboard-response","9","60685","0.0-8.0-0.1","5ea9cd383b32cf15448a86ac","650c16f0f2faf8d7a0d14c09","651c1ded5fc6eee35b061f67","null","null","<p style=""font-size: 60px; font-family: BACS"">KElBOPE</p>","","","","","","","","",""
"html-keyboard-response","10","61696","0.0-8.0-0.2","5ea9cd383b32cf15448a86ac","650c16f0f2faf8d7a0d14c09","651c1ded5fc6eee35b061f67","null","null","<p style=""font-size: 60px; font-family: BACS"">mdlaGUOA</p>","","","","","","","","",""
"html-keyboard-response","11","62706","0.0-8.0-0.3","5ea9cd383b32cf15448a86ac","650c16f0f2faf8d7a0d14c09","651c1ded5fc6eee35b061f67","null","null","<p style=""font-size: 60px; font-family: BACS"">ckdAmkPM</p>","","","","","","","","",""
"html-keyboard-response","12","63717","0.0-8.0-0.4","5ea9cd383b32cf15448a86ac","650c16f0f2faf8d7a0d14c09","651c1ded5fc6eee35b061f67","null","null","<p style=""font-size: 60px; font-family: BACS"">RhPmYTOM</p>","","","","","","","","",""
"html-keyboard-response","13","64729","0.0-8.0-0.5","5ea9cd383b32cf15448a86ac","650c16f0f2faf8d7a0d14c09","651c1ded5fc6eee35b061f67","null","null","<p style=""font-size: 60px; font-family: BACS"">mdlauda</p>","","","","","","","","",""
"html-keyboard-response","14","65739","0.0-8.0-0.6","5ea9cd383b32cf15448a86ac","650c16f0f2faf8d7a0d14c09","651c1ded5fc6eee35b061f67","null","null","<p style=""font-size: 60px; font-family: BACS"">OYuvbGUOA</p>","","","","","","","","",""
"html-keyboard-response","15","66747","0.0-8.0-0.7","5ea9cd383b32cf15448a86ac","650c16f0f2faf8d7a0d14c09","651c1ded5fc6eee35b061f67","null","null","<p style=""font-size: 60px; font-family: BACS"">KAERMkPM</p>","","","","","","","","",""
"html-keyboard-response","16","67757","0.0-8.0-0.8","5ea9cd383b32cf15448a86ac","650c16f0f2faf8d7a0d14c09","651c1ded5fc6eee35b061f67","null","null","<p style=""font-size: 60px; font-family: BACS"">uQkrduvJ</p>","","","","","","","","",""
"html-keyboard-response","17","68768","0.0-8.0-0.9","5ea9cd383b32cf15448a86ac","650c16f0f2faf8d7a0d14c09","651c1ded5fc6eee35b061f67","null","null","<p style=""font-size: 60px; font-family: BACS"">aYaNGUOA</p>","","","","","","","","",""
"html-keyboard-response","18","69776","0.0-8.0-0.10","5ea9cd383b32cf15448a86ac","650c16f0f2faf8d7a0d14c09","651c1ded5fc6eee35b061f67","null","null","<p style=""font-size: 60px; font-family: BACS"">RkmdCTmTm</p>","","","","","","","","",""
"html-keyboard-response","19","70777","0.0-8.0-0.11","5ea9cd383b32cf15448a86ac","650c16f0f2faf8d7a0d14c09","651c1ded5fc6eee35b061f67","null","null","<p style=""font-size: 60px; font-family: BACS"">dKRDtRb</p>","","","","","","","","",""
"html-keyboard-response","20","71789","0.0-8.0-0.12","5ea9cd383b32cf15448a86ac","650c16f0f2faf8d7a0d14c09","651c1ded5fc6eee35b061f67","null","null","<p style=""font-size: 60px; font-family: BACS"">LGkAJcL</p>","","","","","","","","",""
"html-keyboard-response","21","72799","0.0-8.0-0.13","5ea9cd383b32cf15448a86ac","650c16f0f2faf8d7a0d14c09","651c1ded5fc6eee35b061f67","null","null","<p style=""font-size: 60px; font-family: BACS"">GJZmuda</p>","","","","","","","","",""
"html-keyboard-response","22","73808","0.0-8.0-0.14","5ea9cd383b32cf15448a86ac","650c16f0f2faf8d7a0d14c09","651c1ded5fc6eee35b061f67","null","null","<p style=""font-size: 60px; font-family: BACS"">RkmdCOPE</p>","","","","","","","","",""
"html-keyboard-response","23","74822","0.0-8.0-0.15","5ea9cd383b32cf15448a86ac","650c16f0f2faf8d7a0d14c09","651c1ded5fc6eee35b061f67","null","null","<p style=""font-size: 60px; font-family: BACS"">dKRDTmTm</p>","","","","","","","","",""
"html-keyboard-response","24","75834","0.0-8.0-0.16","5ea9cd383b32cf15448a86ac","650c16f0f2faf8d7a0d14c09","651c1ded5fc6eee35b061f67","null","null","<p style=""font-size: 60px; font-family: BACS"">ukYZuda</p>","","","","","","","","",""
"html-keyboard-response","25","76842","0.0-8.0-0.17","5ea9cd383b32cf15448a86ac","650c16f0f2faf8d7a0d14c09","651c1ded5fc6eee35b061f67","null","null","<p style=""font-size: 60px; font-family: BACS"">dCtMAYTOM</p>","","","","","","","","",""
"html-keyboard-response","26","77843","0.0-8.0-0.18","5ea9cd383b32cf15448a86ac","650c16f0f2faf8d7a0d14c09","651c1ded5fc6eee35b061f67","null","null","<p style=""font-size: 60px; font-family: BACS"">kMbTRtRb</p>","","","","","","","","",""
"html-keyboard-response","27","78847","0.0-8.0-0.19","5ea9cd383b32cf15448a86ac","650c16f0f2faf8d7a0d14c09","651c1ded5fc6eee35b061f67","null","null","<p style=""font-size: 60px; font-family: BACS"">OYuvbuvJ</p>","","","","","","","","",""
"html-keyboard-response","28","79859","0.0-8.0-0.20","5ea9cd383b32cf15448a86ac","650c16f0f2faf8d7a0d14c09","651c1ded5fc6eee35b061f67","null","null","<p style=""font-size: 60px; font-family: BACS"">uQkrduda</p>","","","","","","","","",""
"html-keyboard-response","29","80860","0.0-8.0-0.21","5ea9cd383b32cf15448a86ac","650c16f0f2faf8d7a0d14c09","651c1ded5fc6eee35b061f67","null","null","<p style=""font-size: 60px; font-family: BACS"">ukYZYmb</p>","","","","","","","","",""
"html-keyboard-response","30","81869","0.0-8.0-0.22","5ea9cd383b32cf15448a86ac","650c16f0f2faf8d7a0d14c09","651c1ded5fc6eee35b061f67","null","null","<p style=""font-size: 60px; font-family: BACS"">KElBYTOM</p>","","","","","","","","",""
"html-keyboard-response","31","82881","0.0-8.0-0.23","5ea9cd383b32cf15448a86ac","650c16f0f2faf8d7a0d14c09","651c1ded5fc6eee35b061f67","null","null","<p style=""font-size: 60px; font-family: BACS"">vYLUuvJ</p>","","","","","","","","",""
"html-keyboard-response","32","83897","0.0-8.0-0.24","5ea9cd383b32cf15448a86ac","650c16f0f2faf8d7a0d14c09","651c1ded5fc6eee35b061f67","null","null","<p style=""font-size: 60px; font-family: BACS"">RdPtDOPE</p>","","","","","","","","",""
"html-keyboard-response","33","84907","0.0-8.0-0.25","5ea9cd383b32cf15448a86ac","650c16f0f2faf8d7a0d14c09","651c1ded5fc6eee35b061f67","null","null","<p style=""font-size: 60px; font-family: BACS"">GJZmuvJ</p>","","","","","","","","",""
"html-keyboard-response","34","85914","0.0-8.0-0.26","5ea9cd383b32cf15448a86ac","650c16f0f2faf8d7a0d14c09","651c1ded5fc6eee35b061f67","null","null","<p style=""font-size: 60px; font-family: BACS"">mdlaYmb</p>","","","","","","","","",""
"html-keyboard-response","35","86923","0.0-8.0-0.27","5ea9cd383b32cf15448a86ac","650c16f0f2faf8d7a0d14c09","651c1ded5fc6eee35b061f67","null","null","<p style=""font-size: 60px; font-family: BACS"">dCtMAkPM</p>","","","","","","","","",""
"html-keyboard-response","36","87935","0.0-8.0-0.28","5ea9cd383b32cf15448a86ac","650c16f0f2faf8d7a0d14c09","651c1ded5fc6eee35b061f67","null","null","<p style=""font-size: 60px; font-family: BACS"">uQkrdYmb</p>","","","","","","","","",""
"html-keyboard-response","37","88938","0.0-8.0-0.29","5ea9cd383b32cf15448a86ac","650c16f0f2faf8d7a0d14c09","651c1ded5fc6eee35b061f67","null","null","<p style=""font-size: 60px; font-family: BACS"">kMbTRkPM</p>","","","","","","","","",""
"html-keyboard-response","38","89950","0.0-8.0-0.30","5ea9cd383b32cf15448a86ac","650c16f0f2faf8d7a0d14c09","651c1ded5fc6eee35b061f67","null","null","<p style=""font-size: 60px; font-family: BACS"">ukYZGUOA</p>","","","","","","","","",""
"html-keyboard-response","39","90958","0.0-8.0-0.31","5ea9cd383b32cf15448a86ac","650c16f0f2faf8d7a0d14c09","651c1ded5fc6eee35b061f67","null","null","<p style=""font-size: 60px; font-family: BACS"">KElBtRb</p>","","","","","","","","",""
"html-keyboard-response","40","91971","0.0-8.0-0.32","5ea9cd383b32cf15448a86ac","650c16f0f2faf8d7a0d14c09","651c1ded5fc6eee35b061f67","null","null","<p style=""font-size: 60px; font-family: BACS"">kMbTROPE</p>","","","","","","","","",""
"html-keyboard-response","41","92983","0.0-8.0-0.33","5ea9cd383b32cf15448a86ac","650c16f0f2faf8d7a0d14c09","651c1ded5fc6eee35b061f67","null","null","<p style=""font-size: 60px; font-family: BACS"">LGkAuvJ</p>","","","","","","","","",""
"html-keyboard-response","42","93997","0.0-8.0-0.34","5ea9cd383b32cf15448a86ac","650c16f0f2faf8d7a0d14c09","651c1ded5fc6eee35b061f67","null","null","<p style=""font-size: 60px; font-family: BACS"">OAmAdTmTm</p>","","","","","","","","",""
"html-keyboard-response","43","95008","0.0-8.0-0.35","5ea9cd383b32cf15448a86ac","650c16f0f2faf8d7a0d14c09","651c1ded5fc6eee35b061f67","null","null","<p style=""font-size: 60px; font-family: BACS"">rkYLYmb</p>","","","","","","","","",""
"html-keyboard-response","44","96022","0.0-8.0-0.36","5ea9cd383b32cf15448a86ac","650c16f0f2faf8d7a0d14c09","651c1ded5fc6eee35b061f67","null","null","<p style=""font-size: 60px; font-family: BACS"">OAmAdkPM</p>","","","","","","","","",""
"html-keyboard-response","45","97033","0.0-8.0-0.37","5ea9cd383b32cf15448a86ac","650c16f0f2faf8d7a0d14c09","651c1ded5fc6eee35b061f67","null","null","<p style=""font-size: 60px; font-family: BACS"">vYLUYmb</p>","","","","","","","","",""
"html-keyboard-response","46","98042","0.0-8.0-0.38","5ea9cd383b32cf15448a86ac","650c16f0f2faf8d7a0d14c09","651c1ded5fc6eee35b061f67","null","null","<p style=""font-size: 60px; font-family: BACS"">ckdAmtRb</p>","","","","","","","","",""
"html-keyboard-response","47","99045","0.0-8.0-0.39","5ea9cd383b32cf15448a86ac","650c16f0f2faf8d7a0d14c09","651c1ded5fc6eee35b061f67","null","null","<p style=""font-size: 60px; font-family: BACS"">rkYLJcL</p>","","","","","","","","",""
"html-keyboard-response","48","100057","0.0-8.0-0.40","5ea9cd383b32cf15448a86ac","650c16f0f2faf8d7a0d14c09","651c1ded5fc6eee35b061f67","null","null","<p style=""font-size: 60px; font-family: BACS"">RdPtDYTOM</p>","","","","","","","","",""
"html-keyboard-response","49","101066","0.0-8.0-0.41","5ea9cd383b32cf15448a86ac","650c16f0f2faf8d7a0d14c09","651c1ded5fc6eee35b061f67","null","null","<p style=""font-size: 60px; font-family: BACS"">OYuvbYmb</p>","","","","","","","","",""
"html-keyboard-response","50","102079","0.0-8.0-0.42","5ea9cd383b32cf15448a86ac","650c16f0f2faf8d7a0d14c09","651c1ded5fc6eee35b061f67","null","null","<p style=""font-size: 60px; font-family: BACS"">aYaNuda</p>","","","","","","","","",""
"html-keyboard-response","51","103089","0.0-8.0-0.43","5ea9cd383b32cf15448a86ac","650c16f0f2faf8d7a0d14c09","651c1ded5fc6eee35b061f67","null","null","<p style=""font-size: 60px; font-family: BACS"">RhPmTmTm</p>","","","","","","","","",""
"html-keyboard-response","52","104098","0.0-8.0-0.44","5ea9cd383b32cf15448a86ac","650c16f0f2faf8d7a0d14c09","651c1ded5fc6eee35b061f67","null","null","<p style=""font-size: 60px; font-family: BACS"">KAERMOPE</p>","","","","","","","","",""
"html-keyboard-response","53","105106","0.0-8.0-0.45","5ea9cd383b32cf15448a86ac","650c16f0f2faf8d7a0d14c09","651c1ded5fc6eee35b061f67","null","null","<p style=""font-size: 60px; font-family: BACS"">RkmdCYTOM</p>","","","","","","","","",""
"html-keyboard-response","54","106115","0.0-8.0-0.46","5ea9cd383b32cf15448a86ac","650c16f0f2faf8d7a0d14c09","651c1ded5fc6eee35b061f67","null","null","<p style=""font-size: 60px; font-family: BACS"">mdlaJcL</p>","","","","","","","","",""
"html-keyboard-response","55","107130","0.0-8.0-0.47","5ea9cd383b32cf15448a86ac","650c16f0f2faf8d7a0d14c09","651c1ded5fc6eee35b061f67","null","null","<p style=""font-size: 60px; font-family: BACS"">dKRDOPE</p>","","","","","","","","",""
"html-keyboard-response","56","108139","0.0-8.0-0.48","5ea9cd383b32cf15448a86ac","650c16f0f2faf8d7a0d14c09","651c1ded5fc6eee35b061f67","null","null","<p style=""font-size: 60px; font-family: BACS"">aYaNJcL</p>","","","","","","","","",""
"html-keyboard-response","57","109141","0.0-8.0-0.49","5ea9cd383b32cf15448a86ac","650c16f0f2faf8d7a0d14c09","651c1ded5fc6eee35b061f67","null","null","<p style=""font-size: 60px; font-family: BACS"">OAmAdOPE</p>","","","","","","","","",""
"html-keyboard-response","58","110152","0.0-8.0-0.50","5ea9cd383b32cf15448a86ac","650c16f0f2faf8d7a0d14c09","651c1ded5fc6eee35b061f67","null","null","<p style=""font-size: 60px; font-family: BACS"">dKRDYTOM</p>","","","","","","","","",""
"html-keyboard-response","59","111163","0.0-8.0-0.51","5ea9cd383b32cf15448a86ac","650c16f0f2faf8d7a0d14c09","651c1ded5fc6eee35b061f67","null","null","<p style=""font-size: 60px; font-family: BACS"">LGkAGUOA</p>","","","","","","","","",""
"html-keyboard-response","60","112177","0.0-8.0-0.52","5ea9cd383b32cf15448a86ac","650c16f0f2faf8d7a0d14c09","651c1ded5fc6eee35b061f67","null","null","<p style=""font-size: 60px; font-family: BACS"">ckdAmOPE</p>","","","","","","","","",""
"html-keyboard-response","61","113185","0.0-8.0-0.53","5ea9cd383b32cf15448a86ac","650c16f0f2faf8d7a0d14c09","651c1ded5fc6eee35b061f67","null","null","<p style=""font-size: 60px; font-family: BACS"">rkYLuvJ</p>","","","","","","","","",""
"html-keyboard-response","62","114193","0.0-8.0-0.54","5ea9cd383b32cf15448a86ac","650c16f0f2faf8d7a0d14c09","651c1ded5fc6eee35b061f67","null","null","<p style=""font-size: 60px; font-family: BACS"">dCtMATmTm</p>","","","","","","","","",""
"html-keyboard-response","63","115208","0.0-8.0-0.55","5ea9cd383b32cf15448a86ac","650c16f0f2faf8d7a0d14c09","651c1ded5fc6eee35b061f67","null","null","<p style=""font-size: 60px; font-family: BACS"">vYLUuda</p>","","","","","","","","",""
"html-keyboard-response","64","116220","0.0-8.0-0.56","5ea9cd383b32cf15448a86ac","650c16f0f2faf8d7a0d14c09","651c1ded5fc6eee35b061f67","null","null","<p style=""font-size: 60px; font-family: BACS"">OAblcuvJ</p>","","","","","","","","",""
"html-keyboard-response","65","117221","0.0-8.0-0.57","5ea9cd383b32cf15448a86ac","650c16f0f2faf8d7a0d14c09","651c1ded5fc6eee35b061f67","null","null","<p style=""font-size: 60px; font-family: BACS"">uQkrdJcL</p>","","","","","","","","",""
"html-keyboard-response","66","118230","0.0-8.0-0.58","5ea9cd383b32cf15448a86ac","650c16f0f2faf8d7a0d14c09","651c1ded5fc6eee35b061f67","null","null","<p style=""font-size: 60px; font-family: BACS"">RhPmtRb</p>","","","","","","","","",""
"html-keyboard-response","67","119238","0.0-8.0-0.59","5ea9cd383b32cf15448a86ac","650c16f0f2faf8d7a0d14c09","651c1ded5fc6eee35b061f67","null","null","<p style=""font-size: 60px; font-family: BACS"">OAblcGUOA</p>","","","","","","","","",""
"html-keyboard-response","68","120250","0.0-8.0-0.60","5ea9cd383b32cf15448a86ac","650c16f0f2faf8d7a0d14c09","651c1ded5fc6eee35b061f67","null","null","<p style=""font-size: 60px; font-family: BACS"">RdPtDkPM</p>","","","","","","","","",""
"html-keyboard-response","69","121261","0.0-8.0-0.61","5ea9cd383b32cf15448a86ac","650c16f0f2faf8d7a0d14c09","651c1ded5fc6eee35b061f67","null","null","<p style=""font-size: 60px; font-family: BACS"">OAblcuda</p>","","","","","","","","",""
"html-keyboard-response","70","122273","0.0-8.0-0.62","5ea9cd383b32cf15448a86ac","650c16f0f2faf8d7a0d14c09","651c1ded5fc6eee35b061f67","null","null","<p style=""font-size: 60px; font-family: BACS"">GJZmGUOA</p>","","","","","","","","",""
"html-keyboard-response","71","123276","0.0-8.0-0.63","5ea9cd383b32cf15448a86ac","650c16f0f2faf8d7a0d14c09","651c1ded5fc6eee35b061f67","null","null","<p style=""font-size: 60px; font-family: BACS"">KAERMYTOM</p>","","","","","","","","",""
"html-keyboard-response","72","124287","0.0-8.0-0.64","5ea9cd383b32cf15448a86ac","650c16f0f2faf8d7a0d14c09","651c1ded5fc6eee35b061f67","null","null","<p style=""font-size: 60px; font-family: BACS"">RkmdCkPM</p>","","","","","","","","",""
"html-keyboard-response","73","125295","0.0-8.0-0.65","5ea9cd383b32cf15448a86ac","650c16f0f2faf8d7a0d14c09","651c1ded5fc6eee35b061f67","null","null","<p style=""font-size: 60px; font-family: BACS"">vYLUJcL</p>","","","","","","","","",""
"html-keyboard-response","74","126306","0.0-8.0-0.66","5ea9cd383b32cf15448a86ac","650c16f0f2faf8d7a0d14c09","651c1ded5fc6eee35b061f67","null","null","<p style=""font-size: 60px; font-family: BACS"">RhPmkPM</p>","","","","","","","","",""
"html-keyboard-response","75","127314","0.0-8.0-0.67","5ea9cd383b32cf15448a86ac","650c16f0f2faf8d7a0d14c09","651c1ded5fc6eee35b061f67","null","null","<p style=""font-size: 60px; font-family: BACS"">RdPtDTmTm</p>","","","","","","","","",""
"html-keyboard-response","76","128325","0.0-8.0-0.68","5ea9cd383b32cf15448a86ac","650c16f0f2faf8d7a0d14c09","651c1ded5fc6eee35b061f67","null","null","<p style=""font-size: 60px; font-family: BACS"">LGkAYmb</p>","","","","","","","","",""
"html-keyboard-response","77","129335","0.0-8.0-0.69","5ea9cd383b32cf15448a86ac","650c16f0f2faf8d7a0d14c09","651c1ded5fc6eee35b061f67","null","null","<p style=""font-size: 60px; font-family: BACS"">aYaNuvJ</p>","","","","","","","","",""
"html-keyboard-response","78","130336","0.0-8.0-0.70","5ea9cd383b32cf15448a86ac","650c16f0f2faf8d7a0d14c09","651c1ded5fc6eee35b061f67","null","null","<p style=""font-size: 60px; font-family: BACS"">KElBTmTm</p>","","","","","","","","",""
"html-keyboard-response","79","131350","0.0-8.0-0.71","5ea9cd383b32cf15448a86ac","650c16f0f2faf8d7a0d14c09","651c1ded5fc6eee35b061f67","null","null","<p style=""font-size: 60px; font-family: BACS"">rkYLGUOA</p>","","","","","","","","",""
"html-keyboard-response","80","132365","0.0-8.0-0.72","5ea9cd383b32cf15448a86ac","650c16f0f2faf8d7a0d14c09","651c1ded5fc6eee35b061f67","null","null","<p style=""font-size: 60px; font-family: BACS"">KAERMtRb</p>","","","","","","","","",""
"html-keyboard-response","81","133372","0.0-8.0-0.73","5ea9cd383b32cf15448a86ac","650c16f0f2faf8d7a0d14c09","651c1ded5fc6eee35b061f67","null","null","<p style=""font-size: 60px; font-family: BACS"">ukYZJcL</p>","","","","","","","","",""
"html-keyboard-response","82","134384","0.0-8.0-0.74","5ea9cd383b32cf15448a86ac","650c16f0f2faf8d7a0d14c09","651c1ded5fc6eee35b061f67","null","null","<p style=""font-size: 60px; font-family: BACS"">OAmAdtRb</p>","","","","","","","","",""
"html-keyboard-response","83","135400","0.0-8.0-0.75","5ea9cd383b32cf15448a86ac","650c16f0f2faf8d7a0d14c09","651c1ded5fc6eee35b061f67","null","null","<p style=""font-size: 60px; font-family: BACS"">GJZmYmb</p>","","","","","","","","",""
"html-keyboard-response","84","136416","0.0-8.0-0.76","5ea9cd383b32cf15448a86ac","650c16f0f2faf8d7a0d14c09","651c1ded5fc6eee35b061f67","null","null","<p style=""font-size: 60px; font-family: BACS"">OYuvbuda</p>","","","","","","","","",""
"html-keyboard-response","85","137423","0.0-8.0-0.77","5ea9cd383b32cf15448a86ac","650c16f0f2faf8d7a0d14c09","651c1ded5fc6eee35b061f67","null","null","<p style=""font-size: 60px; font-family: BACS"">OAblcJcL</p>","","","","","","","","",""
"html-keyboard-response","86","138439","0.0-8.0-0.78","5ea9cd383b32cf15448a86ac","650c16f0f2faf8d7a0d14c09","651c1ded5fc6eee35b061f67","null","null","<p style=""font-size: 60px; font-family: BACS"">dCtMAtRb</p>","","","","","","","","",""
"html-keyboard-response","87","139450","0.0-8.0-0.79","5ea9cd383b32cf15448a86ac","650c16f0f2faf8d7a0d14c09","651c1ded5fc6eee35b061f67","null","null","<p style=""font-size: 60px; font-family: BACS"">kMbTRYTOM</p>","","","","","","","","",""
"html-keyboard-response","88","148126","0.0-9.0","5ea9cd383b32cf15448a86ac","650c16f0f2faf8d7a0d14c09","651c1ded5fc6eee35b061f67","8675"," ","<p>Great, you've seen the first block of words. You may now take a short break.</p>
      <p>Press the spacebar when you're ready to continue.</p>","","","","","","","","",""
"html-keyboard-response","89","149133","0.0-10.0-0.0","5ea9cd383b32cf15448a86ac","650c16f0f2faf8d7a0d14c09","651c1ded5fc6eee35b061f67","null","null","<p style=""font-size: 60px; font-family: BACS"">KAERMOPE</p>","","","","","","","","",""
"html-keyboard-response","90","150141","0.0-10.0-0.1","5ea9cd383b32cf15448a86ac","650c16f0f2faf8d7a0d14c09","651c1ded5fc6eee35b061f67","null","null","<p style=""font-size: 60px; font-family: BACS"">mdlauda</p>","","","","","","","","",""
"html-keyboard-response","91","151154","0.0-10.0-0.2","5ea9cd383b32cf15448a86ac","650c16f0f2faf8d7a0d14c09","651c1ded5fc6eee35b061f67","null","null","<p style=""font-size: 60px; font-family: BACS"">KAERMtRb</p>","","","","","","","","",""
"html-keyboard-response","92","152157","0.0-10.0-0.3","5ea9cd383b32cf15448a86ac","650c16f0f2faf8d7a0d14c09","651c1ded5fc6eee35b061f67","null","null","<p style=""font-size: 60px; font-family: BACS"">vYLUuvJ</p>","","","","","","","","",""
"html-keyboard-response","93","153165","0.0-10.0-0.4","5ea9cd383b32cf15448a86ac","650c16f0f2faf8d7a0d14c09","651c1ded5fc6eee35b061f67","null","null","<p style=""font-size: 60px; font-family: BACS"">OAblcJcL</p>","","","","","","","","",""
"html-keyboard-response","94","154179","0.0-10.0-0.5","5ea9cd383b32cf15448a86ac","650c16f0f2faf8d7a0d14c09","651c1ded5fc6eee35b061f67","null","null","<p style=""font-size: 60px; font-family: BACS"">rkYLuvJ</p>","","","","","","","","",""
"html-keyboard-response","95","155190","0.0-10.0-0.6","5ea9cd383b32cf15448a86ac","650c16f0f2faf8d7a0d14c09","651c1ded5fc6eee35b061f67","null","null","<p style=""font-size: 60px; font-family: BACS"">KElBTmTm</p>","","","","","","","","",""
"html-keyboard-response","96","156200","0.0-10.0-0.7","5ea9cd383b32cf15448a86ac","650c16f0f2faf8d7a0d14c09","651c1ded5fc6eee35b061f67","null","null","<p style=""font-size: 60px; font-family: BACS"">mdlaYmb</p>","","","","","","","","",""
"html-keyboard-response","97","157205","0.0-10.0-0.8","5ea9cd383b32cf15448a86ac","650c16f0f2faf8d7a0d14c09","651c1ded5fc6eee35b061f67","null","null","<p style=""font-size: 60px; font-family: BACS"">dKRDtRb</p>","","","","","","","","",""
"html-keyboard-response","98","158210","0.0-10.0-0.9","5ea9cd383b32cf15448a86ac","650c16f0f2faf8d7a0d14c09","651c1ded5fc6eee35b061f67","null","null","<p style=""font-size: 60px; font-family: BACS"">aYaNJcL</p>","","","","","","","","",""
"html-keyboard-response","99","159225","0.0-10.0-0.10","5ea9cd383b32cf15448a86ac","650c16f0f2faf8d7a0d14c09","651c1ded5fc6eee35b061f67","null","null","<p style=""font-size: 60px; font-family: BACS"">uQkrduda</p>","","","","","","","","",""
"html-keyboard-response","100","160227","0.0-10.0-0.11","5ea9cd383b32cf15448a86ac","650c16f0f2faf8d7a0d14c09","651c1ded5fc6eee35b061f67","null","null","<p style=""font-size: 60px; font-family: BACS"">RhPmkPM</p>","","","","","","","","",""
"html-keyboard-response","101","161239","0.0-10.0-0.12","5ea9cd383b32cf15448a86ac","650c16f0f2faf8d7a0d14c09","651c1ded5fc6eee35b061f67","null","null","<p style=""font-size: 60px; font-family: BACS"">aYaNGUOA</p>","","","","","","","","",""
"html-keyboard-response","102","162245","0.0-10.0-0.13","5ea9cd383b32cf15448a86ac","650c16f0f2faf8d7a0d14c09","651c1ded5fc6eee35b061f67","null","null","<p style=""font-size: 60px; font-family: BACS"">ukYZJcL</p>","","","","","","","","",""
"html-keyboard-response","103","163256","0.0-10.0-0.14","5ea9cd383b32cf15448a86ac","650c16f0f2faf8d7a0d14c09","651c1ded5fc6eee35b061f67","null","null","<p style=""font-size: 60px; font-family: BACS"">OAmAdtRb</p>","","","","","","","","",""
"html-keyboard-response","104","164271","0.0-10.0-0.15","5ea9cd383b32cf15448a86ac","650c16f0f2faf8d7a0d14c09","651c1ded5fc6eee35b061f67","null","null","<p style=""font-size: 60px; font-family: BACS"">uQkrdJcL</p>","","","","","","","","",""
"html-keyboard-response","105","165285","0.0-10.0-0.16","5ea9cd383b32cf15448a86ac","650c16f0f2faf8d7a0d14c09","651c1ded5fc6eee35b061f67","null","null","<p style=""font-size: 60px; font-family: BACS"">OAblcuda</p>","","","","","","","","",""
"html-keyboard-response","106","166286","0.0-10.0-0.17","5ea9cd383b32cf15448a86ac","650c16f0f2faf8d7a0d14c09","651c1ded5fc6eee35b061f67","null","null","<p style=""font-size: 60px; font-family: BACS"">GJZmGUOA</p>","","","","","","","","",""
"html-keyboard-response","107","167299","0.0-10.0-0.18","5ea9cd383b32cf15448a86ac","650c16f0f2faf8d7a0d14c09","651c1ded5fc6eee35b061f67","null","null","<p style=""font-size: 60px; font-family: BACS"">OAmAdTmTm</p>","","","","","","","","",""
"html-keyboard-response","108","168310","0.0-10.0-0.19","5ea9cd383b32cf15448a86ac","650c16f0f2faf8d7a0d14c09","651c1ded5fc6eee35b061f67","null","null","<p style=""font-size: 60px; font-family: BACS"">RdPtDYTOM</p>","","","","","","","","",""
"html-keyboard-response","109","169324","0.0-10.0-0.20","5ea9cd383b32cf15448a86ac","650c16f0f2faf8d7a0d14c09","651c1ded5fc6eee35b061f67","null","null","<p style=""font-size: 60px; font-family: BACS"">vYLUuda</p>","","","","","","","","",""
"html-keyboard-response","110","170338","0.0-10.0-0.21","5ea9cd383b32cf15448a86ac","650c16f0f2faf8d7a0d14c09","651c1ded5fc6eee35b061f67","null","null","<p style=""font-size: 60px; font-family: BACS"">RdPtDOPE</p>","","","","","","","","",""
"html-keyboard-response","111","171349","0.0-10.0-0.22","5ea9cd383b32cf15448a86ac","650c16f0f2faf8d7a0d14c09","651c1ded5fc6eee35b061f67","null","null","<p style=""font-size: 60px; font-family: BACS"">RkmdCTmTm</p>","","","","","","","","",""
"html-keyboard-response","112","172360","0.0-10.0-0.23","5ea9cd383b32cf15448a86ac","650c16f0f2faf8d7a0d14c09","651c1ded5fc6eee35b061f67","null","null","<p style=""font-size: 60px; font-family: BACS"">RhPmYTOM</p>","","","","","","","","",""
"html-keyboard-response","113","173376","0.0-10.0-0.24","5ea9cd383b32cf15448a86ac","650c16f0f2faf8d7a0d14c09","651c1ded5fc6eee35b061f67","null","null","<p style=""font-size: 60px; font-family: BACS"">KAERMkPM</p>","","","","","","","","",""
"html-keyboard-response","114","174389","0.0-10.0-0.25","5ea9cd383b32cf15448a86ac","650c16f0f2faf8d7a0d14c09","651c1ded5fc6eee35b061f67","null","null","<p style=""font-size: 60px; font-family: BACS"">uQkrdYmb</p>","","","","","","","","",""
"html-keyboard-response","115","175395","0.0-10.0-0.26","5ea9cd383b32cf15448a86ac","650c16f0f2faf8d7a0d14c09","651c1ded5fc6eee35b061f67","null","null","<p style=""font-size: 60px; font-family: BACS"">dCtMAkPM</p>","","","","","","","","",""
"html-keyboard-response","116","176408","0.0-10.0-0.27","5ea9cd383b32cf15448a86ac","650c16f0f2faf8d7a0d14c09","651c1ded5fc6eee35b061f67","null","null","<p style=""font-size: 60px; font-family: BACS"">OAmAdOPE</p>","","","","","","","","",""
"html-keyboard-response","117","177415","0.0-10.0-0.28","5ea9cd383b32cf15448a86ac","650c16f0f2faf8d7a0d14c09","651c1ded5fc6eee35b061f67","null","null","<p style=""font-size: 60px; font-family: BACS"">rkYLYmb</p>","","","","","","","","",""
"html-keyboard-response","118","178430","0.0-10.0-0.29","5ea9cd383b32cf15448a86ac","650c16f0f2faf8d7a0d14c09","651c1ded5fc6eee35b061f67","null","null","<p style=""font-size: 60px; font-family: BACS"">RdPtDkPM</p>","","","","","","","","",""
"html-keyboard-response","119","179441","0.0-10.0-0.30","5ea9cd383b32cf15448a86ac","650c16f0f2faf8d7a0d14c09","651c1ded5fc6eee35b061f67","null","null","<p style=""font-size: 60px; font-family: BACS"">ukYZuda</p>","","","","","","","","",""
"html-keyboard-response","120","180452","0.0-10.0-0.31","5ea9cd383b32cf15448a86ac","650c16f0f2faf8d7a0d14c09","651c1ded5fc6eee35b061f67","null","null","<p style=""font-size: 60px; font-family: BACS"">ckdAmOPE</p>","","","","","","","","",""
"html-keyboard-response","121","181460","0.0-10.0-0.32","5ea9cd383b32cf15448a86ac","650c16f0f2faf8d7a0d14c09","651c1ded5fc6eee35b061f67","null","null","<p style=""font-size: 60px; font-family: BACS"">OAblcGUOA</p>","","","","","","","","",""
"html-keyboard-response","122","182461","0.0-10.0-0.33","5ea9cd383b32cf15448a86ac","650c16f0f2faf8d7a0d14c09","651c1ded5fc6eee35b061f67","null","null","<p style=""font-size: 60px; font-family: BACS"">aYaNuvJ</p>","","","","","","","","",""
"html-keyboard-response","123","183464","0.0-10.0-0.34","5ea9cd383b32cf15448a86ac","650c16f0f2faf8d7a0d14c09","651c1ded5fc6eee35b061f67","null","null","<p style=""font-size: 60px; font-family: BACS"">KAERMYTOM</p>","","","","","","","","",""
"html-keyboard-response","124","184477","0.0-10.0-0.35","5ea9cd383b32cf15448a86ac","650c16f0f2faf8d7a0d14c09","651c1ded5fc6eee35b061f67","null","null","<p style=""font-size: 60px; font-family: BACS"">LGkAYmb</p>","","","","","","","","",""
"html-keyboard-response","125","185489","0.0-10.0-0.36","5ea9cd383b32cf15448a86ac","650c16f0f2faf8d7a0d14c09","651c1ded5fc6eee35b061f67","null","null","<p style=""font-size: 60px; font-family: BACS"">KElBtRb</p>","","","","","","","","",""
"html-keyboard-response","126","186498","0.0-10.0-0.37","5ea9cd383b32cf15448a86ac","650c16f0f2faf8d7a0d14c09","651c1ded5fc6eee35b061f67","null","null","<p style=""font-size: 60px; font-family: BACS"">RkmdCkPM</p>","","","","","","","","",""
"html-keyboard-response","127","187514","0.0-10.0-0.38","5ea9cd383b32cf15448a86ac","650c16f0f2faf8d7a0d14c09","651c1ded5fc6eee35b061f67","null","null","<p style=""font-size: 60px; font-family: BACS"">OYuvbuvJ</p>","","","","","","","","",""
"html-keyboard-response","128","188525","0.0-10.0-0.39","5ea9cd383b32cf15448a86ac","650c16f0f2faf8d7a0d14c09","651c1ded5fc6eee35b061f67","null","null","<p style=""font-size: 60px; font-family: BACS"">rkYLJcL</p>","","","","","","","","",""
"html-keyboard-response","129","189540","0.0-10.0-0.40","5ea9cd383b32cf15448a86ac","650c16f0f2faf8d7a0d14c09","651c1ded5fc6eee35b061f67","null","null","<p style=""font-size: 60px; font-family: BACS"">aYaNuda</p>","","","","","","","","",""
"html-keyboard-response","130","190551","0.0-10.0-0.41","5ea9cd383b32cf15448a86ac","650c16f0f2faf8d7a0d14c09","651c1ded5fc6eee35b061f67","null","null","<p style=""font-size: 60px; font-family: BACS"">RkmdCOPE</p>","","","","","","","","",""
"html-keyboard-response","131","191565","0.0-10.0-0.42","5ea9cd383b32cf15448a86ac","650c16f0f2faf8d7a0d14c09","651c1ded5fc6eee35b061f67","null","null","<p style=""font-size: 60px; font-family: BACS"">dCtMAtRb</p>","","","","","","","","",""
"html-keyboard-response","132","192580","0.0-10.0-0.43","5ea9cd383b32cf15448a86ac","650c16f0f2faf8d7a0d14c09","651c1ded5fc6eee35b061f67","null","null","<p style=""font-size: 60px; font-family: BACS"">ukYZGUOA</p>","","","","","","","","",""
"html-keyboard-response","133","193593","0.0-10.0-0.44","5ea9cd383b32cf15448a86ac","650c16f0f2faf8d7a0d14c09","651c1ded5fc6eee35b061f67","null","null","<p style=""font-size: 60px; font-family: BACS"">OYuvbuda</p>","","","","","","","","",""
"html-keyboard-response","134","194603","0.0-10.0-0.45","5ea9cd383b32cf15448a86ac","650c16f0f2faf8d7a0d14c09","651c1ded5fc6eee35b061f67","null","null","<p style=""font-size: 60px; font-family: BACS"">GJZmuvJ</p>","","","","","","","","",""
"html-keyboard-response","135","195613","0.0-10.0-0.46","5ea9cd383b32cf15448a86ac","650c16f0f2faf8d7a0d14c09","651c1ded5fc6eee35b061f67","null","null","<p style=""font-size: 60px; font-family: BACS"">dCtMATmTm</p>","","","","","","","","",""
"html-keyboard-response","136","196627","0.0-10.0-0.47","5ea9cd383b32cf15448a86ac","650c16f0f2faf8d7a0d14c09","651c1ded5fc6eee35b061f67","null","null","<p style=""font-size: 60px; font-family: BACS"">OYuvbGUOA</p>","","","","","","","","",""
"html-keyboard-response","137","197634","0.0-10.0-0.48","5ea9cd383b32cf15448a86ac","650c16f0f2faf8d7a0d14c09","651c1ded5fc6eee35b061f67","null","null","<p style=""font-size: 60px; font-family: BACS"">mdlaJcL</p>","","","","","","","","",""
"html-keyboard-response","138","198644","0.0-10.0-0.49","5ea9cd383b32cf15448a86ac","650c16f0f2faf8d7a0d14c09","651c1ded5fc6eee35b061f67","null","null","<p style=""font-size: 60px; font-family: BACS"">kMbTRkPM</p>","","","","","","","","",""
"html-keyboard-response","139","199658","0.0-10.0-0.50","5ea9cd383b32cf15448a86ac","650c16f0f2faf8d7a0d14c09","651c1ded5fc6eee35b061f67","null","null","<p style=""font-size: 60px; font-family: BACS"">mdlaGUOA</p>","","","","","","","","",""
"html-keyboard-response","140","200671","0.0-10.0-0.51","5ea9cd383b32cf15448a86ac","650c16f0f2faf8d7a0d14c09","651c1ded5fc6eee35b061f67","null","null","<p style=""font-size: 60px; font-family: BACS"">vYLUYmb</p>","","","","","","","","",""
"html-keyboard-response","141","201672","0.0-10.0-0.52","5ea9cd383b32cf15448a86ac","650c16f0f2faf8d7a0d14c09","651c1ded5fc6eee35b061f67","null","null","<p style=""font-size: 60px; font-family: BACS"">dKRDYTOM</p>","","","","","","","","",""
"html-keyboard-response","142","202680","0.0-10.0-0.53","5ea9cd383b32cf15448a86ac","650c16f0f2faf8d7a0d14c09","651c1ded5fc6eee35b061f67","null","null","<p style=""font-size: 60px; font-family: BACS"">kMbTROPE</p>","","","","","","","","",""
"html-keyboard-response","143","203689","0.0-10.0-0.54","5ea9cd383b32cf15448a86ac","650c16f0f2faf8d7a0d14c09","651c1ded5fc6eee35b061f67","null","null","<p style=""font-size: 60px; font-family: BACS"">uQkrduvJ</p>","","","","","","","","",""
"html-keyboard-response","144","204699","0.0-10.0-0.55","5ea9cd383b32cf15448a86ac","650c16f0f2faf8d7a0d14c09","651c1ded5fc6eee35b061f67","null","null","<p style=""font-size: 60px; font-family: BACS"">ukYZYmb</p>","","","","","","","","",""
"html-keyboard-response","145","205711","0.0-10.0-0.56","5ea9cd383b32cf15448a86ac","650c16f0f2faf8d7a0d14c09","651c1ded5fc6eee35b061f67","null","null","<p style=""font-size: 60px; font-family: BACS"">RkmdCYTOM</p>","","","","","","","","",""
"html-keyboard-response","146","206722","0.0-10.0-0.57","5ea9cd383b32cf15448a86ac","650c16f0f2faf8d7a0d14c09","651c1ded5fc6eee35b061f67","null","null","<p style=""font-size: 60px; font-family: BACS"">RhPmTmTm</p>","","","","","","","","",""
"html-keyboard-response","147","207723","0.0-10.0-0.58","5ea9cd383b32cf15448a86ac","650c16f0f2faf8d7a0d14c09","651c1ded5fc6eee35b061f67","null","null","<p style=""font-size: 60px; font-family: BACS"">rkYLGUOA</p>","","","","","","","","",""
"html-keyboard-response","148","208735","0.0-10.0-0.59","5ea9cd383b32cf15448a86ac","650c16f0f2faf8d7a0d14c09","651c1ded5fc6eee35b061f67","null","null","<p style=""font-size: 60px; font-family: BACS"">RhPmtRb</p>","","","","","","","","",""
"html-keyboard-response","149","209747","0.0-10.0-0.60","5ea9cd383b32cf15448a86ac","650c16f0f2faf8d7a0d14c09","651c1ded5fc6eee35b061f67","null","null","<p style=""font-size: 60px; font-family: BACS"">GJZmYmb</p>","","","","","","","","",""
"html-keyboard-response","150","210758","0.0-10.0-0.61","5ea9cd383b32cf15448a86ac","650c16f0f2faf8d7a0d14c09","651c1ded5fc6eee35b061f67","null","null","<p style=""font-size: 60px; font-family: BACS"">OAmAdkPM</p>","","","","","","","","",""
"html-keyboard-response","151","211768","0.0-10.0-0.62","5ea9cd383b32cf15448a86ac","650c16f0f2faf8d7a0d14c09","651c1ded5fc6eee35b061f67","null","null","<p style=""font-size: 60px; font-family: BACS"">RdPtDTmTm</p>","","","","","","","","",""
"html-keyboard-response","152","212783","0.0-10.0-0.63","5ea9cd383b32cf15448a86ac","650c16f0f2faf8d7a0d14c09","651c1ded5fc6eee35b061f67","null","null","<p style=""font-size: 60px; font-family: BACS"">vYLUJcL</p>","","","","","","","","",""
"html-keyboard-response","153","213796","0.0-10.0-0.64","5ea9cd383b32cf15448a86ac","650c16f0f2faf8d7a0d14c09","651c1ded5fc6eee35b061f67","null","null","<p style=""font-size: 60px; font-family: BACS"">GJZmuda</p>","","","","","","","","",""
"html-keyboard-response","154","214807","0.0-10.0-0.65","5ea9cd383b32cf15448a86ac","650c16f0f2faf8d7a0d14c09","651c1ded5fc6eee35b061f67","null","null","<p style=""font-size: 60px; font-family: BACS"">LGkAuvJ</p>","","","","","","","","",""
"html-keyboard-response","155","215812","0.0-10.0-0.66","5ea9cd383b32cf15448a86ac","650c16f0f2faf8d7a0d14c09","651c1ded5fc6eee35b061f67","null","null","<p style=""font-size: 60px; font-family: BACS"">ckdAmTmTm</p>","","","","","","","","",""
"html-keyboard-response","156","216823","0.0-10.0-0.67","5ea9cd383b32cf15448a86ac","650c16f0f2faf8d7a0d14c09","651c1ded5fc6eee35b061f67","null","null","<p style=""font-size: 60px; font-family: BACS"">OYuvbYmb</p>","","","","","","","","",""
"html-keyboard-response","157","217834","0.0-10.0-0.68","5ea9cd383b32cf15448a86ac","650c16f0f2faf8d7a0d14c09","651c1ded5fc6eee35b061f67","null","null","<p style=""font-size: 60px; font-family: BACS"">LGkAGUOA</p>","","","","","","","","",""
"html-keyboard-response","158","218844","0.0-10.0-0.69","5ea9cd383b32cf15448a86ac","650c16f0f2faf8d7a0d14c09","651c1ded5fc6eee35b061f67","null","null","<p style=""font-size: 60px; font-family: BACS"">OAblcuvJ</p>","","","","","","","","",""
"html-keyboard-response","159","219855","0.0-10.0-0.70","5ea9cd383b32cf15448a86ac","650c16f0f2faf8d7a0d14c09","651c1ded5fc6eee35b061f67","null","null","<p style=""font-size: 60px; font-family: BACS"">kMbTRYTOM</p>","","","","","","","","",""
"html-keyboard-response","160","220869","0.0-10.0-0.71","5ea9cd383b32cf15448a86ac","650c16f0f2faf8d7a0d14c09","651c1ded5fc6eee35b061f67","null","null","<p style=""font-size: 60px; font-family: BACS"">ckdAmtRb</p>","","","","","","","","",""
"html-keyboard-response","161","221870","0.0-10.0-0.72","5ea9cd383b32cf15448a86ac","650c16f0f2faf8d7a0d14c09","651c1ded5fc6eee35b061f67","null","null","<p style=""font-size: 60px; font-family: BACS"">dKRDOPE</p>","","","","","","","","",""
"html-keyboard-response","162","222886","0.0-10.0-0.73","5ea9cd383b32cf15448a86ac","650c16f0f2faf8d7a0d14c09","651c1ded5fc6eee35b061f67","null","null","<p style=""font-size: 60px; font-family: BACS"">KElBYTOM</p>","","","","","","","","",""
"html-keyboard-response","163","223899","0.0-10.0-0.74","5ea9cd383b32cf15448a86ac","650c16f0f2faf8d7a0d14c09","651c1ded5fc6eee35b061f67","null","null","<p style=""font-size: 60px; font-family: BACS"">dKRDTmTm</p>","","","","","","","","",""
"html-keyboard-response","164","224911","0.0-10.0-0.75","5ea9cd383b32cf15448a86ac","650c16f0f2faf8d7a0d14c09","651c1ded5fc6eee35b061f67","null","null","<p style=""font-size: 60px; font-family: BACS"">dCtMAYTOM</p>","","","","","","","","",""
"html-keyboard-response","165","225923","0.0-10.0-0.76","5ea9cd383b32cf15448a86ac","650c16f0f2faf8d7a0d14c09","651c1ded5fc6eee35b061f67","null","null","<p style=""font-size: 60px; font-family: BACS"">kMbTRtRb</p>","","","","","","","","",""
"html-keyboard-response","166","226939","0.0-10.0-0.77","5ea9cd383b32cf15448a86ac","650c16f0f2faf8d7a0d14c09","651c1ded5fc6eee35b061f67","null","null","<p style=""font-size: 60px; font-family: BACS"">KElBOPE</p>","","","","","","","","",""
"html-keyboard-response","167","227950","0.0-10.0-0.78","5ea9cd383b32cf15448a86ac","650c16f0f2faf8d7a0d14c09","651c1ded5fc6eee35b061f67","null","null","<p style=""font-size: 60px; font-family: BACS"">LGkAJcL</p>","","","","","","","","",""
"html-keyboard-response","168","228965","0.0-10.0-0.79","5ea9cd383b32cf15448a86ac","650c16f0f2faf8d7a0d14c09","651c1ded5fc6eee35b061f67","null","null","<p style=""font-size: 60px; font-family: BACS"">ckdAmkPM</p>","","","","","","","","",""
"html-keyboard-response","169","240846","0.0-11.0","5ea9cd383b32cf15448a86ac","650c16f0f2faf8d7a0d14c09","651c1ded5fc6eee35b061f67","11881"," ","<p>Great, you've seen the second block of words. You may now take a short break.</p>
      <p>Press the spacebar when you're ready to continue.</p>","","","","","","","","",""
"html-keyboard-response","170","241861","0.0-12.0-0.0","5ea9cd383b32cf15448a86ac","650c16f0f2faf8d7a0d14c09","651c1ded5fc6eee35b061f67","null","null","<p style=""font-size: 60px; font-family: BACS"">uQkrduda</p>","","","","","","","","",""
"html-keyboard-response","171","242869","0.0-12.0-0.1","5ea9cd383b32cf15448a86ac","650c16f0f2faf8d7a0d14c09","651c1ded5fc6eee35b061f67","null","null","<p style=""font-size: 60px; font-family: BACS"">RdPtDOPE</p>","","","","","","","","",""
"html-keyboard-response","172","243885","0.0-12.0-0.2","5ea9cd383b32cf15448a86ac","650c16f0f2faf8d7a0d14c09","651c1ded5fc6eee35b061f67","null","null","<p style=""font-size: 60px; font-family: BACS"">OYuvbGUOA</p>","","","","","","","","",""
"html-keyboard-response","173","244897","0.0-12.0-0.3","5ea9cd383b32cf15448a86ac","650c16f0f2faf8d7a0d14c09","651c1ded5fc6eee35b061f67","null","null","<p style=""font-size: 60px; font-family: BACS"">OAmAdTmTm</p>","","","","","","","","",""
"html-keyboard-response","174","245912","0.0-12.0-0.4","5ea9cd383b32cf15448a86ac","650c16f0f2faf8d7a0d14c09","651c1ded5fc6eee35b061f67","null","null","<p style=""font-size: 60px; font-family: BACS"">KAERMYTOM</p>","","","","","","","","",""
"html-keyboard-response","175","246923","0.0-12.0-0.5","5ea9cd383b32cf15448a86ac","650c16f0f2faf8d7a0d14c09","651c1ded5fc6eee35b061f67","null","null","<p style=""font-size: 60px; font-family: BACS"">LGkAuvJ</p>","","","","","","","","",""
"html-keyboard-response","176","247935","0.0-12.0-0.6","5ea9cd383b32cf15448a86ac","650c16f0f2faf8d7a0d14c09","651c1ded5fc6eee35b061f67","null","null","<p style=""font-size: 60px; font-family: BACS"">dKRDOPE</p>","","","","","","","","",""
"html-keyboard-response","177","248947","0.0-12.0-0.7","5ea9cd383b32cf15448a86ac","650c16f0f2faf8d7a0d14c09","651c1ded5fc6eee35b061f67","null","null","<p style=""font-size: 60px; font-family: BACS"">mdlaJcL</p>","","","","","","","","",""
"html-keyboard-response","178","249955","0.0-12.0-0.8","5ea9cd383b32cf15448a86ac","650c16f0f2faf8d7a0d14c09","651c1ded5fc6eee35b061f67","null","null","<p style=""font-size: 60px; font-family: BACS"">RkmdCkPM</p>","","","","","","","","",""
"html-keyboard-response","179","250958","0.0-12.0-0.9","5ea9cd383b32cf15448a86ac","650c16f0f2faf8d7a0d14c09","651c1ded5fc6eee35b061f67","null","null","<p style=""font-size: 60px; font-family: BACS"">kMbTRYTOM</p>","","","","","","","","",""
"html-keyboard-response","180","251971","0.0-12.0-0.10","5ea9cd383b32cf15448a86ac","650c16f0f2faf8d7a0d14c09","651c1ded5fc6eee35b061f67","null","null","<p style=""font-size: 60px; font-family: BACS"">RhPmkPM</p>","","","","","","","","",""
"html-keyboard-response","181","252985","0.0-12.0-0.11","5ea9cd383b32cf15448a86ac","650c16f0f2faf8d7a0d14c09","651c1ded5fc6eee35b061f67","null","null","<p style=""font-size: 60px; font-family: BACS"">OAblcuvJ</p>","","","","","","","","",""
"html-keyboard-response","182","253994","0.0-12.0-0.12","5ea9cd383b32cf15448a86ac","650c16f0f2faf8d7a0d14c09","651c1ded5fc6eee35b061f67","null","null","<p style=""font-size: 60px; font-family: BACS"">KAERMOPE</p>","","","","","","","","",""
"html-keyboard-response","183","255004","0.0-12.0-0.13","5ea9cd383b32cf15448a86ac","650c16f0f2faf8d7a0d14c09","651c1ded5fc6eee35b061f67","null","null","<p style=""font-size: 60px; font-family: BACS"">OAmAdkPM</p>","","","","","","","","",""
"html-keyboard-response","184","256017","0.0-12.0-0.14","5ea9cd383b32cf15448a86ac","650c16f0f2faf8d7a0d14c09","651c1ded5fc6eee35b061f67","null","null","<p style=""font-size: 60px; font-family: BACS"">vYLUuda</p>","","","","","","","","",""
"html-keyboard-response","185","257028","0.0-12.0-0.15","5ea9cd383b32cf15448a86ac","650c16f0f2faf8d7a0d14c09","651c1ded5fc6eee35b061f67","null","null","<p style=""font-size: 60px; font-family: BACS"">ukYZYmb</p>","","","","","","","","",""
"html-keyboard-response","186","258042","0.0-12.0-0.16","5ea9cd383b32cf15448a86ac","650c16f0f2faf8d7a0d14c09","651c1ded5fc6eee35b061f67","null","null","<p style=""font-size: 60px; font-family: BACS"">dCtMAkPM</p>","","","","","","","","",""
"html-keyboard-response","187","259047","0.0-12.0-0.17","5ea9cd383b32cf15448a86ac","650c16f0f2faf8d7a0d14c09","651c1ded5fc6eee35b061f67","null","null","<p style=""font-size: 60px; font-family: BACS"">RkmdCTmTm</p>","","","","","","","","",""
"html-keyboard-response","188","260059","0.0-12.0-0.18","5ea9cd383b32cf15448a86ac","650c16f0f2faf8d7a0d14c09","651c1ded5fc6eee35b061f67","null","null","<p style=""font-size: 60px; font-family: BACS"">rkYLGUOA</p>","","","","","","","","",""
"html-keyboard-response","189","261070","0.0-12.0-0.19","5ea9cd383b32cf15448a86ac","650c16f0f2faf8d7a0d14c09","651c1ded5fc6eee35b061f67","null","null","<p style=""font-size: 60px; font-family: BACS"">RhPmYTOM</p>","","","","","","","","",""
"html-keyboard-response","190","262083","0.0-12.0-0.20","5ea9cd383b32cf15448a86ac","650c16f0f2faf8d7a0d14c09","651c1ded5fc6eee35b061f67","null","null","<p style=""font-size: 60px; font-family: BACS"">kMbTRtRb</p>","","","","","","","","",""
"html-keyboard-response","191","263084","0.0-12.0-0.21","5ea9cd383b32cf15448a86ac","650c16f0f2faf8d7a0d14c09","651c1ded5fc6eee35b061f67","null","null","<p style=""font-size: 60px; font-family: BACS"">KElBYTOM</p>","","","","","","","","",""
"html-keyboard-response","192","264094","0.0-12.0-0.22","5ea9cd383b32cf15448a86ac","650c16f0f2faf8d7a0d14c09","651c1ded5fc6eee35b061f67","null","null","<p style=""font-size: 60px; font-family: BACS"">OYuvbYmb</p>","","","","","","","","",""
"html-keyboard-response","193","265103","0.0-12.0-0.23","5ea9cd383b32cf15448a86ac","650c16f0f2faf8d7a0d14c09","651c1ded5fc6eee35b061f67","null","null","<p style=""font-size: 60px; font-family: BACS"">ckdAmtRb</p>","","","","","","","","",""
"html-keyboard-response","194","266115","0.0-12.0-0.24","5ea9cd383b32cf15448a86ac","650c16f0f2faf8d7a0d14c09","651c1ded5fc6eee35b061f67","null","null","<p style=""font-size: 60px; font-family: BACS"">rkYLuvJ</p>","","","","","","","","",""
"html-keyboard-response","195","267129","0.0-12.0-0.25","5ea9cd383b32cf15448a86ac","650c16f0f2faf8d7a0d14c09","651c1ded5fc6eee35b061f67","null","null","<p style=""font-size: 60px; font-family: BACS"">KElBOPE</p>","","","","","","","","",""
"html-keyboard-response","196","268139","0.0-12.0-0.26","5ea9cd383b32cf15448a86ac","650c16f0f2faf8d7a0d14c09","651c1ded5fc6eee35b061f67","null","null","<p style=""font-size: 60px; font-family: BACS"">kMbTRkPM</p>","","","","","","","","",""
"html-keyboard-response","197","269149","0.0-12.0-0.27","5ea9cd383b32cf15448a86ac","650c16f0f2faf8d7a0d14c09","651c1ded5fc6eee35b061f67","null","null","<p style=""font-size: 60px; font-family: BACS"">OAblcJcL</p>","","","","","","","","",""
"html-keyboard-response","198","270160","0.0-12.0-0.28","5ea9cd383b32cf15448a86ac","650c16f0f2faf8d7a0d14c09","651c1ded5fc6eee35b061f67","null","null","<p style=""font-size: 60px; font-family: BACS"">GJZmGUOA</p>","","","","","","","","",""
"html-keyboard-response","199","271165","0.0-12.0-0.29","5ea9cd383b32cf15448a86ac","650c16f0f2faf8d7a0d14c09","651c1ded5fc6eee35b061f67","null","null","<p style=""font-size: 60px; font-family: BACS"">ukYZJcL</p>","","","","","","","","",""
"html-keyboard-response","200","272177","0.0-12.0-0.30","5ea9cd383b32cf15448a86ac","650c16f0f2faf8d7a0d14c09","651c1ded5fc6eee35b061f67","null","null","<p style=""font-size: 60px; font-family: BACS"">aYaNuvJ</p>","","","","","","","","",""
"html-keyboard-response","201","273191","0.0-12.0-0.31","5ea9cd383b32cf15448a86ac","650c16f0f2faf8d7a0d14c09","651c1ded5fc6eee35b061f67","null","null","<p style=""font-size: 60px; font-family: BACS"">dCtMAtRb</p>","","","","","","","","",""
"html-keyboard-response","202","274204","0.0-12.0-0.32","5ea9cd383b32cf15448a86ac","650c16f0f2faf8d7a0d14c09","651c1ded5fc6eee35b061f67","null","null","<p style=""font-size: 60px; font-family: BACS"">aYaNuda</p>","","","","","","","","",""
"html-keyboard-response","203","275218","0.0-12.0-0.33","5ea9cd383b32cf15448a86ac","650c16f0f2faf8d7a0d14c09","651c1ded5fc6eee35b061f67","null","null","<p style=""font-size: 60px; font-family: BACS"">dKRDYTOM</p>","","","","","","","","",""
"html-keyboard-response","204","276232","0.0-12.0-0.34","5ea9cd383b32cf15448a86ac","650c16f0f2faf8d7a0d14c09","651c1ded5fc6eee35b061f67","null","null","<p style=""font-size: 60px; font-family: BACS"">RhPmTmTm</p>","","","","","","","","",""
"html-keyboard-response","205","277241","0.0-12.0-0.35","5ea9cd383b32cf15448a86ac","650c16f0f2faf8d7a0d14c09","651c1ded5fc6eee35b061f67","null","null","<p style=""font-size: 60px; font-family: BACS"">KElBtRb</p>","","","","","","","","",""
"html-keyboard-response","206","278255","0.0-12.0-0.36","5ea9cd383b32cf15448a86ac","650c16f0f2faf8d7a0d14c09","651c1ded5fc6eee35b061f67","null","null","<p style=""font-size: 60px; font-family: BACS"">ukYZGUOA</p>","","","","","","","","",""
"html-keyboard-response","207","279268","0.0-12.0-0.37","5ea9cd383b32cf15448a86ac","650c16f0f2faf8d7a0d14c09","651c1ded5fc6eee35b061f67","null","null","<p style=""font-size: 60px; font-family: BACS"">LGkAYmb</p>","","","","","","","","",""
"html-keyboard-response","208","280282","0.0-12.0-0.38","5ea9cd383b32cf15448a86ac","650c16f0f2faf8d7a0d14c09","651c1ded5fc6eee35b061f67","null","null","<p style=""font-size: 60px; font-family: BACS"">OYuvbuvJ</p>","","","","","","","","",""
"html-keyboard-response","209","281296","0.0-12.0-0.39","5ea9cd383b32cf15448a86ac","650c16f0f2faf8d7a0d14c09","651c1ded5fc6eee35b061f67","null","null","<p style=""font-size: 60px; font-family: BACS"">ckdAmTmTm</p>","","","","","","","","",""
"html-keyboard-response","210","282307","0.0-12.0-0.40","5ea9cd383b32cf15448a86ac","650c16f0f2faf8d7a0d14c09","651c1ded5fc6eee35b061f67","null","null","<p style=""font-size: 60px; font-family: BACS"">uQkrduvJ</p>","","","","","","","","",""
"html-keyboard-response","211","283318","0.0-12.0-0.41","5ea9cd383b32cf15448a86ac","650c16f0f2faf8d7a0d14c09","651c1ded5fc6eee35b061f67","null","null","<p style=""font-size: 60px; font-family: BACS"">vYLUYmb</p>","","","","","","","","",""
"html-keyboard-response","212","284319","0.0-12.0-0.42","5ea9cd383b32cf15448a86ac","650c16f0f2faf8d7a0d14c09","651c1ded5fc6eee35b061f67","null","null","<p style=""font-size: 60px; font-family: BACS"">KAERMkPM</p>","","","","","","","","",""
"html-keyboard-response","213","285328","0.0-12.0-0.43","5ea9cd383b32cf15448a86ac","650c16f0f2faf8d7a0d14c09","651c1ded5fc6eee35b061f67","null","null","<p style=""font-size: 60px; font-family: BACS"">RkmdCYTOM</p>","","","","","","","","",""
"html-keyboard-response","214","286343","0.0-12.0-0.44","5ea9cd383b32cf15448a86ac","650c16f0f2faf8d7a0d14c09","651c1ded5fc6eee35b061f67","null","null","<p style=""font-size: 60px; font-family: BACS"">RhPmtRb</p>","","","","","","","","",""
"html-keyboard-response","215","287356","0.0-12.0-0.45","5ea9cd383b32cf15448a86ac","650c16f0f2faf8d7a0d14c09","651c1ded5fc6eee35b061f67","null","null","<p style=""font-size: 60px; font-family: BACS"">RkmdCOPE</p>","","","","","","","","",""
"html-keyboard-response","216","288366","0.0-12.0-0.46","5ea9cd383b32cf15448a86ac","650c16f0f2faf8d7a0d14c09","651c1ded5fc6eee35b061f67","null","null","<p style=""font-size: 60px; font-family: BACS"">uQkrdJcL</p>","","","","","","","","",""
"html-keyboard-response","217","289374","0.0-12.0-0.47","5ea9cd383b32cf15448a86ac","650c16f0f2faf8d7a0d14c09","651c1ded5fc6eee35b061f67","null","null","<p style=""font-size: 60px; font-family: BACS"">dCtMAYTOM</p>","","","","","","","","",""
"html-keyboard-response","218","290386","0.0-12.0-0.48","5ea9cd383b32cf15448a86ac","650c16f0f2faf8d7a0d14c09","651c1ded5fc6eee35b061f67","null","null","<p style=""font-size: 60px; font-family: BACS"">dKRDTmTm</p>","","","","","","","","",""
"html-keyboard-response","219","291396","0.0-12.0-0.49","5ea9cd383b32cf15448a86ac","650c16f0f2faf8d7a0d14c09","651c1ded5fc6eee35b061f67","null","null","<p style=""font-size: 60px; font-family: BACS"">aYaNGUOA</p>","","","","","","","","",""
"html-keyboard-response","220","292409","0.0-12.0-0.50","5ea9cd383b32cf15448a86ac","650c16f0f2faf8d7a0d14c09","651c1ded5fc6eee35b061f67","null","null","<p style=""font-size: 60px; font-family: BACS"">rkYLJcL</p>","","","","","","","","",""
"html-keyboard-response","221","293421","0.0-12.0-0.51","5ea9cd383b32cf15448a86ac","650c16f0f2faf8d7a0d14c09","651c1ded5fc6eee35b061f67","null","null","<p style=""font-size: 60px; font-family: BACS"">KAERMtRb</p>","","","","","","","","",""
"html-keyboard-response","222","294432","0.0-12.0-0.52","5ea9cd383b32cf15448a86ac","650c16f0f2faf8d7a0d14c09","651c1ded5fc6eee35b061f67","null","null","<p style=""font-size: 60px; font-family: BACS"">ukYZuda</p>","","","","","","","","",""
"html-keyboard-response","223","295444","0.0-12.0-0.53","5ea9cd383b32cf15448a86ac","650c16f0f2faf8d7a0d14c09","651c1ded5fc6eee35b061f67","null","null","<p style=""font-size: 60px; font-family: BACS"">OAblcGUOA</p>","","","","","","","","",""
"html-keyboard-response","224","296458","0.0-12.0-0.54","5ea9cd383b32cf15448a86ac","650c16f0f2faf8d7a0d14c09","651c1ded5fc6eee35b061f67","null","null","<p style=""font-size: 60px; font-family: BACS"">ckdAmOPE</p>","","","","","","","","",""
"html-keyboard-response","225","297467","0.0-12.0-0.55","5ea9cd383b32cf15448a86ac","650c16f0f2faf8d7a0d14c09","651c1ded5fc6eee35b061f67","null","null","<p style=""font-size: 60px; font-family: BACS"">mdlauda</p>","","","","","","","","",""
"html-keyboard-response","226","298478","0.0-12.0-0.56","5ea9cd383b32cf15448a86ac","650c16f0f2faf8d7a0d14c09","651c1ded5fc6eee35b061f67","null","null","<p style=""font-size: 60px; font-family: BACS"">GJZmYmb</p>","","","","","","","","",""
"html-keyboard-response","227","299492","0.0-12.0-0.57","5ea9cd383b32cf15448a86ac","650c16f0f2faf8d7a0d14c09","651c1ded5fc6eee35b061f67","null","null","<p style=""font-size: 60px; font-family: BACS"">OYuvbuda</p>","","","","","","","","",""
"html-keyboard-response","228","300502","0.0-12.0-0.58","5ea9cd383b32cf15448a86ac","650c16f0f2faf8d7a0d14c09","651c1ded5fc6eee35b061f67","null","null","<p style=""font-size: 60px; font-family: BACS"">vYLUJcL</p>","","","","","","","","",""
"html-keyboard-response","229","301516","0.0-12.0-0.59","5ea9cd383b32cf15448a86ac","650c16f0f2faf8d7a0d14c09","651c1ded5fc6eee35b061f67","null","null","<p style=""font-size: 60px; font-family: BACS"">OAmAdtRb</p>","","","","","","","","",""
"html-keyboard-response","230","302526","0.0-12.0-0.60","5ea9cd383b32cf15448a86ac","650c16f0f2faf8d7a0d14c09","651c1ded5fc6eee35b061f67","null","null","<p style=""font-size: 60px; font-family: BACS"">KElBTmTm</p>","","","","","","","","",""
"html-keyboard-response","231","303535","0.0-12.0-0.61","5ea9cd383b32cf15448a86ac","650c16f0f2faf8d7a0d14c09","651c1ded5fc6eee35b061f67","null","null","<p style=""font-size: 60px; font-family: BACS"">OAmAdOPE</p>","","","","","","","","",""
"html-keyboard-response","232","304546","0.0-12.0-0.62","5ea9cd383b32cf15448a86ac","650c16f0f2faf8d7a0d14c09","651c1ded5fc6eee35b061f67","null","null","<p style=""font-size: 60px; font-family: BACS"">uQkrdYmb</p>","","","","","","","","",""
"html-keyboard-response","233","305559","0.0-12.0-0.63","5ea9cd383b32cf15448a86ac","650c16f0f2faf8d7a0d14c09","651c1ded5fc6eee35b061f67","null","null","<p style=""font-size: 60px; font-family: BACS"">kMbTROPE</p>","","","","","","","","",""
"html-keyboard-response","234","306569","0.0-12.0-0.64","5ea9cd383b32cf15448a86ac","650c16f0f2faf8d7a0d14c09","651c1ded5fc6eee35b061f67","null","null","<p style=""font-size: 60px; font-family: BACS"">OAblcuda</p>","","","","","","","","",""
"html-keyboard-response","235","307581","0.0-12.0-0.65","5ea9cd383b32cf15448a86ac","650c16f0f2faf8d7a0d14c09","651c1ded5fc6eee35b061f67","null","null","<p style=""font-size: 60px; font-family: BACS"">RdPtDTmTm</p>","","","","","","","","",""
"html-keyboard-response","236","308594","0.0-12.0-0.66","5ea9cd383b32cf15448a86ac","650c16f0f2faf8d7a0d14c09","651c1ded5fc6eee35b061f67","null","null","<p style=""font-size: 60px; font-family: BACS"">GJZmuvJ</p>","","","","","","","","",""
"html-keyboard-response","237","309607","0.0-12.0-0.67","5ea9cd383b32cf15448a86ac","650c16f0f2faf8d7a0d14c09","651c1ded5fc6eee35b061f67","null","null","<p style=""font-size: 60px; font-family: BACS"">LGkAGUOA</p>","","","","","","","","",""
"html-keyboard-response","238","310617","0.0-12.0-0.68","5ea9cd383b32cf15448a86ac","650c16f0f2faf8d7a0d14c09","651c1ded5fc6eee35b061f67","null","null","<p style=""font-size: 60px; font-family: BACS"">GJZmuda</p>","","","","","","","","",""
"html-keyboard-response","239","311625","0.0-12.0-0.69","5ea9cd383b32cf15448a86ac","650c16f0f2faf8d7a0d14c09","651c1ded5fc6eee35b061f67","null","null","<p style=""font-size: 60px; font-family: BACS"">RdPtDkPM</p>","","","","","","","","",""
"html-keyboard-response","240","312639","0.0-12.0-0.70","5ea9cd383b32cf15448a86ac","650c16f0f2faf8d7a0d14c09","651c1ded5fc6eee35b061f67","null","null","<p style=""font-size: 60px; font-family: BACS"">rkYLYmb</p>","","","","","","","","",""
"html-keyboard-response","241","313650","0.0-12.0-0.71","5ea9cd383b32cf15448a86ac","650c16f0f2faf8d7a0d14c09","651c1ded5fc6eee35b061f67","null","null","<p style=""font-size: 60px; font-family: BACS"">aYaNJcL</p>","","","","","","","","",""
"html-keyboard-response","242","314665","0.0-12.0-0.72","5ea9cd383b32cf15448a86ac","650c16f0f2faf8d7a0d14c09","651c1ded5fc6eee35b061f67","null","null","<p style=""font-size: 60px; font-family: BACS"">RdPtDYTOM</p>","","","","","","","","",""
"html-keyboard-response","243","315673","0.0-12.0-0.73","5ea9cd383b32cf15448a86ac","650c16f0f2faf8d7a0d14c09","651c1ded5fc6eee35b061f67","null","null","<p style=""font-size: 60px; font-family: BACS"">ckdAmkPM</p>","","","","","","","","",""
"html-keyboard-response","244","316682","0.0-12.0-0.74","5ea9cd383b32cf15448a86ac","650c16f0f2faf8d7a0d14c09","651c1ded5fc6eee35b061f67","null","null","<p style=""font-size: 60px; font-family: BACS"">mdlaYmb</p>","","","","","","","","",""
"html-keyboard-response","245","317692","0.0-12.0-0.75","5ea9cd383b32cf15448a86ac","650c16f0f2faf8d7a0d14c09","651c1ded5fc6eee35b061f67","null","null","<p style=""font-size: 60px; font-family: BACS"">dCtMATmTm</p>","","","","","","","","",""
"html-keyboard-response","246","318702","0.0-12.0-0.76","5ea9cd383b32cf15448a86ac","650c16f0f2faf8d7a0d14c09","651c1ded5fc6eee35b061f67","null","null","<p style=""font-size: 60px; font-family: BACS"">vYLUuvJ</p>","","","","","","","","",""
"html-keyboard-response","247","319716","0.0-12.0-0.77","5ea9cd383b32cf15448a86ac","650c16f0f2faf8d7a0d14c09","651c1ded5fc6eee35b061f67","null","null","<p style=""font-size: 60px; font-family: BACS"">mdlaGUOA</p>","","","","","","","","",""
"html-keyboard-response","248","320727","0.0-12.0-0.78","5ea9cd383b32cf15448a86ac","650c16f0f2faf8d7a0d14c09","651c1ded5fc6eee35b061f67","null","null","<p style=""font-size: 60px; font-family: BACS"">LGkAJcL</p>","","","","","","","","",""
"html-keyboard-response","249","321742","0.0-12.0-0.79","5ea9cd383b32cf15448a86ac","650c16f0f2faf8d7a0d14c09","651c1ded5fc6eee35b061f67","null","null","<p style=""font-size: 60px; font-family: BACS"">dKRDtRb</p>","","","","","","","","",""
"html-keyboard-response","250","372364","0.0-13.0","5ea9cd383b32cf15448a86ac","650c16f0f2faf8d7a0d14c09","651c1ded5fc6eee35b061f67","50621"," ","<p>Great, you've seen the third block of words. You may now take a short break.</p>
      <p>Press the spacebar when you're ready to continue.</p>","","","","","","","","",""
"html-keyboard-response","251","373365","0.0-14.0-0.0","5ea9cd383b32cf15448a86ac","650c16f0f2faf8d7a0d14c09","651c1ded5fc6eee35b061f67","null","null","<p style=""font-size: 60px; font-family: BACS"">dCtMAkPM</p>","","","","","","","","",""
"html-keyboard-response","252","374372","0.0-14.0-0.1","5ea9cd383b32cf15448a86ac","650c16f0f2faf8d7a0d14c09","651c1ded5fc6eee35b061f67","null","null","<p style=""font-size: 60px; font-family: BACS"">kMbTRYTOM</p>","","","","","","","","",""
"html-keyboard-response","253","375388","0.0-14.0-0.2","5ea9cd383b32cf15448a86ac","650c16f0f2faf8d7a0d14c09","651c1ded5fc6eee35b061f67","null","null","<p style=""font-size: 60px; font-family: BACS"">vYLUuvJ</p>","","","","","","","","",""
"html-keyboard-response","254","376394","0.0-14.0-0.3","5ea9cd383b32cf15448a86ac","650c16f0f2faf8d7a0d14c09","651c1ded5fc6eee35b061f67","null","null","<p style=""font-size: 60px; font-family: BACS"">ukYZuda</p>","","","","","","","","",""
"html-keyboard-response","255","377395","0.0-14.0-0.4","5ea9cd383b32cf15448a86ac","650c16f0f2faf8d7a0d14c09","651c1ded5fc6eee35b061f67","null","null","<p style=""font-size: 60px; font-family: BACS"">GJZmuvJ</p>","","","","","","","","",""
"html-keyboard-response","256","378405","0.0-14.0-0.5","5ea9cd383b32cf15448a86ac","650c16f0f2faf8d7a0d14c09","651c1ded5fc6eee35b061f67","null","null","<p style=""font-size: 60px; font-family: BACS"">KAERMkPM</p>","","","","","","","","",""
"html-keyboard-response","257","379415","0.0-14.0-0.6","5ea9cd383b32cf15448a86ac","650c16f0f2faf8d7a0d14c09","651c1ded5fc6eee35b061f67","null","null","<p style=""font-size: 60px; font-family: BACS"">mdlaJcL</p>","","","","","","","","",""
"html-keyboard-response","258","380429","0.0-14.0-0.7","5ea9cd383b32cf15448a86ac","650c16f0f2faf8d7a0d14c09","651c1ded5fc6eee35b061f67","null","null","<p style=""font-size: 60px; font-family: BACS"">ckdAmtRb</p>","","","","","","","","",""
"html-keyboard-response","259","381439","0.0-14.0-0.8","5ea9cd383b32cf15448a86ac","650c16f0f2faf8d7a0d14c09","651c1ded5fc6eee35b061f67","null","null","<p style=""font-size: 60px; font-family: BACS"">GJZmuda</p>","","","","","","","","",""
"html-keyboard-response","260","382449","0.0-14.0-0.9","5ea9cd383b32cf15448a86ac","650c16f0f2faf8d7a0d14c09","651c1ded5fc6eee35b061f67","null","null","<p style=""font-size: 60px; font-family: BACS"">uQkrdJcL</p>","","","","","","","","",""
"html-keyboard-response","261","383460","0.0-14.0-0.10","5ea9cd383b32cf15448a86ac","650c16f0f2faf8d7a0d14c09","651c1ded5fc6eee35b061f67","null","null","<p style=""font-size: 60px; font-family: BACS"">dKRDtRb</p>","","","","","","","","",""
"html-keyboard-response","262","384473","0.0-14.0-0.11","5ea9cd383b32cf15448a86ac","650c16f0f2faf8d7a0d14c09","651c1ded5fc6eee35b061f67","null","null","<p style=""font-size: 60px; font-family: BACS"">KAERMOPE</p>","","","","","","","","",""
"html-keyboard-response","263","385481","0.0-14.0-0.12","5ea9cd383b32cf15448a86ac","650c16f0f2faf8d7a0d14c09","651c1ded5fc6eee35b061f67","null","null","<p style=""font-size: 60px; font-family: BACS"">RdPtDTmTm</p>","","","","","","","","",""
"html-keyboard-response","264","386483","0.0-14.0-0.13","5ea9cd383b32cf15448a86ac","650c16f0f2faf8d7a0d14c09","651c1ded5fc6eee35b061f67","null","null","<p style=""font-size: 60px; font-family: BACS"">kMbTROPE</p>","","","","","","","","",""
"html-keyboard-response","265","387497","0.0-14.0-0.14","5ea9cd383b32cf15448a86ac","650c16f0f2faf8d7a0d14c09","651c1ded5fc6eee35b061f67","null","null","<p style=""font-size: 60px; font-family: BACS"">OYuvbYmb</p>","","","","","","","","",""
"html-keyboard-response","266","388508","0.0-14.0-0.15","5ea9cd383b32cf15448a86ac","650c16f0f2faf8d7a0d14c09","651c1ded5fc6eee35b061f67","null","null","<p style=""font-size: 60px; font-family: BACS"">KElBOPE</p>","","","","","","","","",""
"html-keyboard-response","267","389517","0.0-14.0-0.16","5ea9cd383b32cf15448a86ac","650c16f0f2faf8d7a0d14c09","651c1ded5fc6eee35b061f67","null","null","<p style=""font-size: 60px; font-family: BACS"">dCtMATmTm</p>","","","","","","","","",""
"html-keyboard-response","268","390527","0.0-14.0-0.17","5ea9cd383b32cf15448a86ac","650c16f0f2faf8d7a0d14c09","651c1ded5fc6eee35b061f67","null","null","<p style=""font-size: 60px; font-family: BACS"">dKRDOPE</p>","","","","","","","","",""
"html-keyboard-response","269","391537","0.0-14.0-0.18","5ea9cd383b32cf15448a86ac","650c16f0f2faf8d7a0d14c09","651c1ded5fc6eee35b061f67","null","null","<p style=""font-size: 60px; font-family: BACS"">KElBtRb</p>","","","","","","","","",""
"html-keyboard-response","270","392550","0.0-14.0-0.19","5ea9cd383b32cf15448a86ac","650c16f0f2faf8d7a0d14c09","651c1ded5fc6eee35b061f67","null","null","<p style=""font-size: 60px; font-family: BACS"">rkYLJcL</p>","","","","","","","","",""
"html-keyboard-response","271","393556","0.0-14.0-0.20","5ea9cd383b32cf15448a86ac","650c16f0f2faf8d7a0d14c09","651c1ded5fc6eee35b061f67","null","null","<p style=""font-size: 60px; font-family: BACS"">RhPmYTOM</p>","","","","","","","","",""
"html-keyboard-response","272","394557","0.0-14.0-0.21","5ea9cd383b32cf15448a86ac","650c16f0f2faf8d7a0d14c09","651c1ded5fc6eee35b061f67","null","null","<p style=""font-size: 60px; font-family: BACS"">OAmAdkPM</p>","","","","","","","","",""
"html-keyboard-response","273","395571","0.0-14.0-0.22","5ea9cd383b32cf15448a86ac","650c16f0f2faf8d7a0d14c09","651c1ded5fc6eee35b061f67","null","null","<p style=""font-size: 60px; font-family: BACS"">KElBYTOM</p>","","","","","","","","",""
"html-keyboard-response","274","396580","0.0-14.0-0.23","5ea9cd383b32cf15448a86ac","650c16f0f2faf8d7a0d14c09","651c1ded5fc6eee35b061f67","null","null","<p style=""font-size: 60px; font-family: BACS"">RhPmkPM</p>","","","","","","","","",""
"html-keyboard-response","275","397588","0.0-14.0-0.24","5ea9cd383b32cf15448a86ac","650c16f0f2faf8d7a0d14c09","651c1ded5fc6eee35b061f67","null","null","<p style=""font-size: 60px; font-family: BACS"">dCtMAYTOM</p>","","","","","","","","",""
"html-keyboard-response","276","398602","0.0-14.0-0.25","5ea9cd383b32cf15448a86ac","650c16f0f2faf8d7a0d14c09","651c1ded5fc6eee35b061f67","null","null","<p style=""font-size: 60px; font-family: BACS"">RdPtDOPE</p>","","","","","","","","",""
"html-keyboard-response","277","399612","0.0-14.0-0.26","5ea9cd383b32cf15448a86ac","650c16f0f2faf8d7a0d14c09","651c1ded5fc6eee35b061f67","null","null","<p style=""font-size: 60px; font-family: BACS"">KAERMYTOM</p>","","","","","","","","",""
"html-keyboard-response","278","400624","0.0-14.0-0.27","5ea9cd383b32cf15448a86ac","650c16f0f2faf8d7a0d14c09","651c1ded5fc6eee35b061f67","null","null","<p style=""font-size: 60px; font-family: BACS"">ckdAmkPM</p>","","","","","","","","",""
"html-keyboard-response","279","401639","0.0-14.0-0.28","5ea9cd383b32cf15448a86ac","650c16f0f2faf8d7a0d14c09","651c1ded5fc6eee35b061f67","null","null","<p style=""font-size: 60px; font-family: BACS"">dCtMAtRb</p>","","","","","","","","",""
"html-keyboard-response","280","402652","0.0-14.0-0.29","5ea9cd383b32cf15448a86ac","650c16f0f2faf8d7a0d14c09","651c1ded5fc6eee35b061f67","null","null","<p style=""font-size: 60px; font-family: BACS"">KElBTmTm</p>","","","","","","","","",""
"html-keyboard-response","281","403662","0.0-14.0-0.30","5ea9cd383b32cf15448a86ac","650c16f0f2faf8d7a0d14c09","651c1ded5fc6eee35b061f67","null","null","<p style=""font-size: 60px; font-family: BACS"">vYLUYmb</p>","","","","","","","","",""
"html-keyboard-response","282","404676","0.0-14.0-0.31","5ea9cd383b32cf15448a86ac","650c16f0f2faf8d7a0d14c09","651c1ded5fc6eee35b061f67","null","null","<p style=""font-size: 60px; font-family: BACS"">OAmAdtRb</p>","","","","","","","","",""
"html-keyboard-response","283","405689","0.0-14.0-0.32","5ea9cd383b32cf15448a86ac","650c16f0f2faf8d7a0d14c09","651c1ded5fc6eee35b061f67","null","null","<p style=""font-size: 60px; font-family: BACS"">mdlaGUOA</p>","","","","","","","","",""
"html-keyboard-response","284","406701","0.0-14.0-0.33","5ea9cd383b32cf15448a86ac","650c16f0f2faf8d7a0d14c09","651c1ded5fc6eee35b061f67","null","null","<p style=""font-size: 60px; font-family: BACS"">KAERMtRb</p>","","","","","","","","",""
"html-keyboard-response","285","407711","0.0-14.0-0.34","5ea9cd383b32cf15448a86ac","650c16f0f2faf8d7a0d14c09","651c1ded5fc6eee35b061f67","null","null","<p style=""font-size: 60px; font-family: BACS"">aYaNuda</p>","","","","","","","","",""
"html-keyboard-response","286","408724","0.0-14.0-0.35","5ea9cd383b32cf15448a86ac","650c16f0f2faf8d7a0d14c09","651c1ded5fc6eee35b061f67","null","null","<p style=""font-size: 60px; font-family: BACS"">rkYLGUOA</p>","","","","","","","","",""
"html-keyboard-response","287","409735","0.0-14.0-0.36","5ea9cd383b32cf15448a86ac","650c16f0f2faf8d7a0d14c09","651c1ded5fc6eee35b061f67","null","null","<p style=""font-size: 60px; font-family: BACS"">mdlauda</p>","","","","","","","","",""
"html-keyboard-response","288","410743","0.0-14.0-0.37","5ea9cd383b32cf15448a86ac","650c16f0f2faf8d7a0d14c09","651c1ded5fc6eee35b061f67","null","null","<p style=""font-size: 60px; font-family: BACS"">OAblcJcL</p>","","","","","","","","",""
"html-keyboard-response","289","411750","0.0-14.0-0.38","5ea9cd383b32cf15448a86ac","650c16f0f2faf8d7a0d14c09","651c1ded5fc6eee35b061f67","null","null","<p style=""font-size: 60px; font-family: BACS"">aYaNGUOA</p>","","","","","","","","",""
"html-keyboard-response","290","412760","0.0-14.0-0.39","5ea9cd383b32cf15448a86ac","650c16f0f2faf8d7a0d14c09","651c1ded5fc6eee35b061f67","null","null","<p style=""font-size: 60px; font-family: BACS"">rkYLYmb</p>","","","","","","","","",""
"html-keyboard-response","291","413773","0.0-14.0-0.40","5ea9cd383b32cf15448a86ac","650c16f0f2faf8d7a0d14c09","651c1ded5fc6eee35b061f67","null","null","<p style=""font-size: 60px; font-family: BACS"">OAblcGUOA</p>","","","","","","","","",""
"html-keyboard-response","292","414782","0.0-14.0-0.41","5ea9cd383b32cf15448a86ac","650c16f0f2faf8d7a0d14c09","651c1ded5fc6eee35b061f67","null","null","<p style=""font-size: 60px; font-family: BACS"">RkmdCTmTm</p>","","","","","","","","",""
"html-keyboard-response","293","415794","0.0-14.0-0.42","5ea9cd383b32cf15448a86ac","650c16f0f2faf8d7a0d14c09","651c1ded5fc6eee35b061f67","null","null","<p style=""font-size: 60px; font-family: BACS"">GJZmYmb</p>","","","","","","","","",""
"html-keyboard-response","294","416805","0.0-14.0-0.43","5ea9cd383b32cf15448a86ac","650c16f0f2faf8d7a0d14c09","651c1ded5fc6eee35b061f67","null","null","<p style=""font-size: 60px; font-family: BACS"">uQkrduda</p>","","","","","","","","",""
"html-keyboard-response","295","417817","0.0-14.0-0.44","5ea9cd383b32cf15448a86ac","650c16f0f2faf8d7a0d14c09","651c1ded5fc6eee35b061f67","null","null","<p style=""font-size: 60px; font-family: BACS"">LGkAYmb</p>","","","","","","","","",""
"html-keyboard-response","296","418832","0.0-14.0-0.45","5ea9cd383b32cf15448a86ac","650c16f0f2faf8d7a0d14c09","651c1ded5fc6eee35b061f67","null","null","<p style=""font-size: 60px; font-family: BACS"">OYuvbuda</p>","","","","","","","","",""
"html-keyboard-response","297","419845","0.0-14.0-0.46","5ea9cd383b32cf15448a86ac","650c16f0f2faf8d7a0d14c09","651c1ded5fc6eee35b061f67","null","null","<p style=""font-size: 60px; font-family: BACS"">LGkAGUOA</p>","","","","","","","","",""
"html-keyboard-response","298","420854","0.0-14.0-0.47","5ea9cd383b32cf15448a86ac","650c16f0f2faf8d7a0d14c09","651c1ded5fc6eee35b061f67","null","null","<p style=""font-size: 60px; font-family: BACS"">vYLUuda</p>","","","","","","","","",""
"html-keyboard-response","299","421868","0.0-14.0-0.48","5ea9cd383b32cf15448a86ac","650c16f0f2faf8d7a0d14c09","651c1ded5fc6eee35b061f67","null","null","<p style=""font-size: 60px; font-family: BACS"">OYuvbuvJ</p>","","","","","","","","",""
"html-keyboard-response","300","422878","0.0-14.0-0.49","5ea9cd383b32cf15448a86ac","650c16f0f2faf8d7a0d14c09","651c1ded5fc6eee35b061f67","null","null","<p style=""font-size: 60px; font-family: BACS"">RdPtDYTOM</p>","","","","","","","","",""
"html-keyboard-response","301","423879","0.0-14.0-0.50","5ea9cd383b32cf15448a86ac","650c16f0f2faf8d7a0d14c09","651c1ded5fc6eee35b061f67","null","null","<p style=""font-size: 60px; font-family: BACS"">LGkAuvJ</p>","","","","","","","","",""
"html-keyboard-response","302","424891","0.0-14.0-0.51","5ea9cd383b32cf15448a86ac","650c16f0f2faf8d7a0d14c09","651c1ded5fc6eee35b061f67","null","null","<p style=""font-size: 60px; font-family: BACS"">RhPmtRb</p>","","","","","","","","",""
"html-keyboard-response","303","425902","0.0-14.0-0.52","5ea9cd383b32cf15448a86ac","650c16f0f2faf8d7a0d14c09","651c1ded5fc6eee35b061f67","null","null","<p style=""font-size: 60px; font-family: BACS"">RdPtDkPM</p>","","","","","","","","",""
"html-keyboard-response","304","426913","0.0-14.0-0.53","5ea9cd383b32cf15448a86ac","650c16f0f2faf8d7a0d14c09","651c1ded5fc6eee35b061f67","null","null","<p style=""font-size: 60px; font-family: BACS"">ckdAmTmTm</p>","","","","","","","","",""
"html-keyboard-response","305","427925","0.0-14.0-0.54","5ea9cd383b32cf15448a86ac","650c16f0f2faf8d7a0d14c09","651c1ded5fc6eee35b061f67","null","null","<p style=""font-size: 60px; font-family: BACS"">aYaNJcL</p>","","","","","","","","",""
"html-keyboard-response","306","428934","0.0-14.0-0.55","5ea9cd383b32cf15448a86ac","650c16f0f2faf8d7a0d14c09","651c1ded5fc6eee35b061f67","null","null","<p style=""font-size: 60px; font-family: BACS"">GJZmGUOA</p>","","","","","","","","",""
"html-keyboard-response","307","429948","0.0-14.0-0.56","5ea9cd383b32cf15448a86ac","650c16f0f2faf8d7a0d14c09","651c1ded5fc6eee35b061f67","null","null","<p style=""font-size: 60px; font-family: BACS"">rkYLuvJ</p>","","","","","","","","",""
"html-keyboard-response","308","430961","0.0-14.0-0.57","5ea9cd383b32cf15448a86ac","650c16f0f2faf8d7a0d14c09","651c1ded5fc6eee35b061f67","null","null","<p style=""font-size: 60px; font-family: BACS"">RkmdCYTOM</p>","","","","","","","","",""
"html-keyboard-response","309","431975","0.0-14.0-0.58","5ea9cd383b32cf15448a86ac","650c16f0f2faf8d7a0d14c09","651c1ded5fc6eee35b061f67","null","null","<p style=""font-size: 60px; font-family: BACS"">ckdAmOPE</p>","","","","","","","","",""
"html-keyboard-response","310","432982","0.0-14.0-0.59","5ea9cd383b32cf15448a86ac","650c16f0f2faf8d7a0d14c09","651c1ded5fc6eee35b061f67","null","null","<p style=""font-size: 60px; font-family: BACS"">OAblcuda</p>","","","","","","","","",""
"html-keyboard-response","311","433992","0.0-14.0-0.60","5ea9cd383b32cf15448a86ac","650c16f0f2faf8d7a0d14c09","651c1ded5fc6eee35b061f67","null","null","<p style=""font-size: 60px; font-family: BACS"">ukYZJcL</p>","","","","","","","","",""
"html-keyboard-response","312","435004","0.0-14.0-0.61","5ea9cd383b32cf15448a86ac","650c16f0f2faf8d7a0d14c09","651c1ded5fc6eee35b061f67","null","null","<p style=""font-size: 60px; font-family: BACS"">kMbTRkPM</p>","","","","","","","","",""
"html-keyboard-response","313","436011","0.0-14.0-0.62","5ea9cd383b32cf15448a86ac","650c16f0f2faf8d7a0d14c09","651c1ded5fc6eee35b061f67","null","null","<p style=""font-size: 60px; font-family: BACS"">OAmAdOPE</p>","","","","","","","","",""
"html-keyboard-response","314","437022","0.0-14.0-0.63","5ea9cd383b32cf15448a86ac","650c16f0f2faf8d7a0d14c09","651c1ded5fc6eee35b061f67","null","null","<p style=""font-size: 60px; font-family: BACS"">LGkAJcL</p>","","","","","","","","",""
"html-keyboard-response","315","438032","0.0-14.0-0.64","5ea9cd383b32cf15448a86ac","650c16f0f2faf8d7a0d14c09","651c1ded5fc6eee35b061f67","null","null","<p style=""font-size: 60px; font-family: BACS"">RhPmTmTm</p>","","","","","","","","",""
"html-keyboard-response","316","439048","0.0-14.0-0.65","5ea9cd383b32cf15448a86ac","650c16f0f2faf8d7a0d14c09","651c1ded5fc6eee35b061f67","null","null","<p style=""font-size: 60px; font-family: BACS"">mdlaYmb</p>","","","","","","","","",""
"html-keyboard-response","317","440057","0.0-14.0-0.66","5ea9cd383b32cf15448a86ac","650c16f0f2faf8d7a0d14c09","651c1ded5fc6eee35b061f67","null","null","<p style=""font-size: 60px; font-family: BACS"">aYaNuvJ</p>","","","","","","","","",""
"html-keyboard-response","318","441067","0.0-14.0-0.67","5ea9cd383b32cf15448a86ac","650c16f0f2faf8d7a0d14c09","651c1ded5fc6eee35b061f67","null","null","<p style=""font-size: 60px; font-family: BACS"">ukYZGUOA</p>","","","","","","","","",""
"html-keyboard-response","319","442074","0.0-14.0-0.68","5ea9cd383b32cf15448a86ac","650c16f0f2faf8d7a0d14c09","651c1ded5fc6eee35b061f67","null","null","<p style=""font-size: 60px; font-family: BACS"">kMbTRtRb</p>","","","","","","","","",""
"html-keyboard-response","320","443088","0.0-14.0-0.69","5ea9cd383b32cf15448a86ac","650c16f0f2faf8d7a0d14c09","651c1ded5fc6eee35b061f67","null","null","<p style=""font-size: 60px; font-family: BACS"">uQkrdYmb</p>","","","","","","","","",""
"html-keyboard-response","321","444100","0.0-14.0-0.70","5ea9cd383b32cf15448a86ac","650c16f0f2faf8d7a0d14c09","651c1ded5fc6eee35b061f67","null","null","<p style=""font-size: 60px; font-family: BACS"">dKRDTmTm</p>","","","","","","","","",""
"html-keyboard-response","322","445114","0.0-14.0-0.71","5ea9cd383b32cf15448a86ac","650c16f0f2faf8d7a0d14c09","651c1ded5fc6eee35b061f67","null","null","<p style=""font-size: 60px; font-family: BACS"">vYLUJcL</p>","","","","","","","","",""
"html-keyboard-response","323","446122","0.0-14.0-0.72","5ea9cd383b32cf15448a86ac","650c16f0f2faf8d7a0d14c09","651c1ded5fc6eee35b061f67","null","null","<p style=""font-size: 60px; font-family: BACS"">RkmdCkPM</p>","","","","","","","","",""
"html-keyboard-response","324","447136","0.0-14.0-0.73","5ea9cd383b32cf15448a86ac","650c16f0f2faf8d7a0d14c09","651c1ded5fc6eee35b061f67","null","null","<p style=""font-size: 60px; font-family: BACS"">dKRDYTOM</p>","","","","","","","","",""
"html-keyboard-response","325","448147","0.0-14.0-0.74","5ea9cd383b32cf15448a86ac","650c16f0f2faf8d7a0d14c09","651c1ded5fc6eee35b061f67","null","null","<p style=""font-size: 60px; font-family: BACS"">ukYZYmb</p>","","","","","","","","",""
"html-keyboard-response","326","449158","0.0-14.0-0.75","5ea9cd383b32cf15448a86ac","650c16f0f2faf8d7a0d14c09","651c1ded5fc6eee35b061f67","null","null","<p style=""font-size: 60px; font-family: BACS"">uQkrduvJ</p>","","","","","","","","",""
"html-keyboard-response","327","450170","0.0-14.0-0.76","5ea9cd383b32cf15448a86ac","650c16f0f2faf8d7a0d14c09","651c1ded5fc6eee35b061f67","null","null","<p style=""font-size: 60px; font-family: BACS"">OAmAdTmTm</p>","","","","","","","","",""
"html-keyboard-response","328","451178","0.0-14.0-0.77","5ea9cd383b32cf15448a86ac","650c16f0f2faf8d7a0d14c09","651c1ded5fc6eee35b061f67","null","null","<p style=""font-size: 60px; font-family: BACS"">OYuvbGUOA</p>","","","","","","","","",""
"html-keyboard-response","329","452189","0.0-14.0-0.78","5ea9cd383b32cf15448a86ac","650c16f0f2faf8d7a0d14c09","651c1ded5fc6eee35b061f67","null","null","<p style=""font-size: 60px; font-family: BACS"">OAblcuvJ</p>","","","","","","","","",""
"html-keyboard-response","330","453200","0.0-14.0-0.79","5ea9cd383b32cf15448a86ac","650c16f0f2faf8d7a0d14c09","651c1ded5fc6eee35b061f67","null","null","<p style=""font-size: 60px; font-family: BACS"">RkmdCOPE</p>","","","","","","","","",""
"html-keyboard-response","331","459670","0.0-15.0","5ea9cd383b32cf15448a86ac","650c16f0f2faf8d7a0d14c09","651c1ded5fc6eee35b061f67","6470"," ","<p>Great, you've seen the fourth block of words. You may now take a short break.</p>
      <p>Press the spacebar when you're ready to continue.</p>","","","","","","","","",""
"html-keyboard-response","332","460674","0.0-16.0-0.0","5ea9cd383b32cf15448a86ac","650c16f0f2faf8d7a0d14c09","651c1ded5fc6eee35b061f67","null","null","<p style=""font-size: 60px; font-family: BACS"">kMbTRYTOM</p>","","","","","","","","",""
"html-keyboard-response","333","461681","0.0-16.0-0.1","5ea9cd383b32cf15448a86ac","650c16f0f2faf8d7a0d14c09","651c1ded5fc6eee35b061f67","null","null","<p style=""font-size: 60px; font-family: BACS"">kMbTRYTOM</p>","","","","","","","","",""
"html-keyboard-response","334","462696","0.0-16.0-0.2","5ea9cd383b32cf15448a86ac","650c16f0f2faf8d7a0d14c09","651c1ded5fc6eee35b061f67","null","null","<p style=""font-size: 60px; font-family: BACS"">kMbTRYTOM</p>","","","","","","","","",""
"html-keyboard-response","335","463710","0.0-16.0-0.3","5ea9cd383b32cf15448a86ac","650c16f0f2faf8d7a0d14c09","651c1ded5fc6eee35b061f67","null","null","<p style=""font-size: 60px; font-family: BACS"">kMbTRYTOM</p>","","","","","","","","",""
"html-keyboard-response","336","464719","0.0-16.0-0.4","5ea9cd383b32cf15448a86ac","650c16f0f2faf8d7a0d14c09","651c1ded5fc6eee35b061f67","null","null","<p style=""font-size: 60px; font-family: BACS"">kMbTRYTOM</p>","","","","","","","","",""
"html-keyboard-response","337","465732","0.0-16.0-0.5","5ea9cd383b32cf15448a86ac","650c16f0f2faf8d7a0d14c09","651c1ded5fc6eee35b061f67","null","null","<p style=""font-size: 60px; font-family: BACS"">kMbTRYTOM</p>","","","","","","","","",""
"html-keyboard-response","338","466747","0.0-16.0-0.6","5ea9cd383b32cf15448a86ac","650c16f0f2faf8d7a0d14c09","651c1ded5fc6eee35b061f67","null","null","<p style=""font-size: 60px; font-family: BACS"">kMbTRYTOM</p>","","","","","","","","",""
"html-keyboard-response","339","467749","0.0-16.0-0.7","5ea9cd383b32cf15448a86ac","650c16f0f2faf8d7a0d14c09","651c1ded5fc6eee35b061f67","null","null","<p style=""font-size: 60px; font-family: BACS"">kMbTRYTOM</p>","","","","","","","","",""
"html-keyboard-response","340","468756","0.0-16.0-0.8","5ea9cd383b32cf15448a86ac","650c16f0f2faf8d7a0d14c09","651c1ded5fc6eee35b061f67","null","null","<p style=""font-size: 60px; font-family: BACS"">kMbTRYTOM</p>","","","","","","","","",""
"html-keyboard-response","341","469757","0.0-16.0-0.9","5ea9cd383b32cf15448a86ac","650c16f0f2faf8d7a0d14c09","651c1ded5fc6eee35b061f67","null","null","<p style=""font-size: 60px; font-family: BACS"">kMbTRYTOM</p>","","","","","","","","",""
"html-keyboard-response","342","470758","0.0-16.0-0.10","5ea9cd383b32cf15448a86ac","650c16f0f2faf8d7a0d14c09","651c1ded5fc6eee35b061f67","null","null","<p style=""font-size: 60px; font-family: BACS"">kMbTRYTOM</p>","","","","","","","","",""
"html-keyboard-response","343","471773","0.0-16.0-0.11","5ea9cd383b32cf15448a86ac","650c16f0f2faf8d7a0d14c09","651c1ded5fc6eee35b061f67","null","null","<p style=""font-size: 60px; font-family: BACS"">kMbTRYTOM</p>","","","","","","","","",""
"html-keyboard-response","344","472786","0.0-16.0-0.12","5ea9cd383b32cf15448a86ac","650c16f0f2faf8d7a0d14c09","651c1ded5fc6eee35b061f67","null","null","<p style=""font-size: 60px; font-family: BACS"">kMbTRYTOM</p>","","","","","","","","",""
"html-keyboard-response","345","473795","0.0-16.0-0.13","5ea9cd383b32cf15448a86ac","650c16f0f2faf8d7a0d14c09","651c1ded5fc6eee35b061f67","null","null","<p style=""font-size: 60px; font-family: BACS"">kMbTRYTOM</p>","","","","","","","","",""
"html-keyboard-response","346","474804","0.0-16.0-0.14","5ea9cd383b32cf15448a86ac","650c16f0f2faf8d7a0d14c09","651c1ded5fc6eee35b061f67","null","null","<p style=""font-size: 60px; font-family: BACS"">kMbTRYTOM</p>","","","","","","","","",""
"html-keyboard-response","347","475817","0.0-16.0-0.15","5ea9cd383b32cf15448a86ac","650c16f0f2faf8d7a0d14c09","651c1ded5fc6eee35b061f67","null","null","<p style=""font-size: 60px; font-family: BACS"">kMbTRYTOM</p>","","","","","","","","",""
"html-keyboard-response","348","476819","0.0-16.0-0.16","5ea9cd383b32cf15448a86ac","650c16f0f2faf8d7a0d14c09","651c1ded5fc6eee35b061f67","null","null","<p style=""font-size: 60px; font-family: BACS"">kMbTRYTOM</p>","","","","","","","","",""
"html-keyboard-response","349","477827","0.0-16.0-0.17","5ea9cd383b32cf15448a86ac","650c16f0f2faf8d7a0d14c09","651c1ded5fc6eee35b061f67","null","null","<p style=""font-size: 60px; font-family: BACS"">kMbTRYTOM</p>","","","","","","","","",""
"html-keyboard-response","350","478837","0.0-16.0-0.18","5ea9cd383b32cf15448a86ac","650c16f0f2faf8d7a0d14c09","651c1ded5fc6eee35b061f67","null","null","<p style=""font-size: 60px; font-family: BACS"">kMbTRYTOM</p>","","","","","","","","",""
"html-keyboard-response","351","479845","0.0-16.0-0.19","5ea9cd383b32cf15448a86ac","650c16f0f2faf8d7a0d14c09","651c1ded5fc6eee35b061f67","null","null","<p style=""font-size: 60px; font-family: BACS"">kMbTRYTOM</p>","","","","","","","","",""
"html-keyboard-response","352","480858","0.0-16.0-0.20","5ea9cd383b32cf15448a86ac","650c16f0f2faf8d7a0d14c09","651c1ded5fc6eee35b061f67","null","null","<p style=""font-size: 60px; font-family: BACS"">kMbTRYTOM</p>","","","","","","","","",""
"html-keyboard-response","353","481870","0.0-16.0-0.21","5ea9cd383b32cf15448a86ac","650c16f0f2faf8d7a0d14c09","651c1ded5fc6eee35b061f67","null","null","<p style=""font-size: 60px; font-family: BACS"">kMbTRYTOM</p>","","","","","","","","",""
"html-keyboard-response","354","482885","0.0-16.0-0.22","5ea9cd383b32cf15448a86ac","650c16f0f2faf8d7a0d14c09","651c1ded5fc6eee35b061f67","null","null","<p style=""font-size: 60px; font-family: BACS"">kMbTRYTOM</p>","","","","","","","","",""
"html-keyboard-response","355","483897","0.0-16.0-0.23","5ea9cd383b32cf15448a86ac","650c16f0f2faf8d7a0d14c09","651c1ded5fc6eee35b061f67","null","null","<p style=""font-size: 60px; font-family: BACS"">kMbTRYTOM</p>","","","","","","","","",""
"html-keyboard-response","356","484906","0.0-16.0-0.24","5ea9cd383b32cf15448a86ac","650c16f0f2faf8d7a0d14c09","651c1ded5fc6eee35b061f67","null","null","<p style=""font-size: 60px; font-family: BACS"">kMbTRYTOM</p>","","","","","","","","",""
"html-keyboard-response","357","485915","0.0-16.0-0.25","5ea9cd383b32cf15448a86ac","650c16f0f2faf8d7a0d14c09","651c1ded5fc6eee35b061f67","null","null","<p style=""font-size: 60px; font-family: BACS"">kMbTRYTOM</p>","","","","","","","","",""
"html-keyboard-response","358","486924","0.0-16.0-0.26","5ea9cd383b32cf15448a86ac","650c16f0f2faf8d7a0d14c09","651c1ded5fc6eee35b061f67","null","null","<p style=""font-size: 60px; font-family: BACS"">kMbTRYTOM</p>","","","","","","","","",""
"html-keyboard-response","359","487936","0.0-16.0-0.27","5ea9cd383b32cf15448a86ac","650c16f0f2faf8d7a0d14c09","651c1ded5fc6eee35b061f67","null","null","<p style=""font-size: 60px; font-family: BACS"">kMbTRYTOM</p>","","","","","","","","",""
"html-keyboard-response","360","488949","0.0-16.0-0.28","5ea9cd383b32cf15448a86ac","650c16f0f2faf8d7a0d14c09","651c1ded5fc6eee35b061f67","null","null","<p style=""font-size: 60px; font-family: BACS"">kMbTRYTOM</p>","","","","","","","","",""
"html-keyboard-response","361","489961","0.0-16.0-0.29","5ea9cd383b32cf15448a86ac","650c16f0f2faf8d7a0d14c09","651c1ded5fc6eee35b061f67","null","null","<p style=""font-size: 60px; font-family: BACS"">kMbTRYTOM</p>","","","","","","","","",""
"html-keyboard-response","362","490974","0.0-16.0-0.30","5ea9cd383b32cf15448a86ac","650c16f0f2faf8d7a0d14c09","651c1ded5fc6eee35b061f67","null","null","<p style=""font-size: 60px; font-family: BACS"">kMbTRYTOM</p>","","","","","","","","",""
"html-keyboard-response","363","491983","0.0-16.0-0.31","5ea9cd383b32cf15448a86ac","650c16f0f2faf8d7a0d14c09","651c1ded5fc6eee35b061f67","null","null","<p style=""font-size: 60px; font-family: BACS"">kMbTRYTOM</p>","","","","","","","","",""
"html-keyboard-response","364","492995","0.0-16.0-0.32","5ea9cd383b32cf15448a86ac","650c16f0f2faf8d7a0d14c09","651c1ded5fc6eee35b061f67","null","null","<p style=""font-size: 60px; font-family: BACS"">kMbTRYTOM</p>","","","","","","","","",""
"html-keyboard-response","365","494010","0.0-16.0-0.33","5ea9cd383b32cf15448a86ac","650c16f0f2faf8d7a0d14c09","651c1ded5fc6eee35b061f67","null","null","<p style=""font-size: 60px; font-family: BACS"">kMbTRYTOM</p>","","","","","","","","",""
"html-keyboard-response","366","495014","0.0-16.0-0.34","5ea9cd383b32cf15448a86ac","650c16f0f2faf8d7a0d14c09","651c1ded5fc6eee35b061f67","null","null","<p style=""font-size: 60px; font-family: BACS"">kMbTRYTOM</p>","","","","","","","","",""
"html-keyboard-response","367","496027","0.0-16.0-0.35","5ea9cd383b32cf15448a86ac","650c16f0f2faf8d7a0d14c09","651c1ded5fc6eee35b061f67","null","null","<p style=""font-size: 60px; font-family: BACS"">kMbTRYTOM</p>","","","","","","","","",""
"html-keyboard-response","368","497035","0.0-16.0-0.36","5ea9cd383b32cf15448a86ac","650c16f0f2faf8d7a0d14c09","651c1ded5fc6eee35b061f67","null","null","<p style=""font-size: 60px; font-family: BACS"">kMbTRYTOM</p>","","","","","","","","",""
"html-keyboard-response","369","498042","0.0-16.0-0.37","5ea9cd383b32cf15448a86ac","650c16f0f2faf8d7a0d14c09","651c1ded5fc6eee35b061f67","null","null","<p style=""font-size: 60px; font-family: BACS"">kMbTRYTOM</p>","","","","","","","","",""
"html-keyboard-response","370","499054","0.0-16.0-0.38","5ea9cd383b32cf15448a86ac","650c16f0f2faf8d7a0d14c09","651c1ded5fc6eee35b061f67","null","null","<p style=""font-size: 60px; font-family: BACS"">kMbTRYTOM</p>","","","","","","","","",""
"html-keyboard-response","371","500067","0.0-16.0-0.39","5ea9cd383b32cf15448a86ac","650c16f0f2faf8d7a0d14c09","651c1ded5fc6eee35b061f67","null","null","<p style=""font-size: 60px; font-family: BACS"">kMbTRYTOM</p>","","","","","","","","",""
"html-keyboard-response","372","501079","0.0-16.0-0.40","5ea9cd383b32cf15448a86ac","650c16f0f2faf8d7a0d14c09","651c1ded5fc6eee35b061f67","null","null","<p style=""font-size: 60px; font-family: BACS"">kMbTRYTOM</p>","","","","","","","","",""
"html-keyboard-response","373","502086","0.0-16.0-0.41","5ea9cd383b32cf15448a86ac","650c16f0f2faf8d7a0d14c09","651c1ded5fc6eee35b061f67","null","null","<p style=""font-size: 60px; font-family: BACS"">kMbTRYTOM</p>","","","","","","","","",""
"html-keyboard-response","374","503097","0.0-16.0-0.42","5ea9cd383b32cf15448a86ac","650c16f0f2faf8d7a0d14c09","651c1ded5fc6eee35b061f67","null","null","<p style=""font-size: 60px; font-family: BACS"">kMbTRYTOM</p>","","","","","","","","",""
"html-keyboard-response","375","504106","0.0-16.0-0.43","5ea9cd383b32cf15448a86ac","650c16f0f2faf8d7a0d14c09","651c1ded5fc6eee35b061f67","null","null","<p style=""font-size: 60px; font-family: BACS"">kMbTRYTOM</p>","","","","","","","","",""
"html-keyboard-response","376","505120","0.0-16.0-0.44","5ea9cd383b32cf15448a86ac","650c16f0f2faf8d7a0d14c09","651c1ded5fc6eee35b061f67","null","null","<p style=""font-size: 60px; font-family: BACS"">kMbTRYTOM</p>","","","","","","","","",""
"html-keyboard-response","377","506132","0.0-16.0-0.45","5ea9cd383b32cf15448a86ac","650c16f0f2faf8d7a0d14c09","651c1ded5fc6eee35b061f67","null","null","<p style=""font-size: 60px; font-family: BACS"">kMbTRYTOM</p>","","","","","","","","",""
"html-keyboard-response","378","507146","0.0-16.0-0.46","5ea9cd383b32cf15448a86ac","650c16f0f2faf8d7a0d14c09","651c1ded5fc6eee35b061f67","null","null","<p style=""font-size: 60px; font-family: BACS"">kMbTRYTOM</p>","","","","","","","","",""
"html-keyboard-response","379","508160","0.0-16.0-0.47","5ea9cd383b32cf15448a86ac","650c16f0f2faf8d7a0d14c09","651c1ded5fc6eee35b061f67","null","null","<p style=""font-size: 60px; font-family: BACS"">kMbTRYTOM</p>","","","","","","","","",""
"html-keyboard-response","380","509171","0.0-16.0-0.48","5ea9cd383b32cf15448a86ac","650c16f0f2faf8d7a0d14c09","651c1ded5fc6eee35b061f67","null","null","<p style=""font-size: 60px; font-family: BACS"">kMbTRYTOM</p>","","","","","","","","",""
"html-keyboard-response","381","510182","0.0-16.0-0.49","5ea9cd383b32cf15448a86ac","650c16f0f2faf8d7a0d14c09","651c1ded5fc6eee35b061f67","null","null","<p style=""font-size: 60px; font-family: BACS"">kMbTRYTOM</p>","","","","","","","","",""
"html-keyboard-response","382","511185","0.0-16.0-0.50","5ea9cd383b32cf15448a86ac","650c16f0f2faf8d7a0d14c09","651c1ded5fc6eee35b061f67","null","null","<p style=""font-size: 60px; font-family: BACS"">kMbTRYTOM</p>","","","","","","","","",""
"html-keyboard-response","383","512197","0.0-16.0-0.51","5ea9cd383b32cf15448a86ac","650c16f0f2faf8d7a0d14c09","651c1ded5fc6eee35b061f67","null","null","<p style=""font-size: 60px; font-family: BACS"">kMbTRYTOM</p>","","","","","","","","",""
"html-keyboard-response","384","513210","0.0-16.0-0.52","5ea9cd383b32cf15448a86ac","650c16f0f2faf8d7a0d14c09","651c1ded5fc6eee35b061f67","null","null","<p style=""font-size: 60px; font-family: BACS"">kMbTRYTOM</p>","","","","","","","","",""
"html-keyboard-response","385","514222","0.0-16.0-0.53","5ea9cd383b32cf15448a86ac","650c16f0f2faf8d7a0d14c09","651c1ded5fc6eee35b061f67","null","null","<p style=""font-size: 60px; font-family: BACS"">kMbTRYTOM</p>","","","","","","","","",""
"html-keyboard-response","386","515234","0.0-16.0-0.54","5ea9cd383b32cf15448a86ac","650c16f0f2faf8d7a0d14c09","651c1ded5fc6eee35b061f67","null","null","<p style=""font-size: 60px; font-family: BACS"">kMbTRYTOM</p>","","","","","","","","",""
"html-keyboard-response","387","516248","0.0-16.0-0.55","5ea9cd383b32cf15448a86ac","650c16f0f2faf8d7a0d14c09","651c1ded5fc6eee35b061f67","null","null","<p style=""font-size: 60px; font-family: BACS"">kMbTRYTOM</p>","","","","","","","","",""
"html-keyboard-response","388","517257","0.0-16.0-0.56","5ea9cd383b32cf15448a86ac","650c16f0f2faf8d7a0d14c09","651c1ded5fc6eee35b061f67","null","null","<p style=""font-size: 60px; font-family: BACS"">kMbTRYTOM</p>","","","","","","","","",""
"html-keyboard-response","389","518263","0.0-16.0-0.57","5ea9cd383b32cf15448a86ac","650c16f0f2faf8d7a0d14c09","651c1ded5fc6eee35b061f67","null","null","<p style=""font-size: 60px; font-family: BACS"">kMbTRYTOM</p>","","","","","","","","",""
"html-keyboard-response","390","519270","0.0-16.0-0.58","5ea9cd383b32cf15448a86ac","650c16f0f2faf8d7a0d14c09","651c1ded5fc6eee35b061f67","null","null","<p style=""font-size: 60px; font-family: BACS"">kMbTRYTOM</p>","","","","","","","","",""
"html-keyboard-response","391","520273","0.0-16.0-0.59","5ea9cd383b32cf15448a86ac","650c16f0f2faf8d7a0d14c09","651c1ded5fc6eee35b061f67","null","null","<p style=""font-size: 60px; font-family: BACS"">kMbTRYTOM</p>","","","","","","","","",""
"html-keyboard-response","392","521281","0.0-16.0-0.60","5ea9cd383b32cf15448a86ac","650c16f0f2faf8d7a0d14c09","651c1ded5fc6eee35b061f67","null","null","<p style=""font-size: 60px; font-family: BACS"">kMbTRYTOM</p>","","","","","","","","",""
"html-keyboard-response","393","522288","0.0-16.0-0.61","5ea9cd383b32cf15448a86ac","650c16f0f2faf8d7a0d14c09","651c1ded5fc6eee35b061f67","null","null","<p style=""font-size: 60px; font-family: BACS"">kMbTRYTOM</p>","","","","","","","","",""
"html-keyboard-response","394","523303","0.0-16.0-0.62","5ea9cd383b32cf15448a86ac","650c16f0f2faf8d7a0d14c09","651c1ded5fc6eee35b061f67","null","null","<p style=""font-size: 60px; font-family: BACS"">kMbTRYTOM</p>","","","","","","","","",""
"html-keyboard-response","395","524312","0.0-16.0-0.63","5ea9cd383b32cf15448a86ac","650c16f0f2faf8d7a0d14c09","651c1ded5fc6eee35b061f67","null","null","<p style=""font-size: 60px; font-family: BACS"">kMbTRYTOM</p>","","","","","","","","",""
"html-keyboard-response","396","525322","0.0-16.0-0.64","5ea9cd383b32cf15448a86ac","650c16f0f2faf8d7a0d14c09","651c1ded5fc6eee35b061f67","null","null","<p style=""font-size: 60px; font-family: BACS"">kMbTRYTOM</p>","","","","","","","","",""
"html-keyboard-response","397","526334","0.0-16.0-0.65","5ea9cd383b32cf15448a86ac","650c16f0f2faf8d7a0d14c09","651c1ded5fc6eee35b061f67","null","null","<p style=""font-size: 60px; font-family: BACS"">kMbTRYTOM</p>","","","","","","","","",""
"html-keyboard-response","398","527346","0.0-16.0-0.66","5ea9cd383b32cf15448a86ac","650c16f0f2faf8d7a0d14c09","651c1ded5fc6eee35b061f67","null","null","<p style=""font-size: 60px; font-family: BACS"">kMbTRYTOM</p>","","","","","","","","",""
