"trial_type","trial_index","time_elapsed","internal_node_id","subject_id","study_id","session_id","rt","response","stimulus","success","item","task","correct_response","testing_condition","correct","target","confound","name"
"pavlovia","0","1101","0.0-0.0","5c1bfabab0fcc900019d9ff4","650c16f0f2faf8d7a0d14c09","651c34a6d0f8783c6e98a452","","","","","","","","","","","",""
"survey-html-form","1","16564","0.0-1.0","5c1bfabab0fcc900019d9ff4","650c16f0f2faf8d7a0d14c09","651c34a6d0f8783c6e98a452","15459","{""ID"":""5c1bfabab0fcc900019d9ff4""}","","","","","","","","","",""
"html-keyboard-response","2","98497","0.0-2.0","5c1bfabab0fcc900019d9ff4","650c16f0f2faf8d7a0d14c09","651c34a6d0f8783c6e98a452","81930"," ","<p style=""font-size: 15px;"">Before beginning, we ask that you read the consent information and confirm your agreement to participate in the experiment.</p>
      <p style=""font-size: 15px;""> We ask that you remember that this is a research project and that your participation is entirely voluntary. You can stop your participation at any time, without needing to provide any explanation. The study we're asking you to participate in aims at examining how readers process written words. You will be engaged in a session of apprximately 20 minutes, followed by a brief questionnaire. You will have the opportunity to take a few breaks during the experiment. You will be paid £4 for your participation, corresponding to a rate of £8/hour. While this experiment looks at cognitive faculties, this experiment doesn't constitute clinical proof of eventual pathologies.</p>
      <p style=""font-size: 15px;"">All of the information collected thanks to yours and others' participation will be held in a secure password-protected server, and will not be shared with anyone not authorised to view it. Your personal information will be kept with an arbitrary participant ID. Thanks to this data anonymity process, any researcher analysing the data won't be able to track the information back to a specific participant. Therefore, this process will make identifying you impossibile, even when results from the study will be published in scientific reviews, presented at congresses, or at any other public forum. More generally, the collected data will be treated in accordance with the laws on privacy and conformity to the Legislative Degree n. 196 ""Code regarding the protection of personal data"" of the 30th of June 2003 and to the European Regulation 2016/670 (General Data Protection Regulation - GDPR). The Data Protection Officer is Avv. Valentina Carollo, who can be contacted at the following email addresses: <a href=""mailto:dpo@sissa.it"">dpo@sissa.it</a> or <a href=""mailto:rpd@sissa.it"">rpd@sissa.it</a> - PEC: <a href=""mailto:protocollo@pec.sissa.it"">protocollo@pec.sissa.it</a>.</p>
      <p style=""font-size: 15px;""> Before expressing your consent to participate, we would like to remind you again that in case you need explanations on any aspect of the experimental procedure, the researcher is at your disposition (<a href=""mailto:aliebelt@sissa.it"">aliebelt@sissa.it</a>, <a href=""mailto:davide.crepaldi@sissa.it"">davide.crepaldi@sissa.it</a>).</p>
      <p style=""font-size: 15px;"">If you would like to download the informed consent form, you can do so here: <a href=""BASL-Informed_Consent.pdf"" download>informed consent form</a>.</p>
      <p style=""font-size: 15px;"">We ask that you press the spacebar to proceed to the consent section.</p>","","","","","","","","",""
"survey-html-form","3","124835","0.0-3.0","5c1bfabab0fcc900019d9ff4","650c16f0f2faf8d7a0d14c09","651c34a6d0f8783c6e98a452","26335","{""consent1"":""YES"",""consent2"":""YES"",""consent3"":""YES"",""consent4"":""YES"",""consent5"":""YES"",""consent6"":""YES""}","","","","","","","","","",""
"fullscreen","4","130767","0.0-4.0","5c1bfabab0fcc900019d9ff4","650c16f0f2faf8d7a0d14c09","651c34a6d0f8783c6e98a452","","","","true","","","","","","","",""
"html-keyboard-response","5","168684","0.0-5.0","5c1bfabab0fcc900019d9ff4","650c16f0f2faf8d7a0d14c09","651c34a6d0f8783c6e98a452","37915"," ","<p>Welcome, and thank you very much for your time!</p>
      <p>In this experiment, you'll be a language expert who's been asked to take a look at words that Earth has received in its first communication with aliens. Your task, in this first part of the experiment, is to pay close attention to the words you'll be shown; later, world leaders will ask you questions on what you saw. The words will be shown to you quite quickly; it seems that the aliens were in a hurry :-)</p>
      <p>Press the spacebar to continue.<p>","","","","","","","","",""
"html-keyboard-response","6","168736","0.0-6.0","5c1bfabab0fcc900019d9ff4","650c16f0f2faf8d7a0d14c09","651c34a6d0f8783c6e98a452","null","null","<p style=""font-size: 120px; font-family: BACS""> </p>","","","","","","","","",""
"html-keyboard-response","7","190196","0.0-7.0","5c1bfabab0fcc900019d9ff4","650c16f0f2faf8d7a0d14c09","651c34a6d0f8783c6e98a452","21458"," ","<p>Here is an example of the words you'll see:</p>
      <img src='esempio.png' height='400px'>
      <p>When you're ready to begin, press the spacebar.</p></div>","","","","","","","","",""
"html-keyboard-response","8","191204","0.0-8.0-0.0","5c1bfabab0fcc900019d9ff4","650c16f0f2faf8d7a0d14c09","651c34a6d0f8783c6e98a452","null","null","<p style=""font-size: 60px; font-family: BACS"">AYkEhlMck</p>","","","","","","","","",""
"html-keyboard-response","9","192212","0.0-8.0-0.1","5c1bfabab0fcc900019d9ff4","650c16f0f2faf8d7a0d14c09","651c34a6d0f8783c6e98a452","null","null","<p style=""font-size: 60px; font-family: BACS"">TdmATbk</p>","","","","","","","","",""
"html-keyboard-response","10","193215","0.0-8.0-0.2","5c1bfabab0fcc900019d9ff4","650c16f0f2faf8d7a0d14c09","651c34a6d0f8783c6e98a452","null","null","<p style=""font-size: 60px; font-family: BACS"">ObOQlrGl</p>","","","","","","","","",""
"html-keyboard-response","11","194223","0.0-8.0-0.3","5c1bfabab0fcc900019d9ff4","650c16f0f2faf8d7a0d14c09","651c34a6d0f8783c6e98a452","null","null","<p style=""font-size: 60px; font-family: BACS"">rLkmrkra</p>","","","","","","","","",""
"html-keyboard-response","12","195225","0.0-8.0-0.4","5c1bfabab0fcc900019d9ff4","650c16f0f2faf8d7a0d14c09","651c34a6d0f8783c6e98a452","null","null","<p style=""font-size: 60px; font-family: BACS"">rvAJYUYa</p>","","","","","","","","",""
"html-keyboard-response","13","196232","0.0-8.0-0.5","5c1bfabab0fcc900019d9ff4","650c16f0f2faf8d7a0d14c09","651c34a6d0f8783c6e98a452","null","null","<p style=""font-size: 60px; font-family: BACS"">DRPkYTbk</p>","","","","","","","","",""
"html-keyboard-response","14","197234","0.0-8.0-0.6","5c1bfabab0fcc900019d9ff4","650c16f0f2faf8d7a0d14c09","651c34a6d0f8783c6e98a452","null","null","<p style=""font-size: 60px; font-family: BACS"">EdBblMck</p>","","","","","","","","",""
"html-keyboard-response","15","198241","0.0-8.0-0.7","5c1bfabab0fcc900019d9ff4","650c16f0f2faf8d7a0d14c09","651c34a6d0f8783c6e98a452","null","null","<p style=""font-size: 60px; font-family: BACS"">rkJuAZbl</p>","","","","","","","","",""
"html-keyboard-response","16","199242","0.0-8.0-0.8","5c1bfabab0fcc900019d9ff4","650c16f0f2faf8d7a0d14c09","651c34a6d0f8783c6e98a452","null","null","<p style=""font-size: 60px; font-family: BACS"">kcdOtEcR</p>","","","","","","","","",""
"html-keyboard-response","17","200252","0.0-8.0-0.9","5c1bfabab0fcc900019d9ff4","650c16f0f2faf8d7a0d14c09","651c34a6d0f8783c6e98a452","null","null","<p style=""font-size: 60px; font-family: BACS"">DRPkYlMck</p>","","","","","","","","",""
"html-keyboard-response","18","201254","0.0-8.0-0.10","5c1bfabab0fcc900019d9ff4","650c16f0f2faf8d7a0d14c09","651c34a6d0f8783c6e98a452","null","null","<p style=""font-size: 60px; font-family: BACS"">bYGOZQvlZ</p>","","","","","","","","",""
"html-keyboard-response","19","202256","0.0-8.0-0.11","5c1bfabab0fcc900019d9ff4","650c16f0f2faf8d7a0d14c09","651c34a6d0f8783c6e98a452","null","null","<p style=""font-size: 60px; font-family: BACS"">rkJurkra</p>","","","","","","","","",""
"html-keyboard-response","20","203259","0.0-8.0-0.12","5c1bfabab0fcc900019d9ff4","650c16f0f2faf8d7a0d14c09","651c34a6d0f8783c6e98a452","null","null","<p style=""font-size: 60px; font-family: BACS"">TdmAEcR</p>","","","","","","","","",""
"html-keyboard-response","21","204265","0.0-8.0-0.13","5c1bfabab0fcc900019d9ff4","650c16f0f2faf8d7a0d14c09","651c34a6d0f8783c6e98a452","null","null","<p style=""font-size: 60px; font-family: BACS"">vuJZuAZbl</p>","","","","","","","","",""
"html-keyboard-response","22","205267","0.0-8.0-0.14","5c1bfabab0fcc900019d9ff4","650c16f0f2faf8d7a0d14c09","651c34a6d0f8783c6e98a452","null","null","<p style=""font-size: 60px; font-family: BACS"">COTKlMck</p>","","","","","","","","",""
"html-keyboard-response","23","206270","0.0-8.0-0.15","5c1bfabab0fcc900019d9ff4","650c16f0f2faf8d7a0d14c09","651c34a6d0f8783c6e98a452","null","null","<p style=""font-size: 60px; font-family: BACS"">TdmAPMYm</p>","","","","","","","","",""
"html-keyboard-response","24","207281","0.0-8.0-0.16","5c1bfabab0fcc900019d9ff4","650c16f0f2faf8d7a0d14c09","651c34a6d0f8783c6e98a452","null","null","<p style=""font-size: 60px; font-family: BACS"">LcNUJAZbl</p>","","","","","","","","",""
"html-keyboard-response","25","208282","0.0-8.0-0.17","5c1bfabab0fcc900019d9ff4","650c16f0f2faf8d7a0d14c09","651c34a6d0f8783c6e98a452","null","null","<p style=""font-size: 60px; font-family: BACS"">kcdOtlMck</p>","","","","","","","","",""
"html-keyboard-response","26","209284","0.0-8.0-0.18","5c1bfabab0fcc900019d9ff4","650c16f0f2faf8d7a0d14c09","651c34a6d0f8783c6e98a452","null","null","<p style=""font-size: 60px; font-family: BACS"">COTKTbk</p>","","","","","","","","",""
"html-keyboard-response","27","210294","0.0-8.0-0.19","5c1bfabab0fcc900019d9ff4","650c16f0f2faf8d7a0d14c09","651c34a6d0f8783c6e98a452","null","null","<p style=""font-size: 60px; font-family: BACS"">rLkmYUYa</p>","","","","","","","","",""
"html-keyboard-response","28","211296","0.0-8.0-0.20","5c1bfabab0fcc900019d9ff4","650c16f0f2faf8d7a0d14c09","651c34a6d0f8783c6e98a452","null","null","<p style=""font-size: 60px; font-family: BACS"">COTKRYlD</p>","","","","","","","","",""
"html-keyboard-response","29","212298","0.0-8.0-0.21","5c1bfabab0fcc900019d9ff4","650c16f0f2faf8d7a0d14c09","651c34a6d0f8783c6e98a452","null","null","<p style=""font-size: 60px; font-family: BACS"">CDEmYTbk</p>","","","","","","","","",""
"html-keyboard-response","30","213300","0.0-8.0-0.22","5c1bfabab0fcc900019d9ff4","650c16f0f2faf8d7a0d14c09","651c34a6d0f8783c6e98a452","null","null","<p style=""font-size: 60px; font-family: BACS"">kcdOtPMYm</p>","","","","","","","","",""
"html-keyboard-response","31","214301","0.0-8.0-0.23","5c1bfabab0fcc900019d9ff4","650c16f0f2faf8d7a0d14c09","651c34a6d0f8783c6e98a452","null","null","<p style=""font-size: 60px; font-family: BACS"">lBKtRYlD</p>","","","","","","","","",""
"html-keyboard-response","32","215303","0.0-8.0-0.24","5c1bfabab0fcc900019d9ff4","650c16f0f2faf8d7a0d14c09","651c34a6d0f8783c6e98a452","null","null","<p style=""font-size: 60px; font-family: BACS"">UYZlZrkra</p>","","","","","","","","",""
"html-keyboard-response","33","216305","0.0-8.0-0.25","5c1bfabab0fcc900019d9ff4","650c16f0f2faf8d7a0d14c09","651c34a6d0f8783c6e98a452","null","null","<p style=""font-size: 60px; font-family: BACS"">LcNUJYUYa</p>","","","","","","","","",""
"html-keyboard-response","34","217319","0.0-8.0-0.26","5c1bfabab0fcc900019d9ff4","650c16f0f2faf8d7a0d14c09","651c34a6d0f8783c6e98a452","null","null","<p style=""font-size: 60px; font-family: BACS"">EdBbEcR</p>","","","","","","","","",""
"html-keyboard-response","35","218321","0.0-8.0-0.27","5c1bfabab0fcc900019d9ff4","650c16f0f2faf8d7a0d14c09","651c34a6d0f8783c6e98a452","null","null","<p style=""font-size: 60px; font-family: BACS"">ObOQlYUYa</p>","","","","","","","","",""
"html-keyboard-response","36","219327","0.0-8.0-0.28","5c1bfabab0fcc900019d9ff4","650c16f0f2faf8d7a0d14c09","651c34a6d0f8783c6e98a452","null","null","<p style=""font-size: 60px; font-family: BACS"">TdmARYlD</p>","","","","","","","","",""
"html-keyboard-response","37","220329","0.0-8.0-0.29","5c1bfabab0fcc900019d9ff4","650c16f0f2faf8d7a0d14c09","651c34a6d0f8783c6e98a452","null","null","<p style=""font-size: 60px; font-family: BACS"">rLkmrGl</p>","","","","","","","","",""
"html-keyboard-response","38","221340","0.0-8.0-0.30","5c1bfabab0fcc900019d9ff4","650c16f0f2faf8d7a0d14c09","651c34a6d0f8783c6e98a452","null","null","<p style=""font-size: 60px; font-family: BACS"">UYZlZAZbl</p>","","","","","","","","",""
"html-keyboard-response","39","222353","0.0-8.0-0.31","5c1bfabab0fcc900019d9ff4","650c16f0f2faf8d7a0d14c09","651c34a6d0f8783c6e98a452","null","null","<p style=""font-size: 60px; font-family: BACS"">COTKEcR</p>","","","","","","","","",""
"html-keyboard-response","40","223355","0.0-8.0-0.32","5c1bfabab0fcc900019d9ff4","650c16f0f2faf8d7a0d14c09","651c34a6d0f8783c6e98a452","null","null","<p style=""font-size: 60px; font-family: BACS"">CDEmYRYlD</p>","","","","","","","","",""
"html-keyboard-response","41","224364","0.0-8.0-0.33","5c1bfabab0fcc900019d9ff4","650c16f0f2faf8d7a0d14c09","651c34a6d0f8783c6e98a452","null","null","<p style=""font-size: 60px; font-family: BACS"">ObOQlQvlZ</p>","","","","","","","","",""
"html-keyboard-response","42","225366","0.0-8.0-0.34","5c1bfabab0fcc900019d9ff4","650c16f0f2faf8d7a0d14c09","651c34a6d0f8783c6e98a452","null","null","<p style=""font-size: 60px; font-family: BACS"">LcNUJrGl</p>","","","","","","","","",""
"html-keyboard-response","43","226368","0.0-8.0-0.35","5c1bfabab0fcc900019d9ff4","650c16f0f2faf8d7a0d14c09","651c34a6d0f8783c6e98a452","null","null","<p style=""font-size: 60px; font-family: BACS"">CDEmYEcR</p>","","","","","","","","",""
"html-keyboard-response","44","227385","0.0-8.0-0.36","5c1bfabab0fcc900019d9ff4","650c16f0f2faf8d7a0d14c09","651c34a6d0f8783c6e98a452","null","null","<p style=""font-size: 60px; font-family: BACS"">UYZlZQvlZ</p>","","","","","","","","",""
"html-keyboard-response","45","228387","0.0-8.0-0.37","5c1bfabab0fcc900019d9ff4","650c16f0f2faf8d7a0d14c09","651c34a6d0f8783c6e98a452","null","null","<p style=""font-size: 60px; font-family: BACS"">ObOQlAZbl</p>","","","","","","","","",""
"html-keyboard-response","46","229389","0.0-8.0-0.38","5c1bfabab0fcc900019d9ff4","650c16f0f2faf8d7a0d14c09","651c34a6d0f8783c6e98a452","null","null","<p style=""font-size: 60px; font-family: BACS"">AYkEhEcR</p>","","","","","","","","",""
"html-keyboard-response","47","230391","0.0-8.0-0.39","5c1bfabab0fcc900019d9ff4","650c16f0f2faf8d7a0d14c09","651c34a6d0f8783c6e98a452","null","null","<p style=""font-size: 60px; font-family: BACS"">LcNUJrkra</p>","","","","","","","","",""
"html-keyboard-response","48","231393","0.0-8.0-0.40","5c1bfabab0fcc900019d9ff4","650c16f0f2faf8d7a0d14c09","651c34a6d0f8783c6e98a452","null","null","<p style=""font-size: 60px; font-family: BACS"">KMOcTbk</p>","","","","","","","","",""
"html-keyboard-response","49","232408","0.0-8.0-0.41","5c1bfabab0fcc900019d9ff4","650c16f0f2faf8d7a0d14c09","651c34a6d0f8783c6e98a452","null","null","<p style=""font-size: 60px; font-family: BACS"">kcdOtRYlD</p>","","","","","","","","",""
"html-keyboard-response","50","233420","0.0-8.0-0.42","5c1bfabab0fcc900019d9ff4","650c16f0f2faf8d7a0d14c09","651c34a6d0f8783c6e98a452","null","null","<p style=""font-size: 60px; font-family: BACS"">kKRCPMYm</p>","","","","","","","","",""
"html-keyboard-response","51","234422","0.0-8.0-0.43","5c1bfabab0fcc900019d9ff4","650c16f0f2faf8d7a0d14c09","651c34a6d0f8783c6e98a452","null","null","<p style=""font-size: 60px; font-family: BACS"">rvAJrGl</p>","","","","","","","","",""
"html-keyboard-response","52","235424","0.0-8.0-0.44","5c1bfabab0fcc900019d9ff4","650c16f0f2faf8d7a0d14c09","651c34a6d0f8783c6e98a452","null","null","<p style=""font-size: 60px; font-family: BACS"">KMOcPMYm</p>","","","","","","","","",""
"html-keyboard-response","53","236441","0.0-8.0-0.45","5c1bfabab0fcc900019d9ff4","650c16f0f2faf8d7a0d14c09","651c34a6d0f8783c6e98a452","null","null","<p style=""font-size: 60px; font-family: BACS"">lBKtTbk</p>","","","","","","","","",""
"html-keyboard-response","54","237442","0.0-8.0-0.46","5c1bfabab0fcc900019d9ff4","650c16f0f2faf8d7a0d14c09","651c34a6d0f8783c6e98a452","null","null","<p style=""font-size: 60px; font-family: BACS"">mbZlQvlZ</p>","","","","","","","","",""
"html-keyboard-response","55","238444","0.0-8.0-0.47","5c1bfabab0fcc900019d9ff4","650c16f0f2faf8d7a0d14c09","651c34a6d0f8783c6e98a452","null","null","<p style=""font-size: 60px; font-family: BACS"">CDEmYlMck</p>","","","","","","","","",""
"html-keyboard-response","56","239447","0.0-8.0-0.48","5c1bfabab0fcc900019d9ff4","650c16f0f2faf8d7a0d14c09","651c34a6d0f8783c6e98a452","null","null","<p style=""font-size: 60px; font-family: BACS"">vuJZurkra</p>","","","","","","","","",""
"html-keyboard-response","57","240451","0.0-8.0-0.49","5c1bfabab0fcc900019d9ff4","650c16f0f2faf8d7a0d14c09","651c34a6d0f8783c6e98a452","null","null","<p style=""font-size: 60px; font-family: BACS"">EdBbPMYm</p>","","","","","","","","",""
"html-keyboard-response","58","241465","0.0-8.0-0.50","5c1bfabab0fcc900019d9ff4","650c16f0f2faf8d7a0d14c09","651c34a6d0f8783c6e98a452","null","null","<p style=""font-size: 60px; font-family: BACS"">AYkEhTbk</p>","","","","","","","","",""
"html-keyboard-response","59","242467","0.0-8.0-0.51","5c1bfabab0fcc900019d9ff4","650c16f0f2faf8d7a0d14c09","651c34a6d0f8783c6e98a452","null","null","<p style=""font-size: 60px; font-family: BACS"">amJmrkra</p>","","","","","","","","",""
"html-keyboard-response","60","243469","0.0-8.0-0.52","5c1bfabab0fcc900019d9ff4","650c16f0f2faf8d7a0d14c09","651c34a6d0f8783c6e98a452","null","null","<p style=""font-size: 60px; font-family: BACS"">mbZlYUYa</p>","","","","","","","","",""
"html-keyboard-response","61","244471","0.0-8.0-0.53","5c1bfabab0fcc900019d9ff4","650c16f0f2faf8d7a0d14c09","651c34a6d0f8783c6e98a452","null","null","<p style=""font-size: 60px; font-family: BACS"">rLkmQvlZ</p>","","","","","","","","",""
"html-keyboard-response","62","245487","0.0-8.0-0.54","5c1bfabab0fcc900019d9ff4","650c16f0f2faf8d7a0d14c09","651c34a6d0f8783c6e98a452","null","null","<p style=""font-size: 60px; font-family: BACS"">DRPkYPMYm</p>","","","","","","","","",""
"html-keyboard-response","63","246490","0.0-8.0-0.55","5c1bfabab0fcc900019d9ff4","650c16f0f2faf8d7a0d14c09","651c34a6d0f8783c6e98a452","null","null","<p style=""font-size: 60px; font-family: BACS"">KMOcRYlD</p>","","","","","","","","",""
"html-keyboard-response","64","247505","0.0-8.0-0.56","5c1bfabab0fcc900019d9ff4","650c16f0f2faf8d7a0d14c09","651c34a6d0f8783c6e98a452","null","null","<p style=""font-size: 60px; font-family: BACS"">rvAJAZbl</p>","","","","","","","","",""
"html-keyboard-response","65","248517","0.0-8.0-0.57","5c1bfabab0fcc900019d9ff4","650c16f0f2faf8d7a0d14c09","651c34a6d0f8783c6e98a452","null","null","<p style=""font-size: 60px; font-family: BACS"">lBKtPMYm</p>","","","","","","","","",""
"html-keyboard-response","66","249519","0.0-8.0-0.58","5c1bfabab0fcc900019d9ff4","650c16f0f2faf8d7a0d14c09","651c34a6d0f8783c6e98a452","null","null","<p style=""font-size: 60px; font-family: BACS"">mbZlrkra</p>","","","","","","","","",""
"html-keyboard-response","67","250520","0.0-8.0-0.59","5c1bfabab0fcc900019d9ff4","650c16f0f2faf8d7a0d14c09","651c34a6d0f8783c6e98a452","null","null","<p style=""font-size: 60px; font-family: BACS"">kKRCEcR</p>","","","","","","","","",""
"html-keyboard-response","68","251535","0.0-8.0-0.60","5c1bfabab0fcc900019d9ff4","650c16f0f2faf8d7a0d14c09","651c34a6d0f8783c6e98a452","null","null","<p style=""font-size: 60px; font-family: BACS"">KMOclMck</p>","","","","","","","","",""
"html-keyboard-response","69","252537","0.0-8.0-0.61","5c1bfabab0fcc900019d9ff4","650c16f0f2faf8d7a0d14c09","651c34a6d0f8783c6e98a452","null","null","<p style=""font-size: 60px; font-family: BACS"">AYkEhPMYm</p>","","","","","","","","",""
"html-keyboard-response","70","253539","0.0-8.0-0.62","5c1bfabab0fcc900019d9ff4","650c16f0f2faf8d7a0d14c09","651c34a6d0f8783c6e98a452","null","null","<p style=""font-size: 60px; font-family: BACS"">amJmQvlZ</p>","","","","","","","","",""
"html-keyboard-response","71","254540","0.0-8.0-0.63","5c1bfabab0fcc900019d9ff4","650c16f0f2faf8d7a0d14c09","651c34a6d0f8783c6e98a452","null","null","<p style=""font-size: 60px; font-family: BACS"">mbZlrGl</p>","","","","","","","","",""
"html-keyboard-response","72","255553","0.0-8.0-0.64","5c1bfabab0fcc900019d9ff4","650c16f0f2faf8d7a0d14c09","651c34a6d0f8783c6e98a452","null","null","<p style=""font-size: 60px; font-family: BACS"">kKRCTbk</p>","","","","","","","","",""
"html-keyboard-response","73","256561","0.0-8.0-0.65","5c1bfabab0fcc900019d9ff4","650c16f0f2faf8d7a0d14c09","651c34a6d0f8783c6e98a452","null","null","<p style=""font-size: 60px; font-family: BACS"">EdBbRYlD</p>","","","","","","","","",""
"html-keyboard-response","74","257563","0.0-8.0-0.66","5c1bfabab0fcc900019d9ff4","650c16f0f2faf8d7a0d14c09","651c34a6d0f8783c6e98a452","null","null","<p style=""font-size: 60px; font-family: BACS"">vuJZuYUYa</p>","","","","","","","","",""
"html-keyboard-response","75","258566","0.0-8.0-0.67","5c1bfabab0fcc900019d9ff4","650c16f0f2faf8d7a0d14c09","651c34a6d0f8783c6e98a452","null","null","<p style=""font-size: 60px; font-family: BACS"">lBKtlMck</p>","","","","","","","","",""
"html-keyboard-response","76","259575","0.0-8.0-0.68","5c1bfabab0fcc900019d9ff4","650c16f0f2faf8d7a0d14c09","651c34a6d0f8783c6e98a452","null","null","<p style=""font-size: 60px; font-family: BACS"">amJmrGl</p>","","","","","","","","",""
"html-keyboard-response","77","260583","0.0-8.0-0.69","5c1bfabab0fcc900019d9ff4","650c16f0f2faf8d7a0d14c09","651c34a6d0f8783c6e98a452","null","null","<p style=""font-size: 60px; font-family: BACS"">kKRCRYlD</p>","","","","","","","","",""
"html-keyboard-response","78","261591","0.0-8.0-0.70","5c1bfabab0fcc900019d9ff4","650c16f0f2faf8d7a0d14c09","651c34a6d0f8783c6e98a452","null","null","<p style=""font-size: 60px; font-family: BACS"">rvAJrkra</p>","","","","","","","","",""
"html-keyboard-response","79","262602","0.0-8.0-0.71","5c1bfabab0fcc900019d9ff4","650c16f0f2faf8d7a0d14c09","651c34a6d0f8783c6e98a452","null","null","<p style=""font-size: 60px; font-family: BACS"">bYGOZrGl</p>","","","","","","","","",""
"html-keyboard-response","80","263613","0.0-8.0-0.72","5c1bfabab0fcc900019d9ff4","650c16f0f2faf8d7a0d14c09","651c34a6d0f8783c6e98a452","null","null","<p style=""font-size: 60px; font-family: BACS"">rkJuYUYa</p>","","","","","","","","",""
"html-keyboard-response","81","264615","0.0-8.0-0.73","5c1bfabab0fcc900019d9ff4","650c16f0f2faf8d7a0d14c09","651c34a6d0f8783c6e98a452","null","null","<p style=""font-size: 60px; font-family: BACS"">amJmAZbl</p>","","","","","","","","",""
"html-keyboard-response","82","265622","0.0-8.0-0.74","5c1bfabab0fcc900019d9ff4","650c16f0f2faf8d7a0d14c09","651c34a6d0f8783c6e98a452","null","null","<p style=""font-size: 60px; font-family: BACS"">bYGOZYUYa</p>","","","","","","","","",""
"html-keyboard-response","83","266634","0.0-8.0-0.75","5c1bfabab0fcc900019d9ff4","650c16f0f2faf8d7a0d14c09","651c34a6d0f8783c6e98a452","null","null","<p style=""font-size: 60px; font-family: BACS"">rkJuQvlZ</p>","","","","","","","","",""
"html-keyboard-response","84","267636","0.0-8.0-0.76","5c1bfabab0fcc900019d9ff4","650c16f0f2faf8d7a0d14c09","651c34a6d0f8783c6e98a452","null","null","<p style=""font-size: 60px; font-family: BACS"">bYGOZAZbl</p>","","","","","","","","",""
"html-keyboard-response","85","268638","0.0-8.0-0.77","5c1bfabab0fcc900019d9ff4","650c16f0f2faf8d7a0d14c09","651c34a6d0f8783c6e98a452","null","null","<p style=""font-size: 60px; font-family: BACS"">UYZlZrGl</p>","","","","","","","","",""
"html-keyboard-response","86","269639","0.0-8.0-0.78","5c1bfabab0fcc900019d9ff4","650c16f0f2faf8d7a0d14c09","651c34a6d0f8783c6e98a452","null","null","<p style=""font-size: 60px; font-family: BACS"">vuJZuQvlZ</p>","","","","","","","","",""
"html-keyboard-response","87","270641","0.0-8.0-0.79","5c1bfabab0fcc900019d9ff4","650c16f0f2faf8d7a0d14c09","651c34a6d0f8783c6e98a452","null","null","<p style=""font-size: 60px; font-family: BACS"">DRPkYEcR</p>","","","","","","","","",""
"html-keyboard-response","88","276780","0.0-9.0","5c1bfabab0fcc900019d9ff4","650c16f0f2faf8d7a0d14c09","651c34a6d0f8783c6e98a452","6138"," ","<p>Great, you've seen the first block of words. You may now take a short break.</p>
      <p>Press the spacebar when you're ready to continue.</p>","","","","","","","","",""
"html-keyboard-response","89","277790","0.0-10.0-0.0","5c1bfabab0fcc900019d9ff4","650c16f0f2faf8d7a0d14c09","651c34a6d0f8783c6e98a452","null","null","<p style=""font-size: 60px; font-family: BACS"">CDEmYRYlD</p>","","","","","","","","",""
"html-keyboard-response","90","278800","0.0-10.0-0.1","5c1bfabab0fcc900019d9ff4","650c16f0f2faf8d7a0d14c09","651c34a6d0f8783c6e98a452","null","null","<p style=""font-size: 60px; font-family: BACS"">mbZlQvlZ</p>","","","","","","","","",""
"html-keyboard-response","91","279802","0.0-10.0-0.2","5c1bfabab0fcc900019d9ff4","650c16f0f2faf8d7a0d14c09","651c34a6d0f8783c6e98a452","null","null","<p style=""font-size: 60px; font-family: BACS"">rvAJrkra</p>","","","","","","","","",""
"html-keyboard-response","92","280819","0.0-10.0-0.3","5c1bfabab0fcc900019d9ff4","650c16f0f2faf8d7a0d14c09","651c34a6d0f8783c6e98a452","null","null","<p style=""font-size: 60px; font-family: BACS"">COTKTbk</p>","","","","","","","","",""
"html-keyboard-response","93","281821","0.0-10.0-0.4","5c1bfabab0fcc900019d9ff4","650c16f0f2faf8d7a0d14c09","651c34a6d0f8783c6e98a452","null","null","<p style=""font-size: 60px; font-family: BACS"">kcdOtRYlD</p>","","","","","","","","",""
"html-keyboard-response","94","282823","0.0-10.0-0.5","5c1bfabab0fcc900019d9ff4","650c16f0f2faf8d7a0d14c09","651c34a6d0f8783c6e98a452","null","null","<p style=""font-size: 60px; font-family: BACS"">COTKlMck</p>","","","","","","","","",""
"html-keyboard-response","95","283825","0.0-10.0-0.6","5c1bfabab0fcc900019d9ff4","650c16f0f2faf8d7a0d14c09","651c34a6d0f8783c6e98a452","null","null","<p style=""font-size: 60px; font-family: BACS"">UYZlZrGl</p>","","","","","","","","",""
"html-keyboard-response","96","284834","0.0-10.0-0.7","5c1bfabab0fcc900019d9ff4","650c16f0f2faf8d7a0d14c09","651c34a6d0f8783c6e98a452","null","null","<p style=""font-size: 60px; font-family: BACS"">ObOQlAZbl</p>","","","","","","","","",""
"html-keyboard-response","97","285836","0.0-10.0-0.8","5c1bfabab0fcc900019d9ff4","650c16f0f2faf8d7a0d14c09","651c34a6d0f8783c6e98a452","null","null","<p style=""font-size: 60px; font-family: BACS"">kKRCTbk</p>","","","","","","","","",""
"html-keyboard-response","98","286843","0.0-10.0-0.9","5c1bfabab0fcc900019d9ff4","650c16f0f2faf8d7a0d14c09","651c34a6d0f8783c6e98a452","null","null","<p style=""font-size: 60px; font-family: BACS"">ObOQlYUYa</p>","","","","","","","","",""
"html-keyboard-response","99","287856","0.0-10.0-0.10","5c1bfabab0fcc900019d9ff4","650c16f0f2faf8d7a0d14c09","651c34a6d0f8783c6e98a452","null","null","<p style=""font-size: 60px; font-family: BACS"">vuJZuAZbl</p>","","","","","","","","",""
"html-keyboard-response","100","288865","0.0-10.0-0.11","5c1bfabab0fcc900019d9ff4","650c16f0f2faf8d7a0d14c09","651c34a6d0f8783c6e98a452","null","null","<p style=""font-size: 60px; font-family: BACS"">KMOcTbk</p>","","","","","","","","",""
"html-keyboard-response","101","289868","0.0-10.0-0.12","5c1bfabab0fcc900019d9ff4","650c16f0f2faf8d7a0d14c09","651c34a6d0f8783c6e98a452","null","null","<p style=""font-size: 60px; font-family: BACS"">AYkEhEcR</p>","","","","","","","","",""
"html-keyboard-response","102","290870","0.0-10.0-0.13","5c1bfabab0fcc900019d9ff4","650c16f0f2faf8d7a0d14c09","651c34a6d0f8783c6e98a452","null","null","<p style=""font-size: 60px; font-family: BACS"">lBKtRYlD</p>","","","","","","","","",""
"html-keyboard-response","103","291886","0.0-10.0-0.14","5c1bfabab0fcc900019d9ff4","650c16f0f2faf8d7a0d14c09","651c34a6d0f8783c6e98a452","null","null","<p style=""font-size: 60px; font-family: BACS"">bYGOZYUYa</p>","","","","","","","","",""
"html-keyboard-response","104","292897","0.0-10.0-0.15","5c1bfabab0fcc900019d9ff4","650c16f0f2faf8d7a0d14c09","651c34a6d0f8783c6e98a452","null","null","<p style=""font-size: 60px; font-family: BACS"">kKRCEcR</p>","","","","","","","","",""
"html-keyboard-response","105","293898","0.0-10.0-0.16","5c1bfabab0fcc900019d9ff4","650c16f0f2faf8d7a0d14c09","651c34a6d0f8783c6e98a452","null","null","<p style=""font-size: 60px; font-family: BACS"">LcNUJYUYa</p>","","","","","","","","",""
"html-keyboard-response","106","294900","0.0-10.0-0.17","5c1bfabab0fcc900019d9ff4","650c16f0f2faf8d7a0d14c09","651c34a6d0f8783c6e98a452","null","null","<p style=""font-size: 60px; font-family: BACS"">rvAJAZbl</p>","","","","","","","","",""
"html-keyboard-response","107","295914","0.0-10.0-0.18","5c1bfabab0fcc900019d9ff4","650c16f0f2faf8d7a0d14c09","651c34a6d0f8783c6e98a452","null","null","<p style=""font-size: 60px; font-family: BACS"">rLkmrkra</p>","","","","","","","","",""
"html-keyboard-response","108","296916","0.0-10.0-0.19","5c1bfabab0fcc900019d9ff4","650c16f0f2faf8d7a0d14c09","651c34a6d0f8783c6e98a452","null","null","<p style=""font-size: 60px; font-family: BACS"">lBKtlMck</p>","","","","","","","","",""
"html-keyboard-response","109","297919","0.0-10.0-0.20","5c1bfabab0fcc900019d9ff4","650c16f0f2faf8d7a0d14c09","651c34a6d0f8783c6e98a452","null","null","<p style=""font-size: 60px; font-family: BACS"">TdmARYlD</p>","","","","","","","","",""
"html-keyboard-response","110","298920","0.0-10.0-0.21","5c1bfabab0fcc900019d9ff4","650c16f0f2faf8d7a0d14c09","651c34a6d0f8783c6e98a452","null","null","<p style=""font-size: 60px; font-family: BACS"">kKRCPMYm</p>","","","","","","","","",""
"html-keyboard-response","111","299937","0.0-10.0-0.22","5c1bfabab0fcc900019d9ff4","650c16f0f2faf8d7a0d14c09","651c34a6d0f8783c6e98a452","null","null","<p style=""font-size: 60px; font-family: BACS"">rLkmQvlZ</p>","","","","","","","","",""
"html-keyboard-response","112","300950","0.0-10.0-0.23","5c1bfabab0fcc900019d9ff4","650c16f0f2faf8d7a0d14c09","651c34a6d0f8783c6e98a452","null","null","<p style=""font-size: 60px; font-family: BACS"">amJmrGl</p>","","","","","","","","",""
"html-keyboard-response","113","301965","0.0-10.0-0.24","5c1bfabab0fcc900019d9ff4","650c16f0f2faf8d7a0d14c09","651c34a6d0f8783c6e98a452","null","null","<p style=""font-size: 60px; font-family: BACS"">DRPkYEcR</p>","","","","","","","","",""
"html-keyboard-response","114","302966","0.0-10.0-0.25","5c1bfabab0fcc900019d9ff4","650c16f0f2faf8d7a0d14c09","651c34a6d0f8783c6e98a452","null","null","<p style=""font-size: 60px; font-family: BACS"">UYZlZAZbl</p>","","","","","","","","",""
"html-keyboard-response","115","303968","0.0-10.0-0.26","5c1bfabab0fcc900019d9ff4","650c16f0f2faf8d7a0d14c09","651c34a6d0f8783c6e98a452","null","null","<p style=""font-size: 60px; font-family: BACS"">KMOclMck</p>","","","","","","","","",""
"html-keyboard-response","116","304970","0.0-10.0-0.27","5c1bfabab0fcc900019d9ff4","650c16f0f2faf8d7a0d14c09","651c34a6d0f8783c6e98a452","null","null","<p style=""font-size: 60px; font-family: BACS"">rvAJYUYa</p>","","","","","","","","",""
"html-keyboard-response","117","305972","0.0-10.0-0.28","5c1bfabab0fcc900019d9ff4","650c16f0f2faf8d7a0d14c09","651c34a6d0f8783c6e98a452","null","null","<p style=""font-size: 60px; font-family: BACS"">KMOcRYlD</p>","","","","","","","","",""
"html-keyboard-response","118","306974","0.0-10.0-0.29","5c1bfabab0fcc900019d9ff4","650c16f0f2faf8d7a0d14c09","651c34a6d0f8783c6e98a452","null","null","<p style=""font-size: 60px; font-family: BACS"">rLkmYUYa</p>","","","","","","","","",""
"html-keyboard-response","119","307986","0.0-10.0-0.30","5c1bfabab0fcc900019d9ff4","650c16f0f2faf8d7a0d14c09","651c34a6d0f8783c6e98a452","null","null","<p style=""font-size: 60px; font-family: BACS"">CDEmYlMck</p>","","","","","","","","",""
"html-keyboard-response","120","308988","0.0-10.0-0.31","5c1bfabab0fcc900019d9ff4","650c16f0f2faf8d7a0d14c09","651c34a6d0f8783c6e98a452","null","null","<p style=""font-size: 60px; font-family: BACS"">kcdOtEcR</p>","","","","","","","","",""
"html-keyboard-response","121","309990","0.0-10.0-0.32","5c1bfabab0fcc900019d9ff4","650c16f0f2faf8d7a0d14c09","651c34a6d0f8783c6e98a452","null","null","<p style=""font-size: 60px; font-family: BACS"">EdBbRYlD</p>","","","","","","","","",""
"html-keyboard-response","122","310992","0.0-10.0-0.33","5c1bfabab0fcc900019d9ff4","650c16f0f2faf8d7a0d14c09","651c34a6d0f8783c6e98a452","null","null","<p style=""font-size: 60px; font-family: BACS"">COTKEcR</p>","","","","","","","","",""
"html-keyboard-response","123","311994","0.0-10.0-0.34","5c1bfabab0fcc900019d9ff4","650c16f0f2faf8d7a0d14c09","651c34a6d0f8783c6e98a452","null","null","<p style=""font-size: 60px; font-family: BACS"">mbZlrGl</p>","","","","","","","","",""
"html-keyboard-response","124","312996","0.0-10.0-0.35","5c1bfabab0fcc900019d9ff4","650c16f0f2faf8d7a0d14c09","651c34a6d0f8783c6e98a452","null","null","<p style=""font-size: 60px; font-family: BACS"">TdmAEcR</p>","","","","","","","","",""
"html-keyboard-response","125","313998","0.0-10.0-0.36","5c1bfabab0fcc900019d9ff4","650c16f0f2faf8d7a0d14c09","651c34a6d0f8783c6e98a452","null","null","<p style=""font-size: 60px; font-family: BACS"">ObOQlrGl</p>","","","","","","","","",""
"html-keyboard-response","126","315014","0.0-10.0-0.37","5c1bfabab0fcc900019d9ff4","650c16f0f2faf8d7a0d14c09","651c34a6d0f8783c6e98a452","null","null","<p style=""font-size: 60px; font-family: BACS"">kcdOtlMck</p>","","","","","","","","",""
"html-keyboard-response","127","316016","0.0-10.0-0.38","5c1bfabab0fcc900019d9ff4","650c16f0f2faf8d7a0d14c09","651c34a6d0f8783c6e98a452","null","null","<p style=""font-size: 60px; font-family: BACS"">amJmQvlZ</p>","","","","","","","","",""
"html-keyboard-response","128","317025","0.0-10.0-0.39","5c1bfabab0fcc900019d9ff4","650c16f0f2faf8d7a0d14c09","651c34a6d0f8783c6e98a452","null","null","<p style=""font-size: 60px; font-family: BACS"">rkJurkra</p>","","","","","","","","",""
"html-keyboard-response","129","318027","0.0-10.0-0.40","5c1bfabab0fcc900019d9ff4","650c16f0f2faf8d7a0d14c09","651c34a6d0f8783c6e98a452","null","null","<p style=""font-size: 60px; font-family: BACS"">LcNUJrGl</p>","","","","","","","","",""
"html-keyboard-response","130","319031","0.0-10.0-0.41","5c1bfabab0fcc900019d9ff4","650c16f0f2faf8d7a0d14c09","651c34a6d0f8783c6e98a452","null","null","<p style=""font-size: 60px; font-family: BACS"">DRPkYPMYm</p>","","","","","","","","",""
"html-keyboard-response","131","320033","0.0-10.0-0.42","5c1bfabab0fcc900019d9ff4","650c16f0f2faf8d7a0d14c09","651c34a6d0f8783c6e98a452","null","null","<p style=""font-size: 60px; font-family: BACS"">rkJuAZbl</p>","","","","","","","","",""
"html-keyboard-response","132","321035","0.0-10.0-0.43","5c1bfabab0fcc900019d9ff4","650c16f0f2faf8d7a0d14c09","651c34a6d0f8783c6e98a452","null","null","<p style=""font-size: 60px; font-family: BACS"">vuJZuQvlZ</p>","","","","","","","","",""
"html-keyboard-response","133","322037","0.0-10.0-0.44","5c1bfabab0fcc900019d9ff4","650c16f0f2faf8d7a0d14c09","651c34a6d0f8783c6e98a452","null","null","<p style=""font-size: 60px; font-family: BACS"">EdBbEcR</p>","","","","","","","","",""
"html-keyboard-response","134","323038","0.0-10.0-0.45","5c1bfabab0fcc900019d9ff4","650c16f0f2faf8d7a0d14c09","651c34a6d0f8783c6e98a452","null","null","<p style=""font-size: 60px; font-family: BACS"">kcdOtPMYm</p>","","","","","","","","",""
"html-keyboard-response","135","324041","0.0-10.0-0.46","5c1bfabab0fcc900019d9ff4","650c16f0f2faf8d7a0d14c09","651c34a6d0f8783c6e98a452","null","null","<p style=""font-size: 60px; font-family: BACS"">lBKtTbk</p>","","","","","","","","",""
"html-keyboard-response","136","325051","0.0-10.0-0.47","5c1bfabab0fcc900019d9ff4","650c16f0f2faf8d7a0d14c09","651c34a6d0f8783c6e98a452","null","null","<p style=""font-size: 60px; font-family: BACS"">EdBblMck</p>","","","","","","","","",""
"html-keyboard-response","137","326062","0.0-10.0-0.48","5c1bfabab0fcc900019d9ff4","650c16f0f2faf8d7a0d14c09","651c34a6d0f8783c6e98a452","null","null","<p style=""font-size: 60px; font-family: BACS"">UYZlZrkra</p>","","","","","","","","",""
"html-keyboard-response","138","327075","0.0-10.0-0.49","5c1bfabab0fcc900019d9ff4","650c16f0f2faf8d7a0d14c09","651c34a6d0f8783c6e98a452","null","null","<p style=""font-size: 60px; font-family: BACS"">CDEmYEcR</p>","","","","","","","","",""
"html-keyboard-response","139","328088","0.0-10.0-0.50","5c1bfabab0fcc900019d9ff4","650c16f0f2faf8d7a0d14c09","651c34a6d0f8783c6e98a452","null","null","<p style=""font-size: 60px; font-family: BACS"">bYGOZrGl</p>","","","","","","","","",""
"html-keyboard-response","140","329090","0.0-10.0-0.51","5c1bfabab0fcc900019d9ff4","650c16f0f2faf8d7a0d14c09","651c34a6d0f8783c6e98a452","null","null","<p style=""font-size: 60px; font-family: BACS"">kKRCRYlD</p>","","","","","","","","",""
"html-keyboard-response","141","330092","0.0-10.0-0.52","5c1bfabab0fcc900019d9ff4","650c16f0f2faf8d7a0d14c09","651c34a6d0f8783c6e98a452","null","null","<p style=""font-size: 60px; font-family: BACS"">UYZlZQvlZ</p>","","","","","","","","",""
"html-keyboard-response","142","331094","0.0-10.0-0.53","5c1bfabab0fcc900019d9ff4","650c16f0f2faf8d7a0d14c09","651c34a6d0f8783c6e98a452","null","null","<p style=""font-size: 60px; font-family: BACS"">COTKRYlD</p>","","","","","","","","",""
"html-keyboard-response","143","332096","0.0-10.0-0.54","5c1bfabab0fcc900019d9ff4","650c16f0f2faf8d7a0d14c09","651c34a6d0f8783c6e98a452","null","null","<p style=""font-size: 60px; font-family: BACS"">AYkEhTbk</p>","","","","","","","","",""
"html-keyboard-response","144","333102","0.0-10.0-0.55","5c1bfabab0fcc900019d9ff4","650c16f0f2faf8d7a0d14c09","651c34a6d0f8783c6e98a452","null","null","<p style=""font-size: 60px; font-family: BACS"">TdmAPMYm</p>","","","","","","","","",""
"html-keyboard-response","145","334112","0.0-10.0-0.56","5c1bfabab0fcc900019d9ff4","650c16f0f2faf8d7a0d14c09","651c34a6d0f8783c6e98a452","null","null","<p style=""font-size: 60px; font-family: BACS"">LcNUJAZbl</p>","","","","","","","","",""
"html-keyboard-response","146","335114","0.0-10.0-0.57","5c1bfabab0fcc900019d9ff4","650c16f0f2faf8d7a0d14c09","651c34a6d0f8783c6e98a452","null","null","<p style=""font-size: 60px; font-family: BACS"">rLkmrGl</p>","","","","","","","","",""
"html-keyboard-response","147","336116","0.0-10.0-0.58","5c1bfabab0fcc900019d9ff4","650c16f0f2faf8d7a0d14c09","651c34a6d0f8783c6e98a452","null","null","<p style=""font-size: 60px; font-family: BACS"">AYkEhPMYm</p>","","","","","","","","",""
"html-keyboard-response","148","337118","0.0-10.0-0.59","5c1bfabab0fcc900019d9ff4","650c16f0f2faf8d7a0d14c09","651c34a6d0f8783c6e98a452","null","null","<p style=""font-size: 60px; font-family: BACS"">mbZlYUYa</p>","","","","","","","","",""
"html-keyboard-response","149","338120","0.0-10.0-0.60","5c1bfabab0fcc900019d9ff4","650c16f0f2faf8d7a0d14c09","651c34a6d0f8783c6e98a452","null","null","<p style=""font-size: 60px; font-family: BACS"">CDEmYTbk</p>","","","","","","","","",""
"html-keyboard-response","150","339122","0.0-10.0-0.61","5c1bfabab0fcc900019d9ff4","650c16f0f2faf8d7a0d14c09","651c34a6d0f8783c6e98a452","null","null","<p style=""font-size: 60px; font-family: BACS"">mbZlrkra</p>","","","","","","","","",""
"html-keyboard-response","151","340133","0.0-10.0-0.62","5c1bfabab0fcc900019d9ff4","650c16f0f2faf8d7a0d14c09","651c34a6d0f8783c6e98a452","null","null","<p style=""font-size: 60px; font-family: BACS"">ObOQlQvlZ</p>","","","","","","","","",""
"html-keyboard-response","152","341135","0.0-10.0-0.63","5c1bfabab0fcc900019d9ff4","650c16f0f2faf8d7a0d14c09","651c34a6d0f8783c6e98a452","null","null","<p style=""font-size: 60px; font-family: BACS"">TdmATbk</p>","","","","","","","","",""
"html-keyboard-response","153","342137","0.0-10.0-0.64","5c1bfabab0fcc900019d9ff4","650c16f0f2faf8d7a0d14c09","651c34a6d0f8783c6e98a452","null","null","<p style=""font-size: 60px; font-family: BACS"">bYGOZQvlZ</p>","","","","","","","","",""
"html-keyboard-response","154","343154","0.0-10.0-0.65","5c1bfabab0fcc900019d9ff4","650c16f0f2faf8d7a0d14c09","651c34a6d0f8783c6e98a452","null","null","<p style=""font-size: 60px; font-family: BACS"">rvAJrGl</p>","","","","","","","","",""
"html-keyboard-response","155","344156","0.0-10.0-0.66","5c1bfabab0fcc900019d9ff4","650c16f0f2faf8d7a0d14c09","651c34a6d0f8783c6e98a452","null","null","<p style=""font-size: 60px; font-family: BACS"">KMOcPMYm</p>","","","","","","","","",""
"html-keyboard-response","156","345160","0.0-10.0-0.67","5c1bfabab0fcc900019d9ff4","650c16f0f2faf8d7a0d14c09","651c34a6d0f8783c6e98a452","null","null","<p style=""font-size: 60px; font-family: BACS"">vuJZurkra</p>","","","","","","","","",""
"html-keyboard-response","157","346162","0.0-10.0-0.68","5c1bfabab0fcc900019d9ff4","650c16f0f2faf8d7a0d14c09","651c34a6d0f8783c6e98a452","null","null","<p style=""font-size: 60px; font-family: BACS"">rkJuQvlZ</p>","","","","","","","","",""
"html-keyboard-response","158","347164","0.0-10.0-0.69","5c1bfabab0fcc900019d9ff4","650c16f0f2faf8d7a0d14c09","651c34a6d0f8783c6e98a452","null","null","<p style=""font-size: 60px; font-family: BACS"">AYkEhlMck</p>","","","","","","","","",""
"html-keyboard-response","159","348179","0.0-10.0-0.70","5c1bfabab0fcc900019d9ff4","650c16f0f2faf8d7a0d14c09","651c34a6d0f8783c6e98a452","null","null","<p style=""font-size: 60px; font-family: BACS"">amJmAZbl</p>","","","","","","","","",""
"html-keyboard-response","160","349188","0.0-10.0-0.71","5c1bfabab0fcc900019d9ff4","650c16f0f2faf8d7a0d14c09","651c34a6d0f8783c6e98a452","null","null","<p style=""font-size: 60px; font-family: BACS"">EdBbPMYm</p>","","","","","","","","",""
"html-keyboard-response","161","350198","0.0-10.0-0.72","5c1bfabab0fcc900019d9ff4","650c16f0f2faf8d7a0d14c09","651c34a6d0f8783c6e98a452","null","null","<p style=""font-size: 60px; font-family: BACS"">bYGOZAZbl</p>","","","","","","","","",""
"html-keyboard-response","162","351212","0.0-10.0-0.73","5c1bfabab0fcc900019d9ff4","650c16f0f2faf8d7a0d14c09","651c34a6d0f8783c6e98a452","null","null","<p style=""font-size: 60px; font-family: BACS"">LcNUJrkra</p>","","","","","","","","",""
"html-keyboard-response","163","352213","0.0-10.0-0.74","5c1bfabab0fcc900019d9ff4","650c16f0f2faf8d7a0d14c09","651c34a6d0f8783c6e98a452","null","null","<p style=""font-size: 60px; font-family: BACS"">DRPkYlMck</p>","","","","","","","","",""
"html-keyboard-response","164","353215","0.0-10.0-0.75","5c1bfabab0fcc900019d9ff4","650c16f0f2faf8d7a0d14c09","651c34a6d0f8783c6e98a452","null","null","<p style=""font-size: 60px; font-family: BACS"">vuJZuYUYa</p>","","","","","","","","",""
"html-keyboard-response","165","354224","0.0-10.0-0.76","5c1bfabab0fcc900019d9ff4","650c16f0f2faf8d7a0d14c09","651c34a6d0f8783c6e98a452","null","null","<p style=""font-size: 60px; font-family: BACS"">lBKtPMYm</p>","","","","","","","","",""
"html-keyboard-response","166","355226","0.0-10.0-0.77","5c1bfabab0fcc900019d9ff4","650c16f0f2faf8d7a0d14c09","651c34a6d0f8783c6e98a452","null","null","<p style=""font-size: 60px; font-family: BACS"">amJmrkra</p>","","","","","","","","",""
"html-keyboard-response","167","356228","0.0-10.0-0.78","5c1bfabab0fcc900019d9ff4","650c16f0f2faf8d7a0d14c09","651c34a6d0f8783c6e98a452","null","null","<p style=""font-size: 60px; font-family: BACS"">DRPkYTbk</p>","","","","","","","","",""
"html-keyboard-response","168","357230","0.0-10.0-0.79","5c1bfabab0fcc900019d9ff4","650c16f0f2faf8d7a0d14c09","651c34a6d0f8783c6e98a452","null","null","<p style=""font-size: 60px; font-family: BACS"">rkJuYUYa</p>","","","","","","","","",""
"html-keyboard-response","169","365839","0.0-11.0","5c1bfabab0fcc900019d9ff4","650c16f0f2faf8d7a0d14c09","651c34a6d0f8783c6e98a452","8607"," ","<p>Great, you've seen the second block of words. You may now take a short break.</p>
      <p>Press the spacebar when you're ready to continue.</p>","","","","","","","","",""
"html-keyboard-response","170","366840","0.0-12.0-0.0","5c1bfabab0fcc900019d9ff4","650c16f0f2faf8d7a0d14c09","651c34a6d0f8783c6e98a452","null","null","<p style=""font-size: 60px; font-family: BACS"">kKRCPMYm</p>","","","","","","","","",""
"html-keyboard-response","171","367842","0.0-12.0-0.1","5c1bfabab0fcc900019d9ff4","650c16f0f2faf8d7a0d14c09","651c34a6d0f8783c6e98a452","null","null","<p style=""font-size: 60px; font-family: BACS"">mbZlYUYa</p>","","","","","","","","",""
"html-keyboard-response","172","368844","0.0-12.0-0.2","5c1bfabab0fcc900019d9ff4","650c16f0f2faf8d7a0d14c09","651c34a6d0f8783c6e98a452","null","null","<p style=""font-size: 60px; font-family: BACS"">kKRCEcR</p>","","","","","","","","",""
"html-keyboard-response","173","369860","0.0-12.0-0.3","5c1bfabab0fcc900019d9ff4","650c16f0f2faf8d7a0d14c09","651c34a6d0f8783c6e98a452","null","null","<p style=""font-size: 60px; font-family: BACS"">lBKtPMYm</p>","","","","","","","","",""
"html-keyboard-response","174","370872","0.0-12.0-0.4","5c1bfabab0fcc900019d9ff4","650c16f0f2faf8d7a0d14c09","651c34a6d0f8783c6e98a452","null","null","<p style=""font-size: 60px; font-family: BACS"">EdBblMck</p>","","","","","","","","",""
"html-keyboard-response","175","371874","0.0-12.0-0.5","5c1bfabab0fcc900019d9ff4","650c16f0f2faf8d7a0d14c09","651c34a6d0f8783c6e98a452","null","null","<p style=""font-size: 60px; font-family: BACS"">COTKRYlD</p>","","","","","","","","",""
"html-keyboard-response","176","372876","0.0-12.0-0.6","5c1bfabab0fcc900019d9ff4","650c16f0f2faf8d7a0d14c09","651c34a6d0f8783c6e98a452","null","null","<p style=""font-size: 60px; font-family: BACS"">rkJurkra</p>","","","","","","","","",""
"html-keyboard-response","177","373890","0.0-12.0-0.7","5c1bfabab0fcc900019d9ff4","650c16f0f2faf8d7a0d14c09","651c34a6d0f8783c6e98a452","null","null","<p style=""font-size: 60px; font-family: BACS"">LcNUJYUYa</p>","","","","","","","","",""
"html-keyboard-response","178","374901","0.0-12.0-0.8","5c1bfabab0fcc900019d9ff4","650c16f0f2faf8d7a0d14c09","651c34a6d0f8783c6e98a452","null","null","<p style=""font-size: 60px; font-family: BACS"">DRPkYEcR</p>","","","","","","","","",""
"html-keyboard-response","179","375913","0.0-12.0-0.9","5c1bfabab0fcc900019d9ff4","650c16f0f2faf8d7a0d14c09","651c34a6d0f8783c6e98a452","null","null","<p style=""font-size: 60px; font-family: BACS"">kKRCRYlD</p>","","","","","","","","",""
"html-keyboard-response","180","376928","0.0-12.0-0.10","5c1bfabab0fcc900019d9ff4","650c16f0f2faf8d7a0d14c09","651c34a6d0f8783c6e98a452","null","null","<p style=""font-size: 60px; font-family: BACS"">rLkmrGl</p>","","","","","","","","",""
"html-keyboard-response","181","377937","0.0-12.0-0.11","5c1bfabab0fcc900019d9ff4","650c16f0f2faf8d7a0d14c09","651c34a6d0f8783c6e98a452","null","null","<p style=""font-size: 60px; font-family: BACS"">rkJuYUYa</p>","","","","","","","","",""
"html-keyboard-response","182","378939","0.0-12.0-0.12","5c1bfabab0fcc900019d9ff4","650c16f0f2faf8d7a0d14c09","651c34a6d0f8783c6e98a452","null","null","<p style=""font-size: 60px; font-family: BACS"">UYZlZrkra</p>","","","","","","","","",""
"html-keyboard-response","183","379940","0.0-12.0-0.13","5c1bfabab0fcc900019d9ff4","650c16f0f2faf8d7a0d14c09","651c34a6d0f8783c6e98a452","null","null","<p style=""font-size: 60px; font-family: BACS"">rkJuQvlZ</p>","","","","","","","","",""
"html-keyboard-response","184","380956","0.0-12.0-0.14","5c1bfabab0fcc900019d9ff4","650c16f0f2faf8d7a0d14c09","651c34a6d0f8783c6e98a452","null","null","<p style=""font-size: 60px; font-family: BACS"">lBKtRYlD</p>","","","","","","","","",""
"html-keyboard-response","185","381958","0.0-12.0-0.15","5c1bfabab0fcc900019d9ff4","650c16f0f2faf8d7a0d14c09","651c34a6d0f8783c6e98a452","null","null","<p style=""font-size: 60px; font-family: BACS"">vuJZuYUYa</p>","","","","","","","","",""
"html-keyboard-response","186","382967","0.0-12.0-0.16","5c1bfabab0fcc900019d9ff4","650c16f0f2faf8d7a0d14c09","651c34a6d0f8783c6e98a452","null","null","<p style=""font-size: 60px; font-family: BACS"">rkJuAZbl</p>","","","","","","","","",""
"html-keyboard-response","187","383979","0.0-12.0-0.17","5c1bfabab0fcc900019d9ff4","650c16f0f2faf8d7a0d14c09","651c34a6d0f8783c6e98a452","null","null","<p style=""font-size: 60px; font-family: BACS"">TdmAEcR</p>","","","","","","","","",""
"html-keyboard-response","188","384981","0.0-12.0-0.18","5c1bfabab0fcc900019d9ff4","650c16f0f2faf8d7a0d14c09","651c34a6d0f8783c6e98a452","null","null","<p style=""font-size: 60px; font-family: BACS"">KMOcPMYm</p>","","","","","","","","",""
"html-keyboard-response","189","385984","0.0-12.0-0.19","5c1bfabab0fcc900019d9ff4","650c16f0f2faf8d7a0d14c09","651c34a6d0f8783c6e98a452","null","null","<p style=""font-size: 60px; font-family: BACS"">mbZlrGl</p>","","","","","","","","",""
"html-keyboard-response","190","386986","0.0-12.0-0.20","5c1bfabab0fcc900019d9ff4","650c16f0f2faf8d7a0d14c09","651c34a6d0f8783c6e98a452","null","null","<p style=""font-size: 60px; font-family: BACS"">KMOcTbk</p>","","","","","","","","",""
"html-keyboard-response","191","387997","0.0-12.0-0.21","5c1bfabab0fcc900019d9ff4","650c16f0f2faf8d7a0d14c09","651c34a6d0f8783c6e98a452","null","null","<p style=""font-size: 60px; font-family: BACS"">rLkmQvlZ</p>","","","","","","","","",""
"html-keyboard-response","192","389008","0.0-12.0-0.22","5c1bfabab0fcc900019d9ff4","650c16f0f2faf8d7a0d14c09","651c34a6d0f8783c6e98a452","null","null","<p style=""font-size: 60px; font-family: BACS"">mbZlrkra</p>","","","","","","","","",""
"html-keyboard-response","193","390019","0.0-12.0-0.23","5c1bfabab0fcc900019d9ff4","650c16f0f2faf8d7a0d14c09","651c34a6d0f8783c6e98a452","null","null","<p style=""font-size: 60px; font-family: BACS"">bYGOZAZbl</p>","","","","","","","","",""
"html-keyboard-response","194","391032","0.0-12.0-0.24","5c1bfabab0fcc900019d9ff4","650c16f0f2faf8d7a0d14c09","651c34a6d0f8783c6e98a452","null","null","<p style=""font-size: 60px; font-family: BACS"">vuJZurkra</p>","","","","","","","","",""
"html-keyboard-response","195","392046","0.0-12.0-0.25","5c1bfabab0fcc900019d9ff4","650c16f0f2faf8d7a0d14c09","651c34a6d0f8783c6e98a452","null","null","<p style=""font-size: 60px; font-family: BACS"">KMOclMck</p>","","","","","","","","",""
"html-keyboard-response","196","393048","0.0-12.0-0.26","5c1bfabab0fcc900019d9ff4","650c16f0f2faf8d7a0d14c09","651c34a6d0f8783c6e98a452","null","null","<p style=""font-size: 60px; font-family: BACS"">AYkEhTbk</p>","","","","","","","","",""
"html-keyboard-response","197","394049","0.0-12.0-0.27","5c1bfabab0fcc900019d9ff4","650c16f0f2faf8d7a0d14c09","651c34a6d0f8783c6e98a452","null","null","<p style=""font-size: 60px; font-family: BACS"">CDEmYRYlD</p>","","","","","","","","",""
"html-keyboard-response","198","395051","0.0-12.0-0.28","5c1bfabab0fcc900019d9ff4","650c16f0f2faf8d7a0d14c09","651c34a6d0f8783c6e98a452","null","null","<p style=""font-size: 60px; font-family: BACS"">EdBbPMYm</p>","","","","","","","","",""
"html-keyboard-response","199","396053","0.0-12.0-0.29","5c1bfabab0fcc900019d9ff4","650c16f0f2faf8d7a0d14c09","651c34a6d0f8783c6e98a452","null","null","<p style=""font-size: 60px; font-family: BACS"">CDEmYlMck</p>","","","","","","","","",""
"html-keyboard-response","200","397062","0.0-12.0-0.30","5c1bfabab0fcc900019d9ff4","650c16f0f2faf8d7a0d14c09","651c34a6d0f8783c6e98a452","null","null","<p style=""font-size: 60px; font-family: BACS"">ObOQlYUYa</p>","","","","","","","","",""
"html-keyboard-response","201","398064","0.0-12.0-0.31","5c1bfabab0fcc900019d9ff4","650c16f0f2faf8d7a0d14c09","651c34a6d0f8783c6e98a452","null","null","<p style=""font-size: 60px; font-family: BACS"">kKRCTbk</p>","","","","","","","","",""
"html-keyboard-response","202","399066","0.0-12.0-0.32","5c1bfabab0fcc900019d9ff4","650c16f0f2faf8d7a0d14c09","651c34a6d0f8783c6e98a452","null","null","<p style=""font-size: 60px; font-family: BACS"">COTKlMck</p>","","","","","","","","",""
"html-keyboard-response","203","400068","0.0-12.0-0.33","5c1bfabab0fcc900019d9ff4","650c16f0f2faf8d7a0d14c09","651c34a6d0f8783c6e98a452","null","null","<p style=""font-size: 60px; font-family: BACS"">amJmrkra</p>","","","","","","","","",""
"html-keyboard-response","204","401070","0.0-12.0-0.34","5c1bfabab0fcc900019d9ff4","650c16f0f2faf8d7a0d14c09","651c34a6d0f8783c6e98a452","null","null","<p style=""font-size: 60px; font-family: BACS"">bYGOZYUYa</p>","","","","","","","","",""
"html-keyboard-response","205","402080","0.0-12.0-0.35","5c1bfabab0fcc900019d9ff4","650c16f0f2faf8d7a0d14c09","651c34a6d0f8783c6e98a452","null","null","<p style=""font-size: 60px; font-family: BACS"">rLkmrkra</p>","","","","","","","","",""
"html-keyboard-response","206","403082","0.0-12.0-0.36","5c1bfabab0fcc900019d9ff4","650c16f0f2faf8d7a0d14c09","651c34a6d0f8783c6e98a452","null","null","<p style=""font-size: 60px; font-family: BACS"">vuJZuQvlZ</p>","","","","","","","","",""
"html-keyboard-response","207","404083","0.0-12.0-0.37","5c1bfabab0fcc900019d9ff4","650c16f0f2faf8d7a0d14c09","651c34a6d0f8783c6e98a452","null","null","<p style=""font-size: 60px; font-family: BACS"">rvAJrkra</p>","","","","","","","","",""
"html-keyboard-response","208","405085","0.0-12.0-0.38","5c1bfabab0fcc900019d9ff4","650c16f0f2faf8d7a0d14c09","651c34a6d0f8783c6e98a452","null","null","<p style=""font-size: 60px; font-family: BACS"">kcdOtEcR</p>","","","","","","","","",""
"html-keyboard-response","209","406095","0.0-12.0-0.39","5c1bfabab0fcc900019d9ff4","650c16f0f2faf8d7a0d14c09","651c34a6d0f8783c6e98a452","null","null","<p style=""font-size: 60px; font-family: BACS"">TdmARYlD</p>","","","","","","","","",""
"html-keyboard-response","210","407097","0.0-12.0-0.40","5c1bfabab0fcc900019d9ff4","650c16f0f2faf8d7a0d14c09","651c34a6d0f8783c6e98a452","null","null","<p style=""font-size: 60px; font-family: BACS"">ObOQlQvlZ</p>","","","","","","","","",""
"html-keyboard-response","211","408099","0.0-12.0-0.41","5c1bfabab0fcc900019d9ff4","650c16f0f2faf8d7a0d14c09","651c34a6d0f8783c6e98a452","null","null","<p style=""font-size: 60px; font-family: BACS"">rvAJAZbl</p>","","","","","","","","",""
"html-keyboard-response","212","409115","0.0-12.0-0.42","5c1bfabab0fcc900019d9ff4","650c16f0f2faf8d7a0d14c09","651c34a6d0f8783c6e98a452","null","null","<p style=""font-size: 60px; font-family: BACS"">COTKTbk</p>","","","","","","","","",""
"html-keyboard-response","213","410125","0.0-12.0-0.43","5c1bfabab0fcc900019d9ff4","650c16f0f2faf8d7a0d14c09","651c34a6d0f8783c6e98a452","null","null","<p style=""font-size: 60px; font-family: BACS"">UYZlZQvlZ</p>","","","","","","","","",""
"html-keyboard-response","214","411126","0.0-12.0-0.44","5c1bfabab0fcc900019d9ff4","650c16f0f2faf8d7a0d14c09","651c34a6d0f8783c6e98a452","null","null","<p style=""font-size: 60px; font-family: BACS"">AYkEhEcR</p>","","","","","","","","",""
"html-keyboard-response","215","412129","0.0-12.0-0.45","5c1bfabab0fcc900019d9ff4","650c16f0f2faf8d7a0d14c09","651c34a6d0f8783c6e98a452","null","null","<p style=""font-size: 60px; font-family: BACS"">UYZlZAZbl</p>","","","","","","","","",""
"html-keyboard-response","216","413132","0.0-12.0-0.46","5c1bfabab0fcc900019d9ff4","650c16f0f2faf8d7a0d14c09","651c34a6d0f8783c6e98a452","null","null","<p style=""font-size: 60px; font-family: BACS"">rvAJYUYa</p>","","","","","","","","",""
"html-keyboard-response","217","414134","0.0-12.0-0.47","5c1bfabab0fcc900019d9ff4","650c16f0f2faf8d7a0d14c09","651c34a6d0f8783c6e98a452","null","null","<p style=""font-size: 60px; font-family: BACS"">DRPkYlMck</p>","","","","","","","","",""
"html-keyboard-response","218","415136","0.0-12.0-0.48","5c1bfabab0fcc900019d9ff4","650c16f0f2faf8d7a0d14c09","651c34a6d0f8783c6e98a452","null","null","<p style=""font-size: 60px; font-family: BACS"">CDEmYTbk</p>","","","","","","","","",""
"html-keyboard-response","219","416147","0.0-12.0-0.49","5c1bfabab0fcc900019d9ff4","650c16f0f2faf8d7a0d14c09","651c34a6d0f8783c6e98a452","null","null","<p style=""font-size: 60px; font-family: BACS"">vuJZuAZbl</p>","","","","","","","","",""
"html-keyboard-response","220","417162","0.0-12.0-0.50","5c1bfabab0fcc900019d9ff4","650c16f0f2faf8d7a0d14c09","651c34a6d0f8783c6e98a452","null","null","<p style=""font-size: 60px; font-family: BACS"">kcdOtPMYm</p>","","","","","","","","",""
"html-keyboard-response","221","418163","0.0-12.0-0.51","5c1bfabab0fcc900019d9ff4","650c16f0f2faf8d7a0d14c09","651c34a6d0f8783c6e98a452","null","null","<p style=""font-size: 60px; font-family: BACS"">mbZlQvlZ</p>","","","","","","","","",""
"html-keyboard-response","222","419165","0.0-12.0-0.52","5c1bfabab0fcc900019d9ff4","650c16f0f2faf8d7a0d14c09","651c34a6d0f8783c6e98a452","null","null","<p style=""font-size: 60px; font-family: BACS"">LcNUJrkra</p>","","","","","","","","",""
"html-keyboard-response","223","420167","0.0-12.0-0.53","5c1bfabab0fcc900019d9ff4","650c16f0f2faf8d7a0d14c09","651c34a6d0f8783c6e98a452","null","null","<p style=""font-size: 60px; font-family: BACS"">KMOcRYlD</p>","","","","","","","","",""
"html-keyboard-response","224","421181","0.0-12.0-0.54","5c1bfabab0fcc900019d9ff4","650c16f0f2faf8d7a0d14c09","651c34a6d0f8783c6e98a452","null","null","<p style=""font-size: 60px; font-family: BACS"">DRPkYPMYm</p>","","","","","","","","",""
"html-keyboard-response","225","422195","0.0-12.0-0.55","5c1bfabab0fcc900019d9ff4","650c16f0f2faf8d7a0d14c09","651c34a6d0f8783c6e98a452","null","null","<p style=""font-size: 60px; font-family: BACS"">rLkmYUYa</p>","","","","","","","","",""
"html-keyboard-response","226","423209","0.0-12.0-0.56","5c1bfabab0fcc900019d9ff4","650c16f0f2faf8d7a0d14c09","651c34a6d0f8783c6e98a452","null","null","<p style=""font-size: 60px; font-family: BACS"">rvAJrGl</p>","","","","","","","","",""
"html-keyboard-response","227","424211","0.0-12.0-0.57","5c1bfabab0fcc900019d9ff4","650c16f0f2faf8d7a0d14c09","651c34a6d0f8783c6e98a452","null","null","<p style=""font-size: 60px; font-family: BACS"">LcNUJAZbl</p>","","","","","","","","",""
"html-keyboard-response","228","425213","0.0-12.0-0.58","5c1bfabab0fcc900019d9ff4","650c16f0f2faf8d7a0d14c09","651c34a6d0f8783c6e98a452","null","null","<p style=""font-size: 60px; font-family: BACS"">lBKtlMck</p>","","","","","","","","",""
"html-keyboard-response","229","426229","0.0-12.0-0.59","5c1bfabab0fcc900019d9ff4","650c16f0f2faf8d7a0d14c09","651c34a6d0f8783c6e98a452","null","null","<p style=""font-size: 60px; font-family: BACS"">DRPkYTbk</p>","","","","","","","","",""
"html-keyboard-response","230","427241","0.0-12.0-0.60","5c1bfabab0fcc900019d9ff4","650c16f0f2faf8d7a0d14c09","651c34a6d0f8783c6e98a452","null","null","<p style=""font-size: 60px; font-family: BACS"">bYGOZrGl</p>","","","","","","","","",""
"html-keyboard-response","231","428242","0.0-12.0-0.61","5c1bfabab0fcc900019d9ff4","650c16f0f2faf8d7a0d14c09","651c34a6d0f8783c6e98a452","null","null","<p style=""font-size: 60px; font-family: BACS"">kcdOtRYlD</p>","","","","","","","","",""
"html-keyboard-response","232","429250","0.0-12.0-0.62","5c1bfabab0fcc900019d9ff4","650c16f0f2faf8d7a0d14c09","651c34a6d0f8783c6e98a452","null","null","<p style=""font-size: 60px; font-family: BACS"">AYkEhlMck</p>","","","","","","","","",""
"html-keyboard-response","233","430252","0.0-12.0-0.63","5c1bfabab0fcc900019d9ff4","650c16f0f2faf8d7a0d14c09","651c34a6d0f8783c6e98a452","null","null","<p style=""font-size: 60px; font-family: BACS"">ObOQlrGl</p>","","","","","","","","",""
"html-keyboard-response","234","431254","0.0-12.0-0.64","5c1bfabab0fcc900019d9ff4","650c16f0f2faf8d7a0d14c09","651c34a6d0f8783c6e98a452","null","null","<p style=""font-size: 60px; font-family: BACS"">TdmATbk</p>","","","","","","","","",""
"html-keyboard-response","235","432256","0.0-12.0-0.65","5c1bfabab0fcc900019d9ff4","650c16f0f2faf8d7a0d14c09","651c34a6d0f8783c6e98a452","null","null","<p style=""font-size: 60px; font-family: BACS"">bYGOZQvlZ</p>","","","","","","","","",""
"html-keyboard-response","236","433264","0.0-12.0-0.66","5c1bfabab0fcc900019d9ff4","650c16f0f2faf8d7a0d14c09","651c34a6d0f8783c6e98a452","null","null","<p style=""font-size: 60px; font-family: BACS"">ObOQlAZbl</p>","","","","","","","","",""
"html-keyboard-response","237","434278","0.0-12.0-0.67","5c1bfabab0fcc900019d9ff4","650c16f0f2faf8d7a0d14c09","651c34a6d0f8783c6e98a452","null","null","<p style=""font-size: 60px; font-family: BACS"">kcdOtlMck</p>","","","","","","","","",""
"html-keyboard-response","238","435295","0.0-12.0-0.68","5c1bfabab0fcc900019d9ff4","650c16f0f2faf8d7a0d14c09","651c34a6d0f8783c6e98a452","null","null","<p style=""font-size: 60px; font-family: BACS"">UYZlZrGl</p>","","","","","","","","",""
"html-keyboard-response","239","436297","0.0-12.0-0.69","5c1bfabab0fcc900019d9ff4","650c16f0f2faf8d7a0d14c09","651c34a6d0f8783c6e98a452","null","null","<p style=""font-size: 60px; font-family: BACS"">CDEmYEcR</p>","","","","","","","","",""
"html-keyboard-response","240","437300","0.0-12.0-0.70","5c1bfabab0fcc900019d9ff4","650c16f0f2faf8d7a0d14c09","651c34a6d0f8783c6e98a452","null","null","<p style=""font-size: 60px; font-family: BACS"">TdmAPMYm</p>","","","","","","","","",""
"html-keyboard-response","241","438317","0.0-12.0-0.71","5c1bfabab0fcc900019d9ff4","650c16f0f2faf8d7a0d14c09","651c34a6d0f8783c6e98a452","null","null","<p style=""font-size: 60px; font-family: BACS"">amJmAZbl</p>","","","","","","","","",""
"html-keyboard-response","242","439319","0.0-12.0-0.72","5c1bfabab0fcc900019d9ff4","650c16f0f2faf8d7a0d14c09","651c34a6d0f8783c6e98a452","null","null","<p style=""font-size: 60px; font-family: BACS"">EdBbEcR</p>","","","","","","","","",""
"html-keyboard-response","243","440327","0.0-12.0-0.73","5c1bfabab0fcc900019d9ff4","650c16f0f2faf8d7a0d14c09","651c34a6d0f8783c6e98a452","null","null","<p style=""font-size: 60px; font-family: BACS"">LcNUJrGl</p>","","","","","","","","",""
"html-keyboard-response","244","441339","0.0-12.0-0.74","5c1bfabab0fcc900019d9ff4","650c16f0f2faf8d7a0d14c09","651c34a6d0f8783c6e98a452","null","null","<p style=""font-size: 60px; font-family: BACS"">amJmQvlZ</p>","","","","","","","","",""
"html-keyboard-response","245","442347","0.0-12.0-0.75","5c1bfabab0fcc900019d9ff4","650c16f0f2faf8d7a0d14c09","651c34a6d0f8783c6e98a452","null","null","<p style=""font-size: 60px; font-family: BACS"">COTKEcR</p>","","","","","","","","",""
"html-keyboard-response","246","443363","0.0-12.0-0.76","5c1bfabab0fcc900019d9ff4","650c16f0f2faf8d7a0d14c09","651c34a6d0f8783c6e98a452","null","null","<p style=""font-size: 60px; font-family: BACS"">lBKtTbk</p>","","","","","","","","",""
"html-keyboard-response","247","444370","0.0-12.0-0.77","5c1bfabab0fcc900019d9ff4","650c16f0f2faf8d7a0d14c09","651c34a6d0f8783c6e98a452","null","null","<p style=""font-size: 60px; font-family: BACS"">AYkEhPMYm</p>","","","","","","","","",""
"html-keyboard-response","248","445372","0.0-12.0-0.78","5c1bfabab0fcc900019d9ff4","650c16f0f2faf8d7a0d14c09","651c34a6d0f8783c6e98a452","null","null","<p style=""font-size: 60px; font-family: BACS"">amJmrGl</p>","","","","","","","","",""
"html-keyboard-response","249","446380","0.0-12.0-0.79","5c1bfabab0fcc900019d9ff4","650c16f0f2faf8d7a0d14c09","651c34a6d0f8783c6e98a452","null","null","<p style=""font-size: 60px; font-family: BACS"">EdBbRYlD</p>","","","","","","","","",""
"html-keyboard-response","250","447626","0.0-13.0","5c1bfabab0fcc900019d9ff4","650c16f0f2faf8d7a0d14c09","651c34a6d0f8783c6e98a452","1245"," ","<p>Great, you've seen the third block of words. You may now take a short break.</p>
      <p>Press the spacebar when you're ready to continue.</p>","","","","","","","","",""
"html-keyboard-response","251","448627","0.0-14.0-0.0","5c1bfabab0fcc900019d9ff4","650c16f0f2faf8d7a0d14c09","651c34a6d0f8783c6e98a452","null","null","<p style=""font-size: 60px; font-family: BACS"">DRPkYEcR</p>","","","","","","","","",""
"html-keyboard-response","252","449634","0.0-14.0-0.1","5c1bfabab0fcc900019d9ff4","650c16f0f2faf8d7a0d14c09","651c34a6d0f8783c6e98a452","null","null","<p style=""font-size: 60px; font-family: BACS"">UYZlZrGl</p>","","","","","","","","",""
"html-keyboard-response","253","450636","0.0-14.0-0.2","5c1bfabab0fcc900019d9ff4","650c16f0f2faf8d7a0d14c09","651c34a6d0f8783c6e98a452","null","null","<p style=""font-size: 60px; font-family: BACS"">bYGOZQvlZ</p>","","","","","","","","",""
"html-keyboard-response","254","451639","0.0-14.0-0.3","5c1bfabab0fcc900019d9ff4","650c16f0f2faf8d7a0d14c09","651c34a6d0f8783c6e98a452","null","null","<p style=""font-size: 60px; font-family: BACS"">lBKtlMck</p>","","","","","","","","",""
"html-keyboard-response","255","452653","0.0-14.0-0.4","5c1bfabab0fcc900019d9ff4","650c16f0f2faf8d7a0d14c09","651c34a6d0f8783c6e98a452","null","null","<p style=""font-size: 60px; font-family: BACS"">mbZlQvlZ</p>","","","","","","","","",""
"html-keyboard-response","256","453664","0.0-14.0-0.5","5c1bfabab0fcc900019d9ff4","650c16f0f2faf8d7a0d14c09","651c34a6d0f8783c6e98a452","null","null","<p style=""font-size: 60px; font-family: BACS"">rLkmYUYa</p>","","","","","","","","",""
"html-keyboard-response","257","454666","0.0-14.0-0.6","5c1bfabab0fcc900019d9ff4","650c16f0f2faf8d7a0d14c09","651c34a6d0f8783c6e98a452","null","null","<p style=""font-size: 60px; font-family: BACS"">UYZlZrkra</p>","","","","","","","","",""
"html-keyboard-response","258","455675","0.0-14.0-0.7","5c1bfabab0fcc900019d9ff4","650c16f0f2faf8d7a0d14c09","651c34a6d0f8783c6e98a452","null","null","<p style=""font-size: 60px; font-family: BACS"">TdmATbk</p>","","","","","","","","",""
"html-keyboard-response","259","456677","0.0-14.0-0.8","5c1bfabab0fcc900019d9ff4","650c16f0f2faf8d7a0d14c09","651c34a6d0f8783c6e98a452","null","null","<p style=""font-size: 60px; font-family: BACS"">KMOclMck</p>","","","","","","","","",""
"html-keyboard-response","260","457680","0.0-14.0-0.9","5c1bfabab0fcc900019d9ff4","650c16f0f2faf8d7a0d14c09","651c34a6d0f8783c6e98a452","null","null","<p style=""font-size: 60px; font-family: BACS"">CDEmYEcR</p>","","","","","","","","",""
"html-keyboard-response","261","458692","0.0-14.0-0.10","5c1bfabab0fcc900019d9ff4","650c16f0f2faf8d7a0d14c09","651c34a6d0f8783c6e98a452","null","null","<p style=""font-size: 60px; font-family: BACS"">KMOcPMYm</p>","","","","","","","","",""
"html-keyboard-response","262","459693","0.0-14.0-0.11","5c1bfabab0fcc900019d9ff4","650c16f0f2faf8d7a0d14c09","651c34a6d0f8783c6e98a452","null","null","<p style=""font-size: 60px; font-family: BACS"">UYZlZAZbl</p>","","","","","","","","",""
"html-keyboard-response","263","460698","0.0-14.0-0.12","5c1bfabab0fcc900019d9ff4","650c16f0f2faf8d7a0d14c09","651c34a6d0f8783c6e98a452","null","null","<p style=""font-size: 60px; font-family: BACS"">ObOQlrGl</p>","","","","","","","","",""
"html-keyboard-response","264","461700","0.0-14.0-0.13","5c1bfabab0fcc900019d9ff4","650c16f0f2faf8d7a0d14c09","651c34a6d0f8783c6e98a452","null","null","<p style=""font-size: 60px; font-family: BACS"">DRPkYPMYm</p>","","","","","","","","",""
"html-keyboard-response","265","462710","0.0-14.0-0.14","5c1bfabab0fcc900019d9ff4","650c16f0f2faf8d7a0d14c09","651c34a6d0f8783c6e98a452","null","null","<p style=""font-size: 60px; font-family: BACS"">kKRCTbk</p>","","","","","","","","",""
"html-keyboard-response","266","463723","0.0-14.0-0.15","5c1bfabab0fcc900019d9ff4","650c16f0f2faf8d7a0d14c09","651c34a6d0f8783c6e98a452","null","null","<p style=""font-size: 60px; font-family: BACS"">ObOQlQvlZ</p>","","","","","","","","",""
"html-keyboard-response","267","464735","0.0-14.0-0.16","5c1bfabab0fcc900019d9ff4","650c16f0f2faf8d7a0d14c09","651c34a6d0f8783c6e98a452","null","null","<p style=""font-size: 60px; font-family: BACS"">kKRCPMYm</p>","","","","","","","","",""
"html-keyboard-response","268","465738","0.0-14.0-0.17","5c1bfabab0fcc900019d9ff4","650c16f0f2faf8d7a0d14c09","651c34a6d0f8783c6e98a452","null","null","<p style=""font-size: 60px; font-family: BACS"">mbZlrGl</p>","","","","","","","","",""
"html-keyboard-response","269","466739","0.0-14.0-0.18","5c1bfabab0fcc900019d9ff4","650c16f0f2faf8d7a0d14c09","651c34a6d0f8783c6e98a452","null","null","<p style=""font-size: 60px; font-family: BACS"">AYkEhTbk</p>","","","","","","","","",""
"html-keyboard-response","270","467742","0.0-14.0-0.19","5c1bfabab0fcc900019d9ff4","650c16f0f2faf8d7a0d14c09","651c34a6d0f8783c6e98a452","null","null","<p style=""font-size: 60px; font-family: BACS"">CDEmYRYlD</p>","","","","","","","","",""
"html-keyboard-response","271","468754","0.0-14.0-0.20","5c1bfabab0fcc900019d9ff4","650c16f0f2faf8d7a0d14c09","651c34a6d0f8783c6e98a452","null","null","<p style=""font-size: 60px; font-family: BACS"">LcNUJYUYa</p>","","","","","","","","",""
"html-keyboard-response","272","469756","0.0-14.0-0.21","5c1bfabab0fcc900019d9ff4","650c16f0f2faf8d7a0d14c09","651c34a6d0f8783c6e98a452","null","null","<p style=""font-size: 60px; font-family: BACS"">AYkEhEcR</p>","","","","","","","","",""
"html-keyboard-response","273","470758","0.0-14.0-0.22","5c1bfabab0fcc900019d9ff4","650c16f0f2faf8d7a0d14c09","651c34a6d0f8783c6e98a452","null","null","<p style=""font-size: 60px; font-family: BACS"">EdBbRYlD</p>","","","","","","","","",""
"html-keyboard-response","274","471768","0.0-14.0-0.23","5c1bfabab0fcc900019d9ff4","650c16f0f2faf8d7a0d14c09","651c34a6d0f8783c6e98a452","null","null","<p style=""font-size: 60px; font-family: BACS"">rLkmQvlZ</p>","","","","","","","","",""
"html-keyboard-response","275","472779","0.0-14.0-0.24","5c1bfabab0fcc900019d9ff4","650c16f0f2faf8d7a0d14c09","651c34a6d0f8783c6e98a452","null","null","<p style=""font-size: 60px; font-family: BACS"">LcNUJrGl</p>","","","","","","","","",""
"html-keyboard-response","276","473793","0.0-14.0-0.25","5c1bfabab0fcc900019d9ff4","650c16f0f2faf8d7a0d14c09","651c34a6d0f8783c6e98a452","null","null","<p style=""font-size: 60px; font-family: BACS"">mbZlrkra</p>","","","","","","","","",""
"html-keyboard-response","277","474795","0.0-14.0-0.26","5c1bfabab0fcc900019d9ff4","650c16f0f2faf8d7a0d14c09","651c34a6d0f8783c6e98a452","null","null","<p style=""font-size: 60px; font-family: BACS"">kKRCRYlD</p>","","","","","","","","",""
"html-keyboard-response","278","475797","0.0-14.0-0.27","5c1bfabab0fcc900019d9ff4","650c16f0f2faf8d7a0d14c09","651c34a6d0f8783c6e98a452","null","null","<p style=""font-size: 60px; font-family: BACS"">rLkmrGl</p>","","","","","","","","",""
"html-keyboard-response","279","476799","0.0-14.0-0.28","5c1bfabab0fcc900019d9ff4","650c16f0f2faf8d7a0d14c09","651c34a6d0f8783c6e98a452","null","null","<p style=""font-size: 60px; font-family: BACS"">kKRCEcR</p>","","","","","","","","",""
"html-keyboard-response","280","477805","0.0-14.0-0.29","5c1bfabab0fcc900019d9ff4","650c16f0f2faf8d7a0d14c09","651c34a6d0f8783c6e98a452","null","null","<p style=""font-size: 60px; font-family: BACS"">DRPkYlMck</p>","","","","","","","","",""
"html-keyboard-response","281","478807","0.0-14.0-0.30","5c1bfabab0fcc900019d9ff4","650c16f0f2faf8d7a0d14c09","651c34a6d0f8783c6e98a452","null","null","<p style=""font-size: 60px; font-family: BACS"">mbZlYUYa</p>","","","","","","","","",""
"html-keyboard-response","282","479809","0.0-14.0-0.31","5c1bfabab0fcc900019d9ff4","650c16f0f2faf8d7a0d14c09","651c34a6d0f8783c6e98a452","null","null","<p style=""font-size: 60px; font-family: BACS"">TdmARYlD</p>","","","","","","","","",""
"html-keyboard-response","283","480821","0.0-14.0-0.32","5c1bfabab0fcc900019d9ff4","650c16f0f2faf8d7a0d14c09","651c34a6d0f8783c6e98a452","null","null","<p style=""font-size: 60px; font-family: BACS"">rvAJrkra</p>","","","","","","","","",""
"html-keyboard-response","284","481822","0.0-14.0-0.33","5c1bfabab0fcc900019d9ff4","650c16f0f2faf8d7a0d14c09","651c34a6d0f8783c6e98a452","null","null","<p style=""font-size: 60px; font-family: BACS"">DRPkYTbk</p>","","","","","","","","",""
"html-keyboard-response","285","482827","0.0-14.0-0.34","5c1bfabab0fcc900019d9ff4","650c16f0f2faf8d7a0d14c09","651c34a6d0f8783c6e98a452","null","null","<p style=""font-size: 60px; font-family: BACS"">bYGOZYUYa</p>","","","","","","","","",""
"html-keyboard-response","286","483829","0.0-14.0-0.35","5c1bfabab0fcc900019d9ff4","650c16f0f2faf8d7a0d14c09","651c34a6d0f8783c6e98a452","null","null","<p style=""font-size: 60px; font-family: BACS"">TdmAPMYm</p>","","","","","","","","",""
"html-keyboard-response","287","484832","0.0-14.0-0.36","5c1bfabab0fcc900019d9ff4","650c16f0f2faf8d7a0d14c09","651c34a6d0f8783c6e98a452","null","null","<p style=""font-size: 60px; font-family: BACS"">amJmrkra</p>","","","","","","","","",""
"html-keyboard-response","288","485848","0.0-14.0-0.37","5c1bfabab0fcc900019d9ff4","650c16f0f2faf8d7a0d14c09","651c34a6d0f8783c6e98a452","null","null","<p style=""font-size: 60px; font-family: BACS"">vuJZuQvlZ</p>","","","","","","","","",""
"html-keyboard-response","289","486850","0.0-14.0-0.38","5c1bfabab0fcc900019d9ff4","650c16f0f2faf8d7a0d14c09","651c34a6d0f8783c6e98a452","null","null","<p style=""font-size: 60px; font-family: BACS"">amJmAZbl</p>","","","","","","","","",""
"html-keyboard-response","290","487860","0.0-14.0-0.39","5c1bfabab0fcc900019d9ff4","650c16f0f2faf8d7a0d14c09","651c34a6d0f8783c6e98a452","null","null","<p style=""font-size: 60px; font-family: BACS"">COTKlMck</p>","","","","","","","","",""
"html-keyboard-response","291","488863","0.0-14.0-0.40","5c1bfabab0fcc900019d9ff4","650c16f0f2faf8d7a0d14c09","651c34a6d0f8783c6e98a452","null","null","<p style=""font-size: 60px; font-family: BACS"">rvAJAZbl</p>","","","","","","","","",""
"html-keyboard-response","292","489868","0.0-14.0-0.41","5c1bfabab0fcc900019d9ff4","650c16f0f2faf8d7a0d14c09","651c34a6d0f8783c6e98a452","null","null","<p style=""font-size: 60px; font-family: BACS"">rkJuQvlZ</p>","","","","","","","","",""
"html-keyboard-response","293","490870","0.0-14.0-0.42","5c1bfabab0fcc900019d9ff4","650c16f0f2faf8d7a0d14c09","651c34a6d0f8783c6e98a452","null","null","<p style=""font-size: 60px; font-family: BACS"">LcNUJrkra</p>","","","","","","","","",""
"html-keyboard-response","294","491872","0.0-14.0-0.43","5c1bfabab0fcc900019d9ff4","650c16f0f2faf8d7a0d14c09","651c34a6d0f8783c6e98a452","null","null","<p style=""font-size: 60px; font-family: BACS"">lBKtPMYm</p>","","","","","","","","",""
"html-keyboard-response","295","492884","0.0-14.0-0.44","5c1bfabab0fcc900019d9ff4","650c16f0f2faf8d7a0d14c09","651c34a6d0f8783c6e98a452","null","null","<p style=""font-size: 60px; font-family: BACS"">vuJZuYUYa</p>","","","","","","","","",""
"html-keyboard-response","296","493887","0.0-14.0-0.45","5c1bfabab0fcc900019d9ff4","650c16f0f2faf8d7a0d14c09","651c34a6d0f8783c6e98a452","null","null","<p style=""font-size: 60px; font-family: BACS"">KMOcRYlD</p>","","","","","","","","",""
"html-keyboard-response","297","494901","0.0-14.0-0.46","5c1bfabab0fcc900019d9ff4","650c16f0f2faf8d7a0d14c09","651c34a6d0f8783c6e98a452","null","null","<p style=""font-size: 60px; font-family: BACS"">LcNUJAZbl</p>","","","","","","","","",""
"html-keyboard-response","298","495904","0.0-14.0-0.47","5c1bfabab0fcc900019d9ff4","650c16f0f2faf8d7a0d14c09","651c34a6d0f8783c6e98a452","null","null","<p style=""font-size: 60px; font-family: BACS"">COTKTbk</p>","","","","","","","","",""
"html-keyboard-response","299","496921","0.0-14.0-0.48","5c1bfabab0fcc900019d9ff4","650c16f0f2faf8d7a0d14c09","651c34a6d0f8783c6e98a452","null","null","<p style=""font-size: 60px; font-family: BACS"">EdBbEcR</p>","","","","","","","","",""
"html-keyboard-response","300","497923","0.0-14.0-0.49","5c1bfabab0fcc900019d9ff4","650c16f0f2faf8d7a0d14c09","651c34a6d0f8783c6e98a452","null","null","<p style=""font-size: 60px; font-family: BACS"">CDEmYTbk</p>","","","","","","","","",""
"html-keyboard-response","301","498926","0.0-14.0-0.50","5c1bfabab0fcc900019d9ff4","650c16f0f2faf8d7a0d14c09","651c34a6d0f8783c6e98a452","null","null","<p style=""font-size: 60px; font-family: BACS"">TdmAEcR</p>","","","","","","","","",""
"html-keyboard-response","302","499941","0.0-14.0-0.51","5c1bfabab0fcc900019d9ff4","650c16f0f2faf8d7a0d14c09","651c34a6d0f8783c6e98a452","null","null","<p style=""font-size: 60px; font-family: BACS"">UYZlZQvlZ</p>","","","","","","","","",""
"html-keyboard-response","303","500954","0.0-14.0-0.52","5c1bfabab0fcc900019d9ff4","650c16f0f2faf8d7a0d14c09","651c34a6d0f8783c6e98a452","null","null","<p style=""font-size: 60px; font-family: BACS"">AYkEhPMYm</p>","","","","","","","","",""
"html-keyboard-response","304","501956","0.0-14.0-0.53","5c1bfabab0fcc900019d9ff4","650c16f0f2faf8d7a0d14c09","651c34a6d0f8783c6e98a452","null","null","<p style=""font-size: 60px; font-family: BACS"">bYGOZrGl</p>","","","","","","","","",""
"html-keyboard-response","305","502957","0.0-14.0-0.54","5c1bfabab0fcc900019d9ff4","650c16f0f2faf8d7a0d14c09","651c34a6d0f8783c6e98a452","null","null","<p style=""font-size: 60px; font-family: BACS"">COTKEcR</p>","","","","","","","","",""
"html-keyboard-response","306","503959","0.0-14.0-0.55","5c1bfabab0fcc900019d9ff4","650c16f0f2faf8d7a0d14c09","651c34a6d0f8783c6e98a452","null","null","<p style=""font-size: 60px; font-family: BACS"">kcdOtPMYm</p>","","","","","","","","",""
"html-keyboard-response","307","504961","0.0-14.0-0.56","5c1bfabab0fcc900019d9ff4","650c16f0f2faf8d7a0d14c09","651c34a6d0f8783c6e98a452","null","null","<p style=""font-size: 60px; font-family: BACS"">rvAJYUYa</p>","","","","","","","","",""
"html-keyboard-response","308","505976","0.0-14.0-0.57","5c1bfabab0fcc900019d9ff4","650c16f0f2faf8d7a0d14c09","651c34a6d0f8783c6e98a452","null","null","<p style=""font-size: 60px; font-family: BACS"">ObOQlAZbl</p>","","","","","","","","",""
"html-keyboard-response","309","506978","0.0-14.0-0.58","5c1bfabab0fcc900019d9ff4","650c16f0f2faf8d7a0d14c09","651c34a6d0f8783c6e98a452","null","null","<p style=""font-size: 60px; font-family: BACS"">rvAJrGl</p>","","","","","","","","",""
"html-keyboard-response","310","507979","0.0-14.0-0.59","5c1bfabab0fcc900019d9ff4","650c16f0f2faf8d7a0d14c09","651c34a6d0f8783c6e98a452","null","null","<p style=""font-size: 60px; font-family: BACS"">kcdOtEcR</p>","","","","","","","","",""
"html-keyboard-response","311","508981","0.0-14.0-0.60","5c1bfabab0fcc900019d9ff4","650c16f0f2faf8d7a0d14c09","651c34a6d0f8783c6e98a452","null","null","<p style=""font-size: 60px; font-family: BACS"">lBKtRYlD</p>","","","","","","","","",""
"html-keyboard-response","312","509982","0.0-14.0-0.61","5c1bfabab0fcc900019d9ff4","650c16f0f2faf8d7a0d14c09","651c34a6d0f8783c6e98a452","null","null","<p style=""font-size: 60px; font-family: BACS"">vuJZurkra</p>","","","","","","","","",""
"html-keyboard-response","313","510987","0.0-14.0-0.62","5c1bfabab0fcc900019d9ff4","650c16f0f2faf8d7a0d14c09","651c34a6d0f8783c6e98a452","null","null","<p style=""font-size: 60px; font-family: BACS"">amJmQvlZ</p>","","","","","","","","",""
"html-keyboard-response","314","511989","0.0-14.0-0.63","5c1bfabab0fcc900019d9ff4","650c16f0f2faf8d7a0d14c09","651c34a6d0f8783c6e98a452","null","null","<p style=""font-size: 60px; font-family: BACS"">kcdOtRYlD</p>","","","","","","","","",""
"html-keyboard-response","315","512992","0.0-14.0-0.64","5c1bfabab0fcc900019d9ff4","650c16f0f2faf8d7a0d14c09","651c34a6d0f8783c6e98a452","null","null","<p style=""font-size: 60px; font-family: BACS"">rkJurkra</p>","","","","","","","","",""
"html-keyboard-response","316","513994","0.0-14.0-0.65","5c1bfabab0fcc900019d9ff4","650c16f0f2faf8d7a0d14c09","651c34a6d0f8783c6e98a452","null","null","<p style=""font-size: 60px; font-family: BACS"">ObOQlYUYa</p>","","","","","","","","",""
"html-keyboard-response","317","514996","0.0-14.0-0.66","5c1bfabab0fcc900019d9ff4","650c16f0f2faf8d7a0d14c09","651c34a6d0f8783c6e98a452","null","null","<p style=""font-size: 60px; font-family: BACS"">COTKRYlD</p>","","","","","","","","",""
"html-keyboard-response","318","516013","0.0-14.0-0.67","5c1bfabab0fcc900019d9ff4","650c16f0f2faf8d7a0d14c09","651c34a6d0f8783c6e98a452","null","null","<p style=""font-size: 60px; font-family: BACS"">AYkEhlMck</p>","","","","","","","","",""
"html-keyboard-response","319","517015","0.0-14.0-0.68","5c1bfabab0fcc900019d9ff4","650c16f0f2faf8d7a0d14c09","651c34a6d0f8783c6e98a452","null","null","<p style=""font-size: 60px; font-family: BACS"">rkJuYUYa</p>","","","","","","","","",""
"html-keyboard-response","320","518021","0.0-14.0-0.69","5c1bfabab0fcc900019d9ff4","650c16f0f2faf8d7a0d14c09","651c34a6d0f8783c6e98a452","null","null","<p style=""font-size: 60px; font-family: BACS"">vuJZuAZbl</p>","","","","","","","","",""
"html-keyboard-response","321","519023","0.0-14.0-0.70","5c1bfabab0fcc900019d9ff4","650c16f0f2faf8d7a0d14c09","651c34a6d0f8783c6e98a452","null","null","<p style=""font-size: 60px; font-family: BACS"">CDEmYlMck</p>","","","","","","","","",""
"html-keyboard-response","322","520027","0.0-14.0-0.71","5c1bfabab0fcc900019d9ff4","650c16f0f2faf8d7a0d14c09","651c34a6d0f8783c6e98a452","null","null","<p style=""font-size: 60px; font-family: BACS"">rLkmrkra</p>","","","","","","","","",""
"html-keyboard-response","323","521042","0.0-14.0-0.72","5c1bfabab0fcc900019d9ff4","650c16f0f2faf8d7a0d14c09","651c34a6d0f8783c6e98a452","null","null","<p style=""font-size: 60px; font-family: BACS"">KMOcTbk</p>","","","","","","","","",""
"html-keyboard-response","324","522045","0.0-14.0-0.73","5c1bfabab0fcc900019d9ff4","650c16f0f2faf8d7a0d14c09","651c34a6d0f8783c6e98a452","null","null","<p style=""font-size: 60px; font-family: BACS"">amJmrGl</p>","","","","","","","","",""
"html-keyboard-response","325","523055","0.0-14.0-0.74","5c1bfabab0fcc900019d9ff4","650c16f0f2faf8d7a0d14c09","651c34a6d0f8783c6e98a452","null","null","<p style=""font-size: 60px; font-family: BACS"">EdBbPMYm</p>","","","","","","","","",""
"html-keyboard-response","326","524063","0.0-14.0-0.75","5c1bfabab0fcc900019d9ff4","650c16f0f2faf8d7a0d14c09","651c34a6d0f8783c6e98a452","null","null","<p style=""font-size: 60px; font-family: BACS"">kcdOtlMck</p>","","","","","","","","",""
"html-keyboard-response","327","525072","0.0-14.0-0.76","5c1bfabab0fcc900019d9ff4","650c16f0f2faf8d7a0d14c09","651c34a6d0f8783c6e98a452","null","null","<p style=""font-size: 60px; font-family: BACS"">rkJuAZbl</p>","","","","","","","","",""
"html-keyboard-response","328","526074","0.0-14.0-0.77","5c1bfabab0fcc900019d9ff4","650c16f0f2faf8d7a0d14c09","651c34a6d0f8783c6e98a452","null","null","<p style=""font-size: 60px; font-family: BACS"">EdBblMck</p>","","","","","","","","",""
"html-keyboard-response","329","527076","0.0-14.0-0.78","5c1bfabab0fcc900019d9ff4","650c16f0f2faf8d7a0d14c09","651c34a6d0f8783c6e98a452","null","null","<p style=""font-size: 60px; font-family: BACS"">bYGOZAZbl</p>","","","","","","","","",""
"html-keyboard-response","330","528093","0.0-14.0-0.79","5c1bfabab0fcc900019d9ff4","650c16f0f2faf8d7a0d14c09","651c34a6d0f8783c6e98a452","null","null","<p style=""font-size: 60px; font-family: BACS"">lBKtTbk</p>","","","","","","","","",""
"html-keyboard-response","331","544505","0.0-15.0","5c1bfabab0fcc900019d9ff4","650c16f0f2faf8d7a0d14c09","651c34a6d0f8783c6e98a452","16411"," ","<p>Great, you've seen the fourth block of words. You may now take a short break.</p>
      <p>Press the spacebar when you're ready to continue.</p>","","","","","","","","",""
"html-keyboard-response","332","545506","0.0-16.0-0.0","5c1bfabab0fcc900019d9ff4","650c16f0f2faf8d7a0d14c09","651c34a6d0f8783c6e98a452","null","null","<p style=""font-size: 60px; font-family: BACS"">DRPkYEcR</p>","","","","","","","","",""
"html-keyboard-response","333","546508","0.0-16.0-0.1","5c1bfabab0fcc900019d9ff4","650c16f0f2faf8d7a0d14c09","651c34a6d0f8783c6e98a452","null","null","<p style=""font-size: 60px; font-family: BACS"">DRPkYEcR</p>","","","","","","","","",""
"html-keyboard-response","334","547510","0.0-16.0-0.2","5c1bfabab0fcc900019d9ff4","650c16f0f2faf8d7a0d14c09","651c34a6d0f8783c6e98a452","null","null","<p style=""font-size: 60px; font-family: BACS"">DRPkYEcR</p>","","","","","","","","",""
"html-keyboard-response","335","548512","0.0-16.0-0.3","5c1bfabab0fcc900019d9ff4","650c16f0f2faf8d7a0d14c09","651c34a6d0f8783c6e98a452","null","null","<p style=""font-size: 60px; font-family: BACS"">DRPkYEcR</p>","","","","","","","","",""
"html-keyboard-response","336","549514","0.0-16.0-0.4","5c1bfabab0fcc900019d9ff4","650c16f0f2faf8d7a0d14c09","651c34a6d0f8783c6e98a452","null","null","<p style=""font-size: 60px; font-family: BACS"">DRPkYEcR</p>","","","","","","","","",""
"html-keyboard-response","337","550516","0.0-16.0-0.5","5c1bfabab0fcc900019d9ff4","650c16f0f2faf8d7a0d14c09","651c34a6d0f8783c6e98a452","null","null","<p style=""font-size: 60px; font-family: BACS"">DRPkYEcR</p>","","","","","","","","",""
"html-keyboard-response","338","551517","0.0-16.0-0.6","5c1bfabab0fcc900019d9ff4","650c16f0f2faf8d7a0d14c09","651c34a6d0f8783c6e98a452","null","null","<p style=""font-size: 60px; font-family: BACS"">DRPkYEcR</p>","","","","","","","","",""
"html-keyboard-response","339","552531","0.0-16.0-0.7","5c1bfabab0fcc900019d9ff4","650c16f0f2faf8d7a0d14c09","651c34a6d0f8783c6e98a452","null","null","<p style=""font-size: 60px; font-family: BACS"">DRPkYEcR</p>","","","","","","","","",""
"html-keyboard-response","340","553534","0.0-16.0-0.8","5c1bfabab0fcc900019d9ff4","650c16f0f2faf8d7a0d14c09","651c34a6d0f8783c6e98a452","null","null","<p style=""font-size: 60px; font-family: BACS"">DRPkYEcR</p>","","","","","","","","",""
"html-keyboard-response","341","554550","0.0-16.0-0.9","5c1bfabab0fcc900019d9ff4","650c16f0f2faf8d7a0d14c09","651c34a6d0f8783c6e98a452","null","null","<p style=""font-size: 60px; font-family: BACS"">DRPkYEcR</p>","","","","","","","","",""
"html-keyboard-response","342","555552","0.0-16.0-0.10","5c1bfabab0fcc900019d9ff4","650c16f0f2faf8d7a0d14c09","651c34a6d0f8783c6e98a452","null","null","<p style=""font-size: 60px; font-family: BACS"">DRPkYEcR</p>","","","","","","","","",""
"html-keyboard-response","343","556553","0.0-16.0-0.11","5c1bfabab0fcc900019d9ff4","650c16f0f2faf8d7a0d14c09","651c34a6d0f8783c6e98a452","null","null","<p style=""font-size: 60px; font-family: BACS"">DRPkYEcR</p>","","","","","","","","",""
"html-keyboard-response","344","557556","0.0-16.0-0.12","5c1bfabab0fcc900019d9ff4","650c16f0f2faf8d7a0d14c09","651c34a6d0f8783c6e98a452","null","null","<p style=""font-size: 60px; font-family: BACS"">DRPkYEcR</p>","","","","","","","","",""
"html-keyboard-response","345","558557","0.0-16.0-0.13","5c1bfabab0fcc900019d9ff4","650c16f0f2faf8d7a0d14c09","651c34a6d0f8783c6e98a452","null","null","<p style=""font-size: 60px; font-family: BACS"">DRPkYEcR</p>","","","","","","","","",""
"html-keyboard-response","346","559565","0.0-16.0-0.14","5c1bfabab0fcc900019d9ff4","650c16f0f2faf8d7a0d14c09","651c34a6d0f8783c6e98a452","null","null","<p style=""font-size: 60px; font-family: BACS"">DRPkYEcR</p>","","","","","","","","",""
"html-keyboard-response","347","560567","0.0-16.0-0.15","5c1bfabab0fcc900019d9ff4","650c16f0f2faf8d7a0d14c09","651c34a6d0f8783c6e98a452","null","null","<p style=""font-size: 60px; font-family: BACS"">DRPkYEcR</p>","","","","","","","","",""
"html-keyboard-response","348","561570","0.0-16.0-0.16","5c1bfabab0fcc900019d9ff4","650c16f0f2faf8d7a0d14c09","651c34a6d0f8783c6e98a452","null","null","<p style=""font-size: 60px; font-family: BACS"">DRPkYEcR</p>","","","","","","","","",""
"html-keyboard-response","349","562574","0.0-16.0-0.17","5c1bfabab0fcc900019d9ff4","650c16f0f2faf8d7a0d14c09","651c34a6d0f8783c6e98a452","null","null","<p style=""font-size: 60px; font-family: BACS"">DRPkYEcR</p>","","","","","","","","",""
"html-keyboard-response","350","563575","0.0-16.0-0.18","5c1bfabab0fcc900019d9ff4","650c16f0f2faf8d7a0d14c09","651c34a6d0f8783c6e98a452","null","null","<p style=""font-size: 60px; font-family: BACS"">DRPkYEcR</p>","","","","","","","","",""
"html-keyboard-response","351","564577","0.0-16.0-0.19","5c1bfabab0fcc900019d9ff4","650c16f0f2faf8d7a0d14c09","651c34a6d0f8783c6e98a452","null","null","<p style=""font-size: 60px; font-family: BACS"">DRPkYEcR</p>","","","","","","","","",""
"html-keyboard-response","352","565579","0.0-16.0-0.20","5c1bfabab0fcc900019d9ff4","650c16f0f2faf8d7a0d14c09","651c34a6d0f8783c6e98a452","null","null","<p style=""font-size: 60px; font-family: BACS"">DRPkYEcR</p>","","","","","","","","",""
"html-keyboard-response","353","566581","0.0-16.0-0.21","5c1bfabab0fcc900019d9ff4","650c16f0f2faf8d7a0d14c09","651c34a6d0f8783c6e98a452","null","null","<p style=""font-size: 60px; font-family: BACS"">DRPkYEcR</p>","","","","","","","","",""
"html-keyboard-response","354","567586","0.0-16.0-0.22","5c1bfabab0fcc900019d9ff4","650c16f0f2faf8d7a0d14c09","651c34a6d0f8783c6e98a452","null","null","<p style=""font-size: 60px; font-family: BACS"">DRPkYEcR</p>","","","","","","","","",""
"html-keyboard-response","355","568588","0.0-16.0-0.23","5c1bfabab0fcc900019d9ff4","650c16f0f2faf8d7a0d14c09","651c34a6d0f8783c6e98a452","null","null","<p style=""font-size: 60px; font-family: BACS"">DRPkYEcR</p>","","","","","","","","",""
"html-keyboard-response","356","569590","0.0-16.0-0.24","5c1bfabab0fcc900019d9ff4","650c16f0f2faf8d7a0d14c09","651c34a6d0f8783c6e98a452","null","null","<p style=""font-size: 60px; font-family: BACS"">DRPkYEcR</p>","","","","","","","","",""
"html-keyboard-response","357","570592","0.0-16.0-0.25","5c1bfabab0fcc900019d9ff4","650c16f0f2faf8d7a0d14c09","651c34a6d0f8783c6e98a452","null","null","<p style=""font-size: 60px; font-family: BACS"">DRPkYEcR</p>","","","","","","","","",""
"html-keyboard-response","358","571607","0.0-16.0-0.26","5c1bfabab0fcc900019d9ff4","650c16f0f2faf8d7a0d14c09","651c34a6d0f8783c6e98a452","null","null","<p style=""font-size: 60px; font-family: BACS"">DRPkYEcR</p>","","","","","","","","",""
"html-keyboard-response","359","572619","0.0-16.0-0.27","5c1bfabab0fcc900019d9ff4","650c16f0f2faf8d7a0d14c09","651c34a6d0f8783c6e98a452","null","null","<p style=""font-size: 60px; font-family: BACS"">DRPkYEcR</p>","","","","","","","","",""
"html-keyboard-response","360","573634","0.0-16.0-0.28","5c1bfabab0fcc900019d9ff4","650c16f0f2faf8d7a0d14c09","651c34a6d0f8783c6e98a452","null","null","<p style=""font-size: 60px; font-family: BACS"">DRPkYEcR</p>","","","","","","","","",""
"html-keyboard-response","361","574648","0.0-16.0-0.29","5c1bfabab0fcc900019d9ff4","650c16f0f2faf8d7a0d14c09","651c34a6d0f8783c6e98a452","null","null","<p style=""font-size: 60px; font-family: BACS"">DRPkYEcR</p>","","","","","","","","",""
"html-keyboard-response","362","575650","0.0-16.0-0.30","5c1bfabab0fcc900019d9ff4","650c16f0f2faf8d7a0d14c09","651c34a6d0f8783c6e98a452","null","null","<p style=""font-size: 60px; font-family: BACS"">DRPkYEcR</p>","","","","","","","","",""
"html-keyboard-response","363","576651","0.0-16.0-0.31","5c1bfabab0fcc900019d9ff4","650c16f0f2faf8d7a0d14c09","651c34a6d0f8783c6e98a452","null","null","<p style=""font-size: 60px; font-family: BACS"">DRPkYEcR</p>","","","","","","","","",""
"html-keyboard-response","364","577654","0.0-16.0-0.32","5c1bfabab0fcc900019d9ff4","650c16f0f2faf8d7a0d14c09","651c34a6d0f8783c6e98a452","null","null","<p style=""font-size: 60px; font-family: BACS"">DRPkYEcR</p>","","","","","","","","",""
"html-keyboard-response","365","578655","0.0-16.0-0.33","5c1bfabab0fcc900019d9ff4","650c16f0f2faf8d7a0d14c09","651c34a6d0f8783c6e98a452","null","null","<p style=""font-size: 60px; font-family: BACS"">DRPkYEcR</p>","","","","","","","","",""
"html-keyboard-response","366","579657","0.0-16.0-0.34","5c1bfabab0fcc900019d9ff4","650c16f0f2faf8d7a0d14c09","651c34a6d0f8783c6e98a452","null","null","<p style=""font-size: 60px; font-family: BACS"">DRPkYEcR</p>","","","","","","","","",""
"html-keyboard-response","367","580659","0.0-16.0-0.35","5c1bfabab0fcc900019d9ff4","650c16f0f2faf8d7a0d14c09","651c34a6d0f8783c6e98a452","null","null","<p style=""font-size: 60px; font-family: BACS"">DRPkYEcR</p>","","","","","","","","",""
"html-keyboard-response","368","581669","0.0-16.0-0.36","5c1bfabab0fcc900019d9ff4","650c16f0f2faf8d7a0d14c09","651c34a6d0f8783c6e98a452","null","null","<p style=""font-size: 60px; font-family: BACS"">DRPkYEcR</p>","","","","","","","","",""
"html-keyboard-response","369","582680","0.0-16.0-0.37","5c1bfabab0fcc900019d9ff4","650c16f0f2faf8d7a0d14c09","651c34a6d0f8783c6e98a452","null","null","<p style=""font-size: 60px; font-family: BACS"">DRPkYEcR</p>","","","","","","","","",""
"html-keyboard-response","370","583692","0.0-16.0-0.38","5c1bfabab0fcc900019d9ff4","650c16f0f2faf8d7a0d14c09","651c34a6d0f8783c6e98a452","null","null","<p style=""font-size: 60px; font-family: BACS"">DRPkYEcR</p>","","","","","","","","",""
"html-keyboard-response","371","584693","0.0-16.0-0.39","5c1bfabab0fcc900019d9ff4","650c16f0f2faf8d7a0d14c09","651c34a6d0f8783c6e98a452","null","null","<p style=""font-size: 60px; font-family: BACS"">DRPkYEcR</p>","","","","","","","","",""
"html-keyboard-response","372","585702","0.0-16.0-0.40","5c1bfabab0fcc900019d9ff4","650c16f0f2faf8d7a0d14c09","651c34a6d0f8783c6e98a452","null","null","<p style=""font-size: 60px; font-family: BACS"">DRPkYEcR</p>","","","","","","","","",""
"html-keyboard-response","373","586712","0.0-16.0-0.41","5c1bfabab0fcc900019d9ff4","650c16f0f2faf8d7a0d14c09","651c34a6d0f8783c6e98a452","null","null","<p style=""font-size: 60px; font-family: BACS"">DRPkYEcR</p>","","","","","","","","",""
"html-keyboard-response","374","587713","0.0-16.0-0.42","5c1bfabab0fcc900019d9ff4","650c16f0f2faf8d7a0d14c09","651c34a6d0f8783c6e98a452","null","null","<p style=""font-size: 60px; font-family: BACS"">DRPkYEcR</p>","","","","","","","","",""
"html-keyboard-response","375","588715","0.0-16.0-0.43","5c1bfabab0fcc900019d9ff4","650c16f0f2faf8d7a0d14c09","651c34a6d0f8783c6e98a452","null","null","<p style=""font-size: 60px; font-family: BACS"">DRPkYEcR</p>","","","","","","","","",""
"html-keyboard-response","376","589718","0.0-16.0-0.44","5c1bfabab0fcc900019d9ff4","650c16f0f2faf8d7a0d14c09","651c34a6d0f8783c6e98a452","null","null","<p style=""font-size: 60px; font-family: BACS"">DRPkYEcR</p>","","","","","","","","",""
"html-keyboard-response","377","590725","0.0-16.0-0.45","5c1bfabab0fcc900019d9ff4","650c16f0f2faf8d7a0d14c09","651c34a6d0f8783c6e98a452","null","null","<p style=""font-size: 60px; font-family: BACS"">DRPkYEcR</p>","","","","","","","","",""
"html-keyboard-response","378","591736","0.0-16.0-0.46","5c1bfabab0fcc900019d9ff4","650c16f0f2faf8d7a0d14c09","651c34a6d0f8783c6e98a452","null","null","<p style=""font-size: 60px; font-family: BACS"">DRPkYEcR</p>","","","","","","","","",""
"html-keyboard-response","379","592746","0.0-16.0-0.47","5c1bfabab0fcc900019d9ff4","650c16f0f2faf8d7a0d14c09","651c34a6d0f8783c6e98a452","null","null","<p style=""font-size: 60px; font-family: BACS"">DRPkYEcR</p>","","","","","","","","",""
"html-keyboard-response","380","593748","0.0-16.0-0.48","5c1bfabab0fcc900019d9ff4","650c16f0f2faf8d7a0d14c09","651c34a6d0f8783c6e98a452","null","null","<p style=""font-size: 60px; font-family: BACS"">DRPkYEcR</p>","","","","","","","","",""
"html-keyboard-response","381","594750","0.0-16.0-0.49","5c1bfabab0fcc900019d9ff4","650c16f0f2faf8d7a0d14c09","651c34a6d0f8783c6e98a452","null","null","<p style=""font-size: 60px; font-family: BACS"">DRPkYEcR</p>","","","","","","","","",""
"html-keyboard-response","382","595753","0.0-16.0-0.50","5c1bfabab0fcc900019d9ff4","650c16f0f2faf8d7a0d14c09","651c34a6d0f8783c6e98a452","null","null","<p style=""font-size: 60px; font-family: BACS"">DRPkYEcR</p>","","","","","","","","",""
"html-keyboard-response","383","596763","0.0-16.0-0.51","5c1bfabab0fcc900019d9ff4","650c16f0f2faf8d7a0d14c09","651c34a6d0f8783c6e98a452","null","null","<p style=""font-size: 60px; font-family: BACS"">DRPkYEcR</p>","","","","","","","","",""
"html-keyboard-response","384","597773","0.0-16.0-0.52","5c1bfabab0fcc900019d9ff4","650c16f0f2faf8d7a0d14c09","651c34a6d0f8783c6e98a452","null","null","<p style=""font-size: 60px; font-family: BACS"">DRPkYEcR</p>","","","","","","","","",""
"html-keyboard-response","385","598775","0.0-16.0-0.53","5c1bfabab0fcc900019d9ff4","650c16f0f2faf8d7a0d14c09","651c34a6d0f8783c6e98a452","null","null","<p style=""font-size: 60px; font-family: BACS"">DRPkYEcR</p>","","","","","","","","",""
"html-keyboard-response","386","599777","0.0-16.0-0.54","5c1bfabab0fcc900019d9ff4","650c16f0f2faf8d7a0d14c09","651c34a6d0f8783c6e98a452","null","null","<p style=""font-size: 60px; font-family: BACS"">DRPkYEcR</p>","","","","","","","","",""
"html-keyboard-response","387","600790","0.0-16.0-0.55","5c1bfabab0fcc900019d9ff4","650c16f0f2faf8d7a0d14c09","651c34a6d0f8783c6e98a452","null","null","<p style=""font-size: 60px; font-family: BACS"">DRPkYEcR</p>","","","","","","","","",""
"html-keyboard-response","388","601792","0.0-16.0-0.56","5c1bfabab0fcc900019d9ff4","650c16f0f2faf8d7a0d14c09","651c34a6d0f8783c6e98a452","null","null","<p style=""font-size: 60px; font-family: BACS"">DRPkYEcR</p>","","","","","","","","",""
"html-keyboard-response","389","602801","0.0-16.0-0.57","5c1bfabab0fcc900019d9ff4","650c16f0f2faf8d7a0d14c09","651c34a6d0f8783c6e98a452","null","null","<p style=""font-size: 60px; font-family: BACS"">DRPkYEcR</p>","","","","","","","","",""
"html-keyboard-response","390","603802","0.0-16.0-0.58","5c1bfabab0fcc900019d9ff4","650c16f0f2faf8d7a0d14c09","651c34a6d0f8783c6e98a452","null","null","<p style=""font-size: 60px; font-family: BACS"">DRPkYEcR</p>","","","","","","","","",""
"html-keyboard-response","391","604804","0.0-16.0-0.59","5c1bfabab0fcc900019d9ff4","650c16f0f2faf8d7a0d14c09","651c34a6d0f8783c6e98a452","null","null","<p style=""font-size: 60px; font-family: BACS"">DRPkYEcR</p>","","","","","","","","",""
"html-keyboard-response","392","605807","0.0-16.0-0.60","5c1bfabab0fcc900019d9ff4","650c16f0f2faf8d7a0d14c09","651c34a6d0f8783c6e98a452","null","null","<p style=""font-size: 60px; font-family: BACS"">DRPkYEcR</p>","","","","","","","","",""
"html-keyboard-response","393","606821","0.0-16.0-0.61","5c1bfabab0fcc900019d9ff4","650c16f0f2faf8d7a0d14c09","651c34a6d0f8783c6e98a452","null","null","<p style=""font-size: 60px; font-family: BACS"">DRPkYEcR</p>","","","","","","","","",""
"html-keyboard-response","394","607833","0.0-16.0-0.62","5c1bfabab0fcc900019d9ff4","650c16f0f2faf8d7a0d14c09","651c34a6d0f8783c6e98a452","null","null","<p style=""font-size: 60px; font-family: BACS"">DRPkYEcR</p>","","","","","","","","",""
"html-keyboard-response","395","608835","0.0-16.0-0.63","5c1bfabab0fcc900019d9ff4","650c16f0f2faf8d7a0d14c09","651c34a6d0f8783c6e98a452","null","null","<p style=""font-size: 60px; font-family: BACS"">DRPkYEcR</p>","","","","","","","","",""
"html-keyboard-response","396","609846","0.0-16.0-0.64","5c1bfabab0fcc900019d9ff4","650c16f0f2faf8d7a0d14c09","651c34a6d0f8783c6e98a452","null","null","<p style=""font-size: 60px; font-family: BACS"">DRPkYEcR</p>","","","","","","","","",""
"html-keyboard-response","397","610848","0.0-16.0-0.65","5c1bfabab0fcc900019d9ff4","650c16f0f2faf8d7a0d14c09","651c34a6d0f8783c6e98a452","null","null","<p style=""font-size: 60px; font-family: BACS"">DRPkYEcR</p>","","","","","","","","",""
"html-keyboard-response","398","611854","0.0-16.0-0.66","5c1bfabab0fcc900019d9ff4","650c16f0f2faf8d7a0d14c09","651c34a6d0f8783c6e98a452","null","null","<p style=""font-size: 60px; font-family: BACS"">DRPkYEcR</p>","","","","","","","","",""
