"trial_type","trial_index","time_elapsed","internal_node_id","subject_id","study_id","session_id","rt","response","stimulus","success","item","task","correct_response","testing_condition","correct","target","confound","name","view_history"
"pavlovia","0","958","0.0-0.0","60bbe0da43325dadf2b1b6a9","650c16f0f2faf8d7a0d14c09","651c1bb7654b388e73f2e6b4","","","","","","","","","","","","",""
"survey-html-form","1","4334","0.0-1.0","60bbe0da43325dadf2b1b6a9","650c16f0f2faf8d7a0d14c09","651c1bb7654b388e73f2e6b4","3375","{""ID"":""60bbe0da43325dadf2b1b6a9""}","","","","","","","","","","",""
"html-keyboard-response","2","16117","0.0-2.0","60bbe0da43325dadf2b1b6a9","650c16f0f2faf8d7a0d14c09","651c1bb7654b388e73f2e6b4","11780"," ","<p style=""font-size: 15px;"">Before beginning, we ask that you read the consent information and confirm your agreement to participate in the experiment.</p>
      <p style=""font-size: 15px;""> We ask that you remember that this is a research project and that your participation is entirely voluntary. You can stop your participation at any time, without needing to provide any explanation. The study we're asking you to participate in aims at examining how readers process written words. You will be engaged in a session of apprximately 20 minutes, followed by a brief questionnaire. You will have the opportunity to take a few breaks during the experiment. You will be paid £4 for your participation, corresponding to a rate of £8/hour. While this experiment looks at cognitive faculties, this experiment doesn't constitute clinical proof of eventual pathologies.</p>
      <p style=""font-size: 15px;"">All of the information collected thanks to yours and others' participation will be held in a secure password-protected server, and will not be shared with anyone not authorised to view it. Your personal information will be kept with an arbitrary participant ID. Thanks to this data anonymity process, any researcher analysing the data won't be able to track the information back to a specific participant. Therefore, this process will make identifying you impossibile, even when results from the study will be published in scientific reviews, presented at congresses, or at any other public forum. More generally, the collected data will be treated in accordance with the laws on privacy and conformity to the Legislative Degree n. 196 ""Code regarding the protection of personal data"" of the 30th of June 2003 and to the European Regulation 2016/670 (General Data Protection Regulation - GDPR). The Data Protection Officer is Avv. Valentina Carollo, who can be contacted at the following email addresses: <a href=""mailto:dpo@sissa.it"">dpo@sissa.it</a> or <a href=""mailto:rpd@sissa.it"">rpd@sissa.it</a> - PEC: <a href=""mailto:protocollo@pec.sissa.it"">protocollo@pec.sissa.it</a>.</p>
      <p style=""font-size: 15px;""> Before expressing your consent to participate, we would like to remind you again that in case you need explanations on any aspect of the experimental procedure, the researcher is at your disposition (<a href=""mailto:aliebelt@sissa.it"">aliebelt@sissa.it</a>, <a href=""mailto:davide.crepaldi@sissa.it"">davide.crepaldi@sissa.it</a>).</p>
      <p style=""font-size: 15px;"">If you would like to download the informed consent form, you can do so here: <a href=""BASL-Informed_Consent.pdf"" download>informed consent form</a>.</p>
      <p style=""font-size: 15px;"">We ask that you press the spacebar to proceed to the consent section.</p>","","","","","","","","","",""
"survey-html-form","3","28519","0.0-3.0","60bbe0da43325dadf2b1b6a9","650c16f0f2faf8d7a0d14c09","651c1bb7654b388e73f2e6b4","12401","{""consent1"":""YES"",""consent2"":""YES"",""consent3"":""YES"",""consent4"":""YES"",""consent5"":""YES"",""consent6"":""YES""}","","","","","","","","","","",""
"fullscreen","4","34435","0.0-4.0","60bbe0da43325dadf2b1b6a9","650c16f0f2faf8d7a0d14c09","651c1bb7654b388e73f2e6b4","","","","true","","","","","","","","",""
"html-keyboard-response","5","89419","0.0-5.0","60bbe0da43325dadf2b1b6a9","650c16f0f2faf8d7a0d14c09","651c1bb7654b388e73f2e6b4","54984"," ","<p>Welcome, and thank you very much for your time!</p>
      <p>In this experiment, you'll be a language expert who's been asked to take a look at words that Earth has received in its first communication with aliens. Your task, in this first part of the experiment, is to pay close attention to the words you'll be shown; later, world leaders will ask you questions on what you saw. The words will be shown to you quite quickly; it seems that the aliens were in a hurry :-)</p>
      <p>Press the spacebar to continue.<p>","","","","","","","","","",""
"html-keyboard-response","6","89470","0.0-6.0","60bbe0da43325dadf2b1b6a9","650c16f0f2faf8d7a0d14c09","651c1bb7654b388e73f2e6b4","null","null","<p style=""font-size: 120px; font-family: BACS""> </p>","","","","","","","","","",""
"html-keyboard-response","7","92799","0.0-7.0","60bbe0da43325dadf2b1b6a9","650c16f0f2faf8d7a0d14c09","651c1bb7654b388e73f2e6b4","3327"," ","<p>Here is an example of the words you'll see:</p>
      <img src='esempio.png' height='400px'>
      <p>When you're ready to begin, press the spacebar.</p></div>","","","","","","","","","",""
"html-keyboard-response","8","93802","0.0-8.0-0.0","60bbe0da43325dadf2b1b6a9","650c16f0f2faf8d7a0d14c09","651c1bb7654b388e73f2e6b4","null","null","<p style=""font-size: 60px; font-family: BACS"">QLrOJmZb</p>","","","","","","","","","",""
"html-keyboard-response","9","94803","0.0-8.0-0.1","60bbe0da43325dadf2b1b6a9","650c16f0f2faf8d7a0d14c09","651c1bb7654b388e73f2e6b4","null","null","<p style=""font-size: 60px; font-family: BACS"">UmNJGUa</p>","","","","","","","","","",""
"html-keyboard-response","10","95805","0.0-8.0-0.2","60bbe0da43325dadf2b1b6a9","650c16f0f2faf8d7a0d14c09","651c1bb7654b388e73f2e6b4","null","null","<p style=""font-size: 60px; font-family: BACS"">RkmdCtcB</p>","","","","","","","","","",""
"html-keyboard-response","11","96806","0.0-8.0-0.3","60bbe0da43325dadf2b1b6a9","650c16f0f2faf8d7a0d14c09","651c1bb7654b388e73f2e6b4","null","null","<p style=""font-size: 60px; font-family: BACS"">mZUrQLkNc</p>","","","","","","","","","",""
"html-keyboard-response","12","97809","0.0-8.0-0.4","60bbe0da43325dadf2b1b6a9","650c16f0f2faf8d7a0d14c09","651c1bb7654b388e73f2e6b4","null","null","<p style=""font-size: 60px; font-family: BACS"">kulZmZb</p>","","","","","","","","","",""
"html-keyboard-response","13","98811","0.0-8.0-0.5","60bbe0da43325dadf2b1b6a9","650c16f0f2faf8d7a0d14c09","651c1bb7654b388e73f2e6b4","null","null","<p style=""font-size: 60px; font-family: BACS"">ZdNmUOcN</p>","","","","","","","","","",""
"html-keyboard-response","14","99813","0.0-8.0-0.6","60bbe0da43325dadf2b1b6a9","650c16f0f2faf8d7a0d14c09","651c1bb7654b388e73f2e6b4","null","null","<p style=""font-size: 60px; font-family: BACS"">RlAKctcB</p>","","","","","","","","","",""
"html-keyboard-response","15","100816","0.0-8.0-0.7","60bbe0da43325dadf2b1b6a9","650c16f0f2faf8d7a0d14c09","651c1bb7654b388e73f2e6b4","null","null","<p style=""font-size: 60px; font-family: BACS"">BlmclOBT</p>","","","","","","","","","",""
"html-keyboard-response","16","101818","0.0-8.0-0.8","60bbe0da43325dadf2b1b6a9","650c16f0f2faf8d7a0d14c09","651c1bb7654b388e73f2e6b4","null","null","<p style=""font-size: 60px; font-family: BACS"">dKDthAPT</p>","","","","","","","","","",""
"html-keyboard-response","17","102820","0.0-8.0-0.9","60bbe0da43325dadf2b1b6a9","650c16f0f2faf8d7a0d14c09","651c1bb7654b388e73f2e6b4","null","null","<p style=""font-size: 60px; font-family: BACS"">ObZbAvAvb</p>","","","","","","","","","",""
"html-keyboard-response","18","103827","0.0-8.0-0.10","60bbe0da43325dadf2b1b6a9","650c16f0f2faf8d7a0d14c09","651c1bb7654b388e73f2e6b4","null","null","<p style=""font-size: 60px; font-family: BACS"">DOchltcB</p>","","","","","","","","","",""
"html-keyboard-response","19","104848","0.0-8.0-0.11","60bbe0da43325dadf2b1b6a9","650c16f0f2faf8d7a0d14c09","651c1bb7654b388e73f2e6b4","null","null","<p style=""font-size: 60px; font-family: BACS"">OAblcOcN</p>","","","","","","","","","",""
"html-keyboard-response","20","105868","0.0-8.0-0.12","60bbe0da43325dadf2b1b6a9","650c16f0f2faf8d7a0d14c09","651c1bb7654b388e73f2e6b4","null","null","<p style=""font-size: 60px; font-family: BACS"">DOchldEPD</p>","","","","","","","","","",""
"html-keyboard-response","21","106888","0.0-8.0-0.13","60bbe0da43325dadf2b1b6a9","650c16f0f2faf8d7a0d14c09","651c1bb7654b388e73f2e6b4","null","null","<p style=""font-size: 60px; font-family: BACS"">RkmdCAPT</p>","","","","","","","","","",""
"html-keyboard-response","22","107908","0.0-8.0-0.14","60bbe0da43325dadf2b1b6a9","650c16f0f2faf8d7a0d14c09","651c1bb7654b388e73f2e6b4","null","null","<p style=""font-size: 60px; font-family: BACS"">lCbcmOBT</p>","","","","","","","","","",""
"html-keyboard-response","23","108928","0.0-8.0-0.15","60bbe0da43325dadf2b1b6a9","650c16f0f2faf8d7a0d14c09","651c1bb7654b388e73f2e6b4","null","null","<p style=""font-size: 60px; font-family: BACS"">TCbDCdTAh</p>","","","","","","","","","",""
"html-keyboard-response","24","109948","0.0-8.0-0.16","60bbe0da43325dadf2b1b6a9","650c16f0f2faf8d7a0d14c09","651c1bb7654b388e73f2e6b4","null","null","<p style=""font-size: 60px; font-family: BACS"">lCbcmdEPD</p>","","","","","","","","","",""
"html-keyboard-response","25","110967","0.0-8.0-0.17","60bbe0da43325dadf2b1b6a9","650c16f0f2faf8d7a0d14c09","651c1bb7654b388e73f2e6b4","null","null","<p style=""font-size: 60px; font-family: BACS"">ZdNmULkNc</p>","","","","","","","","","",""
"html-keyboard-response","26","111988","0.0-8.0-0.18","60bbe0da43325dadf2b1b6a9","650c16f0f2faf8d7a0d14c09","651c1bb7654b388e73f2e6b4","null","null","<p style=""font-size: 60px; font-family: BACS"">ObZbAOcN</p>","","","","","","","","","",""
"html-keyboard-response","27","113008","0.0-8.0-0.19","60bbe0da43325dadf2b1b6a9","650c16f0f2faf8d7a0d14c09","651c1bb7654b388e73f2e6b4","null","null","<p style=""font-size: 60px; font-family: BACS"">lCbcmtcB</p>","","","","","","","","","",""
"html-keyboard-response","28","114028","0.0-8.0-0.20","60bbe0da43325dadf2b1b6a9","650c16f0f2faf8d7a0d14c09","651c1bb7654b388e73f2e6b4","null","null","<p style=""font-size: 60px; font-family: BACS"">mhtcAPT</p>","","","","","","","","","",""
"html-keyboard-response","29","115048","0.0-8.0-0.21","60bbe0da43325dadf2b1b6a9","650c16f0f2faf8d7a0d14c09","651c1bb7654b388e73f2e6b4","null","null","<p style=""font-size: 60px; font-family: BACS"">dKDthOBT</p>","","","","","","","","","",""
"html-keyboard-response","30","116068","0.0-8.0-0.22","60bbe0da43325dadf2b1b6a9","650c16f0f2faf8d7a0d14c09","651c1bb7654b388e73f2e6b4","null","null","<p style=""font-size: 60px; font-family: BACS"">RkmdCdEPD</p>","","","","","","","","","",""
"html-keyboard-response","31","117088","0.0-8.0-0.23","60bbe0da43325dadf2b1b6a9","650c16f0f2faf8d7a0d14c09","651c1bb7654b388e73f2e6b4","null","null","<p style=""font-size: 60px; font-family: BACS"">UmNJvAvb</p>","","","","","","","","","",""
"html-keyboard-response","32","118109","0.0-8.0-0.24","60bbe0da43325dadf2b1b6a9","650c16f0f2faf8d7a0d14c09","651c1bb7654b388e73f2e6b4","null","null","<p style=""font-size: 60px; font-family: BACS"">UYZlZmZb</p>","","","","","","","","","",""
"html-keyboard-response","33","119129","0.0-8.0-0.25","60bbe0da43325dadf2b1b6a9","650c16f0f2faf8d7a0d14c09","651c1bb7654b388e73f2e6b4","null","null","<p style=""font-size: 60px; font-family: BACS"">mhtcOBT</p>","","","","","","","","","",""
"html-keyboard-response","34","120149","0.0-8.0-0.26","60bbe0da43325dadf2b1b6a9","650c16f0f2faf8d7a0d14c09","651c1bb7654b388e73f2e6b4","null","null","<p style=""font-size: 60px; font-family: BACS"">UJmrGUa</p>","","","","","","","","","",""
"html-keyboard-response","35","121168","0.0-8.0-0.27","60bbe0da43325dadf2b1b6a9","650c16f0f2faf8d7a0d14c09","651c1bb7654b388e73f2e6b4","null","null","<p style=""font-size: 60px; font-family: BACS"">OAblcmZb</p>","","","","","","","","","",""
"html-keyboard-response","36","122188","0.0-8.0-0.28","60bbe0da43325dadf2b1b6a9","650c16f0f2faf8d7a0d14c09","651c1bb7654b388e73f2e6b4","null","null","<p style=""font-size: 60px; font-family: BACS"">UmNJLkNc</p>","","","","","","","","","",""
"html-keyboard-response","37","123207","0.0-8.0-0.29","60bbe0da43325dadf2b1b6a9","650c16f0f2faf8d7a0d14c09","651c1bb7654b388e73f2e6b4","null","null","<p style=""font-size: 60px; font-family: BACS"">KdARdTAh</p>","","","","","","","","","",""
"html-keyboard-response","38","124228","0.0-8.0-0.30","60bbe0da43325dadf2b1b6a9","650c16f0f2faf8d7a0d14c09","651c1bb7654b388e73f2e6b4","null","null","<p style=""font-size: 60px; font-family: BACS"">kulZOcN</p>","","","","","","","","","",""
"html-keyboard-response","39","125249","0.0-8.0-0.31","60bbe0da43325dadf2b1b6a9","650c16f0f2faf8d7a0d14c09","651c1bb7654b388e73f2e6b4","null","null","<p style=""font-size: 60px; font-family: BACS"">QLrOJLkNc</p>","","","","","","","","","",""
"html-keyboard-response","40","126268","0.0-8.0-0.32","60bbe0da43325dadf2b1b6a9","650c16f0f2faf8d7a0d14c09","651c1bb7654b388e73f2e6b4","null","null","<p style=""font-size: 60px; font-family: BACS"">RlAKcAPT</p>","","","","","","","","","",""
"html-keyboard-response","41","127288","0.0-8.0-0.33","60bbe0da43325dadf2b1b6a9","650c16f0f2faf8d7a0d14c09","651c1bb7654b388e73f2e6b4","null","null","<p style=""font-size: 60px; font-family: BACS"">KdARdEPD</p>","","","","","","","","","",""
"html-keyboard-response","42","128309","0.0-8.0-0.34","60bbe0da43325dadf2b1b6a9","650c16f0f2faf8d7a0d14c09","651c1bb7654b388e73f2e6b4","null","null","<p style=""font-size: 60px; font-family: BACS"">UYZlZLkNc</p>","","","","","","","","","",""
"html-keyboard-response","43","129328","0.0-8.0-0.35","60bbe0da43325dadf2b1b6a9","650c16f0f2faf8d7a0d14c09","651c1bb7654b388e73f2e6b4","null","null","<p style=""font-size: 60px; font-family: BACS"">mhtcdTAh</p>","","","","","","","","","",""
"html-keyboard-response","44","130348","0.0-8.0-0.36","60bbe0da43325dadf2b1b6a9","650c16f0f2faf8d7a0d14c09","651c1bb7654b388e73f2e6b4","null","null","<p style=""font-size: 60px; font-family: BACS"">UmNJmZb</p>","","","","","","","","","",""
"html-keyboard-response","45","131368","0.0-8.0-0.37","60bbe0da43325dadf2b1b6a9","650c16f0f2faf8d7a0d14c09","651c1bb7654b388e73f2e6b4","null","null","<p style=""font-size: 60px; font-family: BACS"">RlAKcOBT</p>","","","","","","","","","",""
"html-keyboard-response","46","132388","0.0-8.0-0.38","60bbe0da43325dadf2b1b6a9","650c16f0f2faf8d7a0d14c09","651c1bb7654b388e73f2e6b4","null","null","<p style=""font-size: 60px; font-family: BACS"">OAblcLkNc</p>","","","","","","","","","",""
"html-keyboard-response","47","133409","0.0-8.0-0.39","60bbe0da43325dadf2b1b6a9","650c16f0f2faf8d7a0d14c09","651c1bb7654b388e73f2e6b4","null","null","<p style=""font-size: 60px; font-family: BACS"">UYZlZvAvb</p>","","","","","","","","","",""
"html-keyboard-response","48","134428","0.0-8.0-0.40","60bbe0da43325dadf2b1b6a9","650c16f0f2faf8d7a0d14c09","651c1bb7654b388e73f2e6b4","null","null","<p style=""font-size: 60px; font-family: BACS"">OmtlDdEPD</p>","","","","","","","","","",""
"html-keyboard-response","49","135447","0.0-8.0-0.41","60bbe0da43325dadf2b1b6a9","650c16f0f2faf8d7a0d14c09","651c1bb7654b388e73f2e6b4","null","null","<p style=""font-size: 60px; font-family: BACS"">dKDthdTAh</p>","","","","","","","","","",""
"html-keyboard-response","50","136468","0.0-8.0-0.42","60bbe0da43325dadf2b1b6a9","650c16f0f2faf8d7a0d14c09","651c1bb7654b388e73f2e6b4","null","null","<p style=""font-size: 60px; font-family: BACS"">mZUrQmZb</p>","","","","","","","","","",""
"html-keyboard-response","51","137488","0.0-8.0-0.43","60bbe0da43325dadf2b1b6a9","650c16f0f2faf8d7a0d14c09","651c1bb7654b388e73f2e6b4","null","null","<p style=""font-size: 60px; font-family: BACS"">RkmdCdTAh</p>","","","","","","","","","",""
"html-keyboard-response","52","138508","0.0-8.0-0.44","60bbe0da43325dadf2b1b6a9","650c16f0f2faf8d7a0d14c09","651c1bb7654b388e73f2e6b4","null","null","<p style=""font-size: 60px; font-family: BACS"">KdARtcB</p>","","","","","","","","","",""
"html-keyboard-response","53","139528","0.0-8.0-0.45","60bbe0da43325dadf2b1b6a9","650c16f0f2faf8d7a0d14c09","651c1bb7654b388e73f2e6b4","null","null","<p style=""font-size: 60px; font-family: BACS"">kulZvAvb</p>","","","","","","","","","",""
"html-keyboard-response","54","140548","0.0-8.0-0.46","60bbe0da43325dadf2b1b6a9","650c16f0f2faf8d7a0d14c09","651c1bb7654b388e73f2e6b4","null","null","<p style=""font-size: 60px; font-family: BACS"">ObZbAmZb</p>","","","","","","","","","",""
"html-keyboard-response","55","141568","0.0-8.0-0.47","60bbe0da43325dadf2b1b6a9","650c16f0f2faf8d7a0d14c09","651c1bb7654b388e73f2e6b4","null","null","<p style=""font-size: 60px; font-family: BACS"">OmtlDAPT</p>","","","","","","","","","",""
"html-keyboard-response","56","142588","0.0-8.0-0.48","60bbe0da43325dadf2b1b6a9","650c16f0f2faf8d7a0d14c09","651c1bb7654b388e73f2e6b4","null","null","<p style=""font-size: 60px; font-family: BACS"">UYZlZOcN</p>","","","","","","","","","",""
"html-keyboard-response","57","143608","0.0-8.0-0.49","60bbe0da43325dadf2b1b6a9","650c16f0f2faf8d7a0d14c09","651c1bb7654b388e73f2e6b4","null","null","<p style=""font-size: 60px; font-family: BACS"">RlAKcdEPD</p>","","","","","","","","","",""
"html-keyboard-response","58","144628","0.0-8.0-0.50","60bbe0da43325dadf2b1b6a9","650c16f0f2faf8d7a0d14c09","651c1bb7654b388e73f2e6b4","null","null","<p style=""font-size: 60px; font-family: BACS"">lCbcmdTAh</p>","","","","","","","","","",""
"html-keyboard-response","59","145648","0.0-8.0-0.51","60bbe0da43325dadf2b1b6a9","650c16f0f2faf8d7a0d14c09","651c1bb7654b388e73f2e6b4","null","null","<p style=""font-size: 60px; font-family: BACS"">ukYZOcN</p>","","","","","","","","","",""
"html-keyboard-response","60","146668","0.0-8.0-0.52","60bbe0da43325dadf2b1b6a9","650c16f0f2faf8d7a0d14c09","651c1bb7654b388e73f2e6b4","null","null","<p style=""font-size: 60px; font-family: BACS"">TCbDCdEPD</p>","","","","","","","","","",""
"html-keyboard-response","61","147688","0.0-8.0-0.53","60bbe0da43325dadf2b1b6a9","650c16f0f2faf8d7a0d14c09","651c1bb7654b388e73f2e6b4","null","null","<p style=""font-size: 60px; font-family: BACS"">KdARAPT</p>","","","","","","","","","",""
"html-keyboard-response","62","148708","0.0-8.0-0.54","60bbe0da43325dadf2b1b6a9","650c16f0f2faf8d7a0d14c09","651c1bb7654b388e73f2e6b4","null","null","<p style=""font-size: 60px; font-family: BACS"">kulZGUa</p>","","","","","","","","","",""
"html-keyboard-response","63","149728","0.0-8.0-0.55","60bbe0da43325dadf2b1b6a9","650c16f0f2faf8d7a0d14c09","651c1bb7654b388e73f2e6b4","null","null","<p style=""font-size: 60px; font-family: BACS"">BlmcltcB</p>","","","","","","","","","",""
"html-keyboard-response","64","150749","0.0-8.0-0.56","60bbe0da43325dadf2b1b6a9","650c16f0f2faf8d7a0d14c09","651c1bb7654b388e73f2e6b4","null","null","<p style=""font-size: 60px; font-family: BACS"">ukYZGUa</p>","","","","","","","","","",""
"html-keyboard-response","65","151767","0.0-8.0-0.57","60bbe0da43325dadf2b1b6a9","650c16f0f2faf8d7a0d14c09","651c1bb7654b388e73f2e6b4","null","null","<p style=""font-size: 60px; font-family: BACS"">mZUrQvAvb</p>","","","","","","","","","",""
"html-keyboard-response","66","152788","0.0-8.0-0.58","60bbe0da43325dadf2b1b6a9","650c16f0f2faf8d7a0d14c09","651c1bb7654b388e73f2e6b4","null","null","<p style=""font-size: 60px; font-family: BACS"">DOchldTAh</p>","","","","","","","","","",""
"html-keyboard-response","67","153808","0.0-8.0-0.59","60bbe0da43325dadf2b1b6a9","650c16f0f2faf8d7a0d14c09","651c1bb7654b388e73f2e6b4","null","null","<p style=""font-size: 60px; font-family: BACS"">TCbDCOBT</p>","","","","","","","","","",""
"html-keyboard-response","68","154827","0.0-8.0-0.60","60bbe0da43325dadf2b1b6a9","650c16f0f2faf8d7a0d14c09","651c1bb7654b388e73f2e6b4","null","null","<p style=""font-size: 60px; font-family: BACS"">mhtcdEPD</p>","","","","","","","","","",""
"html-keyboard-response","69","155847","0.0-8.0-0.61","60bbe0da43325dadf2b1b6a9","650c16f0f2faf8d7a0d14c09","651c1bb7654b388e73f2e6b4","null","null","<p style=""font-size: 60px; font-family: BACS"">ukYZmZb</p>","","","","","","","","","",""
"html-keyboard-response","70","156868","0.0-8.0-0.62","60bbe0da43325dadf2b1b6a9","650c16f0f2faf8d7a0d14c09","651c1bb7654b388e73f2e6b4","null","null","<p style=""font-size: 60px; font-family: BACS"">ZdNmUvAvb</p>","","","","","","","","","",""
"html-keyboard-response","71","157888","0.0-8.0-0.63","60bbe0da43325dadf2b1b6a9","650c16f0f2faf8d7a0d14c09","651c1bb7654b388e73f2e6b4","null","null","<p style=""font-size: 60px; font-family: BACS"">TCbDCAPT</p>","","","","","","","","","",""
"html-keyboard-response","72","158908","0.0-8.0-0.64","60bbe0da43325dadf2b1b6a9","650c16f0f2faf8d7a0d14c09","651c1bb7654b388e73f2e6b4","null","null","<p style=""font-size: 60px; font-family: BACS"">ukYZLkNc</p>","","","","","","","","","",""
"html-keyboard-response","73","159928","0.0-8.0-0.65","60bbe0da43325dadf2b1b6a9","650c16f0f2faf8d7a0d14c09","651c1bb7654b388e73f2e6b4","null","null","<p style=""font-size: 60px; font-family: BACS"">OmtlDtcB</p>","","","","","","","","","",""
"html-keyboard-response","74","160948","0.0-8.0-0.66","60bbe0da43325dadf2b1b6a9","650c16f0f2faf8d7a0d14c09","651c1bb7654b388e73f2e6b4","null","null","<p style=""font-size: 60px; font-family: BACS"">UJmrOcN</p>","","","","","","","","","",""
"html-keyboard-response","75","161967","0.0-8.0-0.67","60bbe0da43325dadf2b1b6a9","650c16f0f2faf8d7a0d14c09","651c1bb7654b388e73f2e6b4","null","null","<p style=""font-size: 60px; font-family: BACS"">OmtlDOBT</p>","","","","","","","","","",""
"html-keyboard-response","76","162988","0.0-8.0-0.68","60bbe0da43325dadf2b1b6a9","650c16f0f2faf8d7a0d14c09","651c1bb7654b388e73f2e6b4","null","null","<p style=""font-size: 60px; font-family: BACS"">BlmcldTAh</p>","","","","","","","","","",""
"html-keyboard-response","77","164008","0.0-8.0-0.69","60bbe0da43325dadf2b1b6a9","650c16f0f2faf8d7a0d14c09","651c1bb7654b388e73f2e6b4","null","null","<p style=""font-size: 60px; font-family: BACS"">dKDthtcB</p>","","","","","","","","","",""
"html-keyboard-response","78","165029","0.0-8.0-0.70","60bbe0da43325dadf2b1b6a9","650c16f0f2faf8d7a0d14c09","651c1bb7654b388e73f2e6b4","null","null","<p style=""font-size: 60px; font-family: BACS"">DOchlOBT</p>","","","","","","","","","",""
"html-keyboard-response","79","166048","0.0-8.0-0.71","60bbe0da43325dadf2b1b6a9","650c16f0f2faf8d7a0d14c09","651c1bb7654b388e73f2e6b4","null","null","<p style=""font-size: 60px; font-family: BACS"">BlmclAPT</p>","","","","","","","","","",""
"html-keyboard-response","80","167068","0.0-8.0-0.72","60bbe0da43325dadf2b1b6a9","650c16f0f2faf8d7a0d14c09","651c1bb7654b388e73f2e6b4","null","null","<p style=""font-size: 60px; font-family: BACS"">mZUrQGUa</p>","","","","","","","","","",""
"html-keyboard-response","81","168088","0.0-8.0-0.73","60bbe0da43325dadf2b1b6a9","650c16f0f2faf8d7a0d14c09","651c1bb7654b388e73f2e6b4","null","null","<p style=""font-size: 60px; font-family: BACS"">UJmrLkNc</p>","","","","","","","","","",""
"html-keyboard-response","82","169108","0.0-8.0-0.74","60bbe0da43325dadf2b1b6a9","650c16f0f2faf8d7a0d14c09","651c1bb7654b388e73f2e6b4","null","null","<p style=""font-size: 60px; font-family: BACS"">ObZbAGUa</p>","","","","","","","","","",""
"html-keyboard-response","83","170127","0.0-8.0-0.75","60bbe0da43325dadf2b1b6a9","650c16f0f2faf8d7a0d14c09","651c1bb7654b388e73f2e6b4","null","null","<p style=""font-size: 60px; font-family: BACS"">UJmrvAvb</p>","","","","","","","","","",""
"html-keyboard-response","84","171147","0.0-8.0-0.76","60bbe0da43325dadf2b1b6a9","650c16f0f2faf8d7a0d14c09","651c1bb7654b388e73f2e6b4","null","null","<p style=""font-size: 60px; font-family: BACS"">OAblcGUa</p>","","","","","","","","","",""
"html-keyboard-response","85","172168","0.0-8.0-0.77","60bbe0da43325dadf2b1b6a9","650c16f0f2faf8d7a0d14c09","651c1bb7654b388e73f2e6b4","null","null","<p style=""font-size: 60px; font-family: BACS"">QLrOJOcN</p>","","","","","","","","","",""
"html-keyboard-response","86","173188","0.0-8.0-0.78","60bbe0da43325dadf2b1b6a9","650c16f0f2faf8d7a0d14c09","651c1bb7654b388e73f2e6b4","null","null","<p style=""font-size: 60px; font-family: BACS"">ZdNmUGUa</p>","","","","","","","","","",""
"html-keyboard-response","87","174208","0.0-8.0-0.79","60bbe0da43325dadf2b1b6a9","650c16f0f2faf8d7a0d14c09","651c1bb7654b388e73f2e6b4","null","null","<p style=""font-size: 60px; font-family: BACS"">QLrOJvAvb</p>","","","","","","","","","",""
"html-keyboard-response","88","179187","0.0-9.0","60bbe0da43325dadf2b1b6a9","650c16f0f2faf8d7a0d14c09","651c1bb7654b388e73f2e6b4","4978"," ","<p>Great, you've seen the first block of words. You may now take a short break.</p>
      <p>Press the spacebar when you're ready to continue.</p>","","","","","","","","","",""
"html-keyboard-response","89","180189","0.0-10.0-0.0","60bbe0da43325dadf2b1b6a9","650c16f0f2faf8d7a0d14c09","651c1bb7654b388e73f2e6b4","null","null","<p style=""font-size: 60px; font-family: BACS"">TCbDCdEPD</p>","","","","","","","","","",""
"html-keyboard-response","90","181191","0.0-10.0-0.1","60bbe0da43325dadf2b1b6a9","650c16f0f2faf8d7a0d14c09","651c1bb7654b388e73f2e6b4","null","null","<p style=""font-size: 60px; font-family: BACS"">OAblcLkNc</p>","","","","","","","","","",""
"html-keyboard-response","91","182193","0.0-10.0-0.2","60bbe0da43325dadf2b1b6a9","650c16f0f2faf8d7a0d14c09","651c1bb7654b388e73f2e6b4","null","null","<p style=""font-size: 60px; font-family: BACS"">RkmdCdEPD</p>","","","","","","","","","",""
"html-keyboard-response","92","183196","0.0-10.0-0.3","60bbe0da43325dadf2b1b6a9","650c16f0f2faf8d7a0d14c09","651c1bb7654b388e73f2e6b4","null","null","<p style=""font-size: 60px; font-family: BACS"">UJmrOcN</p>","","","","","","","","","",""
"html-keyboard-response","93","184198","0.0-10.0-0.4","60bbe0da43325dadf2b1b6a9","650c16f0f2faf8d7a0d14c09","651c1bb7654b388e73f2e6b4","null","null","<p style=""font-size: 60px; font-family: BACS"">UYZlZLkNc</p>","","","","","","","","","",""
"html-keyboard-response","94","185200","0.0-10.0-0.5","60bbe0da43325dadf2b1b6a9","650c16f0f2faf8d7a0d14c09","651c1bb7654b388e73f2e6b4","null","null","<p style=""font-size: 60px; font-family: BACS"">KdARdTAh</p>","","","","","","","","","",""
"html-keyboard-response","95","186202","0.0-10.0-0.6","60bbe0da43325dadf2b1b6a9","650c16f0f2faf8d7a0d14c09","651c1bb7654b388e73f2e6b4","null","null","<p style=""font-size: 60px; font-family: BACS"">lCbcmtcB</p>","","","","","","","","","",""
"html-keyboard-response","96","187204","0.0-10.0-0.7","60bbe0da43325dadf2b1b6a9","650c16f0f2faf8d7a0d14c09","651c1bb7654b388e73f2e6b4","null","null","<p style=""font-size: 60px; font-family: BACS"">dKDthOBT</p>","","","","","","","","","",""
"html-keyboard-response","97","188206","0.0-10.0-0.8","60bbe0da43325dadf2b1b6a9","650c16f0f2faf8d7a0d14c09","651c1bb7654b388e73f2e6b4","null","null","<p style=""font-size: 60px; font-family: BACS"">lCbcmdTAh</p>","","","","","","","","","",""
"html-keyboard-response","98","189209","0.0-10.0-0.9","60bbe0da43325dadf2b1b6a9","650c16f0f2faf8d7a0d14c09","651c1bb7654b388e73f2e6b4","null","null","<p style=""font-size: 60px; font-family: BACS"">kulZGUa</p>","","","","","","","","","",""
"html-keyboard-response","99","190229","0.0-10.0-0.10","60bbe0da43325dadf2b1b6a9","650c16f0f2faf8d7a0d14c09","651c1bb7654b388e73f2e6b4","null","null","<p style=""font-size: 60px; font-family: BACS"">ZdNmULkNc</p>","","","","","","","","","",""
"html-keyboard-response","100","191248","0.0-10.0-0.11","60bbe0da43325dadf2b1b6a9","650c16f0f2faf8d7a0d14c09","651c1bb7654b388e73f2e6b4","null","null","<p style=""font-size: 60px; font-family: BACS"">mhtcAPT</p>","","","","","","","","","",""
"html-keyboard-response","101","192268","0.0-10.0-0.12","60bbe0da43325dadf2b1b6a9","650c16f0f2faf8d7a0d14c09","651c1bb7654b388e73f2e6b4","null","null","<p style=""font-size: 60px; font-family: BACS"">ObZbAmZb</p>","","","","","","","","","",""
"html-keyboard-response","102","193287","0.0-10.0-0.13","60bbe0da43325dadf2b1b6a9","650c16f0f2faf8d7a0d14c09","651c1bb7654b388e73f2e6b4","null","null","<p style=""font-size: 60px; font-family: BACS"">QLrOJOcN</p>","","","","","","","","","",""
"html-keyboard-response","103","194308","0.0-10.0-0.14","60bbe0da43325dadf2b1b6a9","650c16f0f2faf8d7a0d14c09","651c1bb7654b388e73f2e6b4","null","null","<p style=""font-size: 60px; font-family: BACS"">UYZlZvAvb</p>","","","","","","","","","",""
"html-keyboard-response","104","195328","0.0-10.0-0.15","60bbe0da43325dadf2b1b6a9","650c16f0f2faf8d7a0d14c09","651c1bb7654b388e73f2e6b4","null","null","<p style=""font-size: 60px; font-family: BACS"">TCbDCOBT</p>","","","","","","","","","",""
"html-keyboard-response","105","196348","0.0-10.0-0.16","60bbe0da43325dadf2b1b6a9","650c16f0f2faf8d7a0d14c09","651c1bb7654b388e73f2e6b4","null","null","<p style=""font-size: 60px; font-family: BACS"">KdARAPT</p>","","","","","","","","","",""
"html-keyboard-response","106","197368","0.0-10.0-0.17","60bbe0da43325dadf2b1b6a9","650c16f0f2faf8d7a0d14c09","651c1bb7654b388e73f2e6b4","null","null","<p style=""font-size: 60px; font-family: BACS"">RkmdCtcB</p>","","","","","","","","","",""
"html-keyboard-response","107","198388","0.0-10.0-0.18","60bbe0da43325dadf2b1b6a9","650c16f0f2faf8d7a0d14c09","651c1bb7654b388e73f2e6b4","null","null","<p style=""font-size: 60px; font-family: BACS"">BlmclOBT</p>","","","","","","","","","",""
"html-keyboard-response","108","199408","0.0-10.0-0.19","60bbe0da43325dadf2b1b6a9","650c16f0f2faf8d7a0d14c09","651c1bb7654b388e73f2e6b4","null","null","<p style=""font-size: 60px; font-family: BACS"">ukYZLkNc</p>","","","","","","","","","",""
"html-keyboard-response","109","200428","0.0-10.0-0.20","60bbe0da43325dadf2b1b6a9","650c16f0f2faf8d7a0d14c09","651c1bb7654b388e73f2e6b4","null","null","<p style=""font-size: 60px; font-family: BACS"">BlmcltcB</p>","","","","","","","","","",""
"html-keyboard-response","110","201448","0.0-10.0-0.21","60bbe0da43325dadf2b1b6a9","650c16f0f2faf8d7a0d14c09","651c1bb7654b388e73f2e6b4","null","null","<p style=""font-size: 60px; font-family: BACS"">UJmrGUa</p>","","","","","","","","","",""
"html-keyboard-response","111","202468","0.0-10.0-0.22","60bbe0da43325dadf2b1b6a9","650c16f0f2faf8d7a0d14c09","651c1bb7654b388e73f2e6b4","null","null","<p style=""font-size: 60px; font-family: BACS"">dKDthtcB</p>","","","","","","","","","",""
"html-keyboard-response","112","203488","0.0-10.0-0.23","60bbe0da43325dadf2b1b6a9","650c16f0f2faf8d7a0d14c09","651c1bb7654b388e73f2e6b4","null","null","<p style=""font-size: 60px; font-family: BACS"">RlAKcAPT</p>","","","","","","","","","",""
"html-keyboard-response","113","204507","0.0-10.0-0.24","60bbe0da43325dadf2b1b6a9","650c16f0f2faf8d7a0d14c09","651c1bb7654b388e73f2e6b4","null","null","<p style=""font-size: 60px; font-family: BACS"">ukYZGUa</p>","","","","","","","","","",""
"html-keyboard-response","114","205528","0.0-10.0-0.25","60bbe0da43325dadf2b1b6a9","650c16f0f2faf8d7a0d14c09","651c1bb7654b388e73f2e6b4","null","null","<p style=""font-size: 60px; font-family: BACS"">dKDthAPT</p>","","","","","","","","","",""
"html-keyboard-response","115","206548","0.0-10.0-0.26","60bbe0da43325dadf2b1b6a9","650c16f0f2faf8d7a0d14c09","651c1bb7654b388e73f2e6b4","null","null","<p style=""font-size: 60px; font-family: BACS"">mZUrQGUa</p>","","","","","","","","","",""
"html-keyboard-response","116","207568","0.0-10.0-0.27","60bbe0da43325dadf2b1b6a9","650c16f0f2faf8d7a0d14c09","651c1bb7654b388e73f2e6b4","null","null","<p style=""font-size: 60px; font-family: BACS"">UYZlZmZb</p>","","","","","","","","","",""
"html-keyboard-response","117","208588","0.0-10.0-0.28","60bbe0da43325dadf2b1b6a9","650c16f0f2faf8d7a0d14c09","651c1bb7654b388e73f2e6b4","null","null","<p style=""font-size: 60px; font-family: BACS"">OAblcOcN</p>","","","","","","","","","",""
"html-keyboard-response","118","209608","0.0-10.0-0.29","60bbe0da43325dadf2b1b6a9","650c16f0f2faf8d7a0d14c09","651c1bb7654b388e73f2e6b4","null","null","<p style=""font-size: 60px; font-family: BACS"">mZUrQvAvb</p>","","","","","","","","","",""
"html-keyboard-response","119","210627","0.0-10.0-0.30","60bbe0da43325dadf2b1b6a9","650c16f0f2faf8d7a0d14c09","651c1bb7654b388e73f2e6b4","null","null","<p style=""font-size: 60px; font-family: BACS"">RkmdCAPT</p>","","","","","","","","","",""
"html-keyboard-response","120","211648","0.0-10.0-0.31","60bbe0da43325dadf2b1b6a9","650c16f0f2faf8d7a0d14c09","651c1bb7654b388e73f2e6b4","null","null","<p style=""font-size: 60px; font-family: BACS"">BlmcldTAh</p>","","","","","","","","","",""
"html-keyboard-response","121","212668","0.0-10.0-0.32","60bbe0da43325dadf2b1b6a9","650c16f0f2faf8d7a0d14c09","651c1bb7654b388e73f2e6b4","null","null","<p style=""font-size: 60px; font-family: BACS"">QLrOJmZb</p>","","","","","","","","","",""
"html-keyboard-response","122","213688","0.0-10.0-0.33","60bbe0da43325dadf2b1b6a9","650c16f0f2faf8d7a0d14c09","651c1bb7654b388e73f2e6b4","null","null","<p style=""font-size: 60px; font-family: BACS"">ZdNmUOcN</p>","","","","","","","","","",""
"html-keyboard-response","123","214708","0.0-10.0-0.34","60bbe0da43325dadf2b1b6a9","650c16f0f2faf8d7a0d14c09","651c1bb7654b388e73f2e6b4","null","null","<p style=""font-size: 60px; font-family: BACS"">ObZbAvAvb</p>","","","","","","","","","",""
"html-keyboard-response","124","215728","0.0-10.0-0.35","60bbe0da43325dadf2b1b6a9","650c16f0f2faf8d7a0d14c09","651c1bb7654b388e73f2e6b4","null","null","<p style=""font-size: 60px; font-family: BACS"">DOchldEPD</p>","","","","","","","","","",""
"html-keyboard-response","125","216748","0.0-10.0-0.36","60bbe0da43325dadf2b1b6a9","650c16f0f2faf8d7a0d14c09","651c1bb7654b388e73f2e6b4","null","null","<p style=""font-size: 60px; font-family: BACS"">BlmclAPT</p>","","","","","","","","","",""
"html-keyboard-response","126","217768","0.0-10.0-0.37","60bbe0da43325dadf2b1b6a9","650c16f0f2faf8d7a0d14c09","651c1bb7654b388e73f2e6b4","null","null","<p style=""font-size: 60px; font-family: BACS"">OmtlDdEPD</p>","","","","","","","","","",""
"html-keyboard-response","127","218787","0.0-10.0-0.38","60bbe0da43325dadf2b1b6a9","650c16f0f2faf8d7a0d14c09","651c1bb7654b388e73f2e6b4","null","null","<p style=""font-size: 60px; font-family: BACS"">UmNJvAvb</p>","","","","","","","","","",""
"html-keyboard-response","128","219808","0.0-10.0-0.39","60bbe0da43325dadf2b1b6a9","650c16f0f2faf8d7a0d14c09","651c1bb7654b388e73f2e6b4","null","null","<p style=""font-size: 60px; font-family: BACS"">KdARtcB</p>","","","","","","","","","",""
"html-keyboard-response","129","220828","0.0-10.0-0.40","60bbe0da43325dadf2b1b6a9","650c16f0f2faf8d7a0d14c09","651c1bb7654b388e73f2e6b4","null","null","<p style=""font-size: 60px; font-family: BACS"">UmNJLkNc</p>","","","","","","","","","",""
"html-keyboard-response","130","221848","0.0-10.0-0.41","60bbe0da43325dadf2b1b6a9","650c16f0f2faf8d7a0d14c09","651c1bb7654b388e73f2e6b4","null","null","<p style=""font-size: 60px; font-family: BACS"">dKDthdTAh</p>","","","","","","","","","",""
"html-keyboard-response","131","222868","0.0-10.0-0.42","60bbe0da43325dadf2b1b6a9","650c16f0f2faf8d7a0d14c09","651c1bb7654b388e73f2e6b4","null","null","<p style=""font-size: 60px; font-family: BACS"">mhtcOBT</p>","","","","","","","","","",""
"html-keyboard-response","132","223888","0.0-10.0-0.43","60bbe0da43325dadf2b1b6a9","650c16f0f2faf8d7a0d14c09","651c1bb7654b388e73f2e6b4","null","null","<p style=""font-size: 60px; font-family: BACS"">kulZvAvb</p>","","","","","","","","","",""
"html-keyboard-response","133","224908","0.0-10.0-0.44","60bbe0da43325dadf2b1b6a9","650c16f0f2faf8d7a0d14c09","651c1bb7654b388e73f2e6b4","null","null","<p style=""font-size: 60px; font-family: BACS"">TCbDCdTAh</p>","","","","","","","","","",""
"html-keyboard-response","134","225927","0.0-10.0-0.45","60bbe0da43325dadf2b1b6a9","650c16f0f2faf8d7a0d14c09","651c1bb7654b388e73f2e6b4","null","null","<p style=""font-size: 60px; font-family: BACS"">mZUrQLkNc</p>","","","","","","","","","",""
"html-keyboard-response","135","226948","0.0-10.0-0.46","60bbe0da43325dadf2b1b6a9","650c16f0f2faf8d7a0d14c09","651c1bb7654b388e73f2e6b4","null","null","<p style=""font-size: 60px; font-family: BACS"">kulZmZb</p>","","","","","","","","","",""
"html-keyboard-response","136","227968","0.0-10.0-0.47","60bbe0da43325dadf2b1b6a9","650c16f0f2faf8d7a0d14c09","651c1bb7654b388e73f2e6b4","null","null","<p style=""font-size: 60px; font-family: BACS"">ObZbAGUa</p>","","","","","","","","","",""
"html-keyboard-response","137","228989","0.0-10.0-0.48","60bbe0da43325dadf2b1b6a9","650c16f0f2faf8d7a0d14c09","651c1bb7654b388e73f2e6b4","null","null","<p style=""font-size: 60px; font-family: BACS"">mZUrQmZb</p>","","","","","","","","","",""
"html-keyboard-response","138","230008","0.0-10.0-0.49","60bbe0da43325dadf2b1b6a9","650c16f0f2faf8d7a0d14c09","651c1bb7654b388e73f2e6b4","null","null","<p style=""font-size: 60px; font-family: BACS"">KdARdEPD</p>","","","","","","","","","",""
"html-keyboard-response","139","231028","0.0-10.0-0.50","60bbe0da43325dadf2b1b6a9","650c16f0f2faf8d7a0d14c09","651c1bb7654b388e73f2e6b4","null","null","<p style=""font-size: 60px; font-family: BACS"">DOchlOBT</p>","","","","","","","","","",""
"html-keyboard-response","140","232048","0.0-10.0-0.51","60bbe0da43325dadf2b1b6a9","650c16f0f2faf8d7a0d14c09","651c1bb7654b388e73f2e6b4","null","null","<p style=""font-size: 60px; font-family: BACS"">kulZOcN</p>","","","","","","","","","",""
"html-keyboard-response","141","233068","0.0-10.0-0.52","60bbe0da43325dadf2b1b6a9","650c16f0f2faf8d7a0d14c09","651c1bb7654b388e73f2e6b4","null","null","<p style=""font-size: 60px; font-family: BACS"">DOchltcB</p>","","","","","","","","","",""
"html-keyboard-response","142","234088","0.0-10.0-0.53","60bbe0da43325dadf2b1b6a9","650c16f0f2faf8d7a0d14c09","651c1bb7654b388e73f2e6b4","null","null","<p style=""font-size: 60px; font-family: BACS"">RlAKcdEPD</p>","","","","","","","","","",""
"html-keyboard-response","143","235108","0.0-10.0-0.54","60bbe0da43325dadf2b1b6a9","650c16f0f2faf8d7a0d14c09","651c1bb7654b388e73f2e6b4","null","null","<p style=""font-size: 60px; font-family: BACS"">ObZbAOcN</p>","","","","","","","","","",""
"html-keyboard-response","144","236129","0.0-10.0-0.55","60bbe0da43325dadf2b1b6a9","650c16f0f2faf8d7a0d14c09","651c1bb7654b388e73f2e6b4","null","null","<p style=""font-size: 60px; font-family: BACS"">DOchldTAh</p>","","","","","","","","","",""
"html-keyboard-response","145","237148","0.0-10.0-0.56","60bbe0da43325dadf2b1b6a9","650c16f0f2faf8d7a0d14c09","651c1bb7654b388e73f2e6b4","null","null","<p style=""font-size: 60px; font-family: BACS"">OmtlDAPT</p>","","","","","","","","","",""
"html-keyboard-response","146","238168","0.0-10.0-0.57","60bbe0da43325dadf2b1b6a9","650c16f0f2faf8d7a0d14c09","651c1bb7654b388e73f2e6b4","null","null","<p style=""font-size: 60px; font-family: BACS"">mhtcdEPD</p>","","","","","","","","","",""
"html-keyboard-response","147","239188","0.0-10.0-0.58","60bbe0da43325dadf2b1b6a9","650c16f0f2faf8d7a0d14c09","651c1bb7654b388e73f2e6b4","null","null","<p style=""font-size: 60px; font-family: BACS"">UYZlZOcN</p>","","","","","","","","","",""
"html-keyboard-response","148","240208","0.0-10.0-0.59","60bbe0da43325dadf2b1b6a9","650c16f0f2faf8d7a0d14c09","651c1bb7654b388e73f2e6b4","null","null","<p style=""font-size: 60px; font-family: BACS"">TCbDCAPT</p>","","","","","","","","","",""
"html-keyboard-response","149","241228","0.0-10.0-0.60","60bbe0da43325dadf2b1b6a9","650c16f0f2faf8d7a0d14c09","651c1bb7654b388e73f2e6b4","null","null","<p style=""font-size: 60px; font-family: BACS"">UJmrvAvb</p>","","","","","","","","","",""
"html-keyboard-response","150","242247","0.0-10.0-0.61","60bbe0da43325dadf2b1b6a9","650c16f0f2faf8d7a0d14c09","651c1bb7654b388e73f2e6b4","null","null","<p style=""font-size: 60px; font-family: BACS"">ukYZOcN</p>","","","","","","","","","",""
"html-keyboard-response","151","243267","0.0-10.0-0.62","60bbe0da43325dadf2b1b6a9","650c16f0f2faf8d7a0d14c09","651c1bb7654b388e73f2e6b4","null","null","<p style=""font-size: 60px; font-family: BACS"">UJmrLkNc</p>","","","","","","","","","",""
"html-keyboard-response","152","244287","0.0-10.0-0.63","60bbe0da43325dadf2b1b6a9","650c16f0f2faf8d7a0d14c09","651c1bb7654b388e73f2e6b4","null","null","<p style=""font-size: 60px; font-family: BACS"">mhtcdTAh</p>","","","","","","","","","",""
"html-keyboard-response","153","245308","0.0-10.0-0.64","60bbe0da43325dadf2b1b6a9","650c16f0f2faf8d7a0d14c09","651c1bb7654b388e73f2e6b4","null","null","<p style=""font-size: 60px; font-family: BACS"">ZdNmUvAvb</p>","","","","","","","","","",""
"html-keyboard-response","154","246328","0.0-10.0-0.65","60bbe0da43325dadf2b1b6a9","650c16f0f2faf8d7a0d14c09","651c1bb7654b388e73f2e6b4","null","null","<p style=""font-size: 60px; font-family: BACS"">OAblcmZb</p>","","","","","","","","","",""
"html-keyboard-response","155","247349","0.0-10.0-0.66","60bbe0da43325dadf2b1b6a9","650c16f0f2faf8d7a0d14c09","651c1bb7654b388e73f2e6b4","null","null","<p style=""font-size: 60px; font-family: BACS"">RlAKcOBT</p>","","","","","","","","","",""
"html-keyboard-response","156","248368","0.0-10.0-0.67","60bbe0da43325dadf2b1b6a9","650c16f0f2faf8d7a0d14c09","651c1bb7654b388e73f2e6b4","null","null","<p style=""font-size: 60px; font-family: BACS"">lCbcmdEPD</p>","","","","","","","","","",""
"html-keyboard-response","157","249388","0.0-10.0-0.68","60bbe0da43325dadf2b1b6a9","650c16f0f2faf8d7a0d14c09","651c1bb7654b388e73f2e6b4","null","null","<p style=""font-size: 60px; font-family: BACS"">UmNJGUa</p>","","","","","","","","","",""
"html-keyboard-response","158","250408","0.0-10.0-0.69","60bbe0da43325dadf2b1b6a9","650c16f0f2faf8d7a0d14c09","651c1bb7654b388e73f2e6b4","null","null","<p style=""font-size: 60px; font-family: BACS"">lCbcmOBT</p>","","","","","","","","","",""
"html-keyboard-response","159","251428","0.0-10.0-0.70","60bbe0da43325dadf2b1b6a9","650c16f0f2faf8d7a0d14c09","651c1bb7654b388e73f2e6b4","null","null","<p style=""font-size: 60px; font-family: BACS"">UmNJmZb</p>","","","","","","","","","",""
"html-keyboard-response","160","252448","0.0-10.0-0.71","60bbe0da43325dadf2b1b6a9","650c16f0f2faf8d7a0d14c09","651c1bb7654b388e73f2e6b4","null","null","<p style=""font-size: 60px; font-family: BACS"">QLrOJvAvb</p>","","","","","","","","","",""
"html-keyboard-response","161","253468","0.0-10.0-0.72","60bbe0da43325dadf2b1b6a9","650c16f0f2faf8d7a0d14c09","651c1bb7654b388e73f2e6b4","null","null","<p style=""font-size: 60px; font-family: BACS"">RkmdCdTAh</p>","","","","","","","","","",""
"html-keyboard-response","162","254488","0.0-10.0-0.73","60bbe0da43325dadf2b1b6a9","650c16f0f2faf8d7a0d14c09","651c1bb7654b388e73f2e6b4","null","null","<p style=""font-size: 60px; font-family: BACS"">RlAKctcB</p>","","","","","","","","","",""
"html-keyboard-response","163","255508","0.0-10.0-0.74","60bbe0da43325dadf2b1b6a9","650c16f0f2faf8d7a0d14c09","651c1bb7654b388e73f2e6b4","null","null","<p style=""font-size: 60px; font-family: BACS"">ukYZmZb</p>","","","","","","","","","",""
"html-keyboard-response","164","256528","0.0-10.0-0.75","60bbe0da43325dadf2b1b6a9","650c16f0f2faf8d7a0d14c09","651c1bb7654b388e73f2e6b4","null","null","<p style=""font-size: 60px; font-family: BACS"">QLrOJLkNc</p>","","","","","","","","","",""
"html-keyboard-response","165","257549","0.0-10.0-0.76","60bbe0da43325dadf2b1b6a9","650c16f0f2faf8d7a0d14c09","651c1bb7654b388e73f2e6b4","null","null","<p style=""font-size: 60px; font-family: BACS"">OmtlDtcB</p>","","","","","","","","","",""
"html-keyboard-response","166","258568","0.0-10.0-0.77","60bbe0da43325dadf2b1b6a9","650c16f0f2faf8d7a0d14c09","651c1bb7654b388e73f2e6b4","null","null","<p style=""font-size: 60px; font-family: BACS"">OAblcGUa</p>","","","","","","","","","",""
"html-keyboard-response","167","259588","0.0-10.0-0.78","60bbe0da43325dadf2b1b6a9","650c16f0f2faf8d7a0d14c09","651c1bb7654b388e73f2e6b4","null","null","<p style=""font-size: 60px; font-family: BACS"">OmtlDOBT</p>","","","","","","","","","",""
"html-keyboard-response","168","260608","0.0-10.0-0.79","60bbe0da43325dadf2b1b6a9","650c16f0f2faf8d7a0d14c09","651c1bb7654b388e73f2e6b4","null","null","<p style=""font-size: 60px; font-family: BACS"">ZdNmUGUa</p>","","","","","","","","","",""
"html-keyboard-response","169","263802","0.0-11.0","60bbe0da43325dadf2b1b6a9","650c16f0f2faf8d7a0d14c09","651c1bb7654b388e73f2e6b4","3192"," ","<p>Great, you've seen the second block of words. You may now take a short break.</p>
      <p>Press the spacebar when you're ready to continue.</p>","","","","","","","","","",""
"html-keyboard-response","170","264804","0.0-12.0-0.0","60bbe0da43325dadf2b1b6a9","650c16f0f2faf8d7a0d14c09","651c1bb7654b388e73f2e6b4","null","null","<p style=""font-size: 60px; font-family: BACS"">OAblcGUa</p>","","","","","","","","","",""
"html-keyboard-response","171","265806","0.0-12.0-0.1","60bbe0da43325dadf2b1b6a9","650c16f0f2faf8d7a0d14c09","651c1bb7654b388e73f2e6b4","null","null","<p style=""font-size: 60px; font-family: BACS"">BlmclAPT</p>","","","","","","","","","",""
"html-keyboard-response","172","266808","0.0-12.0-0.2","60bbe0da43325dadf2b1b6a9","650c16f0f2faf8d7a0d14c09","651c1bb7654b388e73f2e6b4","null","null","<p style=""font-size: 60px; font-family: BACS"">RlAKcOBT</p>","","","","","","","","","",""
"html-keyboard-response","173","267810","0.0-12.0-0.3","60bbe0da43325dadf2b1b6a9","650c16f0f2faf8d7a0d14c09","651c1bb7654b388e73f2e6b4","null","null","<p style=""font-size: 60px; font-family: BACS"">ZdNmUvAvb</p>","","","","","","","","","",""
"html-keyboard-response","174","268812","0.0-12.0-0.4","60bbe0da43325dadf2b1b6a9","650c16f0f2faf8d7a0d14c09","651c1bb7654b388e73f2e6b4","null","null","<p style=""font-size: 60px; font-family: BACS"">UmNJmZb</p>","","","","","","","","","",""
"html-keyboard-response","175","269815","0.0-12.0-0.5","60bbe0da43325dadf2b1b6a9","650c16f0f2faf8d7a0d14c09","651c1bb7654b388e73f2e6b4","null","null","<p style=""font-size: 60px; font-family: BACS"">mZUrQLkNc</p>","","","","","","","","","",""
"html-keyboard-response","176","270817","0.0-12.0-0.6","60bbe0da43325dadf2b1b6a9","650c16f0f2faf8d7a0d14c09","651c1bb7654b388e73f2e6b4","null","null","<p style=""font-size: 60px; font-family: BACS"">OAblcOcN</p>","","","","","","","","","",""
"html-keyboard-response","177","271819","0.0-12.0-0.7","60bbe0da43325dadf2b1b6a9","650c16f0f2faf8d7a0d14c09","651c1bb7654b388e73f2e6b4","null","null","<p style=""font-size: 60px; font-family: BACS"">BlmcltcB</p>","","","","","","","","","",""
"html-keyboard-response","178","272821","0.0-12.0-0.8","60bbe0da43325dadf2b1b6a9","650c16f0f2faf8d7a0d14c09","651c1bb7654b388e73f2e6b4","null","null","<p style=""font-size: 60px; font-family: BACS"">UYZlZOcN</p>","","","","","","","","","",""
"html-keyboard-response","179","273824","0.0-12.0-0.9","60bbe0da43325dadf2b1b6a9","650c16f0f2faf8d7a0d14c09","651c1bb7654b388e73f2e6b4","null","null","<p style=""font-size: 60px; font-family: BACS"">mZUrQmZb</p>","","","","","","","","","",""
"html-keyboard-response","180","274828","0.0-12.0-0.10","60bbe0da43325dadf2b1b6a9","650c16f0f2faf8d7a0d14c09","651c1bb7654b388e73f2e6b4","null","null","<p style=""font-size: 60px; font-family: BACS"">QLrOJOcN</p>","","","","","","","","","",""
"html-keyboard-response","181","275848","0.0-12.0-0.11","60bbe0da43325dadf2b1b6a9","650c16f0f2faf8d7a0d14c09","651c1bb7654b388e73f2e6b4","null","null","<p style=""font-size: 60px; font-family: BACS"">TCbDCdTAh</p>","","","","","","","","","",""
"html-keyboard-response","182","276867","0.0-12.0-0.12","60bbe0da43325dadf2b1b6a9","650c16f0f2faf8d7a0d14c09","651c1bb7654b388e73f2e6b4","null","null","<p style=""font-size: 60px; font-family: BACS"">KdARAPT</p>","","","","","","","","","",""
"html-keyboard-response","183","277888","0.0-12.0-0.13","60bbe0da43325dadf2b1b6a9","650c16f0f2faf8d7a0d14c09","651c1bb7654b388e73f2e6b4","null","null","<p style=""font-size: 60px; font-family: BACS"">lCbcmOBT</p>","","","","","","","","","",""
"html-keyboard-response","184","278908","0.0-12.0-0.14","60bbe0da43325dadf2b1b6a9","650c16f0f2faf8d7a0d14c09","651c1bb7654b388e73f2e6b4","null","null","<p style=""font-size: 60px; font-family: BACS"">mhtcAPT</p>","","","","","","","","","",""
"html-keyboard-response","185","279928","0.0-12.0-0.15","60bbe0da43325dadf2b1b6a9","650c16f0f2faf8d7a0d14c09","651c1bb7654b388e73f2e6b4","null","null","<p style=""font-size: 60px; font-family: BACS"">ukYZGUa</p>","","","","","","","","","",""
"html-keyboard-response","186","280948","0.0-12.0-0.16","60bbe0da43325dadf2b1b6a9","650c16f0f2faf8d7a0d14c09","651c1bb7654b388e73f2e6b4","null","null","<p style=""font-size: 60px; font-family: BACS"">RlAKcdEPD</p>","","","","","","","","","",""
"html-keyboard-response","187","281967","0.0-12.0-0.17","60bbe0da43325dadf2b1b6a9","650c16f0f2faf8d7a0d14c09","651c1bb7654b388e73f2e6b4","null","null","<p style=""font-size: 60px; font-family: BACS"">KdARtcB</p>","","","","","","","","","",""
"html-keyboard-response","188","282988","0.0-12.0-0.18","60bbe0da43325dadf2b1b6a9","650c16f0f2faf8d7a0d14c09","651c1bb7654b388e73f2e6b4","null","null","<p style=""font-size: 60px; font-family: BACS"">UmNJGUa</p>","","","","","","","","","",""
"html-keyboard-response","189","284008","0.0-12.0-0.19","60bbe0da43325dadf2b1b6a9","650c16f0f2faf8d7a0d14c09","651c1bb7654b388e73f2e6b4","null","null","<p style=""font-size: 60px; font-family: BACS"">kulZvAvb</p>","","","","","","","","","",""
"html-keyboard-response","190","285028","0.0-12.0-0.20","60bbe0da43325dadf2b1b6a9","650c16f0f2faf8d7a0d14c09","651c1bb7654b388e73f2e6b4","null","null","<p style=""font-size: 60px; font-family: BACS"">ukYZmZb</p>","","","","","","","","","",""
"html-keyboard-response","191","286048","0.0-12.0-0.21","60bbe0da43325dadf2b1b6a9","650c16f0f2faf8d7a0d14c09","651c1bb7654b388e73f2e6b4","null","null","<p style=""font-size: 60px; font-family: BACS"">mhtcdEPD</p>","","","","","","","","","",""
"html-keyboard-response","192","287067","0.0-12.0-0.22","60bbe0da43325dadf2b1b6a9","650c16f0f2faf8d7a0d14c09","651c1bb7654b388e73f2e6b4","null","null","<p style=""font-size: 60px; font-family: BACS"">dKDthAPT</p>","","","","","","","","","",""
"html-keyboard-response","193","288088","0.0-12.0-0.23","60bbe0da43325dadf2b1b6a9","650c16f0f2faf8d7a0d14c09","651c1bb7654b388e73f2e6b4","null","null","<p style=""font-size: 60px; font-family: BACS"">mZUrQvAvb</p>","","","","","","","","","",""
"html-keyboard-response","194","289108","0.0-12.0-0.24","60bbe0da43325dadf2b1b6a9","650c16f0f2faf8d7a0d14c09","651c1bb7654b388e73f2e6b4","null","null","<p style=""font-size: 60px; font-family: BACS"">ZdNmUGUa</p>","","","","","","","","","",""
"html-keyboard-response","195","290128","0.0-12.0-0.25","60bbe0da43325dadf2b1b6a9","650c16f0f2faf8d7a0d14c09","651c1bb7654b388e73f2e6b4","null","null","<p style=""font-size: 60px; font-family: BACS"">UYZlZvAvb</p>","","","","","","","","","",""
"html-keyboard-response","196","291148","0.0-12.0-0.26","60bbe0da43325dadf2b1b6a9","650c16f0f2faf8d7a0d14c09","651c1bb7654b388e73f2e6b4","null","null","<p style=""font-size: 60px; font-family: BACS"">ukYZOcN</p>","","","","","","","","","",""
"html-keyboard-response","197","292167","0.0-12.0-0.27","60bbe0da43325dadf2b1b6a9","650c16f0f2faf8d7a0d14c09","651c1bb7654b388e73f2e6b4","null","null","<p style=""font-size: 60px; font-family: BACS"">TCbDCOBT</p>","","","","","","","","","",""
"html-keyboard-response","198","293188","0.0-12.0-0.28","60bbe0da43325dadf2b1b6a9","650c16f0f2faf8d7a0d14c09","651c1bb7654b388e73f2e6b4","null","null","<p style=""font-size: 60px; font-family: BACS"">OmtlDAPT</p>","","","","","","","","","",""
"html-keyboard-response","199","294208","0.0-12.0-0.29","60bbe0da43325dadf2b1b6a9","650c16f0f2faf8d7a0d14c09","651c1bb7654b388e73f2e6b4","null","null","<p style=""font-size: 60px; font-family: BACS"">kulZOcN</p>","","","","","","","","","",""
"html-keyboard-response","200","295228","0.0-12.0-0.30","60bbe0da43325dadf2b1b6a9","650c16f0f2faf8d7a0d14c09","651c1bb7654b388e73f2e6b4","null","null","<p style=""font-size: 60px; font-family: BACS"">OAblcLkNc</p>","","","","","","","","","",""
"html-keyboard-response","201","296248","0.0-12.0-0.31","60bbe0da43325dadf2b1b6a9","650c16f0f2faf8d7a0d14c09","651c1bb7654b388e73f2e6b4","null","null","<p style=""font-size: 60px; font-family: BACS"">RlAKctcB</p>","","","","","","","","","",""
"html-keyboard-response","202","297268","0.0-12.0-0.32","60bbe0da43325dadf2b1b6a9","650c16f0f2faf8d7a0d14c09","651c1bb7654b388e73f2e6b4","null","null","<p style=""font-size: 60px; font-family: BACS"">RkmdCdEPD</p>","","","","","","","","","",""
"html-keyboard-response","203","298288","0.0-12.0-0.33","60bbe0da43325dadf2b1b6a9","650c16f0f2faf8d7a0d14c09","651c1bb7654b388e73f2e6b4","null","null","<p style=""font-size: 60px; font-family: BACS"">ZdNmULkNc</p>","","","","","","","","","",""
"html-keyboard-response","204","299308","0.0-12.0-0.34","60bbe0da43325dadf2b1b6a9","650c16f0f2faf8d7a0d14c09","651c1bb7654b388e73f2e6b4","null","null","<p style=""font-size: 60px; font-family: BACS"">ObZbAOcN</p>","","","","","","","","","",""
"html-keyboard-response","205","300328","0.0-12.0-0.35","60bbe0da43325dadf2b1b6a9","650c16f0f2faf8d7a0d14c09","651c1bb7654b388e73f2e6b4","null","null","<p style=""font-size: 60px; font-family: BACS"">KdARdEPD</p>","","","","","","","","","",""
"html-keyboard-response","206","301348","0.0-12.0-0.36","60bbe0da43325dadf2b1b6a9","650c16f0f2faf8d7a0d14c09","651c1bb7654b388e73f2e6b4","null","null","<p style=""font-size: 60px; font-family: BACS"">ZdNmUOcN</p>","","","","","","","","","",""
"html-keyboard-response","207","302367","0.0-12.0-0.37","60bbe0da43325dadf2b1b6a9","650c16f0f2faf8d7a0d14c09","651c1bb7654b388e73f2e6b4","null","null","<p style=""font-size: 60px; font-family: BACS"">ObZbAvAvb</p>","","","","","","","","","",""
"html-keyboard-response","208","303388","0.0-12.0-0.38","60bbe0da43325dadf2b1b6a9","650c16f0f2faf8d7a0d14c09","651c1bb7654b388e73f2e6b4","null","null","<p style=""font-size: 60px; font-family: BACS"">dKDthdTAh</p>","","","","","","","","","",""
"html-keyboard-response","209","304408","0.0-12.0-0.39","60bbe0da43325dadf2b1b6a9","650c16f0f2faf8d7a0d14c09","651c1bb7654b388e73f2e6b4","null","null","<p style=""font-size: 60px; font-family: BACS"">TCbDCdEPD</p>","","","","","","","","","",""
"html-keyboard-response","210","305428","0.0-12.0-0.40","60bbe0da43325dadf2b1b6a9","650c16f0f2faf8d7a0d14c09","651c1bb7654b388e73f2e6b4","null","null","<p style=""font-size: 60px; font-family: BACS"">QLrOJLkNc</p>","","","","","","","","","",""
"html-keyboard-response","211","306448","0.0-12.0-0.41","60bbe0da43325dadf2b1b6a9","650c16f0f2faf8d7a0d14c09","651c1bb7654b388e73f2e6b4","null","null","<p style=""font-size: 60px; font-family: BACS"">UmNJvAvb</p>","","","","","","","","","",""
"html-keyboard-response","212","307468","0.0-12.0-0.42","60bbe0da43325dadf2b1b6a9","650c16f0f2faf8d7a0d14c09","651c1bb7654b388e73f2e6b4","null","null","<p style=""font-size: 60px; font-family: BACS"">UYZlZLkNc</p>","","","","","","","","","",""
"html-keyboard-response","213","308488","0.0-12.0-0.43","60bbe0da43325dadf2b1b6a9","650c16f0f2faf8d7a0d14c09","651c1bb7654b388e73f2e6b4","null","null","<p style=""font-size: 60px; font-family: BACS"">mhtcOBT</p>","","","","","","","","","",""
"html-keyboard-response","214","309508","0.0-12.0-0.44","60bbe0da43325dadf2b1b6a9","650c16f0f2faf8d7a0d14c09","651c1bb7654b388e73f2e6b4","null","null","<p style=""font-size: 60px; font-family: BACS"">UJmrLkNc</p>","","","","","","","","","",""
"html-keyboard-response","215","310528","0.0-12.0-0.45","60bbe0da43325dadf2b1b6a9","650c16f0f2faf8d7a0d14c09","651c1bb7654b388e73f2e6b4","null","null","<p style=""font-size: 60px; font-family: BACS"">DOchltcB</p>","","","","","","","","","",""
"html-keyboard-response","216","311548","0.0-12.0-0.46","60bbe0da43325dadf2b1b6a9","650c16f0f2faf8d7a0d14c09","651c1bb7654b388e73f2e6b4","null","null","<p style=""font-size: 60px; font-family: BACS"">lCbcmdTAh</p>","","","","","","","","","",""
"html-keyboard-response","217","312568","0.0-12.0-0.47","60bbe0da43325dadf2b1b6a9","650c16f0f2faf8d7a0d14c09","651c1bb7654b388e73f2e6b4","null","null","<p style=""font-size: 60px; font-family: BACS"">kulZGUa</p>","","","","","","","","","",""
"html-keyboard-response","218","313588","0.0-12.0-0.48","60bbe0da43325dadf2b1b6a9","650c16f0f2faf8d7a0d14c09","651c1bb7654b388e73f2e6b4","null","null","<p style=""font-size: 60px; font-family: BACS"">DOchlOBT</p>","","","","","","","","","",""
"html-keyboard-response","219","314608","0.0-12.0-0.49","60bbe0da43325dadf2b1b6a9","650c16f0f2faf8d7a0d14c09","651c1bb7654b388e73f2e6b4","null","null","<p style=""font-size: 60px; font-family: BACS"">RkmdCdTAh</p>","","","","","","","","","",""
"html-keyboard-response","220","315628","0.0-12.0-0.50","60bbe0da43325dadf2b1b6a9","650c16f0f2faf8d7a0d14c09","651c1bb7654b388e73f2e6b4","null","null","<p style=""font-size: 60px; font-family: BACS"">mZUrQGUa</p>","","","","","","","","","",""
"html-keyboard-response","221","316648","0.0-12.0-0.51","60bbe0da43325dadf2b1b6a9","650c16f0f2faf8d7a0d14c09","651c1bb7654b388e73f2e6b4","null","null","<p style=""font-size: 60px; font-family: BACS"">kulZmZb</p>","","","","","","","","","",""
"html-keyboard-response","222","317668","0.0-12.0-0.52","60bbe0da43325dadf2b1b6a9","650c16f0f2faf8d7a0d14c09","651c1bb7654b388e73f2e6b4","null","null","<p style=""font-size: 60px; font-family: BACS"">BlmclOBT</p>","","","","","","","","","",""
"html-keyboard-response","223","318689","0.0-12.0-0.53","60bbe0da43325dadf2b1b6a9","650c16f0f2faf8d7a0d14c09","651c1bb7654b388e73f2e6b4","null","null","<p style=""font-size: 60px; font-family: BACS"">UJmrvAvb</p>","","","","","","","","","",""
"html-keyboard-response","224","319708","0.0-12.0-0.54","60bbe0da43325dadf2b1b6a9","650c16f0f2faf8d7a0d14c09","651c1bb7654b388e73f2e6b4","null","null","<p style=""font-size: 60px; font-family: BACS"">BlmcldTAh</p>","","","","","","","","","",""
"html-keyboard-response","225","320728","0.0-12.0-0.55","60bbe0da43325dadf2b1b6a9","650c16f0f2faf8d7a0d14c09","651c1bb7654b388e73f2e6b4","null","null","<p style=""font-size: 60px; font-family: BACS"">lCbcmtcB</p>","","","","","","","","","",""
"html-keyboard-response","226","321748","0.0-12.0-0.56","60bbe0da43325dadf2b1b6a9","650c16f0f2faf8d7a0d14c09","651c1bb7654b388e73f2e6b4","null","null","<p style=""font-size: 60px; font-family: BACS"">dKDthOBT</p>","","","","","","","","","",""
"html-keyboard-response","227","322768","0.0-12.0-0.57","60bbe0da43325dadf2b1b6a9","650c16f0f2faf8d7a0d14c09","651c1bb7654b388e73f2e6b4","null","null","<p style=""font-size: 60px; font-family: BACS"">UYZlZmZb</p>","","","","","","","","","",""
"html-keyboard-response","228","323788","0.0-12.0-0.58","60bbe0da43325dadf2b1b6a9","650c16f0f2faf8d7a0d14c09","651c1bb7654b388e73f2e6b4","null","null","<p style=""font-size: 60px; font-family: BACS"">RkmdCtcB</p>","","","","","","","","","",""
"html-keyboard-response","229","324808","0.0-12.0-0.59","60bbe0da43325dadf2b1b6a9","650c16f0f2faf8d7a0d14c09","651c1bb7654b388e73f2e6b4","null","null","<p style=""font-size: 60px; font-family: BACS"">lCbcmdEPD</p>","","","","","","","","","",""
"html-keyboard-response","230","325828","0.0-12.0-0.60","60bbe0da43325dadf2b1b6a9","650c16f0f2faf8d7a0d14c09","651c1bb7654b388e73f2e6b4","null","null","<p style=""font-size: 60px; font-family: BACS"">TCbDCAPT</p>","","","","","","","","","",""
"html-keyboard-response","231","326848","0.0-12.0-0.61","60bbe0da43325dadf2b1b6a9","650c16f0f2faf8d7a0d14c09","651c1bb7654b388e73f2e6b4","null","null","<p style=""font-size: 60px; font-family: BACS"">mhtcdTAh</p>","","","","","","","","","",""
"html-keyboard-response","232","327867","0.0-12.0-0.62","60bbe0da43325dadf2b1b6a9","650c16f0f2faf8d7a0d14c09","651c1bb7654b388e73f2e6b4","null","null","<p style=""font-size: 60px; font-family: BACS"">ObZbAmZb</p>","","","","","","","","","",""
"html-keyboard-response","233","328889","0.0-12.0-0.63","60bbe0da43325dadf2b1b6a9","650c16f0f2faf8d7a0d14c09","651c1bb7654b388e73f2e6b4","null","null","<p style=""font-size: 60px; font-family: BACS"">UJmrOcN</p>","","","","","","","","","",""
"html-keyboard-response","234","329908","0.0-12.0-0.64","60bbe0da43325dadf2b1b6a9","650c16f0f2faf8d7a0d14c09","651c1bb7654b388e73f2e6b4","null","null","<p style=""font-size: 60px; font-family: BACS"">DOchldEPD</p>","","","","","","","","","",""
"html-keyboard-response","235","330928","0.0-12.0-0.65","60bbe0da43325dadf2b1b6a9","650c16f0f2faf8d7a0d14c09","651c1bb7654b388e73f2e6b4","null","null","<p style=""font-size: 60px; font-family: BACS"">OAblcmZb</p>","","","","","","","","","",""
"html-keyboard-response","236","331947","0.0-12.0-0.66","60bbe0da43325dadf2b1b6a9","650c16f0f2faf8d7a0d14c09","651c1bb7654b388e73f2e6b4","null","null","<p style=""font-size: 60px; font-family: BACS"">OmtlDdEPD</p>","","","","","","","","","",""
"html-keyboard-response","237","332967","0.0-12.0-0.67","60bbe0da43325dadf2b1b6a9","650c16f0f2faf8d7a0d14c09","651c1bb7654b388e73f2e6b4","null","null","<p style=""font-size: 60px; font-family: BACS"">KdARdTAh</p>","","","","","","","","","",""
"html-keyboard-response","238","333988","0.0-12.0-0.68","60bbe0da43325dadf2b1b6a9","650c16f0f2faf8d7a0d14c09","651c1bb7654b388e73f2e6b4","null","null","<p style=""font-size: 60px; font-family: BACS"">ObZbAGUa</p>","","","","","","","","","",""
"html-keyboard-response","239","335008","0.0-12.0-0.69","60bbe0da43325dadf2b1b6a9","650c16f0f2faf8d7a0d14c09","651c1bb7654b388e73f2e6b4","null","null","<p style=""font-size: 60px; font-family: BACS"">RlAKcAPT</p>","","","","","","","","","",""
"html-keyboard-response","240","336028","0.0-12.0-0.70","60bbe0da43325dadf2b1b6a9","650c16f0f2faf8d7a0d14c09","651c1bb7654b388e73f2e6b4","null","null","<p style=""font-size: 60px; font-family: BACS"">OmtlDtcB</p>","","","","","","","","","",""
"html-keyboard-response","241","337047","0.0-12.0-0.71","60bbe0da43325dadf2b1b6a9","650c16f0f2faf8d7a0d14c09","651c1bb7654b388e73f2e6b4","null","null","<p style=""font-size: 60px; font-family: BACS"">DOchldTAh</p>","","","","","","","","","",""
"html-keyboard-response","242","338068","0.0-12.0-0.72","60bbe0da43325dadf2b1b6a9","650c16f0f2faf8d7a0d14c09","651c1bb7654b388e73f2e6b4","null","null","<p style=""font-size: 60px; font-family: BACS"">QLrOJmZb</p>","","","","","","","","","",""
"html-keyboard-response","243","339087","0.0-12.0-0.73","60bbe0da43325dadf2b1b6a9","650c16f0f2faf8d7a0d14c09","651c1bb7654b388e73f2e6b4","null","null","<p style=""font-size: 60px; font-family: BACS"">dKDthtcB</p>","","","","","","","","","",""
"html-keyboard-response","244","340108","0.0-12.0-0.74","60bbe0da43325dadf2b1b6a9","650c16f0f2faf8d7a0d14c09","651c1bb7654b388e73f2e6b4","null","null","<p style=""font-size: 60px; font-family: BACS"">ukYZLkNc</p>","","","","","","","","","",""
"html-keyboard-response","245","341128","0.0-12.0-0.75","60bbe0da43325dadf2b1b6a9","650c16f0f2faf8d7a0d14c09","651c1bb7654b388e73f2e6b4","null","null","<p style=""font-size: 60px; font-family: BACS"">RkmdCAPT</p>","","","","","","","","","",""
"html-keyboard-response","246","342148","0.0-12.0-0.76","60bbe0da43325dadf2b1b6a9","650c16f0f2faf8d7a0d14c09","651c1bb7654b388e73f2e6b4","null","null","<p style=""font-size: 60px; font-family: BACS"">UJmrGUa</p>","","","","","","","","","",""
"html-keyboard-response","247","343168","0.0-12.0-0.77","60bbe0da43325dadf2b1b6a9","650c16f0f2faf8d7a0d14c09","651c1bb7654b388e73f2e6b4","null","null","<p style=""font-size: 60px; font-family: BACS"">OmtlDOBT</p>","","","","","","","","","",""
"html-keyboard-response","248","344188","0.0-12.0-0.78","60bbe0da43325dadf2b1b6a9","650c16f0f2faf8d7a0d14c09","651c1bb7654b388e73f2e6b4","null","null","<p style=""font-size: 60px; font-family: BACS"">UmNJLkNc</p>","","","","","","","","","",""
"html-keyboard-response","249","345207","0.0-12.0-0.79","60bbe0da43325dadf2b1b6a9","650c16f0f2faf8d7a0d14c09","651c1bb7654b388e73f2e6b4","null","null","<p style=""font-size: 60px; font-family: BACS"">QLrOJvAvb</p>","","","","","","","","","",""
"html-keyboard-response","250","349743","0.0-13.0","60bbe0da43325dadf2b1b6a9","650c16f0f2faf8d7a0d14c09","651c1bb7654b388e73f2e6b4","4536"," ","<p>Great, you've seen the third block of words. You may now take a short break.</p>
      <p>Press the spacebar when you're ready to continue.</p>","","","","","","","","","",""
"html-keyboard-response","251","350745","0.0-14.0-0.0","60bbe0da43325dadf2b1b6a9","650c16f0f2faf8d7a0d14c09","651c1bb7654b388e73f2e6b4","null","null","<p style=""font-size: 60px; font-family: BACS"">RlAKcOBT</p>","","","","","","","","","",""
"html-keyboard-response","252","351747","0.0-14.0-0.1","60bbe0da43325dadf2b1b6a9","650c16f0f2faf8d7a0d14c09","651c1bb7654b388e73f2e6b4","null","null","<p style=""font-size: 60px; font-family: BACS"">OmtlDtcB</p>","","","","","","","","","",""
"html-keyboard-response","253","352750","0.0-14.0-0.2","60bbe0da43325dadf2b1b6a9","650c16f0f2faf8d7a0d14c09","651c1bb7654b388e73f2e6b4","null","null","<p style=""font-size: 60px; font-family: BACS"">UJmrvAvb</p>","","","","","","","","","",""
"html-keyboard-response","254","353752","0.0-14.0-0.3","60bbe0da43325dadf2b1b6a9","650c16f0f2faf8d7a0d14c09","651c1bb7654b388e73f2e6b4","null","null","<p style=""font-size: 60px; font-family: BACS"">lCbcmtcB</p>","","","","","","","","","",""
"html-keyboard-response","255","354754","0.0-14.0-0.4","60bbe0da43325dadf2b1b6a9","650c16f0f2faf8d7a0d14c09","651c1bb7654b388e73f2e6b4","null","null","<p style=""font-size: 60px; font-family: BACS"">mZUrQmZb</p>","","","","","","","","","",""
"html-keyboard-response","256","355756","0.0-14.0-0.5","60bbe0da43325dadf2b1b6a9","650c16f0f2faf8d7a0d14c09","651c1bb7654b388e73f2e6b4","null","null","<p style=""font-size: 60px; font-family: BACS"">RkmdCdEPD</p>","","","","","","","","","",""
"html-keyboard-response","257","356758","0.0-14.0-0.6","60bbe0da43325dadf2b1b6a9","650c16f0f2faf8d7a0d14c09","651c1bb7654b388e73f2e6b4","null","null","<p style=""font-size: 60px; font-family: BACS"">DOchlOBT</p>","","","","","","","","","",""
"html-keyboard-response","258","357760","0.0-14.0-0.7","60bbe0da43325dadf2b1b6a9","650c16f0f2faf8d7a0d14c09","651c1bb7654b388e73f2e6b4","null","null","<p style=""font-size: 60px; font-family: BACS"">RlAKcdEPD</p>","","","","","","","","","",""
"html-keyboard-response","259","358763","0.0-14.0-0.8","60bbe0da43325dadf2b1b6a9","650c16f0f2faf8d7a0d14c09","651c1bb7654b388e73f2e6b4","null","null","<p style=""font-size: 60px; font-family: BACS"">OAblcOcN</p>","","","","","","","","","",""
"html-keyboard-response","260","359765","0.0-14.0-0.9","60bbe0da43325dadf2b1b6a9","650c16f0f2faf8d7a0d14c09","651c1bb7654b388e73f2e6b4","null","null","<p style=""font-size: 60px; font-family: BACS"">BlmclAPT</p>","","","","","","","","","",""
"html-keyboard-response","261","360779","0.0-14.0-0.10","60bbe0da43325dadf2b1b6a9","650c16f0f2faf8d7a0d14c09","651c1bb7654b388e73f2e6b4","null","null","<p style=""font-size: 60px; font-family: BACS"">mhtcdEPD</p>","","","","","","","","","",""
"html-keyboard-response","262","361798","0.0-14.0-0.11","60bbe0da43325dadf2b1b6a9","650c16f0f2faf8d7a0d14c09","651c1bb7654b388e73f2e6b4","null","null","<p style=""font-size: 60px; font-family: BACS"">RlAKctcB</p>","","","","","","","","","",""
"html-keyboard-response","263","362818","0.0-14.0-0.12","60bbe0da43325dadf2b1b6a9","650c16f0f2faf8d7a0d14c09","651c1bb7654b388e73f2e6b4","null","null","<p style=""font-size: 60px; font-family: BACS"">ObZbAvAvb</p>","","","","","","","","","",""
"html-keyboard-response","264","363838","0.0-14.0-0.13","60bbe0da43325dadf2b1b6a9","650c16f0f2faf8d7a0d14c09","651c1bb7654b388e73f2e6b4","null","null","<p style=""font-size: 60px; font-family: BACS"">QLrOJLkNc</p>","","","","","","","","","",""
"html-keyboard-response","265","364858","0.0-14.0-0.14","60bbe0da43325dadf2b1b6a9","650c16f0f2faf8d7a0d14c09","651c1bb7654b388e73f2e6b4","null","null","<p style=""font-size: 60px; font-family: BACS"">mZUrQvAvb</p>","","","","","","","","","",""
"html-keyboard-response","266","365879","0.0-14.0-0.15","60bbe0da43325dadf2b1b6a9","650c16f0f2faf8d7a0d14c09","651c1bb7654b388e73f2e6b4","null","null","<p style=""font-size: 60px; font-family: BACS"">ZdNmUOcN</p>","","","","","","","","","",""
"html-keyboard-response","267","366897","0.0-14.0-0.16","60bbe0da43325dadf2b1b6a9","650c16f0f2faf8d7a0d14c09","651c1bb7654b388e73f2e6b4","null","null","<p style=""font-size: 60px; font-family: BACS"">BlmcldTAh</p>","","","","","","","","","",""
"html-keyboard-response","268","367918","0.0-14.0-0.17","60bbe0da43325dadf2b1b6a9","650c16f0f2faf8d7a0d14c09","651c1bb7654b388e73f2e6b4","null","null","<p style=""font-size: 60px; font-family: BACS"">UmNJmZb</p>","","","","","","","","","",""
"html-keyboard-response","269","368938","0.0-14.0-0.18","60bbe0da43325dadf2b1b6a9","650c16f0f2faf8d7a0d14c09","651c1bb7654b388e73f2e6b4","null","null","<p style=""font-size: 60px; font-family: BACS"">RlAKcAPT</p>","","","","","","","","","",""
"html-keyboard-response","270","369957","0.0-14.0-0.19","60bbe0da43325dadf2b1b6a9","650c16f0f2faf8d7a0d14c09","651c1bb7654b388e73f2e6b4","null","null","<p style=""font-size: 60px; font-family: BACS"">QLrOJmZb</p>","","","","","","","","","",""
"html-keyboard-response","271","370977","0.0-14.0-0.20","60bbe0da43325dadf2b1b6a9","650c16f0f2faf8d7a0d14c09","651c1bb7654b388e73f2e6b4","null","null","<p style=""font-size: 60px; font-family: BACS"">BlmcltcB</p>","","","","","","","","","",""
"html-keyboard-response","272","371999","0.0-14.0-0.21","60bbe0da43325dadf2b1b6a9","650c16f0f2faf8d7a0d14c09","651c1bb7654b388e73f2e6b4","null","null","<p style=""font-size: 60px; font-family: BACS"">TCbDCAPT</p>","","","","","","","","","",""
"html-keyboard-response","273","373018","0.0-14.0-0.22","60bbe0da43325dadf2b1b6a9","650c16f0f2faf8d7a0d14c09","651c1bb7654b388e73f2e6b4","null","null","<p style=""font-size: 60px; font-family: BACS"">ukYZLkNc</p>","","","","","","","","","",""
"html-keyboard-response","274","374038","0.0-14.0-0.23","60bbe0da43325dadf2b1b6a9","650c16f0f2faf8d7a0d14c09","651c1bb7654b388e73f2e6b4","null","null","<p style=""font-size: 60px; font-family: BACS"">KdARdTAh</p>","","","","","","","","","",""
"html-keyboard-response","275","375058","0.0-14.0-0.24","60bbe0da43325dadf2b1b6a9","650c16f0f2faf8d7a0d14c09","651c1bb7654b388e73f2e6b4","null","null","<p style=""font-size: 60px; font-family: BACS"">TCbDCOBT</p>","","","","","","","","","",""
"html-keyboard-response","276","376078","0.0-14.0-0.25","60bbe0da43325dadf2b1b6a9","650c16f0f2faf8d7a0d14c09","651c1bb7654b388e73f2e6b4","null","null","<p style=""font-size: 60px; font-family: BACS"">QLrOJOcN</p>","","","","","","","","","",""
"html-keyboard-response","277","377098","0.0-14.0-0.26","60bbe0da43325dadf2b1b6a9","650c16f0f2faf8d7a0d14c09","651c1bb7654b388e73f2e6b4","null","null","<p style=""font-size: 60px; font-family: BACS"">ukYZmZb</p>","","","","","","","","","",""
"html-keyboard-response","278","378118","0.0-14.0-0.27","60bbe0da43325dadf2b1b6a9","650c16f0f2faf8d7a0d14c09","651c1bb7654b388e73f2e6b4","null","null","<p style=""font-size: 60px; font-family: BACS"">DOchldEPD</p>","","","","","","","","","",""
"html-keyboard-response","279","379138","0.0-14.0-0.28","60bbe0da43325dadf2b1b6a9","650c16f0f2faf8d7a0d14c09","651c1bb7654b388e73f2e6b4","null","null","<p style=""font-size: 60px; font-family: BACS"">TCbDCdTAh</p>","","","","","","","","","",""
"html-keyboard-response","280","380158","0.0-14.0-0.29","60bbe0da43325dadf2b1b6a9","650c16f0f2faf8d7a0d14c09","651c1bb7654b388e73f2e6b4","null","null","<p style=""font-size: 60px; font-family: BACS"">lCbcmOBT</p>","","","","","","","","","",""
"html-keyboard-response","281","381178","0.0-14.0-0.30","60bbe0da43325dadf2b1b6a9","650c16f0f2faf8d7a0d14c09","651c1bb7654b388e73f2e6b4","null","null","<p style=""font-size: 60px; font-family: BACS"">OAblcmZb</p>","","","","","","","","","",""
"html-keyboard-response","282","382198","0.0-14.0-0.31","60bbe0da43325dadf2b1b6a9","650c16f0f2faf8d7a0d14c09","651c1bb7654b388e73f2e6b4","null","null","<p style=""font-size: 60px; font-family: BACS"">DOchldTAh</p>","","","","","","","","","",""
"html-keyboard-response","283","383218","0.0-14.0-0.32","60bbe0da43325dadf2b1b6a9","650c16f0f2faf8d7a0d14c09","651c1bb7654b388e73f2e6b4","null","null","<p style=""font-size: 60px; font-family: BACS"">OmtlDOBT</p>","","","","","","","","","",""
"html-keyboard-response","284","384238","0.0-14.0-0.33","60bbe0da43325dadf2b1b6a9","650c16f0f2faf8d7a0d14c09","651c1bb7654b388e73f2e6b4","null","null","<p style=""font-size: 60px; font-family: BACS"">mhtcAPT</p>","","","","","","","","","",""
"html-keyboard-response","285","385259","0.0-14.0-0.34","60bbe0da43325dadf2b1b6a9","650c16f0f2faf8d7a0d14c09","651c1bb7654b388e73f2e6b4","null","null","<p style=""font-size: 60px; font-family: BACS"">ObZbAOcN</p>","","","","","","","","","",""
"html-keyboard-response","286","386278","0.0-14.0-0.35","60bbe0da43325dadf2b1b6a9","650c16f0f2faf8d7a0d14c09","651c1bb7654b388e73f2e6b4","null","null","<p style=""font-size: 60px; font-family: BACS"">ZdNmUGUa</p>","","","","","","","","","",""
"html-keyboard-response","287","387298","0.0-14.0-0.36","60bbe0da43325dadf2b1b6a9","650c16f0f2faf8d7a0d14c09","651c1bb7654b388e73f2e6b4","null","null","<p style=""font-size: 60px; font-family: BACS"">OAblcLkNc</p>","","","","","","","","","",""
"html-keyboard-response","288","388318","0.0-14.0-0.37","60bbe0da43325dadf2b1b6a9","650c16f0f2faf8d7a0d14c09","651c1bb7654b388e73f2e6b4","null","null","<p style=""font-size: 60px; font-family: BACS"">UYZlZmZb</p>","","","","","","","","","",""
"html-keyboard-response","289","389338","0.0-14.0-0.38","60bbe0da43325dadf2b1b6a9","650c16f0f2faf8d7a0d14c09","651c1bb7654b388e73f2e6b4","null","null","<p style=""font-size: 60px; font-family: BACS"">mhtcdTAh</p>","","","","","","","","","",""
"html-keyboard-response","290","390358","0.0-14.0-0.39","60bbe0da43325dadf2b1b6a9","650c16f0f2faf8d7a0d14c09","651c1bb7654b388e73f2e6b4","null","null","<p style=""font-size: 60px; font-family: BACS"">dKDthOBT</p>","","","","","","","","","",""
"html-keyboard-response","291","391378","0.0-14.0-0.40","60bbe0da43325dadf2b1b6a9","650c16f0f2faf8d7a0d14c09","651c1bb7654b388e73f2e6b4","null","null","<p style=""font-size: 60px; font-family: BACS"">RkmdCAPT</p>","","","","","","","","","",""
"html-keyboard-response","292","392398","0.0-14.0-0.41","60bbe0da43325dadf2b1b6a9","650c16f0f2faf8d7a0d14c09","651c1bb7654b388e73f2e6b4","null","null","<p style=""font-size: 60px; font-family: BACS"">ZdNmULkNc</p>","","","","","","","","","",""
"html-keyboard-response","293","393418","0.0-14.0-0.42","60bbe0da43325dadf2b1b6a9","650c16f0f2faf8d7a0d14c09","651c1bb7654b388e73f2e6b4","null","null","<p style=""font-size: 60px; font-family: BACS"">kulZmZb</p>","","","","","","","","","",""
"html-keyboard-response","294","394438","0.0-14.0-0.43","60bbe0da43325dadf2b1b6a9","650c16f0f2faf8d7a0d14c09","651c1bb7654b388e73f2e6b4","null","null","<p style=""font-size: 60px; font-family: BACS"">OmtlDAPT</p>","","","","","","","","","",""
"html-keyboard-response","295","395457","0.0-14.0-0.44","60bbe0da43325dadf2b1b6a9","650c16f0f2faf8d7a0d14c09","651c1bb7654b388e73f2e6b4","null","null","<p style=""font-size: 60px; font-family: BACS"">UmNJvAvb</p>","","","","","","","","","",""
"html-keyboard-response","296","396478","0.0-14.0-0.45","60bbe0da43325dadf2b1b6a9","650c16f0f2faf8d7a0d14c09","651c1bb7654b388e73f2e6b4","null","null","<p style=""font-size: 60px; font-family: BACS"">KdARAPT</p>","","","","","","","","","",""
"html-keyboard-response","297","397498","0.0-14.0-0.46","60bbe0da43325dadf2b1b6a9","650c16f0f2faf8d7a0d14c09","651c1bb7654b388e73f2e6b4","null","null","<p style=""font-size: 60px; font-family: BACS"">TCbDCdEPD</p>","","","","","","","","","",""
"html-keyboard-response","298","398518","0.0-14.0-0.47","60bbe0da43325dadf2b1b6a9","650c16f0f2faf8d7a0d14c09","651c1bb7654b388e73f2e6b4","null","null","<p style=""font-size: 60px; font-family: BACS"">QLrOJvAvb</p>","","","","","","","","","",""
"html-keyboard-response","299","399538","0.0-14.0-0.48","60bbe0da43325dadf2b1b6a9","650c16f0f2faf8d7a0d14c09","651c1bb7654b388e73f2e6b4","null","null","<p style=""font-size: 60px; font-family: BACS"">OAblcGUa</p>","","","","","","","","","",""
"html-keyboard-response","300","400559","0.0-14.0-0.49","60bbe0da43325dadf2b1b6a9","650c16f0f2faf8d7a0d14c09","651c1bb7654b388e73f2e6b4","null","null","<p style=""font-size: 60px; font-family: BACS"">BlmclOBT</p>","","","","","","","","","",""
"html-keyboard-response","301","401578","0.0-14.0-0.50","60bbe0da43325dadf2b1b6a9","650c16f0f2faf8d7a0d14c09","651c1bb7654b388e73f2e6b4","null","null","<p style=""font-size: 60px; font-family: BACS"">dKDthdTAh</p>","","","","","","","","","",""
"html-keyboard-response","302","402598","0.0-14.0-0.51","60bbe0da43325dadf2b1b6a9","650c16f0f2faf8d7a0d14c09","651c1bb7654b388e73f2e6b4","null","null","<p style=""font-size: 60px; font-family: BACS"">UJmrOcN</p>","","","","","","","","","",""
"html-keyboard-response","303","403618","0.0-14.0-0.52","60bbe0da43325dadf2b1b6a9","650c16f0f2faf8d7a0d14c09","651c1bb7654b388e73f2e6b4","null","null","<p style=""font-size: 60px; font-family: BACS"">UmNJLkNc</p>","","","","","","","","","",""
"html-keyboard-response","304","404638","0.0-14.0-0.53","60bbe0da43325dadf2b1b6a9","650c16f0f2faf8d7a0d14c09","651c1bb7654b388e73f2e6b4","null","null","<p style=""font-size: 60px; font-family: BACS"">mZUrQGUa</p>","","","","","","","","","",""
"html-keyboard-response","305","405658","0.0-14.0-0.54","60bbe0da43325dadf2b1b6a9","650c16f0f2faf8d7a0d14c09","651c1bb7654b388e73f2e6b4","null","null","<p style=""font-size: 60px; font-family: BACS"">UYZlZLkNc</p>","","","","","","","","","",""
"html-keyboard-response","306","406678","0.0-14.0-0.55","60bbe0da43325dadf2b1b6a9","650c16f0f2faf8d7a0d14c09","651c1bb7654b388e73f2e6b4","null","null","<p style=""font-size: 60px; font-family: BACS"">UmNJGUa</p>","","","","","","","","","",""
"html-keyboard-response","307","407698","0.0-14.0-0.56","60bbe0da43325dadf2b1b6a9","650c16f0f2faf8d7a0d14c09","651c1bb7654b388e73f2e6b4","null","null","<p style=""font-size: 60px; font-family: BACS"">DOchltcB</p>","","","","","","","","","",""
"html-keyboard-response","308","408718","0.0-14.0-0.57","60bbe0da43325dadf2b1b6a9","650c16f0f2faf8d7a0d14c09","651c1bb7654b388e73f2e6b4","null","null","<p style=""font-size: 60px; font-family: BACS"">ukYZOcN</p>","","","","","","","","","",""
"html-keyboard-response","309","409738","0.0-14.0-0.58","60bbe0da43325dadf2b1b6a9","650c16f0f2faf8d7a0d14c09","651c1bb7654b388e73f2e6b4","null","null","<p style=""font-size: 60px; font-family: BACS"">lCbcmdEPD</p>","","","","","","","","","",""
"html-keyboard-response","310","410758","0.0-14.0-0.59","60bbe0da43325dadf2b1b6a9","650c16f0f2faf8d7a0d14c09","651c1bb7654b388e73f2e6b4","null","null","<p style=""font-size: 60px; font-family: BACS"">kulZGUa</p>","","","","","","","","","",""
"html-keyboard-response","311","411778","0.0-14.0-0.60","60bbe0da43325dadf2b1b6a9","650c16f0f2faf8d7a0d14c09","651c1bb7654b388e73f2e6b4","null","null","<p style=""font-size: 60px; font-family: BACS"">UYZlZOcN</p>","","","","","","","","","",""
"html-keyboard-response","312","412797","0.0-14.0-0.61","60bbe0da43325dadf2b1b6a9","650c16f0f2faf8d7a0d14c09","651c1bb7654b388e73f2e6b4","null","null","<p style=""font-size: 60px; font-family: BACS"">RkmdCdTAh</p>","","","","","","","","","",""
"html-keyboard-response","313","413818","0.0-14.0-0.62","60bbe0da43325dadf2b1b6a9","650c16f0f2faf8d7a0d14c09","651c1bb7654b388e73f2e6b4","null","null","<p style=""font-size: 60px; font-family: BACS"">ukYZGUa</p>","","","","","","","","","",""
"html-keyboard-response","314","414838","0.0-14.0-0.63","60bbe0da43325dadf2b1b6a9","650c16f0f2faf8d7a0d14c09","651c1bb7654b388e73f2e6b4","null","null","<p style=""font-size: 60px; font-family: BACS"">UJmrLkNc</p>","","","","","","","","","",""
"html-keyboard-response","315","415858","0.0-14.0-0.64","60bbe0da43325dadf2b1b6a9","650c16f0f2faf8d7a0d14c09","651c1bb7654b388e73f2e6b4","null","null","<p style=""font-size: 60px; font-family: BACS"">ObZbAmZb</p>","","","","","","","","","",""
"html-keyboard-response","316","416878","0.0-14.0-0.65","60bbe0da43325dadf2b1b6a9","650c16f0f2faf8d7a0d14c09","651c1bb7654b388e73f2e6b4","null","null","<p style=""font-size: 60px; font-family: BACS"">kulZOcN</p>","","","","","","","","","",""
"html-keyboard-response","317","417898","0.0-14.0-0.66","60bbe0da43325dadf2b1b6a9","650c16f0f2faf8d7a0d14c09","651c1bb7654b388e73f2e6b4","null","null","<p style=""font-size: 60px; font-family: BACS"">KdARdEPD</p>","","","","","","","","","",""
"html-keyboard-response","318","418918","0.0-14.0-0.67","60bbe0da43325dadf2b1b6a9","650c16f0f2faf8d7a0d14c09","651c1bb7654b388e73f2e6b4","null","null","<p style=""font-size: 60px; font-family: BACS"">dKDthAPT</p>","","","","","","","","","",""
"html-keyboard-response","319","419938","0.0-14.0-0.68","60bbe0da43325dadf2b1b6a9","650c16f0f2faf8d7a0d14c09","651c1bb7654b388e73f2e6b4","null","null","<p style=""font-size: 60px; font-family: BACS"">ObZbAGUa</p>","","","","","","","","","",""
"html-keyboard-response","320","420958","0.0-14.0-0.69","60bbe0da43325dadf2b1b6a9","650c16f0f2faf8d7a0d14c09","651c1bb7654b388e73f2e6b4","null","null","<p style=""font-size: 60px; font-family: BACS"">lCbcmdTAh</p>","","","","","","","","","",""
"html-keyboard-response","321","421978","0.0-14.0-0.70","60bbe0da43325dadf2b1b6a9","650c16f0f2faf8d7a0d14c09","651c1bb7654b388e73f2e6b4","null","null","<p style=""font-size: 60px; font-family: BACS"">UJmrGUa</p>","","","","","","","","","",""
"html-keyboard-response","322","422998","0.0-14.0-0.71","60bbe0da43325dadf2b1b6a9","650c16f0f2faf8d7a0d14c09","651c1bb7654b388e73f2e6b4","null","null","<p style=""font-size: 60px; font-family: BACS"">OmtlDdEPD</p>","","","","","","","","","",""
"html-keyboard-response","323","424018","0.0-14.0-0.72","60bbe0da43325dadf2b1b6a9","650c16f0f2faf8d7a0d14c09","651c1bb7654b388e73f2e6b4","null","null","<p style=""font-size: 60px; font-family: BACS"">KdARtcB</p>","","","","","","","","","",""
"html-keyboard-response","324","425038","0.0-14.0-0.73","60bbe0da43325dadf2b1b6a9","650c16f0f2faf8d7a0d14c09","651c1bb7654b388e73f2e6b4","null","null","<p style=""font-size: 60px; font-family: BACS"">UYZlZvAvb</p>","","","","","","","","","",""
"html-keyboard-response","325","426058","0.0-14.0-0.74","60bbe0da43325dadf2b1b6a9","650c16f0f2faf8d7a0d14c09","651c1bb7654b388e73f2e6b4","null","null","<p style=""font-size: 60px; font-family: BACS"">mZUrQLkNc</p>","","","","","","","","","",""
"html-keyboard-response","326","427078","0.0-14.0-0.75","60bbe0da43325dadf2b1b6a9","650c16f0f2faf8d7a0d14c09","651c1bb7654b388e73f2e6b4","null","null","<p style=""font-size: 60px; font-family: BACS"">dKDthtcB</p>","","","","","","","","","",""
"html-keyboard-response","327","428098","0.0-14.0-0.76","60bbe0da43325dadf2b1b6a9","650c16f0f2faf8d7a0d14c09","651c1bb7654b388e73f2e6b4","null","null","<p style=""font-size: 60px; font-family: BACS"">ZdNmUvAvb</p>","","","","","","","","","",""
"html-keyboard-response","328","429118","0.0-14.0-0.77","60bbe0da43325dadf2b1b6a9","650c16f0f2faf8d7a0d14c09","651c1bb7654b388e73f2e6b4","null","null","<p style=""font-size: 60px; font-family: BACS"">RkmdCtcB</p>","","","","","","","","","",""
"html-keyboard-response","329","430137","0.0-14.0-0.78","60bbe0da43325dadf2b1b6a9","650c16f0f2faf8d7a0d14c09","651c1bb7654b388e73f2e6b4","null","null","<p style=""font-size: 60px; font-family: BACS"">mhtcOBT</p>","","","","","","","","","",""
"html-keyboard-response","330","431158","0.0-14.0-0.79","60bbe0da43325dadf2b1b6a9","650c16f0f2faf8d7a0d14c09","651c1bb7654b388e73f2e6b4","null","null","<p style=""font-size: 60px; font-family: BACS"">kulZvAvb</p>","","","","","","","","","",""
"html-keyboard-response","331","434009","0.0-15.0","60bbe0da43325dadf2b1b6a9","650c16f0f2faf8d7a0d14c09","651c1bb7654b388e73f2e6b4","2850"," ","<p>Great, you've seen the fourth block of words. You may now take a short break.</p>
      <p>Press the spacebar when you're ready to continue.</p>","","","","","","","","","",""
"html-keyboard-response","332","435011","0.0-16.0-0.0","60bbe0da43325dadf2b1b6a9","650c16f0f2faf8d7a0d14c09","651c1bb7654b388e73f2e6b4","null","null","<p style=""font-size: 60px; font-family: BACS"">QLrOJvAvb</p>","","","","","","","","","",""
"html-keyboard-response","333","436012","0.0-16.0-0.1","60bbe0da43325dadf2b1b6a9","650c16f0f2faf8d7a0d14c09","651c1bb7654b388e73f2e6b4","null","null","<p style=""font-size: 60px; font-family: BACS"">QLrOJvAvb</p>","","","","","","","","","",""
"html-keyboard-response","334","437014","0.0-16.0-0.2","60bbe0da43325dadf2b1b6a9","650c16f0f2faf8d7a0d14c09","651c1bb7654b388e73f2e6b4","null","null","<p style=""font-size: 60px; font-family: BACS"">QLrOJvAvb</p>","","","","","","","","","",""
"html-keyboard-response","335","438016","0.0-16.0-0.3","60bbe0da43325dadf2b1b6a9","650c16f0f2faf8d7a0d14c09","651c1bb7654b388e73f2e6b4","null","null","<p style=""font-size: 60px; font-family: BACS"">QLrOJvAvb</p>","","","","","","","","","",""
"html-keyboard-response","336","439018","0.0-16.0-0.4","60bbe0da43325dadf2b1b6a9","650c16f0f2faf8d7a0d14c09","651c1bb7654b388e73f2e6b4","null","null","<p style=""font-size: 60px; font-family: BACS"">QLrOJvAvb</p>","","","","","","","","","",""
"html-keyboard-response","337","440019","0.0-16.0-0.5","60bbe0da43325dadf2b1b6a9","650c16f0f2faf8d7a0d14c09","651c1bb7654b388e73f2e6b4","null","null","<p style=""font-size: 60px; font-family: BACS"">QLrOJvAvb</p>","","","","","","","","","",""
"html-keyboard-response","338","441020","0.0-16.0-0.6","60bbe0da43325dadf2b1b6a9","650c16f0f2faf8d7a0d14c09","651c1bb7654b388e73f2e6b4","null","null","<p style=""font-size: 60px; font-family: BACS"">QLrOJvAvb</p>","","","","","","","","","",""
"html-keyboard-response","339","442022","0.0-16.0-0.7","60bbe0da43325dadf2b1b6a9","650c16f0f2faf8d7a0d14c09","651c1bb7654b388e73f2e6b4","null","null","<p style=""font-size: 60px; font-family: BACS"">QLrOJvAvb</p>","","","","","","","","","",""
"html-keyboard-response","340","443024","0.0-16.0-0.8","60bbe0da43325dadf2b1b6a9","650c16f0f2faf8d7a0d14c09","651c1bb7654b388e73f2e6b4","null","null","<p style=""font-size: 60px; font-family: BACS"">QLrOJvAvb</p>","","","","","","","","","",""
"html-keyboard-response","341","444026","0.0-16.0-0.9","60bbe0da43325dadf2b1b6a9","650c16f0f2faf8d7a0d14c09","651c1bb7654b388e73f2e6b4","null","null","<p style=""font-size: 60px; font-family: BACS"">QLrOJvAvb</p>","","","","","","","","","",""
"html-keyboard-response","342","445048","0.0-16.0-0.10","60bbe0da43325dadf2b1b6a9","650c16f0f2faf8d7a0d14c09","651c1bb7654b388e73f2e6b4","null","null","<p style=""font-size: 60px; font-family: BACS"">QLrOJvAvb</p>","","","","","","","","","",""
"html-keyboard-response","343","446068","0.0-16.0-0.11","60bbe0da43325dadf2b1b6a9","650c16f0f2faf8d7a0d14c09","651c1bb7654b388e73f2e6b4","null","null","<p style=""font-size: 60px; font-family: BACS"">QLrOJvAvb</p>","","","","","","","","","",""
"html-keyboard-response","344","447087","0.0-16.0-0.12","60bbe0da43325dadf2b1b6a9","650c16f0f2faf8d7a0d14c09","651c1bb7654b388e73f2e6b4","null","null","<p style=""font-size: 60px; font-family: BACS"">QLrOJvAvb</p>","","","","","","","","","",""
"html-keyboard-response","345","448108","0.0-16.0-0.13","60bbe0da43325dadf2b1b6a9","650c16f0f2faf8d7a0d14c09","651c1bb7654b388e73f2e6b4","null","null","<p style=""font-size: 60px; font-family: BACS"">QLrOJvAvb</p>","","","","","","","","","",""
"html-keyboard-response","346","449128","0.0-16.0-0.14","60bbe0da43325dadf2b1b6a9","650c16f0f2faf8d7a0d14c09","651c1bb7654b388e73f2e6b4","null","null","<p style=""font-size: 60px; font-family: BACS"">QLrOJvAvb</p>","","","","","","","","","",""
"html-keyboard-response","347","450148","0.0-16.0-0.15","60bbe0da43325dadf2b1b6a9","650c16f0f2faf8d7a0d14c09","651c1bb7654b388e73f2e6b4","null","null","<p style=""font-size: 60px; font-family: BACS"">QLrOJvAvb</p>","","","","","","","","","",""
"html-keyboard-response","348","451168","0.0-16.0-0.16","60bbe0da43325dadf2b1b6a9","650c16f0f2faf8d7a0d14c09","651c1bb7654b388e73f2e6b4","null","null","<p style=""font-size: 60px; font-family: BACS"">QLrOJvAvb</p>","","","","","","","","","",""
"html-keyboard-response","349","452188","0.0-16.0-0.17","60bbe0da43325dadf2b1b6a9","650c16f0f2faf8d7a0d14c09","651c1bb7654b388e73f2e6b4","null","null","<p style=""font-size: 60px; font-family: BACS"">QLrOJvAvb</p>","","","","","","","","","",""
"html-keyboard-response","350","453207","0.0-16.0-0.18","60bbe0da43325dadf2b1b6a9","650c16f0f2faf8d7a0d14c09","651c1bb7654b388e73f2e6b4","null","null","<p style=""font-size: 60px; font-family: BACS"">QLrOJvAvb</p>","","","","","","","","","",""
"html-keyboard-response","351","454228","0.0-16.0-0.19","60bbe0da43325dadf2b1b6a9","650c16f0f2faf8d7a0d14c09","651c1bb7654b388e73f2e6b4","null","null","<p style=""font-size: 60px; font-family: BACS"">QLrOJvAvb</p>","","","","","","","","","",""
"html-keyboard-response","352","455248","0.0-16.0-0.20","60bbe0da43325dadf2b1b6a9","650c16f0f2faf8d7a0d14c09","651c1bb7654b388e73f2e6b4","null","null","<p style=""font-size: 60px; font-family: BACS"">QLrOJvAvb</p>","","","","","","","","","",""
"html-keyboard-response","353","456268","0.0-16.0-0.21","60bbe0da43325dadf2b1b6a9","650c16f0f2faf8d7a0d14c09","651c1bb7654b388e73f2e6b4","null","null","<p style=""font-size: 60px; font-family: BACS"">QLrOJvAvb</p>","","","","","","","","","",""
"html-keyboard-response","354","457287","0.0-16.0-0.22","60bbe0da43325dadf2b1b6a9","650c16f0f2faf8d7a0d14c09","651c1bb7654b388e73f2e6b4","null","null","<p style=""font-size: 60px; font-family: BACS"">QLrOJvAvb</p>","","","","","","","","","",""
"html-keyboard-response","355","458308","0.0-16.0-0.23","60bbe0da43325dadf2b1b6a9","650c16f0f2faf8d7a0d14c09","651c1bb7654b388e73f2e6b4","null","null","<p style=""font-size: 60px; font-family: BACS"">QLrOJvAvb</p>","","","","","","","","","",""
"html-keyboard-response","356","459328","0.0-16.0-0.24","60bbe0da43325dadf2b1b6a9","650c16f0f2faf8d7a0d14c09","651c1bb7654b388e73f2e6b4","null","null","<p style=""font-size: 60px; font-family: BACS"">QLrOJvAvb</p>","","","","","","","","","",""
"html-keyboard-response","357","460348","0.0-16.0-0.25","60bbe0da43325dadf2b1b6a9","650c16f0f2faf8d7a0d14c09","651c1bb7654b388e73f2e6b4","null","null","<p style=""font-size: 60px; font-family: BACS"">QLrOJvAvb</p>","","","","","","","","","",""
"html-keyboard-response","358","461368","0.0-16.0-0.26","60bbe0da43325dadf2b1b6a9","650c16f0f2faf8d7a0d14c09","651c1bb7654b388e73f2e6b4","null","null","<p style=""font-size: 60px; font-family: BACS"">QLrOJvAvb</p>","","","","","","","","","",""
"html-keyboard-response","359","462388","0.0-16.0-0.27","60bbe0da43325dadf2b1b6a9","650c16f0f2faf8d7a0d14c09","651c1bb7654b388e73f2e6b4","null","null","<p style=""font-size: 60px; font-family: BACS"">QLrOJvAvb</p>","","","","","","","","","",""
"html-keyboard-response","360","463408","0.0-16.0-0.28","60bbe0da43325dadf2b1b6a9","650c16f0f2faf8d7a0d14c09","651c1bb7654b388e73f2e6b4","null","null","<p style=""font-size: 60px; font-family: BACS"">QLrOJvAvb</p>","","","","","","","","","",""
"html-keyboard-response","361","464428","0.0-16.0-0.29","60bbe0da43325dadf2b1b6a9","650c16f0f2faf8d7a0d14c09","651c1bb7654b388e73f2e6b4","null","null","<p style=""font-size: 60px; font-family: BACS"">QLrOJvAvb</p>","","","","","","","","","",""
"html-keyboard-response","362","465447","0.0-16.0-0.30","60bbe0da43325dadf2b1b6a9","650c16f0f2faf8d7a0d14c09","651c1bb7654b388e73f2e6b4","null","null","<p style=""font-size: 60px; font-family: BACS"">QLrOJvAvb</p>","","","","","","","","","",""
"html-keyboard-response","363","466468","0.0-16.0-0.31","60bbe0da43325dadf2b1b6a9","650c16f0f2faf8d7a0d14c09","651c1bb7654b388e73f2e6b4","null","null","<p style=""font-size: 60px; font-family: BACS"">QLrOJvAvb</p>","","","","","","","","","",""
"html-keyboard-response","364","467488","0.0-16.0-0.32","60bbe0da43325dadf2b1b6a9","650c16f0f2faf8d7a0d14c09","651c1bb7654b388e73f2e6b4","null","null","<p style=""font-size: 60px; font-family: BACS"">QLrOJvAvb</p>","","","","","","","","","",""
"html-keyboard-response","365","468508","0.0-16.0-0.33","60bbe0da43325dadf2b1b6a9","650c16f0f2faf8d7a0d14c09","651c1bb7654b388e73f2e6b4","null","null","<p style=""font-size: 60px; font-family: BACS"">QLrOJvAvb</p>","","","","","","","","","",""
"html-keyboard-response","366","469528","0.0-16.0-0.34","60bbe0da43325dadf2b1b6a9","650c16f0f2faf8d7a0d14c09","651c1bb7654b388e73f2e6b4","null","null","<p style=""font-size: 60px; font-family: BACS"">QLrOJvAvb</p>","","","","","","","","","",""
"html-keyboard-response","367","470548","0.0-16.0-0.35","60bbe0da43325dadf2b1b6a9","650c16f0f2faf8d7a0d14c09","651c1bb7654b388e73f2e6b4","null","null","<p style=""font-size: 60px; font-family: BACS"">QLrOJvAvb</p>","","","","","","","","","",""
"html-keyboard-response","368","471568","0.0-16.0-0.36","60bbe0da43325dadf2b1b6a9","650c16f0f2faf8d7a0d14c09","651c1bb7654b388e73f2e6b4","null","null","<p style=""font-size: 60px; font-family: BACS"">QLrOJvAvb</p>","","","","","","","","","",""
"html-keyboard-response","369","472588","0.0-16.0-0.37","60bbe0da43325dadf2b1b6a9","650c16f0f2faf8d7a0d14c09","651c1bb7654b388e73f2e6b4","null","null","<p style=""font-size: 60px; font-family: BACS"">QLrOJvAvb</p>","","","","","","","","","",""
"html-keyboard-response","370","473608","0.0-16.0-0.38","60bbe0da43325dadf2b1b6a9","650c16f0f2faf8d7a0d14c09","651c1bb7654b388e73f2e6b4","null","null","<p style=""font-size: 60px; font-family: BACS"">QLrOJvAvb</p>","","","","","","","","","",""
"html-keyboard-response","371","474628","0.0-16.0-0.39","60bbe0da43325dadf2b1b6a9","650c16f0f2faf8d7a0d14c09","651c1bb7654b388e73f2e6b4","null","null","<p style=""font-size: 60px; font-family: BACS"">QLrOJvAvb</p>","","","","","","","","","",""
"html-keyboard-response","372","475648","0.0-16.0-0.40","60bbe0da43325dadf2b1b6a9","650c16f0f2faf8d7a0d14c09","651c1bb7654b388e73f2e6b4","null","null","<p style=""font-size: 60px; font-family: BACS"">QLrOJvAvb</p>","","","","","","","","","",""
"html-keyboard-response","373","476667","0.0-16.0-0.41","60bbe0da43325dadf2b1b6a9","650c16f0f2faf8d7a0d14c09","651c1bb7654b388e73f2e6b4","null","null","<p style=""font-size: 60px; font-family: BACS"">QLrOJvAvb</p>","","","","","","","","","",""
"html-keyboard-response","374","477688","0.0-16.0-0.42","60bbe0da43325dadf2b1b6a9","650c16f0f2faf8d7a0d14c09","651c1bb7654b388e73f2e6b4","null","null","<p style=""font-size: 60px; font-family: BACS"">QLrOJvAvb</p>","","","","","","","","","",""
"html-keyboard-response","375","478707","0.0-16.0-0.43","60bbe0da43325dadf2b1b6a9","650c16f0f2faf8d7a0d14c09","651c1bb7654b388e73f2e6b4","null","null","<p style=""font-size: 60px; font-family: BACS"">QLrOJvAvb</p>","","","","","","","","","",""
"html-keyboard-response","376","479728","0.0-16.0-0.44","60bbe0da43325dadf2b1b6a9","650c16f0f2faf8d7a0d14c09","651c1bb7654b388e73f2e6b4","null","null","<p style=""font-size: 60px; font-family: BACS"">QLrOJvAvb</p>","","","","","","","","","",""
"html-keyboard-response","377","480748","0.0-16.0-0.45","60bbe0da43325dadf2b1b6a9","650c16f0f2faf8d7a0d14c09","651c1bb7654b388e73f2e6b4","null","null","<p style=""font-size: 60px; font-family: BACS"">QLrOJvAvb</p>","","","","","","","","","",""
"html-keyboard-response","378","481768","0.0-16.0-0.46","60bbe0da43325dadf2b1b6a9","650c16f0f2faf8d7a0d14c09","651c1bb7654b388e73f2e6b4","null","null","<p style=""font-size: 60px; font-family: BACS"">QLrOJvAvb</p>","","","","","","","","","",""
"html-keyboard-response","379","482788","0.0-16.0-0.47","60bbe0da43325dadf2b1b6a9","650c16f0f2faf8d7a0d14c09","651c1bb7654b388e73f2e6b4","null","null","<p style=""font-size: 60px; font-family: BACS"">QLrOJvAvb</p>","","","","","","","","","",""
"html-keyboard-response","380","483808","0.0-16.0-0.48","60bbe0da43325dadf2b1b6a9","650c16f0f2faf8d7a0d14c09","651c1bb7654b388e73f2e6b4","null","null","<p style=""font-size: 60px; font-family: BACS"">QLrOJvAvb</p>","","","","","","","","","",""
"html-keyboard-response","381","484827","0.0-16.0-0.49","60bbe0da43325dadf2b1b6a9","650c16f0f2faf8d7a0d14c09","651c1bb7654b388e73f2e6b4","null","null","<p style=""font-size: 60px; font-family: BACS"">QLrOJvAvb</p>","","","","","","","","","",""
"html-keyboard-response","382","485848","0.0-16.0-0.50","60bbe0da43325dadf2b1b6a9","650c16f0f2faf8d7a0d14c09","651c1bb7654b388e73f2e6b4","null","null","<p style=""font-size: 60px; font-family: BACS"">QLrOJvAvb</p>","","","","","","","","","",""
"html-keyboard-response","383","486867","0.0-16.0-0.51","60bbe0da43325dadf2b1b6a9","650c16f0f2faf8d7a0d14c09","651c1bb7654b388e73f2e6b4","null","null","<p style=""font-size: 60px; font-family: BACS"">QLrOJvAvb</p>","","","","","","","","","",""
"html-keyboard-response","384","487888","0.0-16.0-0.52","60bbe0da43325dadf2b1b6a9","650c16f0f2faf8d7a0d14c09","651c1bb7654b388e73f2e6b4","null","null","<p style=""font-size: 60px; font-family: BACS"">QLrOJvAvb</p>","","","","","","","","","",""
"html-keyboard-response","385","488908","0.0-16.0-0.53","60bbe0da43325dadf2b1b6a9","650c16f0f2faf8d7a0d14c09","651c1bb7654b388e73f2e6b4","null","null","<p style=""font-size: 60px; font-family: BACS"">QLrOJvAvb</p>","","","","","","","","","",""
"html-keyboard-response","386","489928","0.0-16.0-0.54","60bbe0da43325dadf2b1b6a9","650c16f0f2faf8d7a0d14c09","651c1bb7654b388e73f2e6b4","null","null","<p style=""font-size: 60px; font-family: BACS"">QLrOJvAvb</p>","","","","","","","","","",""
"html-keyboard-response","387","490947","0.0-16.0-0.55","60bbe0da43325dadf2b1b6a9","650c16f0f2faf8d7a0d14c09","651c1bb7654b388e73f2e6b4","null","null","<p style=""font-size: 60px; font-family: BACS"">QLrOJvAvb</p>","","","","","","","","","",""
"html-keyboard-response","388","491967","0.0-16.0-0.56","60bbe0da43325dadf2b1b6a9","650c16f0f2faf8d7a0d14c09","651c1bb7654b388e73f2e6b4","null","null","<p style=""font-size: 60px; font-family: BACS"">QLrOJvAvb</p>","","","","","","","","","",""
"html-keyboard-response","389","492988","0.0-16.0-0.57","60bbe0da43325dadf2b1b6a9","650c16f0f2faf8d7a0d14c09","651c1bb7654b388e73f2e6b4","null","null","<p style=""font-size: 60px; font-family: BACS"">QLrOJvAvb</p>","","","","","","","","","",""
"html-keyboard-response","390","494008","0.0-16.0-0.58","60bbe0da43325dadf2b1b6a9","650c16f0f2faf8d7a0d14c09","651c1bb7654b388e73f2e6b4","null","null","<p style=""font-size: 60px; font-family: BACS"">QLrOJvAvb</p>","","","","","","","","","",""
"html-keyboard-response","391","495028","0.0-16.0-0.59","60bbe0da43325dadf2b1b6a9","650c16f0f2faf8d7a0d14c09","651c1bb7654b388e73f2e6b4","null","null","<p style=""font-size: 60px; font-family: BACS"">QLrOJvAvb</p>","","","","","","","","","",""
"html-keyboard-response","392","496047","0.0-16.0-0.60","60bbe0da43325dadf2b1b6a9","650c16f0f2faf8d7a0d14c09","651c1bb7654b388e73f2e6b4","null","null","<p style=""font-size: 60px; font-family: BACS"">QLrOJvAvb</p>","","","","","","","","","",""
