"trial_type","trial_index","time_elapsed","internal_node_id","subject_id","study_id","session_id","rt","response","stimulus","success","item","task","correct_response","testing_condition","correct","target","confound","name"
"pavlovia","0","804","0.0-0.0","6107d788163252e3b5c348e3","650c16f0f2faf8d7a0d14c09","651c1c71a61bd918ce457665","","","","","","","","","","","",""
"survey-html-form","1","10628","0.0-1.0","6107d788163252e3b5c348e3","650c16f0f2faf8d7a0d14c09","651c1c71a61bd918ce457665","9821","{""ID"":""6107d788163252e3b5c348e3""}","","","","","","","","","",""
"html-keyboard-response","2","86931","0.0-2.0","6107d788163252e3b5c348e3","650c16f0f2faf8d7a0d14c09","651c1c71a61bd918ce457665","76301"," ","<p style=""font-size: 15px;"">Before beginning, we ask that you read the consent information and confirm your agreement to participate in the experiment.</p>
      <p style=""font-size: 15px;""> We ask that you remember that this is a research project and that your participation is entirely voluntary. You can stop your participation at any time, without needing to provide any explanation. The study we're asking you to participate in aims at examining how readers process written words. You will be engaged in a session of apprximately 20 minutes, followed by a brief questionnaire. You will have the opportunity to take a few breaks during the experiment. You will be paid £4 for your participation, corresponding to a rate of £8/hour. While this experiment looks at cognitive faculties, this experiment doesn't constitute clinical proof of eventual pathologies.</p>
      <p style=""font-size: 15px;"">All of the information collected thanks to yours and others' participation will be held in a secure password-protected server, and will not be shared with anyone not authorised to view it. Your personal information will be kept with an arbitrary participant ID. Thanks to this data anonymity process, any researcher analysing the data won't be able to track the information back to a specific participant. Therefore, this process will make identifying you impossibile, even when results from the study will be published in scientific reviews, presented at congresses, or at any other public forum. More generally, the collected data will be treated in accordance with the laws on privacy and conformity to the Legislative Degree n. 196 ""Code regarding the protection of personal data"" of the 30th of June 2003 and to the European Regulation 2016/670 (General Data Protection Regulation - GDPR). The Data Protection Officer is Avv. Valentina Carollo, who can be contacted at the following email addresses: <a href=""mailto:dpo@sissa.it"">dpo@sissa.it</a> or <a href=""mailto:rpd@sissa.it"">rpd@sissa.it</a> - PEC: <a href=""mailto:protocollo@pec.sissa.it"">protocollo@pec.sissa.it</a>.</p>
      <p style=""font-size: 15px;""> Before expressing your consent to participate, we would like to remind you again that in case you need explanations on any aspect of the experimental procedure, the researcher is at your disposition (<a href=""mailto:aliebelt@sissa.it"">aliebelt@sissa.it</a>, <a href=""mailto:davide.crepaldi@sissa.it"">davide.crepaldi@sissa.it</a>).</p>
      <p style=""font-size: 15px;"">If you would like to download the informed consent form, you can do so here: <a href=""BASL-Informed_Consent.pdf"" download>informed consent form</a>.</p>
      <p style=""font-size: 15px;"">We ask that you press the spacebar to proceed to the consent section.</p>","","","","","","","","",""
"survey-html-form","3","121371","0.0-3.0","6107d788163252e3b5c348e3","650c16f0f2faf8d7a0d14c09","651c1c71a61bd918ce457665","34438","{""consent1"":""YES"",""consent2"":""YES"",""consent3"":""YES"",""consent4"":""YES"",""consent5"":""YES"",""consent6"":""YES""}","","","","","","","","","",""
"fullscreen","4","135647","0.0-4.0","6107d788163252e3b5c348e3","650c16f0f2faf8d7a0d14c09","651c1c71a61bd918ce457665","","","","true","","","","","","","",""
"html-keyboard-response","5","192793","0.0-5.0","6107d788163252e3b5c348e3","650c16f0f2faf8d7a0d14c09","651c1c71a61bd918ce457665","57144"," ","<p>Welcome, and thank you very much for your time!</p>
      <p>In this experiment, you'll be a language expert who's been asked to take a look at words that Earth has received in its first communication with aliens. Your task, in this first part of the experiment, is to pay close attention to the words you'll be shown; later, world leaders will ask you questions on what you saw. The words will be shown to you quite quickly; it seems that the aliens were in a hurry :-)</p>
      <p>Press the spacebar to continue.<p>","","","","","","","","",""
"html-keyboard-response","6","192856","0.0-6.0","6107d788163252e3b5c348e3","650c16f0f2faf8d7a0d14c09","651c1c71a61bd918ce457665","null","null","<p style=""font-size: 120px; font-family: BACS""> </p>","","","","","","","","",""
"html-keyboard-response","7","211520","0.0-7.0","6107d788163252e3b5c348e3","650c16f0f2faf8d7a0d14c09","651c1c71a61bd918ce457665","18663"," ","<p>Here is an example of the words you'll see:</p>
      <img src='esempio.png' height='400px'>
      <p>When you're ready to begin, press the spacebar.</p></div>","","","","","","","","",""
"html-keyboard-response","8","212531","0.0-8.0-0.0","6107d788163252e3b5c348e3","650c16f0f2faf8d7a0d14c09","651c1c71a61bd918ce457665","null","null","<p style=""font-size: 60px; font-family: BACS"">LckGNZckv</p>","","","","","","","","",""
"html-keyboard-response","9","213546","0.0-8.0-0.1","6107d788163252e3b5c348e3","650c16f0f2faf8d7a0d14c09","651c1c71a61bd918ce457665","null","null","<p style=""font-size: 60px; font-family: BACS"">MhKdlRE</p>","","","","","","","","",""
"html-keyboard-response","10","214552","0.0-8.0-0.2","6107d788163252e3b5c348e3","650c16f0f2faf8d7a0d14c09","651c1c71a61bd918ce457665","null","null","<p style=""font-size: 60px; font-family: BACS"">EYtYRCdt</p>","","","","","","","","",""
"html-keyboard-response","11","215560","0.0-8.0-0.3","6107d788163252e3b5c348e3","650c16f0f2faf8d7a0d14c09","651c1c71a61bd918ce457665","null","null","<p style=""font-size: 60px; font-family: BACS"">ObZbAZckv</p>","","","","","","","","",""
"html-keyboard-response","12","216576","0.0-8.0-0.4","6107d788163252e3b5c348e3","650c16f0f2faf8d7a0d14c09","651c1c71a61bd918ce457665","null","null","<p style=""font-size: 60px; font-family: BACS"">LckGNGlu</p>","","","","","","","","",""
"html-keyboard-response","13","217592","0.0-8.0-0.5","6107d788163252e3b5c348e3","650c16f0f2faf8d7a0d14c09","651c1c71a61bd918ce457665","null","null","<p style=""font-size: 60px; font-family: BACS"">lcOcYaOk</p>","","","","","","","","",""
"html-keyboard-response","14","218608","0.0-8.0-0.6","6107d788163252e3b5c348e3","650c16f0f2faf8d7a0d14c09","651c1c71a61bd918ce457665","null","null","<p style=""font-size: 60px; font-family: BACS"">PEtEBRDh</p>","","","","","","","","",""
"html-keyboard-response","15","219624","0.0-8.0-0.7","6107d788163252e3b5c348e3","650c16f0f2faf8d7a0d14c09","651c1c71a61bd918ce457665","null","null","<p style=""font-size: 60px; font-family: BACS"">lbBDEcPK</p>","","","","","","","","",""
"html-keyboard-response","16","220639","0.0-8.0-0.8","6107d788163252e3b5c348e3","650c16f0f2faf8d7a0d14c09","651c1c71a61bd918ce457665","null","null","<p style=""font-size: 60px; font-family: BACS"">lYruaGlu</p>","","","","","","","","",""
"html-keyboard-response","17","221645","0.0-8.0-0.9","6107d788163252e3b5c348e3","650c16f0f2faf8d7a0d14c09","651c1c71a61bd918ce457665","null","null","<p style=""font-size: 60px; font-family: BACS"">MlthAPT</p>","","","","","","","","",""
"html-keyboard-response","18","222654","0.0-8.0-0.10","6107d788163252e3b5c348e3","650c16f0f2faf8d7a0d14c09","651c1c71a61bd918ce457665","null","null","<p style=""font-size: 60px; font-family: BACS"">YadrGlu</p>","","","","","","","","",""
"html-keyboard-response","19","223671","0.0-8.0-0.11","6107d788163252e3b5c348e3","650c16f0f2faf8d7a0d14c09","651c1c71a61bd918ce457665","null","null","<p style=""font-size: 60px; font-family: BACS"">lYruaZckv</p>","","","","","","","","",""
"html-keyboard-response","20","224686","0.0-8.0-0.12","6107d788163252e3b5c348e3","650c16f0f2faf8d7a0d14c09","651c1c71a61bd918ce457665","null","null","<p style=""font-size: 60px; font-family: BACS"">YadrYmb</p>","","","","","","","","",""
"html-keyboard-response","21","225701","0.0-8.0-0.13","6107d788163252e3b5c348e3","650c16f0f2faf8d7a0d14c09","651c1c71a61bd918ce457665","null","null","<p style=""font-size: 60px; font-family: BACS"">lYruaYaOk</p>","","","","","","","","",""
"html-keyboard-response","22","226702","0.0-8.0-0.14","6107d788163252e3b5c348e3","650c16f0f2faf8d7a0d14c09","651c1c71a61bd918ce457665","null","null","<p style=""font-size: 60px; font-family: BACS"">YKRklRE</p>","","","","","","","","",""
"html-keyboard-response","23","227717","0.0-8.0-0.15","6107d788163252e3b5c348e3","650c16f0f2faf8d7a0d14c09","651c1c71a61bd918ce457665","null","null","<p style=""font-size: 60px; font-family: BACS"">DMRPcPK</p>","","","","","","","","",""
"html-keyboard-response","24","228732","0.0-8.0-0.16","6107d788163252e3b5c348e3","650c16f0f2faf8d7a0d14c09","651c1c71a61bd918ce457665","null","null","<p style=""font-size: 60px; font-family: BACS"">MhKdBRDh</p>","","","","","","","","",""
"html-keyboard-response","25","229749","0.0-8.0-0.17","6107d788163252e3b5c348e3","650c16f0f2faf8d7a0d14c09","651c1c71a61bd918ce457665","null","null","<p style=""font-size: 60px; font-family: BACS"">YKRkCdt</p>","","","","","","","","",""
"html-keyboard-response","26","230764","0.0-8.0-0.18","6107d788163252e3b5c348e3","650c16f0f2faf8d7a0d14c09","651c1c71a61bd918ce457665","null","null","<p style=""font-size: 60px; font-family: BACS"">lkAkZckv</p>","","","","","","","","",""
"html-keyboard-response","27","231780","0.0-8.0-0.19","6107d788163252e3b5c348e3","650c16f0f2faf8d7a0d14c09","651c1c71a61bd918ce457665","null","null","<p style=""font-size: 60px; font-family: BACS"">lbBDEAPT</p>","","","","","","","","",""
"html-keyboard-response","28","232790","0.0-8.0-0.20","6107d788163252e3b5c348e3","650c16f0f2faf8d7a0d14c09","651c1c71a61bd918ce457665","null","null","<p style=""font-size: 60px; font-family: BACS"">mUOcOZckv</p>","","","","","","","","",""
"html-keyboard-response","29","233795","0.0-8.0-0.21","6107d788163252e3b5c348e3","650c16f0f2faf8d7a0d14c09","651c1c71a61bd918ce457665","null","null","<p style=""font-size: 60px; font-family: BACS"">MlthcPK</p>","","","","","","","","",""
"html-keyboard-response","30","234810","0.0-8.0-0.22","6107d788163252e3b5c348e3","650c16f0f2faf8d7a0d14c09","651c1c71a61bd918ce457665","null","null","<p style=""font-size: 60px; font-family: BACS"">mUOcOGlu</p>","","","","","","","","",""
"html-keyboard-response","31","235827","0.0-8.0-0.23","6107d788163252e3b5c348e3","650c16f0f2faf8d7a0d14c09","651c1c71a61bd918ce457665","null","null","<p style=""font-size: 60px; font-family: BACS"">lYruaYmb</p>","","","","","","","","",""
"html-keyboard-response","32","236843","0.0-8.0-0.24","6107d788163252e3b5c348e3","650c16f0f2faf8d7a0d14c09","651c1c71a61bd918ce457665","null","null","<p style=""font-size: 60px; font-family: BACS"">mUOcOJQA</p>","","","","","","","","",""
"html-keyboard-response","33","237857","0.0-8.0-0.25","6107d788163252e3b5c348e3","650c16f0f2faf8d7a0d14c09","651c1c71a61bd918ce457665","null","null","<p style=""font-size: 60px; font-family: BACS"">PEtElRE</p>","","","","","","","","",""
"html-keyboard-response","34","238874","0.0-8.0-0.26","6107d788163252e3b5c348e3","650c16f0f2faf8d7a0d14c09","651c1c71a61bd918ce457665","null","null","<p style=""font-size: 60px; font-family: BACS"">YKRkAPT</p>","","","","","","","","",""
"html-keyboard-response","35","239890","0.0-8.0-0.27","6107d788163252e3b5c348e3","650c16f0f2faf8d7a0d14c09","651c1c71a61bd918ce457665","null","null","<p style=""font-size: 60px; font-family: BACS"">LckGNYmb</p>","","","","","","","","",""
"html-keyboard-response","36","240905","0.0-8.0-0.28","6107d788163252e3b5c348e3","650c16f0f2faf8d7a0d14c09","651c1c71a61bd918ce457665","null","null","<p style=""font-size: 60px; font-family: BACS"">YKRkBRDh</p>","","","","","","","","",""
"html-keyboard-response","37","241921","0.0-8.0-0.29","6107d788163252e3b5c348e3","650c16f0f2faf8d7a0d14c09","651c1c71a61bd918ce457665","null","null","<p style=""font-size: 60px; font-family: BACS"">uQkrdGlu</p>","","","","","","","","",""
"html-keyboard-response","38","242936","0.0-8.0-0.30","6107d788163252e3b5c348e3","650c16f0f2faf8d7a0d14c09","651c1c71a61bd918ce457665","null","null","<p style=""font-size: 60px; font-family: BACS"">dRbDblRE</p>","","","","","","","","",""
"html-keyboard-response","39","243952","0.0-8.0-0.31","6107d788163252e3b5c348e3","650c16f0f2faf8d7a0d14c09","651c1c71a61bd918ce457665","null","null","<p style=""font-size: 60px; font-family: BACS"">advYOGlu</p>","","","","","","","","",""
"html-keyboard-response","40","244968","0.0-8.0-0.32","6107d788163252e3b5c348e3","650c16f0f2faf8d7a0d14c09","651c1c71a61bd918ce457665","null","null","<p style=""font-size: 60px; font-family: BACS"">MlthCdt</p>","","","","","","","","",""
"html-keyboard-response","41","245985","0.0-8.0-0.33","6107d788163252e3b5c348e3","650c16f0f2faf8d7a0d14c09","651c1c71a61bd918ce457665","null","null","<p style=""font-size: 60px; font-family: BACS"">ECtbDcPK</p>","","","","","","","","",""
"html-keyboard-response","42","247000","0.0-8.0-0.34","6107d788163252e3b5c348e3","650c16f0f2faf8d7a0d14c09","651c1c71a61bd918ce457665","null","null","<p style=""font-size: 60px; font-family: BACS"">PEtEAPT</p>","","","","","","","","",""
"html-keyboard-response","43","248001","0.0-8.0-0.35","6107d788163252e3b5c348e3","650c16f0f2faf8d7a0d14c09","651c1c71a61bd918ce457665","null","null","<p style=""font-size: 60px; font-family: BACS"">ObZbAJQA</p>","","","","","","","","",""
"html-keyboard-response","44","249014","0.0-8.0-0.36","6107d788163252e3b5c348e3","650c16f0f2faf8d7a0d14c09","651c1c71a61bd918ce457665","null","null","<p style=""font-size: 60px; font-family: BACS"">EYtYRcPK</p>","","","","","","","","",""
"html-keyboard-response","45","250030","0.0-8.0-0.37","6107d788163252e3b5c348e3","650c16f0f2faf8d7a0d14c09","651c1c71a61bd918ce457665","null","null","<p style=""font-size: 60px; font-family: BACS"">KBKBEAPT</p>","","","","","","","","",""
"html-keyboard-response","46","251047","0.0-8.0-0.38","6107d788163252e3b5c348e3","650c16f0f2faf8d7a0d14c09","651c1c71a61bd918ce457665","null","null","<p style=""font-size: 60px; font-family: BACS"">uQkrdYmb</p>","","","","","","","","",""
"html-keyboard-response","47","252062","0.0-8.0-0.39","6107d788163252e3b5c348e3","650c16f0f2faf8d7a0d14c09","651c1c71a61bd918ce457665","null","null","<p style=""font-size: 60px; font-family: BACS"">PEtEcPK</p>","","","","","","","","",""
"html-keyboard-response","48","253078","0.0-8.0-0.40","6107d788163252e3b5c348e3","650c16f0f2faf8d7a0d14c09","651c1c71a61bd918ce457665","null","null","<p style=""font-size: 60px; font-family: BACS"">EYtYRlRE</p>","","","","","","","","",""
"html-keyboard-response","49","254094","0.0-8.0-0.41","6107d788163252e3b5c348e3","650c16f0f2faf8d7a0d14c09","651c1c71a61bd918ce457665","null","null","<p style=""font-size: 60px; font-family: BACS"">NQZvJQA</p>","","","","","","","","",""
"html-keyboard-response","50","255109","0.0-8.0-0.42","6107d788163252e3b5c348e3","650c16f0f2faf8d7a0d14c09","651c1c71a61bd918ce457665","null","null","<p style=""font-size: 60px; font-family: BACS"">LckGNYaOk</p>","","","","","","","","",""
"html-keyboard-response","51","256125","0.0-8.0-0.43","6107d788163252e3b5c348e3","650c16f0f2faf8d7a0d14c09","651c1c71a61bd918ce457665","null","null","<p style=""font-size: 60px; font-family: BACS"">DMRPCdt</p>","","","","","","","","",""
"html-keyboard-response","52","257141","0.0-8.0-0.44","6107d788163252e3b5c348e3","650c16f0f2faf8d7a0d14c09","651c1c71a61bd918ce457665","null","null","<p style=""font-size: 60px; font-family: BACS"">mUOcOYaOk</p>","","","","","","","","",""
"html-keyboard-response","53","258156","0.0-8.0-0.45","6107d788163252e3b5c348e3","650c16f0f2faf8d7a0d14c09","651c1c71a61bd918ce457665","null","null","<p style=""font-size: 60px; font-family: BACS"">ECtbDCdt</p>","","","","","","","","",""
"html-keyboard-response","54","259157","0.0-8.0-0.46","6107d788163252e3b5c348e3","650c16f0f2faf8d7a0d14c09","651c1c71a61bd918ce457665","null","null","<p style=""font-size: 60px; font-family: BACS"">lkAkJQA</p>","","","","","","","","",""
"html-keyboard-response","55","260171","0.0-8.0-0.47","6107d788163252e3b5c348e3","650c16f0f2faf8d7a0d14c09","651c1c71a61bd918ce457665","null","null","<p style=""font-size: 60px; font-family: BACS"">uQkrdYaOk</p>","","","","","","","","",""
"html-keyboard-response","56","261175","0.0-8.0-0.48","6107d788163252e3b5c348e3","650c16f0f2faf8d7a0d14c09","651c1c71a61bd918ce457665","null","null","<p style=""font-size: 60px; font-family: BACS"">NQZvZckv</p>","","","","","","","","",""
"html-keyboard-response","57","262187","0.0-8.0-0.49","6107d788163252e3b5c348e3","650c16f0f2faf8d7a0d14c09","651c1c71a61bd918ce457665","null","null","<p style=""font-size: 60px; font-family: BACS"">KBKBElRE</p>","","","","","","","","",""
"html-keyboard-response","58","263203","0.0-8.0-0.50","6107d788163252e3b5c348e3","650c16f0f2faf8d7a0d14c09","651c1c71a61bd918ce457665","null","null","<p style=""font-size: 60px; font-family: BACS"">advYOZckv</p>","","","","","","","","",""
"html-keyboard-response","59","264217","0.0-8.0-0.51","6107d788163252e3b5c348e3","650c16f0f2faf8d7a0d14c09","651c1c71a61bd918ce457665","null","null","<p style=""font-size: 60px; font-family: BACS"">EYtYRBRDh</p>","","","","","","","","",""
"html-keyboard-response","60","265218","0.0-8.0-0.52","6107d788163252e3b5c348e3","650c16f0f2faf8d7a0d14c09","651c1c71a61bd918ce457665","null","null","<p style=""font-size: 60px; font-family: BACS"">uQkrdJQA</p>","","","","","","","","",""
"html-keyboard-response","61","266232","0.0-8.0-0.53","6107d788163252e3b5c348e3","650c16f0f2faf8d7a0d14c09","651c1c71a61bd918ce457665","null","null","<p style=""font-size: 60px; font-family: BACS"">KBKBECdt</p>","","","","","","","","",""
"html-keyboard-response","62","267248","0.0-8.0-0.54","6107d788163252e3b5c348e3","650c16f0f2faf8d7a0d14c09","651c1c71a61bd918ce457665","null","null","<p style=""font-size: 60px; font-family: BACS"">dRbDbcPK</p>","","","","","","","","",""
"html-keyboard-response","63","268254","0.0-8.0-0.55","6107d788163252e3b5c348e3","650c16f0f2faf8d7a0d14c09","651c1c71a61bd918ce457665","null","null","<p style=""font-size: 60px; font-family: BACS"">advYOYaOk</p>","","","","","","","","",""
"html-keyboard-response","64","269264","0.0-8.0-0.56","6107d788163252e3b5c348e3","650c16f0f2faf8d7a0d14c09","651c1c71a61bd918ce457665","null","null","<p style=""font-size: 60px; font-family: BACS"">ECtbDlRE</p>","","","","","","","","",""
"html-keyboard-response","65","270280","0.0-8.0-0.57","6107d788163252e3b5c348e3","650c16f0f2faf8d7a0d14c09","651c1c71a61bd918ce457665","null","null","<p style=""font-size: 60px; font-family: BACS"">dRbDbBRDh</p>","","","","","","","","",""
"html-keyboard-response","66","271295","0.0-8.0-0.58","6107d788163252e3b5c348e3","650c16f0f2faf8d7a0d14c09","651c1c71a61bd918ce457665","null","null","<p style=""font-size: 60px; font-family: BACS"">advYOJQA</p>","","","","","","","","",""
"html-keyboard-response","67","272311","0.0-8.0-0.59","6107d788163252e3b5c348e3","650c16f0f2faf8d7a0d14c09","651c1c71a61bd918ce457665","null","null","<p style=""font-size: 60px; font-family: BACS"">lbBDEBRDh</p>","","","","","","","","",""
"html-keyboard-response","68","273327","0.0-8.0-0.60","6107d788163252e3b5c348e3","650c16f0f2faf8d7a0d14c09","651c1c71a61bd918ce457665","null","null","<p style=""font-size: 60px; font-family: BACS"">NQZvYaOk</p>","","","","","","","","",""
"html-keyboard-response","69","274340","0.0-8.0-0.61","6107d788163252e3b5c348e3","650c16f0f2faf8d7a0d14c09","651c1c71a61bd918ce457665","null","null","<p style=""font-size: 60px; font-family: BACS"">ObZbAYmb</p>","","","","","","","","",""
"html-keyboard-response","70","275346","0.0-8.0-0.62","6107d788163252e3b5c348e3","650c16f0f2faf8d7a0d14c09","651c1c71a61bd918ce457665","null","null","<p style=""font-size: 60px; font-family: BACS"">lcOcGlu</p>","","","","","","","","",""
"html-keyboard-response","71","276357","0.0-8.0-0.63","6107d788163252e3b5c348e3","650c16f0f2faf8d7a0d14c09","651c1c71a61bd918ce457665","null","null","<p style=""font-size: 60px; font-family: BACS"">ECtbDBRDh</p>","","","","","","","","",""
"html-keyboard-response","72","277372","0.0-8.0-0.64","6107d788163252e3b5c348e3","650c16f0f2faf8d7a0d14c09","651c1c71a61bd918ce457665","null","null","<p style=""font-size: 60px; font-family: BACS"">MhKdCdt</p>","","","","","","","","",""
"html-keyboard-response","73","278388","0.0-8.0-0.65","6107d788163252e3b5c348e3","650c16f0f2faf8d7a0d14c09","651c1c71a61bd918ce457665","null","null","<p style=""font-size: 60px; font-family: BACS"">MlthBRDh</p>","","","","","","","","",""
"html-keyboard-response","74","279404","0.0-8.0-0.66","6107d788163252e3b5c348e3","650c16f0f2faf8d7a0d14c09","651c1c71a61bd918ce457665","null","null","<p style=""font-size: 60px; font-family: BACS"">lcOcYmb</p>","","","","","","","","",""
"html-keyboard-response","75","280420","0.0-8.0-0.67","6107d788163252e3b5c348e3","650c16f0f2faf8d7a0d14c09","651c1c71a61bd918ce457665","null","null","<p style=""font-size: 60px; font-family: BACS"">DMRPlRE</p>","","","","","","","","",""
"html-keyboard-response","76","281436","0.0-8.0-0.68","6107d788163252e3b5c348e3","650c16f0f2faf8d7a0d14c09","651c1c71a61bd918ce457665","null","null","<p style=""font-size: 60px; font-family: BACS"">ObZbAYaOk</p>","","","","","","","","",""
"html-keyboard-response","77","282439","0.0-8.0-0.69","6107d788163252e3b5c348e3","650c16f0f2faf8d7a0d14c09","651c1c71a61bd918ce457665","null","null","<p style=""font-size: 60px; font-family: BACS"">lbBDECdt</p>","","","","","","","","",""
"html-keyboard-response","78","283451","0.0-8.0-0.70","6107d788163252e3b5c348e3","650c16f0f2faf8d7a0d14c09","651c1c71a61bd918ce457665","null","null","<p style=""font-size: 60px; font-family: BACS"">lkAkYmb</p>","","","","","","","","",""
"html-keyboard-response","79","284467","0.0-8.0-0.71","6107d788163252e3b5c348e3","650c16f0f2faf8d7a0d14c09","651c1c71a61bd918ce457665","null","null","<p style=""font-size: 60px; font-family: BACS"">MhKdAPT</p>","","","","","","","","",""
"html-keyboard-response","80","285483","0.0-8.0-0.72","6107d788163252e3b5c348e3","650c16f0f2faf8d7a0d14c09","651c1c71a61bd918ce457665","null","null","<p style=""font-size: 60px; font-family: BACS"">YadrZckv</p>","","","","","","","","",""
"html-keyboard-response","81","286498","0.0-8.0-0.73","6107d788163252e3b5c348e3","650c16f0f2faf8d7a0d14c09","651c1c71a61bd918ce457665","null","null","<p style=""font-size: 60px; font-family: BACS"">lkAkGlu</p>","","","","","","","","",""
"html-keyboard-response","82","287513","0.0-8.0-0.74","6107d788163252e3b5c348e3","650c16f0f2faf8d7a0d14c09","651c1c71a61bd918ce457665","null","null","<p style=""font-size: 60px; font-family: BACS"">dRbDbAPT</p>","","","","","","","","",""
"html-keyboard-response","83","288529","0.0-8.0-0.75","6107d788163252e3b5c348e3","650c16f0f2faf8d7a0d14c09","651c1c71a61bd918ce457665","null","null","<p style=""font-size: 60px; font-family: BACS"">NQZvYmb</p>","","","","","","","","",""
"html-keyboard-response","84","289546","0.0-8.0-0.76","6107d788163252e3b5c348e3","650c16f0f2faf8d7a0d14c09","651c1c71a61bd918ce457665","null","null","<p style=""font-size: 60px; font-family: BACS"">YadrJQA</p>","","","","","","","","",""
"html-keyboard-response","85","290562","0.0-8.0-0.77","6107d788163252e3b5c348e3","650c16f0f2faf8d7a0d14c09","651c1c71a61bd918ce457665","null","null","<p style=""font-size: 60px; font-family: BACS"">DMRPAPT</p>","","","","","","","","",""
"html-keyboard-response","86","291578","0.0-8.0-0.78","6107d788163252e3b5c348e3","650c16f0f2faf8d7a0d14c09","651c1c71a61bd918ce457665","null","null","<p style=""font-size: 60px; font-family: BACS"">KBKBEcPK</p>","","","","","","","","",""
"html-keyboard-response","87","292583","0.0-8.0-0.79","6107d788163252e3b5c348e3","650c16f0f2faf8d7a0d14c09","651c1c71a61bd918ce457665","null","null","<p style=""font-size: 60px; font-family: BACS"">lcOcJQA</p>","","","","","","","","",""
"html-keyboard-response","88","321485","0.0-9.0","6107d788163252e3b5c348e3","650c16f0f2faf8d7a0d14c09","651c1c71a61bd918ce457665","28901"," ","<p>Great, you've seen the first block of words. You may now take a short break.</p>
      <p>Press the spacebar when you're ready to continue.</p>","","","","","","","","",""
"html-keyboard-response","89","322500","0.0-10.0-0.0","6107d788163252e3b5c348e3","650c16f0f2faf8d7a0d14c09","651c1c71a61bd918ce457665","null","null","<p style=""font-size: 60px; font-family: BACS"">ECtbDBRDh</p>","","","","","","","","",""
"html-keyboard-response","90","323516","0.0-10.0-0.1","6107d788163252e3b5c348e3","650c16f0f2faf8d7a0d14c09","651c1c71a61bd918ce457665","null","null","<p style=""font-size: 60px; font-family: BACS"">ObZbAZckv</p>","","","","","","","","",""
"html-keyboard-response","91","324532","0.0-10.0-0.2","6107d788163252e3b5c348e3","650c16f0f2faf8d7a0d14c09","651c1c71a61bd918ce457665","null","null","<p style=""font-size: 60px; font-family: BACS"">dRbDbBRDh</p>","","","","","","","","",""
"html-keyboard-response","92","325548","0.0-10.0-0.3","6107d788163252e3b5c348e3","650c16f0f2faf8d7a0d14c09","651c1c71a61bd918ce457665","null","null","<p style=""font-size: 60px; font-family: BACS"">ECtbDlRE</p>","","","","","","","","",""
"html-keyboard-response","93","326565","0.0-10.0-0.4","6107d788163252e3b5c348e3","650c16f0f2faf8d7a0d14c09","651c1c71a61bd918ce457665","null","null","<p style=""font-size: 60px; font-family: BACS"">uQkrdJQA</p>","","","","","","","","",""
"html-keyboard-response","94","327569","0.0-10.0-0.5","6107d788163252e3b5c348e3","650c16f0f2faf8d7a0d14c09","651c1c71a61bd918ce457665","null","null","<p style=""font-size: 60px; font-family: BACS"">YKRkAPT</p>","","","","","","","","",""
"html-keyboard-response","95","328579","0.0-10.0-0.6","6107d788163252e3b5c348e3","650c16f0f2faf8d7a0d14c09","651c1c71a61bd918ce457665","null","null","<p style=""font-size: 60px; font-family: BACS"">lYruaYaOk</p>","","","","","","","","",""
"html-keyboard-response","96","329594","0.0-10.0-0.7","6107d788163252e3b5c348e3","650c16f0f2faf8d7a0d14c09","651c1c71a61bd918ce457665","null","null","<p style=""font-size: 60px; font-family: BACS"">KBKBElRE</p>","","","","","","","","",""
"html-keyboard-response","97","330610","0.0-10.0-0.8","6107d788163252e3b5c348e3","650c16f0f2faf8d7a0d14c09","651c1c71a61bd918ce457665","null","null","<p style=""font-size: 60px; font-family: BACS"">EYtYRcPK</p>","","","","","","","","",""
"html-keyboard-response","98","331627","0.0-10.0-0.9","6107d788163252e3b5c348e3","650c16f0f2faf8d7a0d14c09","651c1c71a61bd918ce457665","null","null","<p style=""font-size: 60px; font-family: BACS"">YadrYmb</p>","","","","","","","","",""
"html-keyboard-response","99","332642","0.0-10.0-0.10","6107d788163252e3b5c348e3","650c16f0f2faf8d7a0d14c09","651c1c71a61bd918ce457665","null","null","<p style=""font-size: 60px; font-family: BACS"">LckGNYaOk</p>","","","","","","","","",""
"html-keyboard-response","100","333658","0.0-10.0-0.11","6107d788163252e3b5c348e3","650c16f0f2faf8d7a0d14c09","651c1c71a61bd918ce457665","null","null","<p style=""font-size: 60px; font-family: BACS"">DMRPlRE</p>","","","","","","","","",""
"html-keyboard-response","101","334662","0.0-10.0-0.12","6107d788163252e3b5c348e3","650c16f0f2faf8d7a0d14c09","651c1c71a61bd918ce457665","null","null","<p style=""font-size: 60px; font-family: BACS"">YadrJQA</p>","","","","","","","","",""
"html-keyboard-response","102","335673","0.0-10.0-0.13","6107d788163252e3b5c348e3","650c16f0f2faf8d7a0d14c09","651c1c71a61bd918ce457665","null","null","<p style=""font-size: 60px; font-family: BACS"">MlthcPK</p>","","","","","","","","",""
"html-keyboard-response","103","336688","0.0-10.0-0.14","6107d788163252e3b5c348e3","650c16f0f2faf8d7a0d14c09","651c1c71a61bd918ce457665","null","null","<p style=""font-size: 60px; font-family: BACS"">lkAkJQA</p>","","","","","","","","",""
"html-keyboard-response","104","337704","0.0-10.0-0.15","6107d788163252e3b5c348e3","650c16f0f2faf8d7a0d14c09","651c1c71a61bd918ce457665","null","null","<p style=""font-size: 60px; font-family: BACS"">MhKdAPT</p>","","","","","","","","",""
"html-keyboard-response","105","338720","0.0-10.0-0.16","6107d788163252e3b5c348e3","650c16f0f2faf8d7a0d14c09","651c1c71a61bd918ce457665","null","null","<p style=""font-size: 60px; font-family: BACS"">PEtEBRDh</p>","","","","","","","","",""
"html-keyboard-response","106","339735","0.0-10.0-0.17","6107d788163252e3b5c348e3","650c16f0f2faf8d7a0d14c09","651c1c71a61bd918ce457665","null","null","<p style=""font-size: 60px; font-family: BACS"">mUOcOGlu</p>","","","","","","","","",""
"html-keyboard-response","107","340752","0.0-10.0-0.18","6107d788163252e3b5c348e3","650c16f0f2faf8d7a0d14c09","651c1c71a61bd918ce457665","null","null","<p style=""font-size: 60px; font-family: BACS"">KBKBEAPT</p>","","","","","","","","",""
"html-keyboard-response","108","341764","0.0-10.0-0.19","6107d788163252e3b5c348e3","650c16f0f2faf8d7a0d14c09","651c1c71a61bd918ce457665","null","null","<p style=""font-size: 60px; font-family: BACS"">YKRkBRDh</p>","","","","","","","","",""
"html-keyboard-response","109","342766","0.0-10.0-0.20","6107d788163252e3b5c348e3","650c16f0f2faf8d7a0d14c09","651c1c71a61bd918ce457665","null","null","<p style=""font-size: 60px; font-family: BACS"">NQZvJQA</p>","","","","","","","","",""
"html-keyboard-response","110","343782","0.0-10.0-0.21","6107d788163252e3b5c348e3","650c16f0f2faf8d7a0d14c09","651c1c71a61bd918ce457665","null","null","<p style=""font-size: 60px; font-family: BACS"">EYtYRlRE</p>","","","","","","","","",""
"html-keyboard-response","111","344798","0.0-10.0-0.22","6107d788163252e3b5c348e3","650c16f0f2faf8d7a0d14c09","651c1c71a61bd918ce457665","null","null","<p style=""font-size: 60px; font-family: BACS"">lcOcYmb</p>","","","","","","","","",""
"html-keyboard-response","112","345814","0.0-10.0-0.23","6107d788163252e3b5c348e3","650c16f0f2faf8d7a0d14c09","651c1c71a61bd918ce457665","null","null","<p style=""font-size: 60px; font-family: BACS"">lbBDECdt</p>","","","","","","","","",""
"html-keyboard-response","113","346829","0.0-10.0-0.24","6107d788163252e3b5c348e3","650c16f0f2faf8d7a0d14c09","651c1c71a61bd918ce457665","null","null","<p style=""font-size: 60px; font-family: BACS"">advYOGlu</p>","","","","","","","","",""
"html-keyboard-response","114","347845","0.0-10.0-0.25","6107d788163252e3b5c348e3","650c16f0f2faf8d7a0d14c09","651c1c71a61bd918ce457665","null","null","<p style=""font-size: 60px; font-family: BACS"">mUOcOYaOk</p>","","","","","","","","",""
"html-keyboard-response","115","348861","0.0-10.0-0.26","6107d788163252e3b5c348e3","650c16f0f2faf8d7a0d14c09","651c1c71a61bd918ce457665","null","null","<p style=""font-size: 60px; font-family: BACS"">MhKdBRDh</p>","","","","","","","","",""
"html-keyboard-response","116","349877","0.0-10.0-0.27","6107d788163252e3b5c348e3","650c16f0f2faf8d7a0d14c09","651c1c71a61bd918ce457665","null","null","<p style=""font-size: 60px; font-family: BACS"">YKRkCdt</p>","","","","","","","","",""
"html-keyboard-response","117","350892","0.0-10.0-0.28","6107d788163252e3b5c348e3","650c16f0f2faf8d7a0d14c09","651c1c71a61bd918ce457665","null","null","<p style=""font-size: 60px; font-family: BACS"">DMRPAPT</p>","","","","","","","","",""
"html-keyboard-response","118","351907","0.0-10.0-0.29","6107d788163252e3b5c348e3","650c16f0f2faf8d7a0d14c09","651c1c71a61bd918ce457665","null","null","<p style=""font-size: 60px; font-family: BACS"">dRbDbcPK</p>","","","","","","","","",""
"html-keyboard-response","119","352909","0.0-10.0-0.30","6107d788163252e3b5c348e3","650c16f0f2faf8d7a0d14c09","651c1c71a61bd918ce457665","null","null","<p style=""font-size: 60px; font-family: BACS"">mUOcOZckv</p>","","","","","","","","",""
"html-keyboard-response","120","353923","0.0-10.0-0.31","6107d788163252e3b5c348e3","650c16f0f2faf8d7a0d14c09","651c1c71a61bd918ce457665","null","null","<p style=""font-size: 60px; font-family: BACS"">EYtYRCdt</p>","","","","","","","","",""
"html-keyboard-response","121","354939","0.0-10.0-0.32","6107d788163252e3b5c348e3","650c16f0f2faf8d7a0d14c09","651c1c71a61bd918ce457665","null","null","<p style=""font-size: 60px; font-family: BACS"">dRbDblRE</p>","","","","","","","","",""
"html-keyboard-response","122","355955","0.0-10.0-0.33","6107d788163252e3b5c348e3","650c16f0f2faf8d7a0d14c09","651c1c71a61bd918ce457665","null","null","<p style=""font-size: 60px; font-family: BACS"">advYOZckv</p>","","","","","","","","",""
"html-keyboard-response","123","356970","0.0-10.0-0.34","6107d788163252e3b5c348e3","650c16f0f2faf8d7a0d14c09","651c1c71a61bd918ce457665","null","null","<p style=""font-size: 60px; font-family: BACS"">dRbDbAPT</p>","","","","","","","","",""
"html-keyboard-response","124","357986","0.0-10.0-0.35","6107d788163252e3b5c348e3","650c16f0f2faf8d7a0d14c09","651c1c71a61bd918ce457665","null","null","<p style=""font-size: 60px; font-family: BACS"">MlthCdt</p>","","","","","","","","",""
"html-keyboard-response","125","359002","0.0-10.0-0.36","6107d788163252e3b5c348e3","650c16f0f2faf8d7a0d14c09","651c1c71a61bd918ce457665","null","null","<p style=""font-size: 60px; font-family: BACS"">mUOcOJQA</p>","","","","","","","","",""
"html-keyboard-response","126","360018","0.0-10.0-0.37","6107d788163252e3b5c348e3","650c16f0f2faf8d7a0d14c09","651c1c71a61bd918ce457665","null","null","<p style=""font-size: 60px; font-family: BACS"">YadrGlu</p>","","","","","","","","",""
"html-keyboard-response","127","361034","0.0-10.0-0.38","6107d788163252e3b5c348e3","650c16f0f2faf8d7a0d14c09","651c1c71a61bd918ce457665","null","null","<p style=""font-size: 60px; font-family: BACS"">KBKBEcPK</p>","","","","","","","","",""
"html-keyboard-response","128","362050","0.0-10.0-0.39","6107d788163252e3b5c348e3","650c16f0f2faf8d7a0d14c09","651c1c71a61bd918ce457665","null","null","<p style=""font-size: 60px; font-family: BACS"">NQZvYaOk</p>","","","","","","","","",""
"html-keyboard-response","129","363065","0.0-10.0-0.40","6107d788163252e3b5c348e3","650c16f0f2faf8d7a0d14c09","651c1c71a61bd918ce457665","null","null","<p style=""font-size: 60px; font-family: BACS"">PEtEcPK</p>","","","","","","","","",""
"html-keyboard-response","130","364081","0.0-10.0-0.41","6107d788163252e3b5c348e3","650c16f0f2faf8d7a0d14c09","651c1c71a61bd918ce457665","null","null","<p style=""font-size: 60px; font-family: BACS"">YKRklRE</p>","","","","","","","","",""
"html-keyboard-response","131","365097","0.0-10.0-0.42","6107d788163252e3b5c348e3","650c16f0f2faf8d7a0d14c09","651c1c71a61bd918ce457665","null","null","<p style=""font-size: 60px; font-family: BACS"">NQZvYmb</p>","","","","","","","","",""
"html-keyboard-response","132","366112","0.0-10.0-0.43","6107d788163252e3b5c348e3","650c16f0f2faf8d7a0d14c09","651c1c71a61bd918ce457665","null","null","<p style=""font-size: 60px; font-family: BACS"">lcOcJQA</p>","","","","","","","","",""
"html-keyboard-response","133","367117","0.0-10.0-0.44","6107d788163252e3b5c348e3","650c16f0f2faf8d7a0d14c09","651c1c71a61bd918ce457665","null","null","<p style=""font-size: 60px; font-family: BACS"">KBKBECdt</p>","","","","","","","","",""
"html-keyboard-response","134","368127","0.0-10.0-0.45","6107d788163252e3b5c348e3","650c16f0f2faf8d7a0d14c09","651c1c71a61bd918ce457665","null","null","<p style=""font-size: 60px; font-family: BACS"">ObZbAJQA</p>","","","","","","","","",""
"html-keyboard-response","135","369143","0.0-10.0-0.46","6107d788163252e3b5c348e3","650c16f0f2faf8d7a0d14c09","651c1c71a61bd918ce457665","null","null","<p style=""font-size: 60px; font-family: BACS"">EYtYRBRDh</p>","","","","","","","","",""
"html-keyboard-response","136","370159","0.0-10.0-0.47","6107d788163252e3b5c348e3","650c16f0f2faf8d7a0d14c09","651c1c71a61bd918ce457665","null","null","<p style=""font-size: 60px; font-family: BACS"">lbBDEcPK</p>","","","","","","","","",""
"html-keyboard-response","137","371175","0.0-10.0-0.48","6107d788163252e3b5c348e3","650c16f0f2faf8d7a0d14c09","651c1c71a61bd918ce457665","null","null","<p style=""font-size: 60px; font-family: BACS"">MlthAPT</p>","","","","","","","","",""
"html-keyboard-response","138","372190","0.0-10.0-0.49","6107d788163252e3b5c348e3","650c16f0f2faf8d7a0d14c09","651c1c71a61bd918ce457665","null","null","<p style=""font-size: 60px; font-family: BACS"">lkAkZckv</p>","","","","","","","","",""
"html-keyboard-response","139","373206","0.0-10.0-0.50","6107d788163252e3b5c348e3","650c16f0f2faf8d7a0d14c09","651c1c71a61bd918ce457665","null","null","<p style=""font-size: 60px; font-family: BACS"">MhKdCdt</p>","","","","","","","","",""
"html-keyboard-response","140","374221","0.0-10.0-0.51","6107d788163252e3b5c348e3","650c16f0f2faf8d7a0d14c09","651c1c71a61bd918ce457665","null","null","<p style=""font-size: 60px; font-family: BACS"">MlthBRDh</p>","","","","","","","","",""
"html-keyboard-response","141","375238","0.0-10.0-0.52","6107d788163252e3b5c348e3","650c16f0f2faf8d7a0d14c09","651c1c71a61bd918ce457665","null","null","<p style=""font-size: 60px; font-family: BACS"">lYruaYmb</p>","","","","","","","","",""
"html-keyboard-response","142","376253","0.0-10.0-0.53","6107d788163252e3b5c348e3","650c16f0f2faf8d7a0d14c09","651c1c71a61bd918ce457665","null","null","<p style=""font-size: 60px; font-family: BACS"">PEtElRE</p>","","","","","","","","",""
"html-keyboard-response","143","377269","0.0-10.0-0.54","6107d788163252e3b5c348e3","650c16f0f2faf8d7a0d14c09","651c1c71a61bd918ce457665","null","null","<p style=""font-size: 60px; font-family: BACS"">ECtbDcPK</p>","","","","","","","","",""
"html-keyboard-response","144","378284","0.0-10.0-0.55","6107d788163252e3b5c348e3","650c16f0f2faf8d7a0d14c09","651c1c71a61bd918ce457665","null","null","<p style=""font-size: 60px; font-family: BACS"">lYruaZckv</p>","","","","","","","","",""
"html-keyboard-response","145","379300","0.0-10.0-0.56","6107d788163252e3b5c348e3","650c16f0f2faf8d7a0d14c09","651c1c71a61bd918ce457665","null","null","<p style=""font-size: 60px; font-family: BACS"">PEtEAPT</p>","","","","","","","","",""
"html-keyboard-response","146","380317","0.0-10.0-0.57","6107d788163252e3b5c348e3","650c16f0f2faf8d7a0d14c09","651c1c71a61bd918ce457665","null","null","<p style=""font-size: 60px; font-family: BACS"">NQZvZckv</p>","","","","","","","","",""
"html-keyboard-response","147","381330","0.0-10.0-0.58","6107d788163252e3b5c348e3","650c16f0f2faf8d7a0d14c09","651c1c71a61bd918ce457665","null","null","<p style=""font-size: 60px; font-family: BACS"">uQkrdYaOk</p>","","","","","","","","",""
"html-keyboard-response","148","382332","0.0-10.0-0.59","6107d788163252e3b5c348e3","650c16f0f2faf8d7a0d14c09","651c1c71a61bd918ce457665","null","null","<p style=""font-size: 60px; font-family: BACS"">advYOJQA</p>","","","","","","","","",""
"html-keyboard-response","149","383347","0.0-10.0-0.60","6107d788163252e3b5c348e3","650c16f0f2faf8d7a0d14c09","651c1c71a61bd918ce457665","null","null","<p style=""font-size: 60px; font-family: BACS"">lcOcGlu</p>","","","","","","","","",""
"html-keyboard-response","150","384363","0.0-10.0-0.61","6107d788163252e3b5c348e3","650c16f0f2faf8d7a0d14c09","651c1c71a61bd918ce457665","null","null","<p style=""font-size: 60px; font-family: BACS"">LckGNZckv</p>","","","","","","","","",""
"html-keyboard-response","151","385379","0.0-10.0-0.62","6107d788163252e3b5c348e3","650c16f0f2faf8d7a0d14c09","651c1c71a61bd918ce457665","null","null","<p style=""font-size: 60px; font-family: BACS"">lbBDEBRDh</p>","","","","","","","","",""
"html-keyboard-response","152","386396","0.0-10.0-0.63","6107d788163252e3b5c348e3","650c16f0f2faf8d7a0d14c09","651c1c71a61bd918ce457665","null","null","<p style=""font-size: 60px; font-family: BACS"">lYruaGlu</p>","","","","","","","","",""
"html-keyboard-response","153","387412","0.0-10.0-0.64","6107d788163252e3b5c348e3","650c16f0f2faf8d7a0d14c09","651c1c71a61bd918ce457665","null","null","<p style=""font-size: 60px; font-family: BACS"">ObZbAYmb</p>","","","","","","","","",""
"html-keyboard-response","154","388424","0.0-10.0-0.65","6107d788163252e3b5c348e3","650c16f0f2faf8d7a0d14c09","651c1c71a61bd918ce457665","null","null","<p style=""font-size: 60px; font-family: BACS"">DMRPCdt</p>","","","","","","","","",""
"html-keyboard-response","155","389425","0.0-10.0-0.66","6107d788163252e3b5c348e3","650c16f0f2faf8d7a0d14c09","651c1c71a61bd918ce457665","null","null","<p style=""font-size: 60px; font-family: BACS"">lbBDEAPT</p>","","","","","","","","",""
"html-keyboard-response","156","390441","0.0-10.0-0.67","6107d788163252e3b5c348e3","650c16f0f2faf8d7a0d14c09","651c1c71a61bd918ce457665","null","null","<p style=""font-size: 60px; font-family: BACS"">LckGNGlu</p>","","","","","","","","",""
"html-keyboard-response","157","391457","0.0-10.0-0.68","6107d788163252e3b5c348e3","650c16f0f2faf8d7a0d14c09","651c1c71a61bd918ce457665","null","null","<p style=""font-size: 60px; font-family: BACS"">MhKdlRE</p>","","","","","","","","",""
"html-keyboard-response","158","392472","0.0-10.0-0.69","6107d788163252e3b5c348e3","650c16f0f2faf8d7a0d14c09","651c1c71a61bd918ce457665","null","null","<p style=""font-size: 60px; font-family: BACS"">DMRPcPK</p>","","","","","","","","",""
"html-keyboard-response","159","393488","0.0-10.0-0.70","6107d788163252e3b5c348e3","650c16f0f2faf8d7a0d14c09","651c1c71a61bd918ce457665","null","null","<p style=""font-size: 60px; font-family: BACS"">YadrZckv</p>","","","","","","","","",""
"html-keyboard-response","160","394494","0.0-10.0-0.71","6107d788163252e3b5c348e3","650c16f0f2faf8d7a0d14c09","651c1c71a61bd918ce457665","null","null","<p style=""font-size: 60px; font-family: BACS"">lcOcYaOk</p>","","","","","","","","",""
"html-keyboard-response","161","395505","0.0-10.0-0.72","6107d788163252e3b5c348e3","650c16f0f2faf8d7a0d14c09","651c1c71a61bd918ce457665","null","null","<p style=""font-size: 60px; font-family: BACS"">uQkrdGlu</p>","","","","","","","","",""
"html-keyboard-response","162","396520","0.0-10.0-0.73","6107d788163252e3b5c348e3","650c16f0f2faf8d7a0d14c09","651c1c71a61bd918ce457665","null","null","<p style=""font-size: 60px; font-family: BACS"">advYOYaOk</p>","","","","","","","","",""
"html-keyboard-response","163","397535","0.0-10.0-0.74","6107d788163252e3b5c348e3","650c16f0f2faf8d7a0d14c09","651c1c71a61bd918ce457665","null","null","<p style=""font-size: 60px; font-family: BACS"">lkAkGlu</p>","","","","","","","","",""
"html-keyboard-response","164","398550","0.0-10.0-0.75","6107d788163252e3b5c348e3","650c16f0f2faf8d7a0d14c09","651c1c71a61bd918ce457665","null","null","<p style=""font-size: 60px; font-family: BACS"">uQkrdYmb</p>","","","","","","","","",""
"html-keyboard-response","165","399566","0.0-10.0-0.76","6107d788163252e3b5c348e3","650c16f0f2faf8d7a0d14c09","651c1c71a61bd918ce457665","null","null","<p style=""font-size: 60px; font-family: BACS"">ObZbAYaOk</p>","","","","","","","","",""
"html-keyboard-response","166","400581","0.0-10.0-0.77","6107d788163252e3b5c348e3","650c16f0f2faf8d7a0d14c09","651c1c71a61bd918ce457665","null","null","<p style=""font-size: 60px; font-family: BACS"">LckGNYmb</p>","","","","","","","","",""
"html-keyboard-response","167","401587","0.0-10.0-0.78","6107d788163252e3b5c348e3","650c16f0f2faf8d7a0d14c09","651c1c71a61bd918ce457665","null","null","<p style=""font-size: 60px; font-family: BACS"">ECtbDCdt</p>","","","","","","","","",""
"html-keyboard-response","168","402597","0.0-10.0-0.79","6107d788163252e3b5c348e3","650c16f0f2faf8d7a0d14c09","651c1c71a61bd918ce457665","null","null","<p style=""font-size: 60px; font-family: BACS"">lkAkYmb</p>","","","","","","","","",""
"html-keyboard-response","169","411755","0.0-11.0","6107d788163252e3b5c348e3","650c16f0f2faf8d7a0d14c09","651c1c71a61bd918ce457665","9157"," ","<p>Great, you've seen the second block of words. You may now take a short break.</p>
      <p>Press the spacebar when you're ready to continue.</p>","","","","","","","","",""
"html-keyboard-response","170","412771","0.0-12.0-0.0","6107d788163252e3b5c348e3","650c16f0f2faf8d7a0d14c09","651c1c71a61bd918ce457665","null","null","<p style=""font-size: 60px; font-family: BACS"">LckGNGlu</p>","","","","","","","","",""
"html-keyboard-response","171","413772","0.0-12.0-0.1","6107d788163252e3b5c348e3","650c16f0f2faf8d7a0d14c09","651c1c71a61bd918ce457665","null","null","<p style=""font-size: 60px; font-family: BACS"">EYtYRlRE</p>","","","","","","","","",""
"html-keyboard-response","172","414787","0.0-12.0-0.2","6107d788163252e3b5c348e3","650c16f0f2faf8d7a0d14c09","651c1c71a61bd918ce457665","null","null","<p style=""font-size: 60px; font-family: BACS"">ECtbDBRDh</p>","","","","","","","","",""
"html-keyboard-response","173","415802","0.0-12.0-0.3","6107d788163252e3b5c348e3","650c16f0f2faf8d7a0d14c09","651c1c71a61bd918ce457665","null","null","<p style=""font-size: 60px; font-family: BACS"">mUOcOGlu</p>","","","","","","","","",""
"html-keyboard-response","174","416818","0.0-12.0-0.4","6107d788163252e3b5c348e3","650c16f0f2faf8d7a0d14c09","651c1c71a61bd918ce457665","null","null","<p style=""font-size: 60px; font-family: BACS"">lbBDEAPT</p>","","","","","","","","",""
"html-keyboard-response","175","417834","0.0-12.0-0.5","6107d788163252e3b5c348e3","650c16f0f2faf8d7a0d14c09","651c1c71a61bd918ce457665","null","null","<p style=""font-size: 60px; font-family: BACS"">advYOJQA</p>","","","","","","","","",""
"html-keyboard-response","176","418850","0.0-12.0-0.6","6107d788163252e3b5c348e3","650c16f0f2faf8d7a0d14c09","651c1c71a61bd918ce457665","null","null","<p style=""font-size: 60px; font-family: BACS"">MlthBRDh</p>","","","","","","","","",""
"html-keyboard-response","177","419861","0.0-12.0-0.7","6107d788163252e3b5c348e3","650c16f0f2faf8d7a0d14c09","651c1c71a61bd918ce457665","null","null","<p style=""font-size: 60px; font-family: BACS"">NQZvZckv</p>","","","","","","","","",""
"html-keyboard-response","178","420865","0.0-12.0-0.8","6107d788163252e3b5c348e3","650c16f0f2faf8d7a0d14c09","651c1c71a61bd918ce457665","null","null","<p style=""font-size: 60px; font-family: BACS"">EYtYRCdt</p>","","","","","","","","",""
"html-keyboard-response","179","421866","0.0-12.0-0.9","6107d788163252e3b5c348e3","650c16f0f2faf8d7a0d14c09","651c1c71a61bd918ce457665","null","null","<p style=""font-size: 60px; font-family: BACS"">lcOcGlu</p>","","","","","","","","",""
"html-keyboard-response","180","422880","0.0-12.0-0.10","6107d788163252e3b5c348e3","650c16f0f2faf8d7a0d14c09","651c1c71a61bd918ce457665","null","null","<p style=""font-size: 60px; font-family: BACS"">YadrYmb</p>","","","","","","","","",""
"html-keyboard-response","181","423896","0.0-12.0-0.11","6107d788163252e3b5c348e3","650c16f0f2faf8d7a0d14c09","651c1c71a61bd918ce457665","null","null","<p style=""font-size: 60px; font-family: BACS"">ECtbDlRE</p>","","","","","","","","",""
"html-keyboard-response","182","424912","0.0-12.0-0.12","6107d788163252e3b5c348e3","650c16f0f2faf8d7a0d14c09","651c1c71a61bd918ce457665","null","null","<p style=""font-size: 60px; font-family: BACS"">lYruaYaOk</p>","","","","","","","","",""
"html-keyboard-response","183","425927","0.0-12.0-0.13","6107d788163252e3b5c348e3","650c16f0f2faf8d7a0d14c09","651c1c71a61bd918ce457665","null","null","<p style=""font-size: 60px; font-family: BACS"">lkAkZckv</p>","","","","","","","","",""
"html-keyboard-response","184","426942","0.0-12.0-0.14","6107d788163252e3b5c348e3","650c16f0f2faf8d7a0d14c09","651c1c71a61bd918ce457665","null","null","<p style=""font-size: 60px; font-family: BACS"">dRbDblRE</p>","","","","","","","","",""
"html-keyboard-response","185","427958","0.0-12.0-0.15","6107d788163252e3b5c348e3","650c16f0f2faf8d7a0d14c09","651c1c71a61bd918ce457665","null","null","<p style=""font-size: 60px; font-family: BACS"">lcOcYaOk</p>","","","","","","","","",""
"html-keyboard-response","186","428975","0.0-12.0-0.16","6107d788163252e3b5c348e3","650c16f0f2faf8d7a0d14c09","651c1c71a61bd918ce457665","null","null","<p style=""font-size: 60px; font-family: BACS"">lYruaYmb</p>","","","","","","","","",""
"html-keyboard-response","187","429990","0.0-12.0-0.17","6107d788163252e3b5c348e3","650c16f0f2faf8d7a0d14c09","651c1c71a61bd918ce457665","null","null","<p style=""font-size: 60px; font-family: BACS"">MhKdlRE</p>","","","","","","","","",""
"html-keyboard-response","188","431006","0.0-12.0-0.18","6107d788163252e3b5c348e3","650c16f0f2faf8d7a0d14c09","651c1c71a61bd918ce457665","null","null","<p style=""font-size: 60px; font-family: BACS"">lkAkGlu</p>","","","","","","","","",""
"html-keyboard-response","189","432022","0.0-12.0-0.19","6107d788163252e3b5c348e3","650c16f0f2faf8d7a0d14c09","651c1c71a61bd918ce457665","null","null","<p style=""font-size: 60px; font-family: BACS"">lcOcJQA</p>","","","","","","","","",""
"html-keyboard-response","190","433037","0.0-12.0-0.20","6107d788163252e3b5c348e3","650c16f0f2faf8d7a0d14c09","651c1c71a61bd918ce457665","null","null","<p style=""font-size: 60px; font-family: BACS"">ObZbAYaOk</p>","","","","","","","","",""
"html-keyboard-response","191","434054","0.0-12.0-0.21","6107d788163252e3b5c348e3","650c16f0f2faf8d7a0d14c09","651c1c71a61bd918ce457665","null","null","<p style=""font-size: 60px; font-family: BACS"">DMRPlRE</p>","","","","","","","","",""
"html-keyboard-response","192","435069","0.0-12.0-0.22","6107d788163252e3b5c348e3","650c16f0f2faf8d7a0d14c09","651c1c71a61bd918ce457665","null","null","<p style=""font-size: 60px; font-family: BACS"">MhKdAPT</p>","","","","","","","","",""
"html-keyboard-response","193","436084","0.0-12.0-0.23","6107d788163252e3b5c348e3","650c16f0f2faf8d7a0d14c09","651c1c71a61bd918ce457665","null","null","<p style=""font-size: 60px; font-family: BACS"">MlthCdt</p>","","","","","","","","",""
"html-keyboard-response","194","437100","0.0-12.0-0.24","6107d788163252e3b5c348e3","650c16f0f2faf8d7a0d14c09","651c1c71a61bd918ce457665","null","null","<p style=""font-size: 60px; font-family: BACS"">DMRPAPT</p>","","","","","","","","",""
"html-keyboard-response","195","438116","0.0-12.0-0.25","6107d788163252e3b5c348e3","650c16f0f2faf8d7a0d14c09","651c1c71a61bd918ce457665","null","null","<p style=""font-size: 60px; font-family: BACS"">ECtbDcPK</p>","","","","","","","","",""
"html-keyboard-response","196","439131","0.0-12.0-0.26","6107d788163252e3b5c348e3","650c16f0f2faf8d7a0d14c09","651c1c71a61bd918ce457665","null","null","<p style=""font-size: 60px; font-family: BACS"">YKRkCdt</p>","","","","","","","","",""
"html-keyboard-response","197","440148","0.0-12.0-0.27","6107d788163252e3b5c348e3","650c16f0f2faf8d7a0d14c09","651c1c71a61bd918ce457665","null","null","<p style=""font-size: 60px; font-family: BACS"">lbBDEcPK</p>","","","","","","","","",""
"html-keyboard-response","198","441153","0.0-12.0-0.28","6107d788163252e3b5c348e3","650c16f0f2faf8d7a0d14c09","651c1c71a61bd918ce457665","null","null","<p style=""font-size: 60px; font-family: BACS"">ECtbDCdt</p>","","","","","","","","",""
"html-keyboard-response","199","442163","0.0-12.0-0.29","6107d788163252e3b5c348e3","650c16f0f2faf8d7a0d14c09","651c1c71a61bd918ce457665","null","null","<p style=""font-size: 60px; font-family: BACS"">dRbDbBRDh</p>","","","","","","","","",""
"html-keyboard-response","200","443180","0.0-12.0-0.30","6107d788163252e3b5c348e3","650c16f0f2faf8d7a0d14c09","651c1c71a61bd918ce457665","null","null","<p style=""font-size: 60px; font-family: BACS"">advYOZckv</p>","","","","","","","","",""
"html-keyboard-response","201","444195","0.0-12.0-0.31","6107d788163252e3b5c348e3","650c16f0f2faf8d7a0d14c09","651c1c71a61bd918ce457665","null","null","<p style=""font-size: 60px; font-family: BACS"">PEtElRE</p>","","","","","","","","",""
"html-keyboard-response","202","445211","0.0-12.0-0.32","6107d788163252e3b5c348e3","650c16f0f2faf8d7a0d14c09","651c1c71a61bd918ce457665","null","null","<p style=""font-size: 60px; font-family: BACS"">NQZvJQA</p>","","","","","","","","",""
"html-keyboard-response","203","446227","0.0-12.0-0.33","6107d788163252e3b5c348e3","650c16f0f2faf8d7a0d14c09","651c1c71a61bd918ce457665","null","null","<p style=""font-size: 60px; font-family: BACS"">dRbDbcPK</p>","","","","","","","","",""
"html-keyboard-response","204","447243","0.0-12.0-0.34","6107d788163252e3b5c348e3","650c16f0f2faf8d7a0d14c09","651c1c71a61bd918ce457665","null","null","<p style=""font-size: 60px; font-family: BACS"">lkAkYmb</p>","","","","","","","","",""
"html-keyboard-response","205","448253","0.0-12.0-0.35","6107d788163252e3b5c348e3","650c16f0f2faf8d7a0d14c09","651c1c71a61bd918ce457665","null","null","<p style=""font-size: 60px; font-family: BACS"">uQkrdJQA</p>","","","","","","","","",""
"html-keyboard-response","206","449257","0.0-12.0-0.36","6107d788163252e3b5c348e3","650c16f0f2faf8d7a0d14c09","651c1c71a61bd918ce457665","null","null","<p style=""font-size: 60px; font-family: BACS"">lbBDEBRDh</p>","","","","","","","","",""
"html-keyboard-response","207","450273","0.0-12.0-0.37","6107d788163252e3b5c348e3","650c16f0f2faf8d7a0d14c09","651c1c71a61bd918ce457665","null","null","<p style=""font-size: 60px; font-family: BACS"">NQZvYmb</p>","","","","","","","","",""
"html-keyboard-response","208","451289","0.0-12.0-0.38","6107d788163252e3b5c348e3","650c16f0f2faf8d7a0d14c09","651c1c71a61bd918ce457665","null","null","<p style=""font-size: 60px; font-family: BACS"">LckGNYaOk</p>","","","","","","","","",""
"html-keyboard-response","209","452305","0.0-12.0-0.39","6107d788163252e3b5c348e3","650c16f0f2faf8d7a0d14c09","651c1c71a61bd918ce457665","null","null","<p style=""font-size: 60px; font-family: BACS"">lbBDECdt</p>","","","","","","","","",""
"html-keyboard-response","210","453319","0.0-12.0-0.40","6107d788163252e3b5c348e3","650c16f0f2faf8d7a0d14c09","651c1c71a61bd918ce457665","null","null","<p style=""font-size: 60px; font-family: BACS"">KBKBEAPT</p>","","","","","","","","",""
"html-keyboard-response","211","454335","0.0-12.0-0.41","6107d788163252e3b5c348e3","650c16f0f2faf8d7a0d14c09","651c1c71a61bd918ce457665","null","null","<p style=""font-size: 60px; font-family: BACS"">ObZbAYmb</p>","","","","","","","","",""
"html-keyboard-response","212","455346","0.0-12.0-0.42","6107d788163252e3b5c348e3","650c16f0f2faf8d7a0d14c09","651c1c71a61bd918ce457665","null","null","<p style=""font-size: 60px; font-family: BACS"">YadrGlu</p>","","","","","","","","",""
"html-keyboard-response","213","456350","0.0-12.0-0.43","6107d788163252e3b5c348e3","650c16f0f2faf8d7a0d14c09","651c1c71a61bd918ce457665","null","null","<p style=""font-size: 60px; font-family: BACS"">KBKBECdt</p>","","","","","","","","",""
"html-keyboard-response","214","457366","0.0-12.0-0.44","6107d788163252e3b5c348e3","650c16f0f2faf8d7a0d14c09","651c1c71a61bd918ce457665","null","null","<p style=""font-size: 60px; font-family: BACS"">PEtEAPT</p>","","","","","","","","",""
"html-keyboard-response","215","458382","0.0-12.0-0.45","6107d788163252e3b5c348e3","650c16f0f2faf8d7a0d14c09","651c1c71a61bd918ce457665","null","null","<p style=""font-size: 60px; font-family: BACS"">MhKdBRDh</p>","","","","","","","","",""
"html-keyboard-response","216","459398","0.0-12.0-0.46","6107d788163252e3b5c348e3","650c16f0f2faf8d7a0d14c09","651c1c71a61bd918ce457665","null","null","<p style=""font-size: 60px; font-family: BACS"">MlthAPT</p>","","","","","","","","",""
"html-keyboard-response","217","460414","0.0-12.0-0.47","6107d788163252e3b5c348e3","650c16f0f2faf8d7a0d14c09","651c1c71a61bd918ce457665","null","null","<p style=""font-size: 60px; font-family: BACS"">PEtEBRDh</p>","","","","","","","","",""
"html-keyboard-response","218","461416","0.0-12.0-0.48","6107d788163252e3b5c348e3","650c16f0f2faf8d7a0d14c09","651c1c71a61bd918ce457665","null","null","<p style=""font-size: 60px; font-family: BACS"">YKRkAPT</p>","","","","","","","","",""
"html-keyboard-response","219","462424","0.0-12.0-0.49","6107d788163252e3b5c348e3","650c16f0f2faf8d7a0d14c09","651c1c71a61bd918ce457665","null","null","<p style=""font-size: 60px; font-family: BACS"">KBKBEcPK</p>","","","","","","","","",""
"html-keyboard-response","220","463428","0.0-12.0-0.50","6107d788163252e3b5c348e3","650c16f0f2faf8d7a0d14c09","651c1c71a61bd918ce457665","null","null","<p style=""font-size: 60px; font-family: BACS"">DMRPCdt</p>","","","","","","","","",""
"html-keyboard-response","221","464444","0.0-12.0-0.51","6107d788163252e3b5c348e3","650c16f0f2faf8d7a0d14c09","651c1c71a61bd918ce457665","null","null","<p style=""font-size: 60px; font-family: BACS"">lYruaGlu</p>","","","","","","","","",""
"html-keyboard-response","222","465460","0.0-12.0-0.52","6107d788163252e3b5c348e3","650c16f0f2faf8d7a0d14c09","651c1c71a61bd918ce457665","null","null","<p style=""font-size: 60px; font-family: BACS"">ObZbAJQA</p>","","","","","","","","",""
"html-keyboard-response","223","466475","0.0-12.0-0.53","6107d788163252e3b5c348e3","650c16f0f2faf8d7a0d14c09","651c1c71a61bd918ce457665","null","null","<p style=""font-size: 60px; font-family: BACS"">LckGNZckv</p>","","","","","","","","",""
"html-keyboard-response","224","467491","0.0-12.0-0.54","6107d788163252e3b5c348e3","650c16f0f2faf8d7a0d14c09","651c1c71a61bd918ce457665","null","null","<p style=""font-size: 60px; font-family: BACS"">advYOGlu</p>","","","","","","","","",""
"html-keyboard-response","225","468507","0.0-12.0-0.55","6107d788163252e3b5c348e3","650c16f0f2faf8d7a0d14c09","651c1c71a61bd918ce457665","null","null","<p style=""font-size: 60px; font-family: BACS"">EYtYRcPK</p>","","","","","","","","",""
"html-keyboard-response","226","469522","0.0-12.0-0.56","6107d788163252e3b5c348e3","650c16f0f2faf8d7a0d14c09","651c1c71a61bd918ce457665","null","null","<p style=""font-size: 60px; font-family: BACS"">mUOcOZckv</p>","","","","","","","","",""
"html-keyboard-response","227","470538","0.0-12.0-0.57","6107d788163252e3b5c348e3","650c16f0f2faf8d7a0d14c09","651c1c71a61bd918ce457665","null","null","<p style=""font-size: 60px; font-family: BACS"">MhKdCdt</p>","","","","","","","","",""
"html-keyboard-response","228","471554","0.0-12.0-0.58","6107d788163252e3b5c348e3","650c16f0f2faf8d7a0d14c09","651c1c71a61bd918ce457665","null","null","<p style=""font-size: 60px; font-family: BACS"">lcOcYmb</p>","","","","","","","","",""
"html-keyboard-response","229","472561","0.0-12.0-0.59","6107d788163252e3b5c348e3","650c16f0f2faf8d7a0d14c09","651c1c71a61bd918ce457665","null","null","<p style=""font-size: 60px; font-family: BACS"">ObZbAZckv</p>","","","","","","","","",""
"html-keyboard-response","230","473570","0.0-12.0-0.60","6107d788163252e3b5c348e3","650c16f0f2faf8d7a0d14c09","651c1c71a61bd918ce457665","null","null","<p style=""font-size: 60px; font-family: BACS"">lkAkJQA</p>","","","","","","","","",""
"html-keyboard-response","231","474585","0.0-12.0-0.61","6107d788163252e3b5c348e3","650c16f0f2faf8d7a0d14c09","651c1c71a61bd918ce457665","null","null","<p style=""font-size: 60px; font-family: BACS"">NQZvYaOk</p>","","","","","","","","",""
"html-keyboard-response","232","475600","0.0-12.0-0.62","6107d788163252e3b5c348e3","650c16f0f2faf8d7a0d14c09","651c1c71a61bd918ce457665","null","null","<p style=""font-size: 60px; font-family: BACS"">YadrJQA</p>","","","","","","","","",""
"html-keyboard-response","233","476615","0.0-12.0-0.63","6107d788163252e3b5c348e3","650c16f0f2faf8d7a0d14c09","651c1c71a61bd918ce457665","null","null","<p style=""font-size: 60px; font-family: BACS"">DMRPcPK</p>","","","","","","","","",""
"html-keyboard-response","234","477631","0.0-12.0-0.64","6107d788163252e3b5c348e3","650c16f0f2faf8d7a0d14c09","651c1c71a61bd918ce457665","null","null","<p style=""font-size: 60px; font-family: BACS"">YadrZckv</p>","","","","","","","","",""
"html-keyboard-response","235","478647","0.0-12.0-0.65","6107d788163252e3b5c348e3","650c16f0f2faf8d7a0d14c09","651c1c71a61bd918ce457665","null","null","<p style=""font-size: 60px; font-family: BACS"">LckGNYmb</p>","","","","","","","","",""
"html-keyboard-response","236","479653","0.0-12.0-0.66","6107d788163252e3b5c348e3","650c16f0f2faf8d7a0d14c09","651c1c71a61bd918ce457665","null","null","<p style=""font-size: 60px; font-family: BACS"">uQkrdGlu</p>","","","","","","","","",""
"html-keyboard-response","237","480663","0.0-12.0-0.67","6107d788163252e3b5c348e3","650c16f0f2faf8d7a0d14c09","651c1c71a61bd918ce457665","null","null","<p style=""font-size: 60px; font-family: BACS"">dRbDbAPT</p>","","","","","","","","",""
"html-keyboard-response","238","481678","0.0-12.0-0.68","6107d788163252e3b5c348e3","650c16f0f2faf8d7a0d14c09","651c1c71a61bd918ce457665","null","null","<p style=""font-size: 60px; font-family: BACS"">YKRkBRDh</p>","","","","","","","","",""
"html-keyboard-response","239","482693","0.0-12.0-0.69","6107d788163252e3b5c348e3","650c16f0f2faf8d7a0d14c09","651c1c71a61bd918ce457665","null","null","<p style=""font-size: 60px; font-family: BACS"">uQkrdYaOk</p>","","","","","","","","",""
"html-keyboard-response","240","483709","0.0-12.0-0.70","6107d788163252e3b5c348e3","650c16f0f2faf8d7a0d14c09","651c1c71a61bd918ce457665","null","null","<p style=""font-size: 60px; font-family: BACS"">MlthcPK</p>","","","","","","","","",""
"html-keyboard-response","241","484725","0.0-12.0-0.71","6107d788163252e3b5c348e3","650c16f0f2faf8d7a0d14c09","651c1c71a61bd918ce457665","null","null","<p style=""font-size: 60px; font-family: BACS"">uQkrdYmb</p>","","","","","","","","",""
"html-keyboard-response","242","485740","0.0-12.0-0.72","6107d788163252e3b5c348e3","650c16f0f2faf8d7a0d14c09","651c1c71a61bd918ce457665","null","null","<p style=""font-size: 60px; font-family: BACS"">PEtEcPK</p>","","","","","","","","",""
"html-keyboard-response","243","486755","0.0-12.0-0.73","6107d788163252e3b5c348e3","650c16f0f2faf8d7a0d14c09","651c1c71a61bd918ce457665","null","null","<p style=""font-size: 60px; font-family: BACS"">mUOcOYaOk</p>","","","","","","","","",""
"html-keyboard-response","244","487758","0.0-12.0-0.74","6107d788163252e3b5c348e3","650c16f0f2faf8d7a0d14c09","651c1c71a61bd918ce457665","null","null","<p style=""font-size: 60px; font-family: BACS"">YKRklRE</p>","","","","","","","","",""
"html-keyboard-response","245","488772","0.0-12.0-0.75","6107d788163252e3b5c348e3","650c16f0f2faf8d7a0d14c09","651c1c71a61bd918ce457665","null","null","<p style=""font-size: 60px; font-family: BACS"">lYruaZckv</p>","","","","","","","","",""
"html-keyboard-response","246","489788","0.0-12.0-0.76","6107d788163252e3b5c348e3","650c16f0f2faf8d7a0d14c09","651c1c71a61bd918ce457665","null","null","<p style=""font-size: 60px; font-family: BACS"">EYtYRBRDh</p>","","","","","","","","",""
"html-keyboard-response","247","490804","0.0-12.0-0.77","6107d788163252e3b5c348e3","650c16f0f2faf8d7a0d14c09","651c1c71a61bd918ce457665","null","null","<p style=""font-size: 60px; font-family: BACS"">mUOcOJQA</p>","","","","","","","","",""
"html-keyboard-response","248","491819","0.0-12.0-0.78","6107d788163252e3b5c348e3","650c16f0f2faf8d7a0d14c09","651c1c71a61bd918ce457665","null","null","<p style=""font-size: 60px; font-family: BACS"">KBKBElRE</p>","","","","","","","","",""
"html-keyboard-response","249","492835","0.0-12.0-0.79","6107d788163252e3b5c348e3","650c16f0f2faf8d7a0d14c09","651c1c71a61bd918ce457665","null","null","<p style=""font-size: 60px; font-family: BACS"">advYOYaOk</p>","","","","","","","","",""
"html-keyboard-response","250","509356","0.0-13.0","6107d788163252e3b5c348e3","650c16f0f2faf8d7a0d14c09","651c1c71a61bd918ce457665","16521"," ","<p>Great, you've seen the third block of words. You may now take a short break.</p>
      <p>Press the spacebar when you're ready to continue.</p>","","","","","","","","",""
"html-keyboard-response","251","510369","0.0-14.0-0.0","6107d788163252e3b5c348e3","650c16f0f2faf8d7a0d14c09","651c1c71a61bd918ce457665","null","null","<p style=""font-size: 60px; font-family: BACS"">lYruaYaOk</p>","","","","","","","","",""
"html-keyboard-response","252","511370","0.0-14.0-0.1","6107d788163252e3b5c348e3","650c16f0f2faf8d7a0d14c09","651c1c71a61bd918ce457665","null","null","<p style=""font-size: 60px; font-family: BACS"">dRbDblRE</p>","","","","","","","","",""
"html-keyboard-response","253","512385","0.0-14.0-0.2","6107d788163252e3b5c348e3","650c16f0f2faf8d7a0d14c09","651c1c71a61bd918ce457665","null","null","<p style=""font-size: 60px; font-family: BACS"">MhKdBRDh</p>","","","","","","","","",""
"html-keyboard-response","254","513400","0.0-14.0-0.3","6107d788163252e3b5c348e3","650c16f0f2faf8d7a0d14c09","651c1c71a61bd918ce457665","null","null","<p style=""font-size: 60px; font-family: BACS"">mUOcOGlu</p>","","","","","","","","",""
"html-keyboard-response","255","514403","0.0-14.0-0.4","6107d788163252e3b5c348e3","650c16f0f2faf8d7a0d14c09","651c1c71a61bd918ce457665","null","null","<p style=""font-size: 60px; font-family: BACS"">MhKdAPT</p>","","","","","","","","",""
"html-keyboard-response","256","515408","0.0-14.0-0.5","6107d788163252e3b5c348e3","650c16f0f2faf8d7a0d14c09","651c1c71a61bd918ce457665","null","null","<p style=""font-size: 60px; font-family: BACS"">NQZvYmb</p>","","","","","","","","",""
"html-keyboard-response","257","516414","0.0-14.0-0.6","6107d788163252e3b5c348e3","650c16f0f2faf8d7a0d14c09","651c1c71a61bd918ce457665","null","null","<p style=""font-size: 60px; font-family: BACS"">YKRkAPT</p>","","","","","","","","",""
"html-keyboard-response","258","517430","0.0-14.0-0.7","6107d788163252e3b5c348e3","650c16f0f2faf8d7a0d14c09","651c1c71a61bd918ce457665","null","null","<p style=""font-size: 60px; font-family: BACS"">lbBDEcPK</p>","","","","","","","","",""
"html-keyboard-response","259","518446","0.0-14.0-0.8","6107d788163252e3b5c348e3","650c16f0f2faf8d7a0d14c09","651c1c71a61bd918ce457665","null","null","<p style=""font-size: 60px; font-family: BACS"">ECtbDBRDh</p>","","","","","","","","",""
"html-keyboard-response","260","519462","0.0-14.0-0.9","6107d788163252e3b5c348e3","650c16f0f2faf8d7a0d14c09","651c1c71a61bd918ce457665","null","null","<p style=""font-size: 60px; font-family: BACS"">EYtYRlRE</p>","","","","","","","","",""
"html-keyboard-response","261","520478","0.0-14.0-0.10","6107d788163252e3b5c348e3","650c16f0f2faf8d7a0d14c09","651c1c71a61bd918ce457665","null","null","<p style=""font-size: 60px; font-family: BACS"">DMRPcPK</p>","","","","","","","","",""
"html-keyboard-response","262","521484","0.0-14.0-0.11","6107d788163252e3b5c348e3","650c16f0f2faf8d7a0d14c09","651c1c71a61bd918ce457665","null","null","<p style=""font-size: 60px; font-family: BACS"">MlthBRDh</p>","","","","","","","","",""
"html-keyboard-response","263","522493","0.0-14.0-0.12","6107d788163252e3b5c348e3","650c16f0f2faf8d7a0d14c09","651c1c71a61bd918ce457665","null","null","<p style=""font-size: 60px; font-family: BACS"">advYOYaOk</p>","","","","","","","","",""
"html-keyboard-response","264","523508","0.0-14.0-0.13","6107d788163252e3b5c348e3","650c16f0f2faf8d7a0d14c09","651c1c71a61bd918ce457665","null","null","<p style=""font-size: 60px; font-family: BACS"">lcOcYmb</p>","","","","","","","","",""
"html-keyboard-response","265","524524","0.0-14.0-0.14","6107d788163252e3b5c348e3","650c16f0f2faf8d7a0d14c09","651c1c71a61bd918ce457665","null","null","<p style=""font-size: 60px; font-family: BACS"">dRbDbAPT</p>","","","","","","","","",""
"html-keyboard-response","266","525540","0.0-14.0-0.15","6107d788163252e3b5c348e3","650c16f0f2faf8d7a0d14c09","651c1c71a61bd918ce457665","null","null","<p style=""font-size: 60px; font-family: BACS"">ECtbDcPK</p>","","","","","","","","",""
"html-keyboard-response","267","526557","0.0-14.0-0.16","6107d788163252e3b5c348e3","650c16f0f2faf8d7a0d14c09","651c1c71a61bd918ce457665","null","null","<p style=""font-size: 60px; font-family: BACS"">LckGNYmb</p>","","","","","","","","",""
"html-keyboard-response","268","527572","0.0-14.0-0.17","6107d788163252e3b5c348e3","650c16f0f2faf8d7a0d14c09","651c1c71a61bd918ce457665","null","null","<p style=""font-size: 60px; font-family: BACS"">ObZbAYaOk</p>","","","","","","","","",""
"html-keyboard-response","269","528588","0.0-14.0-0.18","6107d788163252e3b5c348e3","650c16f0f2faf8d7a0d14c09","651c1c71a61bd918ce457665","null","null","<p style=""font-size: 60px; font-family: BACS"">KBKBECdt</p>","","","","","","","","",""
"html-keyboard-response","270","529603","0.0-14.0-0.19","6107d788163252e3b5c348e3","650c16f0f2faf8d7a0d14c09","651c1c71a61bd918ce457665","null","null","<p style=""font-size: 60px; font-family: BACS"">DMRPAPT</p>","","","","","","","","",""
"html-keyboard-response","271","530618","0.0-14.0-0.20","6107d788163252e3b5c348e3","650c16f0f2faf8d7a0d14c09","651c1c71a61bd918ce457665","null","null","<p style=""font-size: 60px; font-family: BACS"">advYOZckv</p>","","","","","","","","",""
"html-keyboard-response","272","531620","0.0-14.0-0.21","6107d788163252e3b5c348e3","650c16f0f2faf8d7a0d14c09","651c1c71a61bd918ce457665","null","null","<p style=""font-size: 60px; font-family: BACS"">MlthAPT</p>","","","","","","","","",""
"html-keyboard-response","273","532625","0.0-14.0-0.22","6107d788163252e3b5c348e3","650c16f0f2faf8d7a0d14c09","651c1c71a61bd918ce457665","null","null","<p style=""font-size: 60px; font-family: BACS"">YadrGlu</p>","","","","","","","","",""
"html-keyboard-response","274","533631","0.0-14.0-0.23","6107d788163252e3b5c348e3","650c16f0f2faf8d7a0d14c09","651c1c71a61bd918ce457665","null","null","<p style=""font-size: 60px; font-family: BACS"">MlthCdt</p>","","","","","","","","",""
"html-keyboard-response","275","534648","0.0-14.0-0.24","6107d788163252e3b5c348e3","650c16f0f2faf8d7a0d14c09","651c1c71a61bd918ce457665","null","null","<p style=""font-size: 60px; font-family: BACS"">ObZbAZckv</p>","","","","","","","","",""
"html-keyboard-response","276","535664","0.0-14.0-0.25","6107d788163252e3b5c348e3","650c16f0f2faf8d7a0d14c09","651c1c71a61bd918ce457665","null","null","<p style=""font-size: 60px; font-family: BACS"">EYtYRCdt</p>","","","","","","","","",""
"html-keyboard-response","277","536666","0.0-14.0-0.26","6107d788163252e3b5c348e3","650c16f0f2faf8d7a0d14c09","651c1c71a61bd918ce457665","null","null","<p style=""font-size: 60px; font-family: BACS"">YKRkBRDh</p>","","","","","","","","",""
"html-keyboard-response","278","537679","0.0-14.0-0.27","6107d788163252e3b5c348e3","650c16f0f2faf8d7a0d14c09","651c1c71a61bd918ce457665","null","null","<p style=""font-size: 60px; font-family: BACS"">LckGNGlu</p>","","","","","","","","",""
"html-keyboard-response","279","538696","0.0-14.0-0.28","6107d788163252e3b5c348e3","650c16f0f2faf8d7a0d14c09","651c1c71a61bd918ce457665","null","null","<p style=""font-size: 60px; font-family: BACS"">lbBDEBRDh</p>","","","","","","","","",""
"html-keyboard-response","280","539707","0.0-14.0-0.29","6107d788163252e3b5c348e3","650c16f0f2faf8d7a0d14c09","651c1c71a61bd918ce457665","null","null","<p style=""font-size: 60px; font-family: BACS"">MhKdlRE</p>","","","","","","","","",""
"html-keyboard-response","281","540709","0.0-14.0-0.30","6107d788163252e3b5c348e3","650c16f0f2faf8d7a0d14c09","651c1c71a61bd918ce457665","null","null","<p style=""font-size: 60px; font-family: BACS"">mUOcOZckv</p>","","","","","","","","",""
"html-keyboard-response","282","541725","0.0-14.0-0.31","6107d788163252e3b5c348e3","650c16f0f2faf8d7a0d14c09","651c1c71a61bd918ce457665","null","null","<p style=""font-size: 60px; font-family: BACS"">YadrYmb</p>","","","","","","","","",""
"html-keyboard-response","283","542741","0.0-14.0-0.32","6107d788163252e3b5c348e3","650c16f0f2faf8d7a0d14c09","651c1c71a61bd918ce457665","null","null","<p style=""font-size: 60px; font-family: BACS"">LckGNZckv</p>","","","","","","","","",""
"html-keyboard-response","284","543757","0.0-14.0-0.33","6107d788163252e3b5c348e3","650c16f0f2faf8d7a0d14c09","651c1c71a61bd918ce457665","null","null","<p style=""font-size: 60px; font-family: BACS"">uQkrdGlu</p>","","","","","","","","",""
"html-keyboard-response","285","544773","0.0-14.0-0.34","6107d788163252e3b5c348e3","650c16f0f2faf8d7a0d14c09","651c1c71a61bd918ce457665","null","null","<p style=""font-size: 60px; font-family: BACS"">dRbDbcPK</p>","","","","","","","","",""
"html-keyboard-response","286","545789","0.0-14.0-0.35","6107d788163252e3b5c348e3","650c16f0f2faf8d7a0d14c09","651c1c71a61bd918ce457665","null","null","<p style=""font-size: 60px; font-family: BACS"">lkAkYmb</p>","","","","","","","","",""
"html-keyboard-response","287","546801","0.0-14.0-0.36","6107d788163252e3b5c348e3","650c16f0f2faf8d7a0d14c09","651c1c71a61bd918ce457665","null","null","<p style=""font-size: 60px; font-family: BACS"">MhKdCdt</p>","","","","","","","","",""
"html-keyboard-response","288","547804","0.0-14.0-0.37","6107d788163252e3b5c348e3","650c16f0f2faf8d7a0d14c09","651c1c71a61bd918ce457665","null","null","<p style=""font-size: 60px; font-family: BACS"">EYtYRcPK</p>","","","","","","","","",""
"html-keyboard-response","289","548819","0.0-14.0-0.38","6107d788163252e3b5c348e3","650c16f0f2faf8d7a0d14c09","651c1c71a61bd918ce457665","null","null","<p style=""font-size: 60px; font-family: BACS"">NQZvZckv</p>","","","","","","","","",""
"html-keyboard-response","290","549835","0.0-14.0-0.39","6107d788163252e3b5c348e3","650c16f0f2faf8d7a0d14c09","651c1c71a61bd918ce457665","null","null","<p style=""font-size: 60px; font-family: BACS"">advYOGlu</p>","","","","","","","","",""
"html-keyboard-response","291","550852","0.0-14.0-0.40","6107d788163252e3b5c348e3","650c16f0f2faf8d7a0d14c09","651c1c71a61bd918ce457665","null","null","<p style=""font-size: 60px; font-family: BACS"">PEtEcPK</p>","","","","","","","","",""
"html-keyboard-response","292","551867","0.0-14.0-0.41","6107d788163252e3b5c348e3","650c16f0f2faf8d7a0d14c09","651c1c71a61bd918ce457665","null","null","<p style=""font-size: 60px; font-family: BACS"">ObZbAJQA</p>","","","","","","","","",""
"html-keyboard-response","293","552883","0.0-14.0-0.42","6107d788163252e3b5c348e3","650c16f0f2faf8d7a0d14c09","651c1c71a61bd918ce457665","null","null","<p style=""font-size: 60px; font-family: BACS"">LckGNYaOk</p>","","","","","","","","",""
"html-keyboard-response","294","553889","0.0-14.0-0.43","6107d788163252e3b5c348e3","650c16f0f2faf8d7a0d14c09","651c1c71a61bd918ce457665","null","null","<p style=""font-size: 60px; font-family: BACS"">ObZbAYmb</p>","","","","","","","","",""
"html-keyboard-response","295","554898","0.0-14.0-0.44","6107d788163252e3b5c348e3","650c16f0f2faf8d7a0d14c09","651c1c71a61bd918ce457665","null","null","<p style=""font-size: 60px; font-family: BACS"">YadrZckv</p>","","","","","","","","",""
"html-keyboard-response","296","555914","0.0-14.0-0.45","6107d788163252e3b5c348e3","650c16f0f2faf8d7a0d14c09","651c1c71a61bd918ce457665","null","null","<p style=""font-size: 60px; font-family: BACS"">lYruaGlu</p>","","","","","","","","",""
"html-keyboard-response","297","556930","0.0-14.0-0.46","6107d788163252e3b5c348e3","650c16f0f2faf8d7a0d14c09","651c1c71a61bd918ce457665","null","null","<p style=""font-size: 60px; font-family: BACS"">PEtEAPT</p>","","","","","","","","",""
"html-keyboard-response","298","557945","0.0-14.0-0.47","6107d788163252e3b5c348e3","650c16f0f2faf8d7a0d14c09","651c1c71a61bd918ce457665","null","null","<p style=""font-size: 60px; font-family: BACS"">YKRkCdt</p>","","","","","","","","",""
"html-keyboard-response","299","558961","0.0-14.0-0.48","6107d788163252e3b5c348e3","650c16f0f2faf8d7a0d14c09","651c1c71a61bd918ce457665","null","null","<p style=""font-size: 60px; font-family: BACS"">lcOcJQA</p>","","","","","","","","",""
"html-keyboard-response","300","559977","0.0-14.0-0.49","6107d788163252e3b5c348e3","650c16f0f2faf8d7a0d14c09","651c1c71a61bd918ce457665","null","null","<p style=""font-size: 60px; font-family: BACS"">lkAkGlu</p>","","","","","","","","",""
"html-keyboard-response","301","560993","0.0-14.0-0.50","6107d788163252e3b5c348e3","650c16f0f2faf8d7a0d14c09","651c1c71a61bd918ce457665","null","null","<p style=""font-size: 60px; font-family: BACS"">lYruaZckv</p>","","","","","","","","",""
"html-keyboard-response","302","562008","0.0-14.0-0.51","6107d788163252e3b5c348e3","650c16f0f2faf8d7a0d14c09","651c1c71a61bd918ce457665","null","null","<p style=""font-size: 60px; font-family: BACS"">ECtbDlRE</p>","","","","","","","","",""
"html-keyboard-response","303","563023","0.0-14.0-0.52","6107d788163252e3b5c348e3","650c16f0f2faf8d7a0d14c09","651c1c71a61bd918ce457665","null","null","<p style=""font-size: 60px; font-family: BACS"">lbBDEAPT</p>","","","","","","","","",""
"html-keyboard-response","304","564039","0.0-14.0-0.53","6107d788163252e3b5c348e3","650c16f0f2faf8d7a0d14c09","651c1c71a61bd918ce457665","null","null","<p style=""font-size: 60px; font-family: BACS"">advYOJQA</p>","","","","","","","","",""
"html-keyboard-response","305","565056","0.0-14.0-0.54","6107d788163252e3b5c348e3","650c16f0f2faf8d7a0d14c09","651c1c71a61bd918ce457665","null","null","<p style=""font-size: 60px; font-family: BACS"">DMRPlRE</p>","","","","","","","","",""
"html-keyboard-response","306","566071","0.0-14.0-0.55","6107d788163252e3b5c348e3","650c16f0f2faf8d7a0d14c09","651c1c71a61bd918ce457665","null","null","<p style=""font-size: 60px; font-family: BACS"">PEtEBRDh</p>","","","","","","","","",""
"html-keyboard-response","307","567086","0.0-14.0-0.56","6107d788163252e3b5c348e3","650c16f0f2faf8d7a0d14c09","651c1c71a61bd918ce457665","null","null","<p style=""font-size: 60px; font-family: BACS"">KBKBEAPT</p>","","","","","","","","",""
"html-keyboard-response","308","568091","0.0-14.0-0.57","6107d788163252e3b5c348e3","650c16f0f2faf8d7a0d14c09","651c1c71a61bd918ce457665","null","null","<p style=""font-size: 60px; font-family: BACS"">EYtYRBRDh</p>","","","","","","","","",""
"html-keyboard-response","309","569102","0.0-14.0-0.58","6107d788163252e3b5c348e3","650c16f0f2faf8d7a0d14c09","651c1c71a61bd918ce457665","null","null","<p style=""font-size: 60px; font-family: BACS"">KBKBEcPK</p>","","","","","","","","",""
"html-keyboard-response","310","570118","0.0-14.0-0.59","6107d788163252e3b5c348e3","650c16f0f2faf8d7a0d14c09","651c1c71a61bd918ce457665","null","null","<p style=""font-size: 60px; font-family: BACS"">uQkrdYmb</p>","","","","","","","","",""
"html-keyboard-response","311","571133","0.0-14.0-0.60","6107d788163252e3b5c348e3","650c16f0f2faf8d7a0d14c09","651c1c71a61bd918ce457665","null","null","<p style=""font-size: 60px; font-family: BACS"">NQZvJQA</p>","","","","","","","","",""
"html-keyboard-response","312","572148","0.0-14.0-0.61","6107d788163252e3b5c348e3","650c16f0f2faf8d7a0d14c09","651c1c71a61bd918ce457665","null","null","<p style=""font-size: 60px; font-family: BACS"">lcOcGlu</p>","","","","","","","","",""
"html-keyboard-response","313","573164","0.0-14.0-0.62","6107d788163252e3b5c348e3","650c16f0f2faf8d7a0d14c09","651c1c71a61bd918ce457665","null","null","<p style=""font-size: 60px; font-family: BACS"">mUOcOYaOk</p>","","","","","","","","",""
"html-keyboard-response","314","574170","0.0-14.0-0.63","6107d788163252e3b5c348e3","650c16f0f2faf8d7a0d14c09","651c1c71a61bd918ce457665","null","null","<p style=""font-size: 60px; font-family: BACS"">ECtbDCdt</p>","","","","","","","","",""
"html-keyboard-response","315","575174","0.0-14.0-0.64","6107d788163252e3b5c348e3","650c16f0f2faf8d7a0d14c09","651c1c71a61bd918ce457665","null","null","<p style=""font-size: 60px; font-family: BACS"">dRbDbBRDh</p>","","","","","","","","",""
"html-keyboard-response","316","576179","0.0-14.0-0.65","6107d788163252e3b5c348e3","650c16f0f2faf8d7a0d14c09","651c1c71a61bd918ce457665","null","null","<p style=""font-size: 60px; font-family: BACS"">KBKBElRE</p>","","","","","","","","",""
"html-keyboard-response","317","577196","0.0-14.0-0.66","6107d788163252e3b5c348e3","650c16f0f2faf8d7a0d14c09","651c1c71a61bd918ce457665","null","null","<p style=""font-size: 60px; font-family: BACS"">mUOcOJQA</p>","","","","","","","","",""
"html-keyboard-response","318","578210","0.0-14.0-0.67","6107d788163252e3b5c348e3","650c16f0f2faf8d7a0d14c09","651c1c71a61bd918ce457665","null","null","<p style=""font-size: 60px; font-family: BACS"">DMRPCdt</p>","","","","","","","","",""
"html-keyboard-response","319","579226","0.0-14.0-0.68","6107d788163252e3b5c348e3","650c16f0f2faf8d7a0d14c09","651c1c71a61bd918ce457665","null","null","<p style=""font-size: 60px; font-family: BACS"">lkAkZckv</p>","","","","","","","","",""
"html-keyboard-response","320","580241","0.0-14.0-0.69","6107d788163252e3b5c348e3","650c16f0f2faf8d7a0d14c09","651c1c71a61bd918ce457665","null","null","<p style=""font-size: 60px; font-family: BACS"">uQkrdJQA</p>","","","","","","","","",""
"html-keyboard-response","321","581257","0.0-14.0-0.70","6107d788163252e3b5c348e3","650c16f0f2faf8d7a0d14c09","651c1c71a61bd918ce457665","null","null","<p style=""font-size: 60px; font-family: BACS"">PEtElRE</p>","","","","","","","","",""
"html-keyboard-response","322","582262","0.0-14.0-0.71","6107d788163252e3b5c348e3","650c16f0f2faf8d7a0d14c09","651c1c71a61bd918ce457665","null","null","<p style=""font-size: 60px; font-family: BACS"">YadrJQA</p>","","","","","","","","",""
"html-keyboard-response","323","583273","0.0-14.0-0.72","6107d788163252e3b5c348e3","650c16f0f2faf8d7a0d14c09","651c1c71a61bd918ce457665","null","null","<p style=""font-size: 60px; font-family: BACS"">lcOcYaOk</p>","","","","","","","","",""
"html-keyboard-response","324","584288","0.0-14.0-0.73","6107d788163252e3b5c348e3","650c16f0f2faf8d7a0d14c09","651c1c71a61bd918ce457665","null","null","<p style=""font-size: 60px; font-family: BACS"">YKRklRE</p>","","","","","","","","",""
"html-keyboard-response","325","585303","0.0-14.0-0.74","6107d788163252e3b5c348e3","650c16f0f2faf8d7a0d14c09","651c1c71a61bd918ce457665","null","null","<p style=""font-size: 60px; font-family: BACS"">lbBDECdt</p>","","","","","","","","",""
"html-keyboard-response","326","586319","0.0-14.0-0.75","6107d788163252e3b5c348e3","650c16f0f2faf8d7a0d14c09","651c1c71a61bd918ce457665","null","null","<p style=""font-size: 60px; font-family: BACS"">MlthcPK</p>","","","","","","","","",""
"html-keyboard-response","327","587320","0.0-14.0-0.76","6107d788163252e3b5c348e3","650c16f0f2faf8d7a0d14c09","651c1c71a61bd918ce457665","null","null","<p style=""font-size: 60px; font-family: BACS"">NQZvYaOk</p>","","","","","","","","",""
"html-keyboard-response","328","588335","0.0-14.0-0.77","6107d788163252e3b5c348e3","650c16f0f2faf8d7a0d14c09","651c1c71a61bd918ce457665","null","null","<p style=""font-size: 60px; font-family: BACS"">lYruaYmb</p>","","","","","","","","",""
"html-keyboard-response","329","589351","0.0-14.0-0.78","6107d788163252e3b5c348e3","650c16f0f2faf8d7a0d14c09","651c1c71a61bd918ce457665","null","null","<p style=""font-size: 60px; font-family: BACS"">lkAkJQA</p>","","","","","","","","",""
"html-keyboard-response","330","590366","0.0-14.0-0.79","6107d788163252e3b5c348e3","650c16f0f2faf8d7a0d14c09","651c1c71a61bd918ce457665","null","null","<p style=""font-size: 60px; font-family: BACS"">uQkrdYaOk</p>","","","","","","","","",""
"html-keyboard-response","331","591919","0.0-15.0","6107d788163252e3b5c348e3","650c16f0f2faf8d7a0d14c09","651c1c71a61bd918ce457665","1552"," ","<p>Great, you've seen the fourth block of words. You may now take a short break.</p>
      <p>Press the spacebar when you're ready to continue.</p>","","","","","","","","",""
"html-keyboard-response","332","592931","0.0-16.0-0.0","6107d788163252e3b5c348e3","650c16f0f2faf8d7a0d14c09","651c1c71a61bd918ce457665","null","null","<p style=""font-size: 60px; font-family: BACS"">lcOcJQA</p>","","","","","","","","",""
"html-keyboard-response","333","593947","0.0-16.0-0.1","6107d788163252e3b5c348e3","650c16f0f2faf8d7a0d14c09","651c1c71a61bd918ce457665","null","null","<p style=""font-size: 60px; font-family: BACS"">lcOcJQA</p>","","","","","","","","",""
"html-keyboard-response","334","594963","0.0-16.0-0.2","6107d788163252e3b5c348e3","650c16f0f2faf8d7a0d14c09","651c1c71a61bd918ce457665","null","null","<p style=""font-size: 60px; font-family: BACS"">lcOcJQA</p>","","","","","","","","",""
"html-keyboard-response","335","595978","0.0-16.0-0.3","6107d788163252e3b5c348e3","650c16f0f2faf8d7a0d14c09","651c1c71a61bd918ce457665","null","null","<p style=""font-size: 60px; font-family: BACS"">lcOcJQA</p>","","","","","","","","",""
"html-keyboard-response","336","596993","0.0-16.0-0.4","6107d788163252e3b5c348e3","650c16f0f2faf8d7a0d14c09","651c1c71a61bd918ce457665","null","null","<p style=""font-size: 60px; font-family: BACS"">lcOcJQA</p>","","","","","","","","",""
"html-keyboard-response","337","597995","0.0-16.0-0.5","6107d788163252e3b5c348e3","650c16f0f2faf8d7a0d14c09","651c1c71a61bd918ce457665","null","null","<p style=""font-size: 60px; font-family: BACS"">lcOcJQA</p>","","","","","","","","",""
"html-keyboard-response","338","599008","0.0-16.0-0.6","6107d788163252e3b5c348e3","650c16f0f2faf8d7a0d14c09","651c1c71a61bd918ce457665","null","null","<p style=""font-size: 60px; font-family: BACS"">lcOcJQA</p>","","","","","","","","",""
"html-keyboard-response","339","600025","0.0-16.0-0.7","6107d788163252e3b5c348e3","650c16f0f2faf8d7a0d14c09","651c1c71a61bd918ce457665","null","null","<p style=""font-size: 60px; font-family: BACS"">lcOcJQA</p>","","","","","","","","",""
"html-keyboard-response","340","601041","0.0-16.0-0.8","6107d788163252e3b5c348e3","650c16f0f2faf8d7a0d14c09","651c1c71a61bd918ce457665","null","null","<p style=""font-size: 60px; font-family: BACS"">lcOcJQA</p>","","","","","","","","",""
"html-keyboard-response","341","602057","0.0-16.0-0.9","6107d788163252e3b5c348e3","650c16f0f2faf8d7a0d14c09","651c1c71a61bd918ce457665","null","null","<p style=""font-size: 60px; font-family: BACS"">lcOcJQA</p>","","","","","","","","",""
"html-keyboard-response","342","603072","0.0-16.0-0.10","6107d788163252e3b5c348e3","650c16f0f2faf8d7a0d14c09","651c1c71a61bd918ce457665","null","null","<p style=""font-size: 60px; font-family: BACS"">lcOcJQA</p>","","","","","","","","",""
"html-keyboard-response","343","604088","0.0-16.0-0.11","6107d788163252e3b5c348e3","650c16f0f2faf8d7a0d14c09","651c1c71a61bd918ce457665","null","null","<p style=""font-size: 60px; font-family: BACS"">lcOcJQA</p>","","","","","","","","",""
"html-keyboard-response","344","605104","0.0-16.0-0.12","6107d788163252e3b5c348e3","650c16f0f2faf8d7a0d14c09","651c1c71a61bd918ce457665","null","null","<p style=""font-size: 60px; font-family: BACS"">lcOcJQA</p>","","","","","","","","",""
"html-keyboard-response","345","606120","0.0-16.0-0.13","6107d788163252e3b5c348e3","650c16f0f2faf8d7a0d14c09","651c1c71a61bd918ce457665","null","null","<p style=""font-size: 60px; font-family: BACS"">lcOcJQA</p>","","","","","","","","",""
"html-keyboard-response","346","607127","0.0-16.0-0.14","6107d788163252e3b5c348e3","650c16f0f2faf8d7a0d14c09","651c1c71a61bd918ce457665","null","null","<p style=""font-size: 60px; font-family: BACS"">lcOcJQA</p>","","","","","","","","",""
"html-keyboard-response","347","608135","0.0-16.0-0.15","6107d788163252e3b5c348e3","650c16f0f2faf8d7a0d14c09","651c1c71a61bd918ce457665","null","null","<p style=""font-size: 60px; font-family: BACS"">lcOcJQA</p>","","","","","","","","",""
"html-keyboard-response","348","609152","0.0-16.0-0.16","6107d788163252e3b5c348e3","650c16f0f2faf8d7a0d14c09","651c1c71a61bd918ce457665","null","null","<p style=""font-size: 60px; font-family: BACS"">lcOcJQA</p>","","","","","","","","",""
"html-keyboard-response","349","610167","0.0-16.0-0.17","6107d788163252e3b5c348e3","650c16f0f2faf8d7a0d14c09","651c1c71a61bd918ce457665","null","null","<p style=""font-size: 60px; font-family: BACS"">lcOcJQA</p>","","","","","","","","",""
"html-keyboard-response","350","611183","0.0-16.0-0.18","6107d788163252e3b5c348e3","650c16f0f2faf8d7a0d14c09","651c1c71a61bd918ce457665","null","null","<p style=""font-size: 60px; font-family: BACS"">lcOcJQA</p>","","","","","","","","",""
"html-keyboard-response","351","612199","0.0-16.0-0.19","6107d788163252e3b5c348e3","650c16f0f2faf8d7a0d14c09","651c1c71a61bd918ce457665","null","null","<p style=""font-size: 60px; font-family: BACS"">lcOcJQA</p>","","","","","","","","",""
"html-keyboard-response","352","613215","0.0-16.0-0.20","6107d788163252e3b5c348e3","650c16f0f2faf8d7a0d14c09","651c1c71a61bd918ce457665","null","null","<p style=""font-size: 60px; font-family: BACS"">lcOcJQA</p>","","","","","","","","",""
"html-keyboard-response","353","614231","0.0-16.0-0.21","6107d788163252e3b5c348e3","650c16f0f2faf8d7a0d14c09","651c1c71a61bd918ce457665","null","null","<p style=""font-size: 60px; font-family: BACS"">lcOcJQA</p>","","","","","","","","",""
"html-keyboard-response","354","615246","0.0-16.0-0.22","6107d788163252e3b5c348e3","650c16f0f2faf8d7a0d14c09","651c1c71a61bd918ce457665","null","null","<p style=""font-size: 60px; font-family: BACS"">lcOcJQA</p>","","","","","","","","",""
"html-keyboard-response","355","616263","0.0-16.0-0.23","6107d788163252e3b5c348e3","650c16f0f2faf8d7a0d14c09","651c1c71a61bd918ce457665","null","null","<p style=""font-size: 60px; font-family: BACS"">lcOcJQA</p>","","","","","","","","",""
"html-keyboard-response","356","617277","0.0-16.0-0.24","6107d788163252e3b5c348e3","650c16f0f2faf8d7a0d14c09","651c1c71a61bd918ce457665","null","null","<p style=""font-size: 60px; font-family: BACS"">lcOcJQA</p>","","","","","","","","",""
"html-keyboard-response","357","618293","0.0-16.0-0.25","6107d788163252e3b5c348e3","650c16f0f2faf8d7a0d14c09","651c1c71a61bd918ce457665","null","null","<p style=""font-size: 60px; font-family: BACS"">lcOcJQA</p>","","","","","","","","",""
"html-keyboard-response","358","619309","0.0-16.0-0.26","6107d788163252e3b5c348e3","650c16f0f2faf8d7a0d14c09","651c1c71a61bd918ce457665","null","null","<p style=""font-size: 60px; font-family: BACS"">lcOcJQA</p>","","","","","","","","",""
"html-keyboard-response","359","620324","0.0-16.0-0.27","6107d788163252e3b5c348e3","650c16f0f2faf8d7a0d14c09","651c1c71a61bd918ce457665","null","null","<p style=""font-size: 60px; font-family: BACS"">lcOcJQA</p>","","","","","","","","",""
"html-keyboard-response","360","621330","0.0-16.0-0.28","6107d788163252e3b5c348e3","650c16f0f2faf8d7a0d14c09","651c1c71a61bd918ce457665","null","null","<p style=""font-size: 60px; font-family: BACS"">lcOcJQA</p>","","","","","","","","",""
"html-keyboard-response","361","622339","0.0-16.0-0.29","6107d788163252e3b5c348e3","650c16f0f2faf8d7a0d14c09","651c1c71a61bd918ce457665","null","null","<p style=""font-size: 60px; font-family: BACS"">lcOcJQA</p>","","","","","","","","",""
"html-keyboard-response","362","623355","0.0-16.0-0.30","6107d788163252e3b5c348e3","650c16f0f2faf8d7a0d14c09","651c1c71a61bd918ce457665","null","null","<p style=""font-size: 60px; font-family: BACS"">lcOcJQA</p>","","","","","","","","",""
"html-keyboard-response","363","624371","0.0-16.0-0.31","6107d788163252e3b5c348e3","650c16f0f2faf8d7a0d14c09","651c1c71a61bd918ce457665","null","null","<p style=""font-size: 60px; font-family: BACS"">lcOcJQA</p>","","","","","","","","",""
"html-keyboard-response","364","625386","0.0-16.0-0.32","6107d788163252e3b5c348e3","650c16f0f2faf8d7a0d14c09","651c1c71a61bd918ce457665","null","null","<p style=""font-size: 60px; font-family: BACS"">lcOcJQA</p>","","","","","","","","",""
"html-keyboard-response","365","626402","0.0-16.0-0.33","6107d788163252e3b5c348e3","650c16f0f2faf8d7a0d14c09","651c1c71a61bd918ce457665","null","null","<p style=""font-size: 60px; font-family: BACS"">lcOcJQA</p>","","","","","","","","",""
"html-keyboard-response","366","627403","0.0-16.0-0.34","6107d788163252e3b5c348e3","650c16f0f2faf8d7a0d14c09","651c1c71a61bd918ce457665","null","null","<p style=""font-size: 60px; font-family: BACS"">lcOcJQA</p>","","","","","","","","",""
"html-keyboard-response","367","628408","0.0-16.0-0.35","6107d788163252e3b5c348e3","650c16f0f2faf8d7a0d14c09","651c1c71a61bd918ce457665","null","null","<p style=""font-size: 60px; font-family: BACS"">lcOcJQA</p>","","","","","","","","",""
"html-keyboard-response","368","629416","0.0-16.0-0.36","6107d788163252e3b5c348e3","650c16f0f2faf8d7a0d14c09","651c1c71a61bd918ce457665","null","null","<p style=""font-size: 60px; font-family: BACS"">lcOcJQA</p>","","","","","","","","",""
"html-keyboard-response","369","630432","0.0-16.0-0.37","6107d788163252e3b5c348e3","650c16f0f2faf8d7a0d14c09","651c1c71a61bd918ce457665","null","null","<p style=""font-size: 60px; font-family: BACS"">lcOcJQA</p>","","","","","","","","",""
"html-keyboard-response","370","631447","0.0-16.0-0.38","6107d788163252e3b5c348e3","650c16f0f2faf8d7a0d14c09","651c1c71a61bd918ce457665","null","null","<p style=""font-size: 60px; font-family: BACS"">lcOcJQA</p>","","","","","","","","",""
"html-keyboard-response","371","632463","0.0-16.0-0.39","6107d788163252e3b5c348e3","650c16f0f2faf8d7a0d14c09","651c1c71a61bd918ce457665","null","null","<p style=""font-size: 60px; font-family: BACS"">lcOcJQA</p>","","","","","","","","",""
"html-keyboard-response","372","633479","0.0-16.0-0.40","6107d788163252e3b5c348e3","650c16f0f2faf8d7a0d14c09","651c1c71a61bd918ce457665","null","null","<p style=""font-size: 60px; font-family: BACS"">lcOcJQA</p>","","","","","","","","",""
"html-keyboard-response","373","634486","0.0-16.0-0.41","6107d788163252e3b5c348e3","650c16f0f2faf8d7a0d14c09","651c1c71a61bd918ce457665","null","null","<p style=""font-size: 60px; font-family: BACS"">lcOcJQA</p>","","","","","","","","",""
"html-keyboard-response","374","635495","0.0-16.0-0.42","6107d788163252e3b5c348e3","650c16f0f2faf8d7a0d14c09","651c1c71a61bd918ce457665","null","null","<p style=""font-size: 60px; font-family: BACS"">lcOcJQA</p>","","","","","","","","",""
"html-keyboard-response","375","636510","0.0-16.0-0.43","6107d788163252e3b5c348e3","650c16f0f2faf8d7a0d14c09","651c1c71a61bd918ce457665","null","null","<p style=""font-size: 60px; font-family: BACS"">lcOcJQA</p>","","","","","","","","",""
"html-keyboard-response","376","637525","0.0-16.0-0.44","6107d788163252e3b5c348e3","650c16f0f2faf8d7a0d14c09","651c1c71a61bd918ce457665","null","null","<p style=""font-size: 60px; font-family: BACS"">lcOcJQA</p>","","","","","","","","",""
"html-keyboard-response","377","638542","0.0-16.0-0.45","6107d788163252e3b5c348e3","650c16f0f2faf8d7a0d14c09","651c1c71a61bd918ce457665","null","null","<p style=""font-size: 60px; font-family: BACS"">lcOcJQA</p>","","","","","","","","",""
"html-keyboard-response","378","639557","0.0-16.0-0.46","6107d788163252e3b5c348e3","650c16f0f2faf8d7a0d14c09","651c1c71a61bd918ce457665","null","null","<p style=""font-size: 60px; font-family: BACS"">lcOcJQA</p>","","","","","","","","",""
"html-keyboard-response","379","640572","0.0-16.0-0.47","6107d788163252e3b5c348e3","650c16f0f2faf8d7a0d14c09","651c1c71a61bd918ce457665","null","null","<p style=""font-size: 60px; font-family: BACS"">lcOcJQA</p>","","","","","","","","",""
"html-keyboard-response","380","641580","0.0-16.0-0.48","6107d788163252e3b5c348e3","650c16f0f2faf8d7a0d14c09","651c1c71a61bd918ce457665","null","null","<p style=""font-size: 60px; font-family: BACS"">lcOcJQA</p>","","","","","","","","",""
"html-keyboard-response","381","642587","0.0-16.0-0.49","6107d788163252e3b5c348e3","650c16f0f2faf8d7a0d14c09","651c1c71a61bd918ce457665","null","null","<p style=""font-size: 60px; font-family: BACS"">lcOcJQA</p>","","","","","","","","",""
"html-keyboard-response","382","643604","0.0-16.0-0.50","6107d788163252e3b5c348e3","650c16f0f2faf8d7a0d14c09","651c1c71a61bd918ce457665","null","null","<p style=""font-size: 60px; font-family: BACS"">lcOcJQA</p>","","","","","","","","",""
"html-keyboard-response","383","644620","0.0-16.0-0.51","6107d788163252e3b5c348e3","650c16f0f2faf8d7a0d14c09","651c1c71a61bd918ce457665","null","null","<p style=""font-size: 60px; font-family: BACS"">lcOcJQA</p>","","","","","","","","",""
"html-keyboard-response","384","645635","0.0-16.0-0.52","6107d788163252e3b5c348e3","650c16f0f2faf8d7a0d14c09","651c1c71a61bd918ce457665","null","null","<p style=""font-size: 60px; font-family: BACS"">lcOcJQA</p>","","","","","","","","",""
"html-keyboard-response","385","646652","0.0-16.0-0.53","6107d788163252e3b5c348e3","650c16f0f2faf8d7a0d14c09","651c1c71a61bd918ce457665","null","null","<p style=""font-size: 60px; font-family: BACS"">lcOcJQA</p>","","","","","","","","",""
"html-keyboard-response","386","647666","0.0-16.0-0.54","6107d788163252e3b5c348e3","650c16f0f2faf8d7a0d14c09","651c1c71a61bd918ce457665","null","null","<p style=""font-size: 60px; font-family: BACS"">lcOcJQA</p>","","","","","","","","",""
"html-keyboard-response","387","648683","0.0-16.0-0.55","6107d788163252e3b5c348e3","650c16f0f2faf8d7a0d14c09","651c1c71a61bd918ce457665","null","null","<p style=""font-size: 60px; font-family: BACS"">lcOcJQA</p>","","","","","","","","",""
"html-keyboard-response","388","649699","0.0-16.0-0.56","6107d788163252e3b5c348e3","650c16f0f2faf8d7a0d14c09","651c1c71a61bd918ce457665","null","null","<p style=""font-size: 60px; font-family: BACS"">lcOcJQA</p>","","","","","","","","",""
"html-keyboard-response","389","650714","0.0-16.0-0.57","6107d788163252e3b5c348e3","650c16f0f2faf8d7a0d14c09","651c1c71a61bd918ce457665","null","null","<p style=""font-size: 60px; font-family: BACS"">lcOcJQA</p>","","","","","","","","",""
"html-keyboard-response","390","651730","0.0-16.0-0.58","6107d788163252e3b5c348e3","650c16f0f2faf8d7a0d14c09","651c1c71a61bd918ce457665","null","null","<p style=""font-size: 60px; font-family: BACS"">lcOcJQA</p>","","","","","","","","",""
"html-keyboard-response","391","652743","0.0-16.0-0.59","6107d788163252e3b5c348e3","650c16f0f2faf8d7a0d14c09","651c1c71a61bd918ce457665","null","null","<p style=""font-size: 60px; font-family: BACS"">lcOcJQA</p>","","","","","","","","",""
"html-keyboard-response","392","653745","0.0-16.0-0.60","6107d788163252e3b5c348e3","650c16f0f2faf8d7a0d14c09","651c1c71a61bd918ce457665","null","null","<p style=""font-size: 60px; font-family: BACS"">lcOcJQA</p>","","","","","","","","",""
"html-keyboard-response","393","654761","0.0-16.0-0.61","6107d788163252e3b5c348e3","650c16f0f2faf8d7a0d14c09","651c1c71a61bd918ce457665","null","null","<p style=""font-size: 60px; font-family: BACS"">lcOcJQA</p>","","","","","","","","",""
"html-keyboard-response","394","655777","0.0-16.0-0.62","6107d788163252e3b5c348e3","650c16f0f2faf8d7a0d14c09","651c1c71a61bd918ce457665","null","null","<p style=""font-size: 60px; font-family: BACS"">lcOcJQA</p>","","","","","","","","",""
"html-keyboard-response","395","656793","0.0-16.0-0.63","6107d788163252e3b5c348e3","650c16f0f2faf8d7a0d14c09","651c1c71a61bd918ce457665","null","null","<p style=""font-size: 60px; font-family: BACS"">lcOcJQA</p>","","","","","","","","",""
"html-keyboard-response","396","657807","0.0-16.0-0.64","6107d788163252e3b5c348e3","650c16f0f2faf8d7a0d14c09","651c1c71a61bd918ce457665","null","null","<p style=""font-size: 60px; font-family: BACS"">lcOcJQA</p>","","","","","","","","",""
"html-keyboard-response","397","658822","0.0-16.0-0.65","6107d788163252e3b5c348e3","650c16f0f2faf8d7a0d14c09","651c1c71a61bd918ce457665","null","null","<p style=""font-size: 60px; font-family: BACS"">lcOcJQA</p>","","","","","","","","",""
"html-keyboard-response","398","659834","0.0-16.0-0.66","6107d788163252e3b5c348e3","650c16f0f2faf8d7a0d14c09","651c1c71a61bd918ce457665","null","null","<p style=""font-size: 60px; font-family: BACS"">lcOcJQA</p>","","","","","","","","",""
