"trial_type","trial_index","time_elapsed","internal_node_id","subject_id","study_id","session_id","rt","response","stimulus","success","item","task","correct_response","correct","target","confound","name"
"pavlovia","0","3694","0.0-0.0","60a45e33f404ba8cb7a19cfe","64b003020eef62ee308107cc","64b04049b76fbea58f9ad50f","","","","","","","","","","",""
"survey-html-form","1","39393","0.0-1.0","60a45e33f404ba8cb7a19cfe","64b003020eef62ee308107cc","64b04049b76fbea58f9ad50f","35697","{""ID"":""60a45e33f404ba8cb7a19cfe""}","","","","","","","","",""
"html-keyboard-response","2","45859","0.0-2.0","60a45e33f404ba8cb7a19cfe","64b003020eef62ee308107cc","64b04049b76fbea58f9ad50f","6465"," ","<p style=""font-size: 15px;"">Prima di cominciare, le chiediamo di leggere il modulo di consenso informato e confermare la sua volontà di partecipare all'esperimento.</p>
      <p style=""font-size: 15px;""> La preghiamo di ricordare che questo è un progetto di ricerca e che la sua partecipazione è completamente volontaria. Lei si potra' ritirare in qualunque momento, senza necessariamente dover dare alcuna spiegazione. Lo studio al quale Le si chiede di partecipare ha lo scopo di esaminare come i lettori elaborano le parole scritte. La somministrazione delle prove è individuale. Lei sarà impegnato in una sessione di lavoro della durata media di 10 minuti, e un questionario di 10 minuti. L’ordine delle prove ed il loro svolgimento sono stabiliti in modo tale da evitare un eventuale affaticamento. Tutte le prove saranno precedute da un breve addestramento in modo tale che abbia la possibilità di familiarizzare con il compito. Sono previste alcune pause nel corso dello svolgimento dell’esperimento. Una ricompensa di £4 (£8 per ora) Le verrà consegnata al termine della sessione di testing. Nonostante il testing preveda delle prove cognitive, il presente esperimento non costituisce una prova clinica che permetta la diagnosi di eventuali patologie.</p>
      <p style=""font-size: 15px;"">Tutti i dati raccolti grazie alla partecipazione Sua e di altre persone volontarie saranno custoditi in server sicuri e protetti da password, e non sarà consentito ad alcuna persona non autorizzata di accedervi. Le Sue informazioni personali saranno conservate separatamente dai risultati della presente ricerca, cui saranno associati soltanto attraverso un ID arbitrario. Grazie a questo processo di anonimizzazione dei dati, a nessun ricercatore sarà possibile analizzare i risultati sapendo da quale specifico partecipante essi provengono. Inoltre, questa procedura renderà impossibile la Sua identificazione anche nel momento in cui i risultati della ricerca fossero pubblicati su riviste scientifiche, o presentati a congressi o in qualsiasi altro pubblico consesso. Più in generale, i dati raccolti saranno trattati in accordo con le leggi sulla privacy e in conformità al Decreto Legislativo 30 giugno 2003 n. 196 “Codice in materia di protezione dei dati personali” e al Regolamento Europeo 2016/679 (General Data Protection Regulation - GDPR). Il Responsabile della protezione dei dati (RPD) è l’Avv. Valentina Carollo che può essere contattato ai seguenti indirizzi email: <a href=""mailto:dpo@sissa.it"">dpo@sissa.it</a> oppure <a href=""mailto:rpd@sissa.it"">rpd@sissa.it</a> - PEC: <a href=""mailto:protocollo@pec.sissa.it"">protocollo@pec.sissa.it</a>.</p>
      <p style=""font-size: 15px;""> Prima di esprimere il suo consenso alla partecipazione, Le ricordiamo ancora che in caso Lei abbia bisogno di delucidazioni su qualunque aspetto della procedura sperimentale, il ricercatore è a Sua completa disposizione (<a href=""mailto:aliebelt@sissa.it"">aliebelt@sissa.it</a>, <a href=""mailto:davide.crepaldi@sissa.it"">davide.crepaldi@sissa.it</a>).</p>
      <p style=""font-size: 15px;"">Se vuole scaricare il modulo di consenso informato, clicca qui: <a href=""BASL_modulo_consenso.pdf"" download>modulo di consenso</a>.</p>
      <p style=""font-size: 15px;""> Le chiediamo di premere la barra per continuare al consenso.</p>","","","","","","","",""
"survey-html-form","3","58661","0.0-3.0","60a45e33f404ba8cb7a19cfe","64b003020eef62ee308107cc","64b04049b76fbea58f9ad50f","12800","{""consent1"":""YES"",""consent2"":""YES"",""consent3"":""YES"",""consent4"":""YES"",""consent5"":""YES"",""consent6"":""YES""}","","","","","","","","",""
"fullscreen","4","68919","0.0-4.0","60a45e33f404ba8cb7a19cfe","64b003020eef62ee308107cc","64b04049b76fbea58f9ad50f","","","","true","","","","","","",""
"html-keyboard-response","5","143155","0.0-5.0","60a45e33f404ba8cb7a19cfe","64b003020eef62ee308107cc","64b04049b76fbea58f9ad50f","74212"," ","<p>Benvenuta/o, e grazie mille del tuo tempo!</p>
      <p>In questo esperimento sarai un esperto/un'esperta di linguaggio cui è stato chiesto di dare un'occhiata ad alcuni messaggi che la Terra ha ricevuto dallo spazio. Il tuo compito, in questa prima parte dell'esperimento, sarà di fare molta attenzione alle parole che ti verranno mostrate; più tardi, i leader del mondo ti chiederanno qualche informazione su quello che hai visto. Le parole si susseguiranno abbastanza velocemente; sembra che questi alieni abbiano una certa fretta :-) </p>
      <p>Per favore, chiama lo sperimentatore se ha qualche domanda.</p><p>Premi la barra per continuare.</p>","","","","","","","",""
"html-keyboard-response","6","340460","0.0-6.0","60a45e33f404ba8cb7a19cfe","64b003020eef62ee308107cc","64b04049b76fbea58f9ad50f","197299"," ","<p>Ecco un esempio delle parole che vedrai:</p>
      <img src='esempio.png' height='400px'>
      <p>Quando sei pronti per iniziare, premi la barra.</p></div>","","","","","","","",""
"html-keyboard-response","7","341473","0.0-7.0-0.0","60a45e33f404ba8cb7a19cfe","64b003020eef62ee308107cc","64b04049b76fbea58f9ad50f","null","null","<p style=""font-size: 60px; font-family: BACS"">udkmdUr</p>","","","","","","","",""
"html-keyboard-response","8","342476","0.0-7.0-0.1","60a45e33f404ba8cb7a19cfe","64b003020eef62ee308107cc","64b04049b76fbea58f9ad50f","null","null","<p style=""font-size: 60px; font-family: BACS"">kLvdNGlu</p>","","","","","","","",""
"html-keyboard-response","9","343484","0.0-7.0-0.2","60a45e33f404ba8cb7a19cfe","64b003020eef62ee308107cc","64b04049b76fbea58f9ad50f","null","null","<p style=""font-size: 60px; font-family: BACS"">ZkGmYkbu</p>","","","","","","","",""
"html-keyboard-response","10","344495","0.0-7.0-0.3","60a45e33f404ba8cb7a19cfe","64b003020eef62ee308107cc","64b04049b76fbea58f9ad50f","null","null","<p style=""font-size: 60px; font-family: BACS"">cDOEBOtM</p>","","","","","","","",""
"html-keyboard-response","11","345503","0.0-7.0-0.4","60a45e33f404ba8cb7a19cfe","64b003020eef62ee308107cc","64b04049b76fbea58f9ad50f","null","null","<p style=""font-size: 60px; font-family: BACS"">BECkhBK</p>","","","","","","","",""
"html-keyboard-response","12","346512","0.0-7.0-0.5","60a45e33f404ba8cb7a19cfe","64b003020eef62ee308107cc","64b04049b76fbea58f9ad50f","null","null","<p style=""font-size: 60px; font-family: BACS"">btlckbTE</p>","","","","","","","",""
"html-keyboard-response","13","347521","0.0-7.0-0.6","60a45e33f404ba8cb7a19cfe","64b003020eef62ee308107cc","64b04049b76fbea58f9ad50f","null","null","<p style=""font-size: 60px; font-family: BACS"">udkmGlu</p>","","","","","","","",""
"html-keyboard-response","14","348528","0.0-7.0-0.7","60a45e33f404ba8cb7a19cfe","64b003020eef62ee308107cc","64b04049b76fbea58f9ad50f","null","null","<p style=""font-size: 60px; font-family: BACS"">cDOEBbTE</p>","","","","","","","",""
"html-keyboard-response","15","349535","0.0-7.0-0.8","60a45e33f404ba8cb7a19cfe","64b003020eef62ee308107cc","64b04049b76fbea58f9ad50f","null","null","<p style=""font-size: 60px; font-family: BACS"">rLkmdUr</p>","","","","","","","",""
"html-keyboard-response","16","350544","0.0-7.0-0.9","60a45e33f404ba8cb7a19cfe","64b003020eef62ee308107cc","64b04049b76fbea58f9ad50f","null","null","<p style=""font-size: 60px; font-family: BACS"">YQbckbu</p>","","","","","","","",""
"html-keyboard-response","17","351553","0.0-7.0-0.10","60a45e33f404ba8cb7a19cfe","64b003020eef62ee308107cc","64b04049b76fbea58f9ad50f","null","null","<p style=""font-size: 60px; font-family: BACS"">BMEMAOtM</p>","","","","","","","",""
"html-keyboard-response","18","352561","0.0-7.0-0.11","60a45e33f404ba8cb7a19cfe","64b003020eef62ee308107cc","64b04049b76fbea58f9ad50f","null","null","<p style=""font-size: 60px; font-family: BACS"">kLvdNkbu</p>","","","","","","","",""
"html-keyboard-response","19","353569","0.0-7.0-0.12","60a45e33f404ba8cb7a19cfe","64b003020eef62ee308107cc","64b04049b76fbea58f9ad50f","null","null","<p style=""font-size: 60px; font-family: BACS"">rLkmGQYQ</p>","","","","","","","",""
"html-keyboard-response","20","354577","0.0-7.0-0.13","60a45e33f404ba8cb7a19cfe","64b003020eef62ee308107cc","64b04049b76fbea58f9ad50f","null","null","<p style=""font-size: 60px; font-family: BACS"">udkmJcUk</p>","","","","","","","",""
"html-keyboard-response","21","355585","0.0-7.0-0.14","60a45e33f404ba8cb7a19cfe","64b003020eef62ee308107cc","64b04049b76fbea58f9ad50f","null","null","<p style=""font-size: 60px; font-family: BACS"">cDOEBlRE</p>","","","","","","","",""
"html-keyboard-response","22","356592","0.0-7.0-0.15","60a45e33f404ba8cb7a19cfe","64b003020eef62ee308107cc","64b04049b76fbea58f9ad50f","null","null","<p style=""font-size: 60px; font-family: BACS"">CDEmYhBK</p>","","","","","","","",""
"html-keyboard-response","23","357601","0.0-7.0-0.16","60a45e33f404ba8cb7a19cfe","64b003020eef62ee308107cc","64b04049b76fbea58f9ad50f","null","null","<p style=""font-size: 60px; font-family: BACS"">BMEMAlRE</p>","","","","","","","",""
"html-keyboard-response","24","358607","0.0-7.0-0.17","60a45e33f404ba8cb7a19cfe","64b003020eef62ee308107cc","64b04049b76fbea58f9ad50f","null","null","<p style=""font-size: 60px; font-family: BACS"">btlckOtM</p>","","","","","","","",""
"html-keyboard-response","25","359614","0.0-7.0-0.18","60a45e33f404ba8cb7a19cfe","64b003020eef62ee308107cc","64b04049b76fbea58f9ad50f","null","null","<p style=""font-size: 60px; font-family: BACS"">KBKBEhBK</p>","","","","","","","",""
"html-keyboard-response","26","360623","0.0-7.0-0.19","60a45e33f404ba8cb7a19cfe","64b003020eef62ee308107cc","64b04049b76fbea58f9ad50f","null","null","<p style=""font-size: 60px; font-family: BACS"">kbmZOkbu</p>","","","","","","","",""
"html-keyboard-response","27","361633","0.0-7.0-0.20","60a45e33f404ba8cb7a19cfe","64b003020eef62ee308107cc","64b04049b76fbea58f9ad50f","null","null","<p style=""font-size: 60px; font-family: BACS"">TdmAOtM</p>","","","","","","","",""
"html-keyboard-response","28","362640","0.0-7.0-0.21","60a45e33f404ba8cb7a19cfe","64b003020eef62ee308107cc","64b04049b76fbea58f9ad50f","null","null","<p style=""font-size: 60px; font-family: BACS"">KBKBECPMl</p>","","","","","","","",""
"html-keyboard-response","29","363649","0.0-7.0-0.22","60a45e33f404ba8cb7a19cfe","64b003020eef62ee308107cc","64b04049b76fbea58f9ad50f","null","null","<p style=""font-size: 60px; font-family: BACS"">DhMtbTE</p>","","","","","","","",""
"html-keyboard-response","30","364656","0.0-7.0-0.23","60a45e33f404ba8cb7a19cfe","64b003020eef62ee308107cc","64b04049b76fbea58f9ad50f","null","null","<p style=""font-size: 60px; font-family: BACS"">TdmAhBK</p>","","","","","","","",""
"html-keyboard-response","31","365662","0.0-7.0-0.24","60a45e33f404ba8cb7a19cfe","64b003020eef62ee308107cc","64b04049b76fbea58f9ad50f","null","null","<p style=""font-size: 60px; font-family: BACS"">tRdMCPMl</p>","","","","","","","",""
"html-keyboard-response","32","366670","0.0-7.0-0.25","60a45e33f404ba8cb7a19cfe","64b003020eef62ee308107cc","64b04049b76fbea58f9ad50f","null","null","<p style=""font-size: 60px; font-family: BACS"">KBKBEOtM</p>","","","","","","","",""
"html-keyboard-response","33","367678","0.0-7.0-0.26","60a45e33f404ba8cb7a19cfe","64b003020eef62ee308107cc","64b04049b76fbea58f9ad50f","null","null","<p style=""font-size: 60px; font-family: BACS"">BECklRE</p>","","","","","","","",""
"html-keyboard-response","34","368687","0.0-7.0-0.27","60a45e33f404ba8cb7a19cfe","64b003020eef62ee308107cc","64b04049b76fbea58f9ad50f","null","null","<p style=""font-size: 60px; font-family: BACS"">ZkGmYGlu</p>","","","","","","","",""
"html-keyboard-response","35","369698","0.0-7.0-0.28","60a45e33f404ba8cb7a19cfe","64b003020eef62ee308107cc","64b04049b76fbea58f9ad50f","null","null","<p style=""font-size: 60px; font-family: BACS"">TdmACPMl</p>","","","","","","","",""
"html-keyboard-response","36","370704","0.0-7.0-0.29","60a45e33f404ba8cb7a19cfe","64b003020eef62ee308107cc","64b04049b76fbea58f9ad50f","null","null","<p style=""font-size: 60px; font-family: BACS"">rLkmJcUk</p>","","","","","","","",""
"html-keyboard-response","37","371713","0.0-7.0-0.30","60a45e33f404ba8cb7a19cfe","64b003020eef62ee308107cc","64b04049b76fbea58f9ad50f","null","null","<p style=""font-size: 60px; font-family: BACS"">ukYZGQYQ</p>","","","","","","","",""
"html-keyboard-response","38","372721","0.0-7.0-0.31","60a45e33f404ba8cb7a19cfe","64b003020eef62ee308107cc","64b04049b76fbea58f9ad50f","null","null","<p style=""font-size: 60px; font-family: BACS"">BECkOtM</p>","","","","","","","",""
"html-keyboard-response","39","373728","0.0-7.0-0.32","60a45e33f404ba8cb7a19cfe","64b003020eef62ee308107cc","64b04049b76fbea58f9ad50f","null","null","<p style=""font-size: 60px; font-family: BACS"">NvuGrkbu</p>","","","","","","","",""
"html-keyboard-response","40","374737","0.0-7.0-0.33","60a45e33f404ba8cb7a19cfe","64b003020eef62ee308107cc","64b04049b76fbea58f9ad50f","null","null","<p style=""font-size: 60px; font-family: BACS"">YQbcdUr</p>","","","","","","","",""
"html-keyboard-response","41","375744","0.0-7.0-0.34","60a45e33f404ba8cb7a19cfe","64b003020eef62ee308107cc","64b04049b76fbea58f9ad50f","null","null","<p style=""font-size: 60px; font-family: BACS"">BMEMAhBK</p>","","","","","","","",""
"html-keyboard-response","42","376753","0.0-7.0-0.35","60a45e33f404ba8cb7a19cfe","64b003020eef62ee308107cc","64b04049b76fbea58f9ad50f","null","null","<p style=""font-size: 60px; font-family: BACS"">ukYZJcUk</p>","","","","","","","",""
"html-keyboard-response","43","377761","0.0-7.0-0.36","60a45e33f404ba8cb7a19cfe","64b003020eef62ee308107cc","64b04049b76fbea58f9ad50f","null","null","<p style=""font-size: 60px; font-family: BACS"">kLvdNGQYQ</p>","","","","","","","",""
"html-keyboard-response","44","378769","0.0-7.0-0.37","60a45e33f404ba8cb7a19cfe","64b003020eef62ee308107cc","64b04049b76fbea58f9ad50f","null","null","<p style=""font-size: 60px; font-family: BACS"">kbmZOGlu</p>","","","","","","","",""
"html-keyboard-response","45","379777","0.0-7.0-0.38","60a45e33f404ba8cb7a19cfe","64b003020eef62ee308107cc","64b04049b76fbea58f9ad50f","null","null","<p style=""font-size: 60px; font-family: BACS"">udkmGQYQ</p>","","","","","","","",""
"html-keyboard-response","46","380784","0.0-7.0-0.39","60a45e33f404ba8cb7a19cfe","64b003020eef62ee308107cc","64b04049b76fbea58f9ad50f","null","null","<p style=""font-size: 60px; font-family: BACS"">KBKBEbTE</p>","","","","","","","",""
"html-keyboard-response","47","381793","0.0-7.0-0.40","60a45e33f404ba8cb7a19cfe","64b003020eef62ee308107cc","64b04049b76fbea58f9ad50f","null","null","<p style=""font-size: 60px; font-family: BACS"">YQbcGQYQ</p>","","","","","","","",""
"html-keyboard-response","48","382801","0.0-7.0-0.41","60a45e33f404ba8cb7a19cfe","64b003020eef62ee308107cc","64b04049b76fbea58f9ad50f","null","null","<p style=""font-size: 60px; font-family: BACS"">BECkbTE</p>","","","","","","","",""
"html-keyboard-response","49","383807","0.0-7.0-0.42","60a45e33f404ba8cb7a19cfe","64b003020eef62ee308107cc","64b04049b76fbea58f9ad50f","null","null","<p style=""font-size: 60px; font-family: BACS"">CDEmYCPMl</p>","","","","","","","",""
"html-keyboard-response","50","384814","0.0-7.0-0.43","60a45e33f404ba8cb7a19cfe","64b003020eef62ee308107cc","64b04049b76fbea58f9ad50f","null","null","<p style=""font-size: 60px; font-family: BACS"">kGamNGQYQ</p>","","","","","","","",""
"html-keyboard-response","51","385825","0.0-7.0-0.44","60a45e33f404ba8cb7a19cfe","64b003020eef62ee308107cc","64b04049b76fbea58f9ad50f","null","null","<p style=""font-size: 60px; font-family: BACS"">rLkmGlu</p>","","","","","","","",""
"html-keyboard-response","52","386834","0.0-7.0-0.45","60a45e33f404ba8cb7a19cfe","64b003020eef62ee308107cc","64b04049b76fbea58f9ad50f","null","null","<p style=""font-size: 60px; font-family: BACS"">kGamNJcUk</p>","","","","","","","",""
"html-keyboard-response","53","387838","0.0-7.0-0.46","60a45e33f404ba8cb7a19cfe","64b003020eef62ee308107cc","64b04049b76fbea58f9ad50f","null","null","<p style=""font-size: 60px; font-family: BACS"">OmtlDlRE</p>","","","","","","","",""
"html-keyboard-response","54","388850","0.0-7.0-0.47","60a45e33f404ba8cb7a19cfe","64b003020eef62ee308107cc","64b04049b76fbea58f9ad50f","null","null","<p style=""font-size: 60px; font-family: BACS"">tRdMhBK</p>","","","","","","","",""
"html-keyboard-response","55","389858","0.0-7.0-0.48","60a45e33f404ba8cb7a19cfe","64b003020eef62ee308107cc","64b04049b76fbea58f9ad50f","null","null","<p style=""font-size: 60px; font-family: BACS"">kLvdNdUr</p>","","","","","","","",""
"html-keyboard-response","56","390865","0.0-7.0-0.49","60a45e33f404ba8cb7a19cfe","64b003020eef62ee308107cc","64b04049b76fbea58f9ad50f","null","null","<p style=""font-size: 60px; font-family: BACS"">JNkaGQYQ</p>","","","","","","","",""
"html-keyboard-response","57","391873","0.0-7.0-0.50","60a45e33f404ba8cb7a19cfe","64b003020eef62ee308107cc","64b04049b76fbea58f9ad50f","null","null","<p style=""font-size: 60px; font-family: BACS"">ZkGmYJcUk</p>","","","","","","","",""
"html-keyboard-response","58","392882","0.0-7.0-0.51","60a45e33f404ba8cb7a19cfe","64b003020eef62ee308107cc","64b04049b76fbea58f9ad50f","null","null","<p style=""font-size: 60px; font-family: BACS"">tRdMbTE</p>","","","","","","","",""
"html-keyboard-response","59","393889","0.0-7.0-0.52","60a45e33f404ba8cb7a19cfe","64b003020eef62ee308107cc","64b04049b76fbea58f9ad50f","null","null","<p style=""font-size: 60px; font-family: BACS"">kGamNGlu</p>","","","","","","","",""
"html-keyboard-response","60","394898","0.0-7.0-0.53","60a45e33f404ba8cb7a19cfe","64b003020eef62ee308107cc","64b04049b76fbea58f9ad50f","null","null","<p style=""font-size: 60px; font-family: BACS"">kbmZOdUr</p>","","","","","","","",""
"html-keyboard-response","61","395905","0.0-7.0-0.54","60a45e33f404ba8cb7a19cfe","64b003020eef62ee308107cc","64b04049b76fbea58f9ad50f","null","null","<p style=""font-size: 60px; font-family: BACS"">OmtlDbTE</p>","","","","","","","",""
"html-keyboard-response","62","396913","0.0-7.0-0.55","60a45e33f404ba8cb7a19cfe","64b003020eef62ee308107cc","64b04049b76fbea58f9ad50f","null","null","<p style=""font-size: 60px; font-family: BACS"">cDOEBCPMl</p>","","","","","","","",""
"html-keyboard-response","63","397921","0.0-7.0-0.56","60a45e33f404ba8cb7a19cfe","64b003020eef62ee308107cc","64b04049b76fbea58f9ad50f","null","null","<p style=""font-size: 60px; font-family: BACS"">ukYZkbu</p>","","","","","","","",""
"html-keyboard-response","64","398930","0.0-7.0-0.57","60a45e33f404ba8cb7a19cfe","64b003020eef62ee308107cc","64b04049b76fbea58f9ad50f","null","null","<p style=""font-size: 60px; font-family: BACS"">NvuGrGlu</p>","","","","","","","",""
"html-keyboard-response","65","399937","0.0-7.0-0.58","60a45e33f404ba8cb7a19cfe","64b003020eef62ee308107cc","64b04049b76fbea58f9ad50f","null","null","<p style=""font-size: 60px; font-family: BACS"">OmtlDOtM</p>","","","","","","","",""
"html-keyboard-response","66","400945","0.0-7.0-0.59","60a45e33f404ba8cb7a19cfe","64b003020eef62ee308107cc","64b04049b76fbea58f9ad50f","null","null","<p style=""font-size: 60px; font-family: BACS"">NvuGrdUr</p>","","","","","","","",""
"html-keyboard-response","67","401954","0.0-7.0-0.60","60a45e33f404ba8cb7a19cfe","64b003020eef62ee308107cc","64b04049b76fbea58f9ad50f","null","null","<p style=""font-size: 60px; font-family: BACS"">BMEMACPMl</p>","","","","","","","",""
"html-keyboard-response","68","402961","0.0-7.0-0.61","60a45e33f404ba8cb7a19cfe","64b003020eef62ee308107cc","64b04049b76fbea58f9ad50f","null","null","<p style=""font-size: 60px; font-family: BACS"">YQbcJcUk</p>","","","","","","","",""
"html-keyboard-response","69","403969","0.0-7.0-0.62","60a45e33f404ba8cb7a19cfe","64b003020eef62ee308107cc","64b04049b76fbea58f9ad50f","null","null","<p style=""font-size: 60px; font-family: BACS"">TdmAlRE</p>","","","","","","","",""
"html-keyboard-response","70","404978","0.0-7.0-0.63","60a45e33f404ba8cb7a19cfe","64b003020eef62ee308107cc","64b04049b76fbea58f9ad50f","null","null","<p style=""font-size: 60px; font-family: BACS"">OmtlDhBK</p>","","","","","","","",""
"html-keyboard-response","71","405984","0.0-7.0-0.64","60a45e33f404ba8cb7a19cfe","64b003020eef62ee308107cc","64b04049b76fbea58f9ad50f","null","null","<p style=""font-size: 60px; font-family: BACS"">ukYZGlu</p>","","","","","","","",""
"html-keyboard-response","72","406992","0.0-7.0-0.65","60a45e33f404ba8cb7a19cfe","64b003020eef62ee308107cc","64b04049b76fbea58f9ad50f","null","null","<p style=""font-size: 60px; font-family: BACS"">kGamNkbu</p>","","","","","","","",""
"html-keyboard-response","73","408002","0.0-7.0-0.66","60a45e33f404ba8cb7a19cfe","64b003020eef62ee308107cc","64b04049b76fbea58f9ad50f","null","null","<p style=""font-size: 60px; font-family: BACS"">JNkaJcUk</p>","","","","","","","",""
"html-keyboard-response","74","409007","0.0-7.0-0.67","60a45e33f404ba8cb7a19cfe","64b003020eef62ee308107cc","64b04049b76fbea58f9ad50f","null","null","<p style=""font-size: 60px; font-family: BACS"">btlcklRE</p>","","","","","","","",""
"html-keyboard-response","75","410018","0.0-7.0-0.68","60a45e33f404ba8cb7a19cfe","64b003020eef62ee308107cc","64b04049b76fbea58f9ad50f","null","null","<p style=""font-size: 60px; font-family: BACS"">DhMtOtM</p>","","","","","","","",""
"html-keyboard-response","76","411025","0.0-7.0-0.69","60a45e33f404ba8cb7a19cfe","64b003020eef62ee308107cc","64b04049b76fbea58f9ad50f","null","null","<p style=""font-size: 60px; font-family: BACS"">NvuGrGQYQ</p>","","","","","","","",""
"html-keyboard-response","77","412034","0.0-7.0-0.70","60a45e33f404ba8cb7a19cfe","64b003020eef62ee308107cc","64b04049b76fbea58f9ad50f","null","null","<p style=""font-size: 60px; font-family: BACS"">btlckCPMl</p>","","","","","","","",""
"html-keyboard-response","78","413041","0.0-7.0-0.71","60a45e33f404ba8cb7a19cfe","64b003020eef62ee308107cc","64b04049b76fbea58f9ad50f","null","null","<p style=""font-size: 60px; font-family: BACS"">kbmZOJcUk</p>","","","","","","","",""
"html-keyboard-response","79","414047","0.0-7.0-0.72","60a45e33f404ba8cb7a19cfe","64b003020eef62ee308107cc","64b04049b76fbea58f9ad50f","null","null","<p style=""font-size: 60px; font-family: BACS"">DhMthBK</p>","","","","","","","",""
"html-keyboard-response","80","415056","0.0-7.0-0.73","60a45e33f404ba8cb7a19cfe","64b003020eef62ee308107cc","64b04049b76fbea58f9ad50f","null","null","<p style=""font-size: 60px; font-family: BACS"">JNkadUr</p>","","","","","","","",""
"html-keyboard-response","81","416065","0.0-7.0-0.74","60a45e33f404ba8cb7a19cfe","64b003020eef62ee308107cc","64b04049b76fbea58f9ad50f","null","null","<p style=""font-size: 60px; font-family: BACS"">tRdMlRE</p>","","","","","","","",""
"html-keyboard-response","82","417073","0.0-7.0-0.75","60a45e33f404ba8cb7a19cfe","64b003020eef62ee308107cc","64b04049b76fbea58f9ad50f","null","null","<p style=""font-size: 60px; font-family: BACS"">DhMtCPMl</p>","","","","","","","",""
"html-keyboard-response","83","418080","0.0-7.0-0.76","60a45e33f404ba8cb7a19cfe","64b003020eef62ee308107cc","64b04049b76fbea58f9ad50f","null","null","<p style=""font-size: 60px; font-family: BACS"">CDEmYlRE</p>","","","","","","","",""
"html-keyboard-response","84","419086","0.0-7.0-0.77","60a45e33f404ba8cb7a19cfe","64b003020eef62ee308107cc","64b04049b76fbea58f9ad50f","null","null","<p style=""font-size: 60px; font-family: BACS"">JNkakbu</p>","","","","","","","",""
"html-keyboard-response","85","420098","0.0-7.0-0.78","60a45e33f404ba8cb7a19cfe","64b003020eef62ee308107cc","64b04049b76fbea58f9ad50f","null","null","<p style=""font-size: 60px; font-family: BACS"">CDEmYbTE</p>","","","","","","","",""
"html-keyboard-response","86","421104","0.0-7.0-0.79","60a45e33f404ba8cb7a19cfe","64b003020eef62ee308107cc","64b04049b76fbea58f9ad50f","null","null","<p style=""font-size: 60px; font-family: BACS"">ZkGmYdUr</p>","","","","","","","",""
"html-keyboard-response","87","424820","0.0-8.0","60a45e33f404ba8cb7a19cfe","64b003020eef62ee308107cc","64b04049b76fbea58f9ad50f","3716"," ","<p>Ottimo, hai visto il primo blocco di parole. Ora puoi prenderti una piccola pausa.</p>
      <p>Premi la barra quando sei pronta/o per riprendere.</p>","","","","","","","",""
"html-keyboard-response","88","425834","0.0-9.0-0.0","60a45e33f404ba8cb7a19cfe","64b003020eef62ee308107cc","64b04049b76fbea58f9ad50f","null","null","<p style=""font-size: 60px; font-family: BACS"">ZkGmYJcUk</p>","","","","","","","",""
"html-keyboard-response","89","426840","0.0-9.0-0.1","60a45e33f404ba8cb7a19cfe","64b003020eef62ee308107cc","64b04049b76fbea58f9ad50f","null","null","<p style=""font-size: 60px; font-family: BACS"">tRdMhBK</p>","","","","","","","",""
"html-keyboard-response","90","427850","0.0-9.0-0.2","60a45e33f404ba8cb7a19cfe","64b003020eef62ee308107cc","64b04049b76fbea58f9ad50f","null","null","<p style=""font-size: 60px; font-family: BACS"">rLkmGQYQ</p>","","","","","","","",""
"html-keyboard-response","91","428858","0.0-9.0-0.3","60a45e33f404ba8cb7a19cfe","64b003020eef62ee308107cc","64b04049b76fbea58f9ad50f","null","null","<p style=""font-size: 60px; font-family: BACS"">KBKBEhBK</p>","","","","","","","",""
"html-keyboard-response","92","429866","0.0-9.0-0.4","60a45e33f404ba8cb7a19cfe","64b003020eef62ee308107cc","64b04049b76fbea58f9ad50f","null","null","<p style=""font-size: 60px; font-family: BACS"">tRdMCPMl</p>","","","","","","","",""
"html-keyboard-response","93","430873","0.0-9.0-0.5","60a45e33f404ba8cb7a19cfe","64b003020eef62ee308107cc","64b04049b76fbea58f9ad50f","null","null","<p style=""font-size: 60px; font-family: BACS"">NvuGrGlu</p>","","","","","","","",""
"html-keyboard-response","94","431878","0.0-9.0-0.6","60a45e33f404ba8cb7a19cfe","64b003020eef62ee308107cc","64b04049b76fbea58f9ad50f","null","null","<p style=""font-size: 60px; font-family: BACS"">rLkmJcUk</p>","","","","","","","",""
"html-keyboard-response","95","432890","0.0-9.0-0.7","60a45e33f404ba8cb7a19cfe","64b003020eef62ee308107cc","64b04049b76fbea58f9ad50f","null","null","<p style=""font-size: 60px; font-family: BACS"">OmtlDhBK</p>","","","","","","","",""
"html-keyboard-response","96","433896","0.0-9.0-0.8","60a45e33f404ba8cb7a19cfe","64b003020eef62ee308107cc","64b04049b76fbea58f9ad50f","null","null","<p style=""font-size: 60px; font-family: BACS"">kLvdNGlu</p>","","","","","","","",""
"html-keyboard-response","97","434903","0.0-9.0-0.9","60a45e33f404ba8cb7a19cfe","64b003020eef62ee308107cc","64b04049b76fbea58f9ad50f","null","null","<p style=""font-size: 60px; font-family: BACS"">KBKBECPMl</p>","","","","","","","",""
"html-keyboard-response","98","435914","0.0-9.0-0.10","60a45e33f404ba8cb7a19cfe","64b003020eef62ee308107cc","64b04049b76fbea58f9ad50f","null","null","<p style=""font-size: 60px; font-family: BACS"">BMEMAOtM</p>","","","","","","","",""
"html-keyboard-response","99","436922","0.0-9.0-0.11","60a45e33f404ba8cb7a19cfe","64b003020eef62ee308107cc","64b04049b76fbea58f9ad50f","null","null","<p style=""font-size: 60px; font-family: BACS"">NvuGrkbu</p>","","","","","","","",""
"html-keyboard-response","100","437930","0.0-9.0-0.12","60a45e33f404ba8cb7a19cfe","64b003020eef62ee308107cc","64b04049b76fbea58f9ad50f","null","null","<p style=""font-size: 60px; font-family: BACS"">kbmZOGlu</p>","","","","","","","",""
"html-keyboard-response","101","438938","0.0-9.0-0.13","60a45e33f404ba8cb7a19cfe","64b003020eef62ee308107cc","64b04049b76fbea58f9ad50f","null","null","<p style=""font-size: 60px; font-family: BACS"">cDOEBOtM</p>","","","","","","","",""
"html-keyboard-response","102","439946","0.0-9.0-0.14","60a45e33f404ba8cb7a19cfe","64b003020eef62ee308107cc","64b04049b76fbea58f9ad50f","null","null","<p style=""font-size: 60px; font-family: BACS"">NvuGrGQYQ</p>","","","","","","","",""
"html-keyboard-response","103","440953","0.0-9.0-0.15","60a45e33f404ba8cb7a19cfe","64b003020eef62ee308107cc","64b04049b76fbea58f9ad50f","null","null","<p style=""font-size: 60px; font-family: BACS"">YQbckbu</p>","","","","","","","",""
"html-keyboard-response","104","441962","0.0-9.0-0.16","60a45e33f404ba8cb7a19cfe","64b003020eef62ee308107cc","64b04049b76fbea58f9ad50f","null","null","<p style=""font-size: 60px; font-family: BACS"">BECkhBK</p>","","","","","","","",""
"html-keyboard-response","105","442968","0.0-9.0-0.17","60a45e33f404ba8cb7a19cfe","64b003020eef62ee308107cc","64b04049b76fbea58f9ad50f","null","null","<p style=""font-size: 60px; font-family: BACS"">DhMtOtM</p>","","","","","","","",""
"html-keyboard-response","106","443979","0.0-9.0-0.18","60a45e33f404ba8cb7a19cfe","64b003020eef62ee308107cc","64b04049b76fbea58f9ad50f","null","null","<p style=""font-size: 60px; font-family: BACS"">BMEMAhBK</p>","","","","","","","",""
"html-keyboard-response","107","444984","0.0-9.0-0.19","60a45e33f404ba8cb7a19cfe","64b003020eef62ee308107cc","64b04049b76fbea58f9ad50f","null","null","<p style=""font-size: 60px; font-family: BACS"">JNkadUr</p>","","","","","","","",""
"html-keyboard-response","108","445994","0.0-9.0-0.20","60a45e33f404ba8cb7a19cfe","64b003020eef62ee308107cc","64b04049b76fbea58f9ad50f","null","null","<p style=""font-size: 60px; font-family: BACS"">BMEMAlRE</p>","","","","","","","",""
"html-keyboard-response","109","447001","0.0-9.0-0.21","60a45e33f404ba8cb7a19cfe","64b003020eef62ee308107cc","64b04049b76fbea58f9ad50f","null","null","<p style=""font-size: 60px; font-family: BACS"">tRdMbTE</p>","","","","","","","",""
"html-keyboard-response","110","448010","0.0-9.0-0.22","60a45e33f404ba8cb7a19cfe","64b003020eef62ee308107cc","64b04049b76fbea58f9ad50f","null","null","<p style=""font-size: 60px; font-family: BACS"">udkmGlu</p>","","","","","","","",""
"html-keyboard-response","111","449015","0.0-9.0-0.23","60a45e33f404ba8cb7a19cfe","64b003020eef62ee308107cc","64b04049b76fbea58f9ad50f","null","null","<p style=""font-size: 60px; font-family: BACS"">rLkmdUr</p>","","","","","","","",""
"html-keyboard-response","112","450021","0.0-9.0-0.24","60a45e33f404ba8cb7a19cfe","64b003020eef62ee308107cc","64b04049b76fbea58f9ad50f","null","null","<p style=""font-size: 60px; font-family: BACS"">ukYZJcUk</p>","","","","","","","",""
"html-keyboard-response","113","451035","0.0-9.0-0.25","60a45e33f404ba8cb7a19cfe","64b003020eef62ee308107cc","64b04049b76fbea58f9ad50f","null","null","<p style=""font-size: 60px; font-family: BACS"">udkmGQYQ</p>","","","","","","","",""
"html-keyboard-response","114","452042","0.0-9.0-0.26","60a45e33f404ba8cb7a19cfe","64b003020eef62ee308107cc","64b04049b76fbea58f9ad50f","null","null","<p style=""font-size: 60px; font-family: BACS"">kbmZOJcUk</p>","","","","","","","",""
"html-keyboard-response","115","453050","0.0-9.0-0.27","60a45e33f404ba8cb7a19cfe","64b003020eef62ee308107cc","64b04049b76fbea58f9ad50f","null","null","<p style=""font-size: 60px; font-family: BACS"">kLvdNGQYQ</p>","","","","","","","",""
"html-keyboard-response","116","454058","0.0-9.0-0.28","60a45e33f404ba8cb7a19cfe","64b003020eef62ee308107cc","64b04049b76fbea58f9ad50f","null","null","<p style=""font-size: 60px; font-family: BACS"">ukYZGlu</p>","","","","","","","",""
"html-keyboard-response","117","455067","0.0-9.0-0.29","60a45e33f404ba8cb7a19cfe","64b003020eef62ee308107cc","64b04049b76fbea58f9ad50f","null","null","<p style=""font-size: 60px; font-family: BACS"">CDEmYCPMl</p>","","","","","","","",""
"html-keyboard-response","118","456075","0.0-9.0-0.30","60a45e33f404ba8cb7a19cfe","64b003020eef62ee308107cc","64b04049b76fbea58f9ad50f","null","null","<p style=""font-size: 60px; font-family: BACS"">ZkGmYkbu</p>","","","","","","","",""
"html-keyboard-response","119","457079","0.0-9.0-0.31","60a45e33f404ba8cb7a19cfe","64b003020eef62ee308107cc","64b04049b76fbea58f9ad50f","null","null","<p style=""font-size: 60px; font-family: BACS"">btlckbTE</p>","","","","","","","",""
"html-keyboard-response","120","458090","0.0-9.0-0.32","60a45e33f404ba8cb7a19cfe","64b003020eef62ee308107cc","64b04049b76fbea58f9ad50f","null","null","<p style=""font-size: 60px; font-family: BACS"">kGamNGQYQ</p>","","","","","","","",""
"html-keyboard-response","121","459098","0.0-9.0-0.33","60a45e33f404ba8cb7a19cfe","64b003020eef62ee308107cc","64b04049b76fbea58f9ad50f","null","null","<p style=""font-size: 60px; font-family: BACS"">kbmZOkbu</p>","","","","","","","",""
"html-keyboard-response","122","460105","0.0-9.0-0.34","60a45e33f404ba8cb7a19cfe","64b003020eef62ee308107cc","64b04049b76fbea58f9ad50f","null","null","<p style=""font-size: 60px; font-family: BACS"">TdmAlRE</p>","","","","","","","",""
"html-keyboard-response","123","461115","0.0-9.0-0.35","60a45e33f404ba8cb7a19cfe","64b003020eef62ee308107cc","64b04049b76fbea58f9ad50f","null","null","<p style=""font-size: 60px; font-family: BACS"">BECkOtM</p>","","","","","","","",""
"html-keyboard-response","124","462120","0.0-9.0-0.36","60a45e33f404ba8cb7a19cfe","64b003020eef62ee308107cc","64b04049b76fbea58f9ad50f","null","null","<p style=""font-size: 60px; font-family: BACS"">JNkaJcUk</p>","","","","","","","",""
"html-keyboard-response","125","463130","0.0-9.0-0.37","60a45e33f404ba8cb7a19cfe","64b003020eef62ee308107cc","64b04049b76fbea58f9ad50f","null","null","<p style=""font-size: 60px; font-family: BACS"">DhMtCPMl</p>","","","","","","","",""
"html-keyboard-response","126","464138","0.0-9.0-0.38","60a45e33f404ba8cb7a19cfe","64b003020eef62ee308107cc","64b04049b76fbea58f9ad50f","null","null","<p style=""font-size: 60px; font-family: BACS"">kGamNGlu</p>","","","","","","","",""
"html-keyboard-response","127","465146","0.0-9.0-0.39","60a45e33f404ba8cb7a19cfe","64b003020eef62ee308107cc","64b04049b76fbea58f9ad50f","null","null","<p style=""font-size: 60px; font-family: BACS"">tRdMlRE</p>","","","","","","","",""
"html-keyboard-response","128","466155","0.0-9.0-0.40","60a45e33f404ba8cb7a19cfe","64b003020eef62ee308107cc","64b04049b76fbea58f9ad50f","null","null","<p style=""font-size: 60px; font-family: BACS"">kGamNJcUk</p>","","","","","","","",""
"html-keyboard-response","129","467163","0.0-9.0-0.41","60a45e33f404ba8cb7a19cfe","64b003020eef62ee308107cc","64b04049b76fbea58f9ad50f","null","null","<p style=""font-size: 60px; font-family: BACS"">KBKBEbTE</p>","","","","","","","",""
"html-keyboard-response","130","468170","0.0-9.0-0.42","60a45e33f404ba8cb7a19cfe","64b003020eef62ee308107cc","64b04049b76fbea58f9ad50f","null","null","<p style=""font-size: 60px; font-family: BACS"">DhMthBK</p>","","","","","","","",""
"html-keyboard-response","131","469179","0.0-9.0-0.43","60a45e33f404ba8cb7a19cfe","64b003020eef62ee308107cc","64b04049b76fbea58f9ad50f","null","null","<p style=""font-size: 60px; font-family: BACS"">btlckOtM</p>","","","","","","","",""
"html-keyboard-response","132","470186","0.0-9.0-0.44","60a45e33f404ba8cb7a19cfe","64b003020eef62ee308107cc","64b04049b76fbea58f9ad50f","null","null","<p style=""font-size: 60px; font-family: BACS"">cDOEBCPMl</p>","","","","","","","",""
"html-keyboard-response","133","471194","0.0-9.0-0.45","60a45e33f404ba8cb7a19cfe","64b003020eef62ee308107cc","64b04049b76fbea58f9ad50f","null","null","<p style=""font-size: 60px; font-family: BACS"">BECklRE</p>","","","","","","","",""
"html-keyboard-response","134","472202","0.0-9.0-0.46","60a45e33f404ba8cb7a19cfe","64b003020eef62ee308107cc","64b04049b76fbea58f9ad50f","null","null","<p style=""font-size: 60px; font-family: BACS"">TdmACPMl</p>","","","","","","","",""
"html-keyboard-response","135","473208","0.0-9.0-0.47","60a45e33f404ba8cb7a19cfe","64b003020eef62ee308107cc","64b04049b76fbea58f9ad50f","null","null","<p style=""font-size: 60px; font-family: BACS"">kGamNkbu</p>","","","","","","","",""
"html-keyboard-response","136","474218","0.0-9.0-0.48","60a45e33f404ba8cb7a19cfe","64b003020eef62ee308107cc","64b04049b76fbea58f9ad50f","null","null","<p style=""font-size: 60px; font-family: BACS"">udkmJcUk</p>","","","","","","","",""
"html-keyboard-response","137","475226","0.0-9.0-0.49","60a45e33f404ba8cb7a19cfe","64b003020eef62ee308107cc","64b04049b76fbea58f9ad50f","null","null","<p style=""font-size: 60px; font-family: BACS"">CDEmYlRE</p>","","","","","","","",""
"html-keyboard-response","138","476235","0.0-9.0-0.50","60a45e33f404ba8cb7a19cfe","64b003020eef62ee308107cc","64b04049b76fbea58f9ad50f","null","null","<p style=""font-size: 60px; font-family: BACS"">rLkmGlu</p>","","","","","","","",""
"html-keyboard-response","139","477243","0.0-9.0-0.51","60a45e33f404ba8cb7a19cfe","64b003020eef62ee308107cc","64b04049b76fbea58f9ad50f","null","null","<p style=""font-size: 60px; font-family: BACS"">BMEMACPMl</p>","","","","","","","",""
"html-keyboard-response","140","478250","0.0-9.0-0.52","60a45e33f404ba8cb7a19cfe","64b003020eef62ee308107cc","64b04049b76fbea58f9ad50f","null","null","<p style=""font-size: 60px; font-family: BACS"">ZkGmYdUr</p>","","","","","","","",""
"html-keyboard-response","141","479258","0.0-9.0-0.53","60a45e33f404ba8cb7a19cfe","64b003020eef62ee308107cc","64b04049b76fbea58f9ad50f","null","null","<p style=""font-size: 60px; font-family: BACS"">ukYZGQYQ</p>","","","","","","","",""
"html-keyboard-response","142","480266","0.0-9.0-0.54","60a45e33f404ba8cb7a19cfe","64b003020eef62ee308107cc","64b04049b76fbea58f9ad50f","null","null","<p style=""font-size: 60px; font-family: BACS"">kLvdNdUr</p>","","","","","","","",""
"html-keyboard-response","143","481275","0.0-9.0-0.55","60a45e33f404ba8cb7a19cfe","64b003020eef62ee308107cc","64b04049b76fbea58f9ad50f","null","null","<p style=""font-size: 60px; font-family: BACS"">JNkaGQYQ</p>","","","","","","","",""
"html-keyboard-response","144","482282","0.0-9.0-0.56","60a45e33f404ba8cb7a19cfe","64b003020eef62ee308107cc","64b04049b76fbea58f9ad50f","null","null","<p style=""font-size: 60px; font-family: BACS"">kLvdNkbu</p>","","","","","","","",""
"html-keyboard-response","145","483291","0.0-9.0-0.57","60a45e33f404ba8cb7a19cfe","64b003020eef62ee308107cc","64b04049b76fbea58f9ad50f","null","null","<p style=""font-size: 60px; font-family: BACS"">DhMtbTE</p>","","","","","","","",""
"html-keyboard-response","146","484299","0.0-9.0-0.58","60a45e33f404ba8cb7a19cfe","64b003020eef62ee308107cc","64b04049b76fbea58f9ad50f","null","null","<p style=""font-size: 60px; font-family: BACS"">YQbcJcUk</p>","","","","","","","",""
"html-keyboard-response","147","485304","0.0-9.0-0.59","60a45e33f404ba8cb7a19cfe","64b003020eef62ee308107cc","64b04049b76fbea58f9ad50f","null","null","<p style=""font-size: 60px; font-family: BACS"">ZkGmYGlu</p>","","","","","","","",""
"html-keyboard-response","148","486315","0.0-9.0-0.60","60a45e33f404ba8cb7a19cfe","64b003020eef62ee308107cc","64b04049b76fbea58f9ad50f","null","null","<p style=""font-size: 60px; font-family: BACS"">udkmdUr</p>","","","","","","","",""
"html-keyboard-response","149","487322","0.0-9.0-0.61","60a45e33f404ba8cb7a19cfe","64b003020eef62ee308107cc","64b04049b76fbea58f9ad50f","null","null","<p style=""font-size: 60px; font-family: BACS"">TdmAOtM</p>","","","","","","","",""
"html-keyboard-response","150","488330","0.0-9.0-0.62","60a45e33f404ba8cb7a19cfe","64b003020eef62ee308107cc","64b04049b76fbea58f9ad50f","null","null","<p style=""font-size: 60px; font-family: BACS"">OmtlDbTE</p>","","","","","","","",""
"html-keyboard-response","151","489339","0.0-9.0-0.63","60a45e33f404ba8cb7a19cfe","64b003020eef62ee308107cc","64b04049b76fbea58f9ad50f","null","null","<p style=""font-size: 60px; font-family: BACS"">NvuGrdUr</p>","","","","","","","",""
"html-keyboard-response","152","490347","0.0-9.0-0.64","60a45e33f404ba8cb7a19cfe","64b003020eef62ee308107cc","64b04049b76fbea58f9ad50f","null","null","<p style=""font-size: 60px; font-family: BACS"">TdmAhBK</p>","","","","","","","",""
"html-keyboard-response","153","491363","0.0-9.0-0.65","60a45e33f404ba8cb7a19cfe","64b003020eef62ee308107cc","64b04049b76fbea58f9ad50f","null","null","<p style=""font-size: 60px; font-family: BACS"">JNkakbu</p>","","","","","","","",""
"html-keyboard-response","154","492371","0.0-9.0-0.66","60a45e33f404ba8cb7a19cfe","64b003020eef62ee308107cc","64b04049b76fbea58f9ad50f","null","null","<p style=""font-size: 60px; font-family: BACS"">OmtlDOtM</p>","","","","","","","",""
"html-keyboard-response","155","493377","0.0-9.0-0.67","60a45e33f404ba8cb7a19cfe","64b003020eef62ee308107cc","64b04049b76fbea58f9ad50f","null","null","<p style=""font-size: 60px; font-family: BACS"">CDEmYhBK</p>","","","","","","","",""
"html-keyboard-response","156","494387","0.0-9.0-0.68","60a45e33f404ba8cb7a19cfe","64b003020eef62ee308107cc","64b04049b76fbea58f9ad50f","null","null","<p style=""font-size: 60px; font-family: BACS"">BECkbTE</p>","","","","","","","",""
"html-keyboard-response","157","495393","0.0-9.0-0.69","60a45e33f404ba8cb7a19cfe","64b003020eef62ee308107cc","64b04049b76fbea58f9ad50f","null","null","<p style=""font-size: 60px; font-family: BACS"">kbmZOdUr</p>","","","","","","","",""
"html-keyboard-response","158","496400","0.0-9.0-0.70","60a45e33f404ba8cb7a19cfe","64b003020eef62ee308107cc","64b04049b76fbea58f9ad50f","null","null","<p style=""font-size: 60px; font-family: BACS"">btlcklRE</p>","","","","","","","",""
"html-keyboard-response","159","497411","0.0-9.0-0.71","60a45e33f404ba8cb7a19cfe","64b003020eef62ee308107cc","64b04049b76fbea58f9ad50f","null","null","<p style=""font-size: 60px; font-family: BACS"">cDOEBbTE</p>","","","","","","","",""
"html-keyboard-response","160","498418","0.0-9.0-0.72","60a45e33f404ba8cb7a19cfe","64b003020eef62ee308107cc","64b04049b76fbea58f9ad50f","null","null","<p style=""font-size: 60px; font-family: BACS"">YQbcdUr</p>","","","","","","","",""
"html-keyboard-response","161","499426","0.0-9.0-0.73","60a45e33f404ba8cb7a19cfe","64b003020eef62ee308107cc","64b04049b76fbea58f9ad50f","null","null","<p style=""font-size: 60px; font-family: BACS"">KBKBEOtM</p>","","","","","","","",""
"html-keyboard-response","162","500435","0.0-9.0-0.74","60a45e33f404ba8cb7a19cfe","64b003020eef62ee308107cc","64b04049b76fbea58f9ad50f","null","null","<p style=""font-size: 60px; font-family: BACS"">btlckCPMl</p>","","","","","","","",""
"html-keyboard-response","163","501443","0.0-9.0-0.75","60a45e33f404ba8cb7a19cfe","64b003020eef62ee308107cc","64b04049b76fbea58f9ad50f","null","null","<p style=""font-size: 60px; font-family: BACS"">cDOEBlRE</p>","","","","","","","",""
"html-keyboard-response","164","502451","0.0-9.0-0.76","60a45e33f404ba8cb7a19cfe","64b003020eef62ee308107cc","64b04049b76fbea58f9ad50f","null","null","<p style=""font-size: 60px; font-family: BACS"">ukYZkbu</p>","","","","","","","",""
"html-keyboard-response","165","503458","0.0-9.0-0.77","60a45e33f404ba8cb7a19cfe","64b003020eef62ee308107cc","64b04049b76fbea58f9ad50f","null","null","<p style=""font-size: 60px; font-family: BACS"">CDEmYbTE</p>","","","","","","","",""
"html-keyboard-response","166","504466","0.0-9.0-0.78","60a45e33f404ba8cb7a19cfe","64b003020eef62ee308107cc","64b04049b76fbea58f9ad50f","null","null","<p style=""font-size: 60px; font-family: BACS"">YQbcGQYQ</p>","","","","","","","",""
"html-keyboard-response","167","505475","0.0-9.0-0.79","60a45e33f404ba8cb7a19cfe","64b003020eef62ee308107cc","64b04049b76fbea58f9ad50f","null","null","<p style=""font-size: 60px; font-family: BACS"">OmtlDlRE</p>","","","","","","","",""
"html-keyboard-response","168","523205","0.0-10.0","60a45e33f404ba8cb7a19cfe","64b003020eef62ee308107cc","64b04049b76fbea58f9ad50f","17729"," ","<p>Ottimo, hai visto il secondo blocco di parole. Ora puoi prenderti una piccola pausa.</p>
      <p>Premi la barra quando sei pronta/o per riprendere.</p>","","","","","","","",""
"html-keyboard-response","169","524215","0.0-11.0-0.0","60a45e33f404ba8cb7a19cfe","64b003020eef62ee308107cc","64b04049b76fbea58f9ad50f","null","null","<p style=""font-size: 60px; font-family: BACS"">kLvdNGQYQ</p>","","","","","","","",""
"html-keyboard-response","170","525227","0.0-11.0-0.1","60a45e33f404ba8cb7a19cfe","64b003020eef62ee308107cc","64b04049b76fbea58f9ad50f","null","null","<p style=""font-size: 60px; font-family: BACS"">kbmZOdUr</p>","","","","","","","",""
"html-keyboard-response","171","526233","0.0-11.0-0.2","60a45e33f404ba8cb7a19cfe","64b003020eef62ee308107cc","64b04049b76fbea58f9ad50f","null","null","<p style=""font-size: 60px; font-family: BACS"">TdmACPMl</p>","","","","","","","",""
"html-keyboard-response","172","527243","0.0-11.0-0.3","60a45e33f404ba8cb7a19cfe","64b003020eef62ee308107cc","64b04049b76fbea58f9ad50f","null","null","<p style=""font-size: 60px; font-family: BACS"">kGamNGQYQ</p>","","","","","","","",""
"html-keyboard-response","173","528251","0.0-11.0-0.4","60a45e33f404ba8cb7a19cfe","64b003020eef62ee308107cc","64b04049b76fbea58f9ad50f","null","null","<p style=""font-size: 60px; font-family: BACS"">KBKBEOtM</p>","","","","","","","",""
"html-keyboard-response","174","529255","0.0-11.0-0.5","60a45e33f404ba8cb7a19cfe","64b003020eef62ee308107cc","64b04049b76fbea58f9ad50f","null","null","<p style=""font-size: 60px; font-family: BACS"">btlckCPMl</p>","","","","","","","",""
"html-keyboard-response","175","530267","0.0-11.0-0.6","60a45e33f404ba8cb7a19cfe","64b003020eef62ee308107cc","64b04049b76fbea58f9ad50f","null","null","<p style=""font-size: 60px; font-family: BACS"">KBKBEhBK</p>","","","","","","","",""
"html-keyboard-response","176","531273","0.0-11.0-0.7","60a45e33f404ba8cb7a19cfe","64b003020eef62ee308107cc","64b04049b76fbea58f9ad50f","null","null","<p style=""font-size: 60px; font-family: BACS"">TdmAOtM</p>","","","","","","","",""
"html-keyboard-response","177","532283","0.0-11.0-0.8","60a45e33f404ba8cb7a19cfe","64b003020eef62ee308107cc","64b04049b76fbea58f9ad50f","null","null","<p style=""font-size: 60px; font-family: BACS"">kLvdNGlu</p>","","","","","","","",""
"html-keyboard-response","178","533291","0.0-11.0-0.9","60a45e33f404ba8cb7a19cfe","64b003020eef62ee308107cc","64b04049b76fbea58f9ad50f","null","null","<p style=""font-size: 60px; font-family: BACS"">btlckbTE</p>","","","","","","","",""
"html-keyboard-response","179","534299","0.0-11.0-0.10","60a45e33f404ba8cb7a19cfe","64b003020eef62ee308107cc","64b04049b76fbea58f9ad50f","null","null","<p style=""font-size: 60px; font-family: BACS"">kGamNJcUk</p>","","","","","","","",""
"html-keyboard-response","180","535305","0.0-11.0-0.11","60a45e33f404ba8cb7a19cfe","64b003020eef62ee308107cc","64b04049b76fbea58f9ad50f","null","null","<p style=""font-size: 60px; font-family: BACS"">rLkmGQYQ</p>","","","","","","","",""
"html-keyboard-response","181","536316","0.0-11.0-0.12","60a45e33f404ba8cb7a19cfe","64b003020eef62ee308107cc","64b04049b76fbea58f9ad50f","null","null","<p style=""font-size: 60px; font-family: BACS"">btlckOtM</p>","","","","","","","",""
"html-keyboard-response","182","537319","0.0-11.0-0.13","60a45e33f404ba8cb7a19cfe","64b003020eef62ee308107cc","64b04049b76fbea58f9ad50f","null","null","<p style=""font-size: 60px; font-family: BACS"">cDOEBCPMl</p>","","","","","","","",""
"html-keyboard-response","183","538330","0.0-11.0-0.14","60a45e33f404ba8cb7a19cfe","64b003020eef62ee308107cc","64b04049b76fbea58f9ad50f","null","null","<p style=""font-size: 60px; font-family: BACS"">BECklRE</p>","","","","","","","",""
"html-keyboard-response","184","539339","0.0-11.0-0.15","60a45e33f404ba8cb7a19cfe","64b003020eef62ee308107cc","64b04049b76fbea58f9ad50f","null","null","<p style=""font-size: 60px; font-family: BACS"">cDOEBbTE</p>","","","","","","","",""
"html-keyboard-response","185","540347","0.0-11.0-0.16","60a45e33f404ba8cb7a19cfe","64b003020eef62ee308107cc","64b04049b76fbea58f9ad50f","null","null","<p style=""font-size: 60px; font-family: BACS"">BECkOtM</p>","","","","","","","",""
"html-keyboard-response","186","541355","0.0-11.0-0.17","60a45e33f404ba8cb7a19cfe","64b003020eef62ee308107cc","64b04049b76fbea58f9ad50f","null","null","<p style=""font-size: 60px; font-family: BACS"">ukYZGlu</p>","","","","","","","",""
"html-keyboard-response","187","542360","0.0-11.0-0.18","60a45e33f404ba8cb7a19cfe","64b003020eef62ee308107cc","64b04049b76fbea58f9ad50f","null","null","<p style=""font-size: 60px; font-family: BACS"">BMEMAlRE</p>","","","","","","","",""
"html-keyboard-response","188","543371","0.0-11.0-0.19","60a45e33f404ba8cb7a19cfe","64b003020eef62ee308107cc","64b04049b76fbea58f9ad50f","null","null","<p style=""font-size: 60px; font-family: BACS"">OmtlDOtM</p>","","","","","","","",""
"html-keyboard-response","189","544379","0.0-11.0-0.20","60a45e33f404ba8cb7a19cfe","64b003020eef62ee308107cc","64b04049b76fbea58f9ad50f","null","null","<p style=""font-size: 60px; font-family: BACS"">BECkhBK</p>","","","","","","","",""
"html-keyboard-response","190","545388","0.0-11.0-0.21","60a45e33f404ba8cb7a19cfe","64b003020eef62ee308107cc","64b04049b76fbea58f9ad50f","null","null","<p style=""font-size: 60px; font-family: BACS"">YQbckbu</p>","","","","","","","",""
"html-keyboard-response","191","546395","0.0-11.0-0.22","60a45e33f404ba8cb7a19cfe","64b003020eef62ee308107cc","64b04049b76fbea58f9ad50f","null","null","<p style=""font-size: 60px; font-family: BACS"">NvuGrGlu</p>","","","","","","","",""
"html-keyboard-response","192","547403","0.0-11.0-0.23","60a45e33f404ba8cb7a19cfe","64b003020eef62ee308107cc","64b04049b76fbea58f9ad50f","null","null","<p style=""font-size: 60px; font-family: BACS"">CDEmYlRE</p>","","","","","","","",""
"html-keyboard-response","193","548412","0.0-11.0-0.24","60a45e33f404ba8cb7a19cfe","64b003020eef62ee308107cc","64b04049b76fbea58f9ad50f","null","null","<p style=""font-size: 60px; font-family: BACS"">tRdMCPMl</p>","","","","","","","",""
"html-keyboard-response","194","549419","0.0-11.0-0.25","60a45e33f404ba8cb7a19cfe","64b003020eef62ee308107cc","64b04049b76fbea58f9ad50f","null","null","<p style=""font-size: 60px; font-family: BACS"">TdmAlRE</p>","","","","","","","",""
"html-keyboard-response","195","550425","0.0-11.0-0.26","60a45e33f404ba8cb7a19cfe","64b003020eef62ee308107cc","64b04049b76fbea58f9ad50f","null","null","<p style=""font-size: 60px; font-family: BACS"">BECkbTE</p>","","","","","","","",""
"html-keyboard-response","196","551436","0.0-11.0-0.27","60a45e33f404ba8cb7a19cfe","64b003020eef62ee308107cc","64b04049b76fbea58f9ad50f","null","null","<p style=""font-size: 60px; font-family: BACS"">ZkGmYJcUk</p>","","","","","","","",""
"html-keyboard-response","197","552443","0.0-11.0-0.28","60a45e33f404ba8cb7a19cfe","64b003020eef62ee308107cc","64b04049b76fbea58f9ad50f","null","null","<p style=""font-size: 60px; font-family: BACS"">udkmdUr</p>","","","","","","","",""
"html-keyboard-response","198","553451","0.0-11.0-0.29","60a45e33f404ba8cb7a19cfe","64b003020eef62ee308107cc","64b04049b76fbea58f9ad50f","null","null","<p style=""font-size: 60px; font-family: BACS"">ukYZGQYQ</p>","","","","","","","",""
"html-keyboard-response","199","554459","0.0-11.0-0.30","60a45e33f404ba8cb7a19cfe","64b003020eef62ee308107cc","64b04049b76fbea58f9ad50f","null","null","<p style=""font-size: 60px; font-family: BACS"">BMEMACPMl</p>","","","","","","","",""
"html-keyboard-response","200","555466","0.0-11.0-0.31","60a45e33f404ba8cb7a19cfe","64b003020eef62ee308107cc","64b04049b76fbea58f9ad50f","null","null","<p style=""font-size: 60px; font-family: BACS"">udkmGQYQ</p>","","","","","","","",""
"html-keyboard-response","201","556472","0.0-11.0-0.32","60a45e33f404ba8cb7a19cfe","64b003020eef62ee308107cc","64b04049b76fbea58f9ad50f","null","null","<p style=""font-size: 60px; font-family: BACS"">kGamNkbu</p>","","","","","","","",""
"html-keyboard-response","202","557484","0.0-11.0-0.33","60a45e33f404ba8cb7a19cfe","64b003020eef62ee308107cc","64b04049b76fbea58f9ad50f","null","null","<p style=""font-size: 60px; font-family: BACS"">tRdMlRE</p>","","","","","","","",""
"html-keyboard-response","203","558491","0.0-11.0-0.34","60a45e33f404ba8cb7a19cfe","64b003020eef62ee308107cc","64b04049b76fbea58f9ad50f","null","null","<p style=""font-size: 60px; font-family: BACS"">DhMthBK</p>","","","","","","","",""
"html-keyboard-response","204","559499","0.0-11.0-0.35","60a45e33f404ba8cb7a19cfe","64b003020eef62ee308107cc","64b04049b76fbea58f9ad50f","null","null","<p style=""font-size: 60px; font-family: BACS"">JNkadUr</p>","","","","","","","",""
"html-keyboard-response","205","560507","0.0-11.0-0.36","60a45e33f404ba8cb7a19cfe","64b003020eef62ee308107cc","64b04049b76fbea58f9ad50f","null","null","<p style=""font-size: 60px; font-family: BACS"">BMEMAhBK</p>","","","","","","","",""
"html-keyboard-response","206","561515","0.0-11.0-0.37","60a45e33f404ba8cb7a19cfe","64b003020eef62ee308107cc","64b04049b76fbea58f9ad50f","null","null","<p style=""font-size: 60px; font-family: BACS"">JNkaJcUk</p>","","","","","","","",""
"html-keyboard-response","207","562521","0.0-11.0-0.38","60a45e33f404ba8cb7a19cfe","64b003020eef62ee308107cc","64b04049b76fbea58f9ad50f","null","null","<p style=""font-size: 60px; font-family: BACS"">NvuGrGQYQ</p>","","","","","","","",""
"html-keyboard-response","208","563532","0.0-11.0-0.39","60a45e33f404ba8cb7a19cfe","64b003020eef62ee308107cc","64b04049b76fbea58f9ad50f","null","null","<p style=""font-size: 60px; font-family: BACS"">DhMtbTE</p>","","","","","","","",""
"html-keyboard-response","209","564540","0.0-11.0-0.40","60a45e33f404ba8cb7a19cfe","64b003020eef62ee308107cc","64b04049b76fbea58f9ad50f","null","null","<p style=""font-size: 60px; font-family: BACS"">ZkGmYkbu</p>","","","","","","","",""
"html-keyboard-response","210","565547","0.0-11.0-0.41","60a45e33f404ba8cb7a19cfe","64b003020eef62ee308107cc","64b04049b76fbea58f9ad50f","null","null","<p style=""font-size: 60px; font-family: BACS"">BMEMAOtM</p>","","","","","","","",""
"html-keyboard-response","211","566556","0.0-11.0-0.42","60a45e33f404ba8cb7a19cfe","64b003020eef62ee308107cc","64b04049b76fbea58f9ad50f","null","null","<p style=""font-size: 60px; font-family: BACS"">YQbcGQYQ</p>","","","","","","","",""
"html-keyboard-response","212","567560","0.0-11.0-0.43","60a45e33f404ba8cb7a19cfe","64b003020eef62ee308107cc","64b04049b76fbea58f9ad50f","null","null","<p style=""font-size: 60px; font-family: BACS"">ukYZJcUk</p>","","","","","","","",""
"html-keyboard-response","213","568571","0.0-11.0-0.44","60a45e33f404ba8cb7a19cfe","64b003020eef62ee308107cc","64b04049b76fbea58f9ad50f","null","null","<p style=""font-size: 60px; font-family: BACS"">tRdMbTE</p>","","","","","","","",""
"html-keyboard-response","214","569579","0.0-11.0-0.45","60a45e33f404ba8cb7a19cfe","64b003020eef62ee308107cc","64b04049b76fbea58f9ad50f","null","null","<p style=""font-size: 60px; font-family: BACS"">NvuGrkbu</p>","","","","","","","",""
"html-keyboard-response","215","570588","0.0-11.0-0.46","60a45e33f404ba8cb7a19cfe","64b003020eef62ee308107cc","64b04049b76fbea58f9ad50f","null","null","<p style=""font-size: 60px; font-family: BACS"">cDOEBlRE</p>","","","","","","","",""
"html-keyboard-response","216","571596","0.0-11.0-0.47","60a45e33f404ba8cb7a19cfe","64b003020eef62ee308107cc","64b04049b76fbea58f9ad50f","null","null","<p style=""font-size: 60px; font-family: BACS"">kbmZOGlu</p>","","","","","","","",""
"html-keyboard-response","217","572603","0.0-11.0-0.48","60a45e33f404ba8cb7a19cfe","64b003020eef62ee308107cc","64b04049b76fbea58f9ad50f","null","null","<p style=""font-size: 60px; font-family: BACS"">TdmAhBK</p>","","","","","","","",""
"html-keyboard-response","218","573608","0.0-11.0-0.49","60a45e33f404ba8cb7a19cfe","64b003020eef62ee308107cc","64b04049b76fbea58f9ad50f","null","null","<p style=""font-size: 60px; font-family: BACS"">cDOEBOtM</p>","","","","","","","",""
"html-keyboard-response","219","574618","0.0-11.0-0.50","60a45e33f404ba8cb7a19cfe","64b003020eef62ee308107cc","64b04049b76fbea58f9ad50f","null","null","<p style=""font-size: 60px; font-family: BACS"">YQbcdUr</p>","","","","","","","",""
"html-keyboard-response","220","575628","0.0-11.0-0.51","60a45e33f404ba8cb7a19cfe","64b003020eef62ee308107cc","64b04049b76fbea58f9ad50f","null","null","<p style=""font-size: 60px; font-family: BACS"">rLkmJcUk</p>","","","","","","","",""
"html-keyboard-response","221","576636","0.0-11.0-0.52","60a45e33f404ba8cb7a19cfe","64b003020eef62ee308107cc","64b04049b76fbea58f9ad50f","null","null","<p style=""font-size: 60px; font-family: BACS"">KBKBECPMl</p>","","","","","","","",""
"html-keyboard-response","222","577644","0.0-11.0-0.53","60a45e33f404ba8cb7a19cfe","64b003020eef62ee308107cc","64b04049b76fbea58f9ad50f","null","null","<p style=""font-size: 60px; font-family: BACS"">tRdMhBK</p>","","","","","","","",""
"html-keyboard-response","223","578651","0.0-11.0-0.54","60a45e33f404ba8cb7a19cfe","64b003020eef62ee308107cc","64b04049b76fbea58f9ad50f","null","null","<p style=""font-size: 60px; font-family: BACS"">ZkGmYGlu</p>","","","","","","","",""
"html-keyboard-response","224","579659","0.0-11.0-0.55","60a45e33f404ba8cb7a19cfe","64b003020eef62ee308107cc","64b04049b76fbea58f9ad50f","null","null","<p style=""font-size: 60px; font-family: BACS"">DhMtCPMl</p>","","","","","","","",""
"html-keyboard-response","225","580667","0.0-11.0-0.56","60a45e33f404ba8cb7a19cfe","64b003020eef62ee308107cc","64b04049b76fbea58f9ad50f","null","null","<p style=""font-size: 60px; font-family: BACS"">kbmZOJcUk</p>","","","","","","","",""
"html-keyboard-response","226","581675","0.0-11.0-0.57","60a45e33f404ba8cb7a19cfe","64b003020eef62ee308107cc","64b04049b76fbea58f9ad50f","null","null","<p style=""font-size: 60px; font-family: BACS"">DhMtOtM</p>","","","","","","","",""
"html-keyboard-response","227","582684","0.0-11.0-0.58","60a45e33f404ba8cb7a19cfe","64b003020eef62ee308107cc","64b04049b76fbea58f9ad50f","null","null","<p style=""font-size: 60px; font-family: BACS"">rLkmGlu</p>","","","","","","","",""
"html-keyboard-response","228","583692","0.0-11.0-0.59","60a45e33f404ba8cb7a19cfe","64b003020eef62ee308107cc","64b04049b76fbea58f9ad50f","null","null","<p style=""font-size: 60px; font-family: BACS"">OmtlDlRE</p>","","","","","","","",""
"html-keyboard-response","229","584697","0.0-11.0-0.60","60a45e33f404ba8cb7a19cfe","64b003020eef62ee308107cc","64b04049b76fbea58f9ad50f","null","null","<p style=""font-size: 60px; font-family: BACS"">kLvdNdUr</p>","","","","","","","",""
"html-keyboard-response","230","585704","0.0-11.0-0.61","60a45e33f404ba8cb7a19cfe","64b003020eef62ee308107cc","64b04049b76fbea58f9ad50f","null","null","<p style=""font-size: 60px; font-family: BACS"">KBKBEbTE</p>","","","","","","","",""
"html-keyboard-response","231","586716","0.0-11.0-0.62","60a45e33f404ba8cb7a19cfe","64b003020eef62ee308107cc","64b04049b76fbea58f9ad50f","null","null","<p style=""font-size: 60px; font-family: BACS"">udkmGlu</p>","","","","","","","",""
"html-keyboard-response","232","587722","0.0-11.0-0.63","60a45e33f404ba8cb7a19cfe","64b003020eef62ee308107cc","64b04049b76fbea58f9ad50f","null","null","<p style=""font-size: 60px; font-family: BACS"">JNkakbu</p>","","","","","","","",""
"html-keyboard-response","233","588731","0.0-11.0-0.64","60a45e33f404ba8cb7a19cfe","64b003020eef62ee308107cc","64b04049b76fbea58f9ad50f","null","null","<p style=""font-size: 60px; font-family: BACS"">YQbcJcUk</p>","","","","","","","",""
"html-keyboard-response","234","589739","0.0-11.0-0.65","60a45e33f404ba8cb7a19cfe","64b003020eef62ee308107cc","64b04049b76fbea58f9ad50f","null","null","<p style=""font-size: 60px; font-family: BACS"">OmtlDhBK</p>","","","","","","","",""
"html-keyboard-response","235","590748","0.0-11.0-0.66","60a45e33f404ba8cb7a19cfe","64b003020eef62ee308107cc","64b04049b76fbea58f9ad50f","null","null","<p style=""font-size: 60px; font-family: BACS"">ZkGmYdUr</p>","","","","","","","",""
"html-keyboard-response","236","591756","0.0-11.0-0.67","60a45e33f404ba8cb7a19cfe","64b003020eef62ee308107cc","64b04049b76fbea58f9ad50f","null","null","<p style=""font-size: 60px; font-family: BACS"">CDEmYbTE</p>","","","","","","","",""
"html-keyboard-response","237","592763","0.0-11.0-0.68","60a45e33f404ba8cb7a19cfe","64b003020eef62ee308107cc","64b04049b76fbea58f9ad50f","null","null","<p style=""font-size: 60px; font-family: BACS"">kGamNGlu</p>","","","","","","","",""
"html-keyboard-response","238","593769","0.0-11.0-0.69","60a45e33f404ba8cb7a19cfe","64b003020eef62ee308107cc","64b04049b76fbea58f9ad50f","null","null","<p style=""font-size: 60px; font-family: BACS"">NvuGrdUr</p>","","","","","","","",""
"html-keyboard-response","239","594777","0.0-11.0-0.70","60a45e33f404ba8cb7a19cfe","64b003020eef62ee308107cc","64b04049b76fbea58f9ad50f","null","null","<p style=""font-size: 60px; font-family: BACS"">udkmJcUk</p>","","","","","","","",""
"html-keyboard-response","240","595785","0.0-11.0-0.71","60a45e33f404ba8cb7a19cfe","64b003020eef62ee308107cc","64b04049b76fbea58f9ad50f","null","null","<p style=""font-size: 60px; font-family: BACS"">ukYZkbu</p>","","","","","","","",""
"html-keyboard-response","241","596796","0.0-11.0-0.72","60a45e33f404ba8cb7a19cfe","64b003020eef62ee308107cc","64b04049b76fbea58f9ad50f","null","null","<p style=""font-size: 60px; font-family: BACS"">OmtlDbTE</p>","","","","","","","",""
"html-keyboard-response","242","597802","0.0-11.0-0.73","60a45e33f404ba8cb7a19cfe","64b003020eef62ee308107cc","64b04049b76fbea58f9ad50f","null","null","<p style=""font-size: 60px; font-family: BACS"">CDEmYCPMl</p>","","","","","","","",""
"html-keyboard-response","243","598812","0.0-11.0-0.74","60a45e33f404ba8cb7a19cfe","64b003020eef62ee308107cc","64b04049b76fbea58f9ad50f","null","null","<p style=""font-size: 60px; font-family: BACS"">JNkaGQYQ</p>","","","","","","","",""
"html-keyboard-response","244","599820","0.0-11.0-0.75","60a45e33f404ba8cb7a19cfe","64b003020eef62ee308107cc","64b04049b76fbea58f9ad50f","null","null","<p style=""font-size: 60px; font-family: BACS"">kLvdNkbu</p>","","","","","","","",""
"html-keyboard-response","245","600828","0.0-11.0-0.76","60a45e33f404ba8cb7a19cfe","64b003020eef62ee308107cc","64b04049b76fbea58f9ad50f","null","null","<p style=""font-size: 60px; font-family: BACS"">btlcklRE</p>","","","","","","","",""
"html-keyboard-response","246","601836","0.0-11.0-0.77","60a45e33f404ba8cb7a19cfe","64b003020eef62ee308107cc","64b04049b76fbea58f9ad50f","null","null","<p style=""font-size: 60px; font-family: BACS"">CDEmYhBK</p>","","","","","","","",""
"html-keyboard-response","247","602843","0.0-11.0-0.78","60a45e33f404ba8cb7a19cfe","64b003020eef62ee308107cc","64b04049b76fbea58f9ad50f","null","null","<p style=""font-size: 60px; font-family: BACS"">kbmZOkbu</p>","","","","","","","",""
"html-keyboard-response","248","603853","0.0-11.0-0.79","60a45e33f404ba8cb7a19cfe","64b003020eef62ee308107cc","64b04049b76fbea58f9ad50f","null","null","<p style=""font-size: 60px; font-family: BACS"">rLkmdUr</p>","","","","","","","",""
"html-keyboard-response","249","607899","0.0-12.0","60a45e33f404ba8cb7a19cfe","64b003020eef62ee308107cc","64b04049b76fbea58f9ad50f","4045"," ","<p>Ottimo, hai visto il terzo blocco di parole. Ora puoi prenderti una piccola pausa.</p>
      <p>Premi la barra quando sei pronta/o per riprendere.</p>","","","","","","","",""
"html-keyboard-response","250","608908","0.0-13.0-0.0","60a45e33f404ba8cb7a19cfe","64b003020eef62ee308107cc","64b04049b76fbea58f9ad50f","null","null","<p style=""font-size: 60px; font-family: BACS"">JNkaJcUk</p>","","","","","","","",""
"html-keyboard-response","251","609915","0.0-13.0-0.1","60a45e33f404ba8cb7a19cfe","64b003020eef62ee308107cc","64b04049b76fbea58f9ad50f","null","null","<p style=""font-size: 60px; font-family: BACS"">BMEMACPMl</p>","","","","","","","",""
"html-keyboard-response","252","610922","0.0-13.0-0.2","60a45e33f404ba8cb7a19cfe","64b003020eef62ee308107cc","64b04049b76fbea58f9ad50f","null","null","<p style=""font-size: 60px; font-family: BACS"">rLkmGlu</p>","","","","","","","",""
"html-keyboard-response","253","611932","0.0-13.0-0.3","60a45e33f404ba8cb7a19cfe","64b003020eef62ee308107cc","64b04049b76fbea58f9ad50f","null","null","<p style=""font-size: 60px; font-family: BACS"">ukYZJcUk</p>","","","","","","","",""
"html-keyboard-response","254","612939","0.0-13.0-0.4","60a45e33f404ba8cb7a19cfe","64b003020eef62ee308107cc","64b04049b76fbea58f9ad50f","null","null","<p style=""font-size: 60px; font-family: BACS"">NvuGrkbu</p>","","","","","","","",""
"html-keyboard-response","255","613948","0.0-13.0-0.5","60a45e33f404ba8cb7a19cfe","64b003020eef62ee308107cc","64b04049b76fbea58f9ad50f","null","null","<p style=""font-size: 60px; font-family: BACS"">TdmAOtM</p>","","","","","","","",""
"html-keyboard-response","256","614956","0.0-13.0-0.6","60a45e33f404ba8cb7a19cfe","64b003020eef62ee308107cc","64b04049b76fbea58f9ad50f","null","null","<p style=""font-size: 60px; font-family: BACS"">OmtlDhBK</p>","","","","","","","",""
"html-keyboard-response","257","615965","0.0-13.0-0.7","60a45e33f404ba8cb7a19cfe","64b003020eef62ee308107cc","64b04049b76fbea58f9ad50f","null","null","<p style=""font-size: 60px; font-family: BACS"">cDOEBOtM</p>","","","","","","","",""
"html-keyboard-response","258","616972","0.0-13.0-0.8","60a45e33f404ba8cb7a19cfe","64b003020eef62ee308107cc","64b04049b76fbea58f9ad50f","null","null","<p style=""font-size: 60px; font-family: BACS"">NvuGrGQYQ</p>","","","","","","","",""
"html-keyboard-response","259","617980","0.0-13.0-0.9","60a45e33f404ba8cb7a19cfe","64b003020eef62ee308107cc","64b04049b76fbea58f9ad50f","null","null","<p style=""font-size: 60px; font-family: BACS"">btlckOtM</p>","","","","","","","",""
"html-keyboard-response","260","618989","0.0-13.0-0.10","60a45e33f404ba8cb7a19cfe","64b003020eef62ee308107cc","64b04049b76fbea58f9ad50f","null","null","<p style=""font-size: 60px; font-family: BACS"">ZkGmYkbu</p>","","","","","","","",""
"html-keyboard-response","261","619996","0.0-13.0-0.11","60a45e33f404ba8cb7a19cfe","64b003020eef62ee308107cc","64b04049b76fbea58f9ad50f","null","null","<p style=""font-size: 60px; font-family: BACS"">udkmdUr</p>","","","","","","","",""
"html-keyboard-response","262","621005","0.0-13.0-0.12","60a45e33f404ba8cb7a19cfe","64b003020eef62ee308107cc","64b04049b76fbea58f9ad50f","null","null","<p style=""font-size: 60px; font-family: BACS"">OmtlDbTE</p>","","","","","","","",""
"html-keyboard-response","263","622010","0.0-13.0-0.13","60a45e33f404ba8cb7a19cfe","64b003020eef62ee308107cc","64b04049b76fbea58f9ad50f","null","null","<p style=""font-size: 60px; font-family: BACS"">udkmGlu</p>","","","","","","","",""
"html-keyboard-response","264","623017","0.0-13.0-0.14","60a45e33f404ba8cb7a19cfe","64b003020eef62ee308107cc","64b04049b76fbea58f9ad50f","null","null","<p style=""font-size: 60px; font-family: BACS"">rLkmJcUk</p>","","","","","","","",""
"html-keyboard-response","265","624024","0.0-13.0-0.15","60a45e33f404ba8cb7a19cfe","64b003020eef62ee308107cc","64b04049b76fbea58f9ad50f","null","null","<p style=""font-size: 60px; font-family: BACS"">YQbcdUr</p>","","","","","","","",""
"html-keyboard-response","266","625033","0.0-13.0-0.16","60a45e33f404ba8cb7a19cfe","64b003020eef62ee308107cc","64b04049b76fbea58f9ad50f","null","null","<p style=""font-size: 60px; font-family: BACS"">BECkOtM</p>","","","","","","","",""
"html-keyboard-response","267","626044","0.0-13.0-0.17","60a45e33f404ba8cb7a19cfe","64b003020eef62ee308107cc","64b04049b76fbea58f9ad50f","null","null","<p style=""font-size: 60px; font-family: BACS"">JNkakbu</p>","","","","","","","",""
"html-keyboard-response","268","627052","0.0-13.0-0.18","60a45e33f404ba8cb7a19cfe","64b003020eef62ee308107cc","64b04049b76fbea58f9ad50f","null","null","<p style=""font-size: 60px; font-family: BACS"">rLkmdUr</p>","","","","","","","",""
"html-keyboard-response","269","628061","0.0-13.0-0.19","60a45e33f404ba8cb7a19cfe","64b003020eef62ee308107cc","64b04049b76fbea58f9ad50f","null","null","<p style=""font-size: 60px; font-family: BACS"">YQbcJcUk</p>","","","","","","","",""
"html-keyboard-response","270","629068","0.0-13.0-0.20","60a45e33f404ba8cb7a19cfe","64b003020eef62ee308107cc","64b04049b76fbea58f9ad50f","null","null","<p style=""font-size: 60px; font-family: BACS"">rLkmGQYQ</p>","","","","","","","",""
"html-keyboard-response","271","630074","0.0-13.0-0.21","60a45e33f404ba8cb7a19cfe","64b003020eef62ee308107cc","64b04049b76fbea58f9ad50f","null","null","<p style=""font-size: 60px; font-family: BACS"">TdmAlRE</p>","","","","","","","",""
"html-keyboard-response","272","631085","0.0-13.0-0.22","60a45e33f404ba8cb7a19cfe","64b003020eef62ee308107cc","64b04049b76fbea58f9ad50f","null","null","<p style=""font-size: 60px; font-family: BACS"">udkmJcUk</p>","","","","","","","",""
"html-keyboard-response","273","632092","0.0-13.0-0.23","60a45e33f404ba8cb7a19cfe","64b003020eef62ee308107cc","64b04049b76fbea58f9ad50f","null","null","<p style=""font-size: 60px; font-family: BACS"">KBKBEbTE</p>","","","","","","","",""
"html-keyboard-response","274","633101","0.0-13.0-0.24","60a45e33f404ba8cb7a19cfe","64b003020eef62ee308107cc","64b04049b76fbea58f9ad50f","null","null","<p style=""font-size: 60px; font-family: BACS"">OmtlDlRE</p>","","","","","","","",""
"html-keyboard-response","275","634108","0.0-13.0-0.25","60a45e33f404ba8cb7a19cfe","64b003020eef62ee308107cc","64b04049b76fbea58f9ad50f","null","null","<p style=""font-size: 60px; font-family: BACS"">kbmZOkbu</p>","","","","","","","",""
"html-keyboard-response","276","635117","0.0-13.0-0.26","60a45e33f404ba8cb7a19cfe","64b003020eef62ee308107cc","64b04049b76fbea58f9ad50f","null","null","<p style=""font-size: 60px; font-family: BACS"">TdmAhBK</p>","","","","","","","",""
"html-keyboard-response","277","636123","0.0-13.0-0.27","60a45e33f404ba8cb7a19cfe","64b003020eef62ee308107cc","64b04049b76fbea58f9ad50f","null","null","<p style=""font-size: 60px; font-family: BACS"">tRdMlRE</p>","","","","","","","",""
"html-keyboard-response","278","637132","0.0-13.0-0.28","60a45e33f404ba8cb7a19cfe","64b003020eef62ee308107cc","64b04049b76fbea58f9ad50f","null","null","<p style=""font-size: 60px; font-family: BACS"">udkmGQYQ</p>","","","","","","","",""
"html-keyboard-response","279","638141","0.0-13.0-0.29","60a45e33f404ba8cb7a19cfe","64b003020eef62ee308107cc","64b04049b76fbea58f9ad50f","null","null","<p style=""font-size: 60px; font-family: BACS"">DhMtOtM</p>","","","","","","","",""
"html-keyboard-response","280","639148","0.0-13.0-0.30","60a45e33f404ba8cb7a19cfe","64b003020eef62ee308107cc","64b04049b76fbea58f9ad50f","null","null","<p style=""font-size: 60px; font-family: BACS"">kLvdNGlu</p>","","","","","","","",""
"html-keyboard-response","281","640157","0.0-13.0-0.31","60a45e33f404ba8cb7a19cfe","64b003020eef62ee308107cc","64b04049b76fbea58f9ad50f","null","null","<p style=""font-size: 60px; font-family: BACS"">BMEMAlRE</p>","","","","","","","",""
"html-keyboard-response","282","641164","0.0-13.0-0.32","60a45e33f404ba8cb7a19cfe","64b003020eef62ee308107cc","64b04049b76fbea58f9ad50f","null","null","<p style=""font-size: 60px; font-family: BACS"">OmtlDOtM</p>","","","","","","","",""
"html-keyboard-response","283","642171","0.0-13.0-0.33","60a45e33f404ba8cb7a19cfe","64b003020eef62ee308107cc","64b04049b76fbea58f9ad50f","null","null","<p style=""font-size: 60px; font-family: BACS"">NvuGrGlu</p>","","","","","","","",""
"html-keyboard-response","284","643180","0.0-13.0-0.34","60a45e33f404ba8cb7a19cfe","64b003020eef62ee308107cc","64b04049b76fbea58f9ad50f","null","null","<p style=""font-size: 60px; font-family: BACS"">cDOEBCPMl</p>","","","","","","","",""
"html-keyboard-response","285","644184","0.0-13.0-0.35","60a45e33f404ba8cb7a19cfe","64b003020eef62ee308107cc","64b04049b76fbea58f9ad50f","null","null","<p style=""font-size: 60px; font-family: BACS"">tRdMbTE</p>","","","","","","","",""
"html-keyboard-response","286","645196","0.0-13.0-0.36","60a45e33f404ba8cb7a19cfe","64b003020eef62ee308107cc","64b04049b76fbea58f9ad50f","null","null","<p style=""font-size: 60px; font-family: BACS"">kbmZOdUr</p>","","","","","","","",""
"html-keyboard-response","287","646204","0.0-13.0-0.37","60a45e33f404ba8cb7a19cfe","64b003020eef62ee308107cc","64b04049b76fbea58f9ad50f","null","null","<p style=""font-size: 60px; font-family: BACS"">kGamNkbu</p>","","","","","","","",""
"html-keyboard-response","288","647210","0.0-13.0-0.38","60a45e33f404ba8cb7a19cfe","64b003020eef62ee308107cc","64b04049b76fbea58f9ad50f","null","null","<p style=""font-size: 60px; font-family: BACS"">KBKBEOtM</p>","","","","","","","",""
"html-keyboard-response","289","648221","0.0-13.0-0.39","60a45e33f404ba8cb7a19cfe","64b003020eef62ee308107cc","64b04049b76fbea58f9ad50f","null","null","<p style=""font-size: 60px; font-family: BACS"">kLvdNGQYQ</p>","","","","","","","",""
"html-keyboard-response","290","649227","0.0-13.0-0.40","60a45e33f404ba8cb7a19cfe","64b003020eef62ee308107cc","64b04049b76fbea58f9ad50f","null","null","<p style=""font-size: 60px; font-family: BACS"">YQbckbu</p>","","","","","","","",""
"html-keyboard-response","291","650234","0.0-13.0-0.41","60a45e33f404ba8cb7a19cfe","64b003020eef62ee308107cc","64b04049b76fbea58f9ad50f","null","null","<p style=""font-size: 60px; font-family: BACS"">btlckCPMl</p>","","","","","","","",""
"html-keyboard-response","292","651244","0.0-13.0-0.42","60a45e33f404ba8cb7a19cfe","64b003020eef62ee308107cc","64b04049b76fbea58f9ad50f","null","null","<p style=""font-size: 60px; font-family: BACS"">BECkhBK</p>","","","","","","","",""
"html-keyboard-response","293","652252","0.0-13.0-0.43","60a45e33f404ba8cb7a19cfe","64b003020eef62ee308107cc","64b04049b76fbea58f9ad50f","null","null","<p style=""font-size: 60px; font-family: BACS"">ZkGmYJcUk</p>","","","","","","","",""
"html-keyboard-response","294","653259","0.0-13.0-0.44","60a45e33f404ba8cb7a19cfe","64b003020eef62ee308107cc","64b04049b76fbea58f9ad50f","null","null","<p style=""font-size: 60px; font-family: BACS"">cDOEBlRE</p>","","","","","","","",""
"html-keyboard-response","295","654265","0.0-13.0-0.45","60a45e33f404ba8cb7a19cfe","64b003020eef62ee308107cc","64b04049b76fbea58f9ad50f","null","null","<p style=""font-size: 60px; font-family: BACS"">DhMthBK</p>","","","","","","","",""
"html-keyboard-response","296","655277","0.0-13.0-0.46","60a45e33f404ba8cb7a19cfe","64b003020eef62ee308107cc","64b04049b76fbea58f9ad50f","null","null","<p style=""font-size: 60px; font-family: BACS"">TdmACPMl</p>","","","","","","","",""
"html-keyboard-response","297","656285","0.0-13.0-0.47","60a45e33f404ba8cb7a19cfe","64b003020eef62ee308107cc","64b04049b76fbea58f9ad50f","null","null","<p style=""font-size: 60px; font-family: BACS"">kGamNGQYQ</p>","","","","","","","",""
"html-keyboard-response","298","657293","0.0-13.0-0.48","60a45e33f404ba8cb7a19cfe","64b003020eef62ee308107cc","64b04049b76fbea58f9ad50f","null","null","<p style=""font-size: 60px; font-family: BACS"">DhMtCPMl</p>","","","","","","","",""
"html-keyboard-response","299","658300","0.0-13.0-0.49","60a45e33f404ba8cb7a19cfe","64b003020eef62ee308107cc","64b04049b76fbea58f9ad50f","null","null","<p style=""font-size: 60px; font-family: BACS"">kGamNGlu</p>","","","","","","","",""
"html-keyboard-response","300","659306","0.0-13.0-0.50","60a45e33f404ba8cb7a19cfe","64b003020eef62ee308107cc","64b04049b76fbea58f9ad50f","null","null","<p style=""font-size: 60px; font-family: BACS"">CDEmYCPMl</p>","","","","","","","",""
"html-keyboard-response","301","660317","0.0-13.0-0.51","60a45e33f404ba8cb7a19cfe","64b003020eef62ee308107cc","64b04049b76fbea58f9ad50f","null","null","<p style=""font-size: 60px; font-family: BACS"">JNkaGQYQ</p>","","","","","","","",""
"html-keyboard-response","302","661325","0.0-13.0-0.52","60a45e33f404ba8cb7a19cfe","64b003020eef62ee308107cc","64b04049b76fbea58f9ad50f","null","null","<p style=""font-size: 60px; font-family: BACS"">kGamNJcUk</p>","","","","","","","",""
"html-keyboard-response","303","662333","0.0-13.0-0.53","60a45e33f404ba8cb7a19cfe","64b003020eef62ee308107cc","64b04049b76fbea58f9ad50f","null","null","<p style=""font-size: 60px; font-family: BACS"">ukYZkbu</p>","","","","","","","",""
"html-keyboard-response","304","663339","0.0-13.0-0.54","60a45e33f404ba8cb7a19cfe","64b003020eef62ee308107cc","64b04049b76fbea58f9ad50f","null","null","<p style=""font-size: 60px; font-family: BACS"">DhMtbTE</p>","","","","","","","",""
"html-keyboard-response","305","664349","0.0-13.0-0.55","60a45e33f404ba8cb7a19cfe","64b003020eef62ee308107cc","64b04049b76fbea58f9ad50f","null","null","<p style=""font-size: 60px; font-family: BACS"">tRdMhBK</p>","","","","","","","",""
"html-keyboard-response","306","665357","0.0-13.0-0.56","60a45e33f404ba8cb7a19cfe","64b003020eef62ee308107cc","64b04049b76fbea58f9ad50f","null","null","<p style=""font-size: 60px; font-family: BACS"">BECklRE</p>","","","","","","","",""
"html-keyboard-response","307","666362","0.0-13.0-0.57","60a45e33f404ba8cb7a19cfe","64b003020eef62ee308107cc","64b04049b76fbea58f9ad50f","null","null","<p style=""font-size: 60px; font-family: BACS"">ukYZGlu</p>","","","","","","","",""
"html-keyboard-response","308","667373","0.0-13.0-0.58","60a45e33f404ba8cb7a19cfe","64b003020eef62ee308107cc","64b04049b76fbea58f9ad50f","null","null","<p style=""font-size: 60px; font-family: BACS"">cDOEBbTE</p>","","","","","","","",""
"html-keyboard-response","309","668381","0.0-13.0-0.59","60a45e33f404ba8cb7a19cfe","64b003020eef62ee308107cc","64b04049b76fbea58f9ad50f","null","null","<p style=""font-size: 60px; font-family: BACS"">kLvdNdUr</p>","","","","","","","",""
"html-keyboard-response","310","669388","0.0-13.0-0.60","60a45e33f404ba8cb7a19cfe","64b003020eef62ee308107cc","64b04049b76fbea58f9ad50f","null","null","<p style=""font-size: 60px; font-family: BACS"">CDEmYlRE</p>","","","","","","","",""
"html-keyboard-response","311","670395","0.0-13.0-0.61","60a45e33f404ba8cb7a19cfe","64b003020eef62ee308107cc","64b04049b76fbea58f9ad50f","null","null","<p style=""font-size: 60px; font-family: BACS"">kLvdNkbu</p>","","","","","","","",""
"html-keyboard-response","312","671405","0.0-13.0-0.62","60a45e33f404ba8cb7a19cfe","64b003020eef62ee308107cc","64b04049b76fbea58f9ad50f","null","null","<p style=""font-size: 60px; font-family: BACS"">KBKBECPMl</p>","","","","","","","",""
"html-keyboard-response","313","672411","0.0-13.0-0.63","60a45e33f404ba8cb7a19cfe","64b003020eef62ee308107cc","64b04049b76fbea58f9ad50f","null","null","<p style=""font-size: 60px; font-family: BACS"">NvuGrdUr</p>","","","","","","","",""
"html-keyboard-response","314","673422","0.0-13.0-0.64","60a45e33f404ba8cb7a19cfe","64b003020eef62ee308107cc","64b04049b76fbea58f9ad50f","null","null","<p style=""font-size: 60px; font-family: BACS"">BMEMAhBK</p>","","","","","","","",""
"html-keyboard-response","315","674429","0.0-13.0-0.65","60a45e33f404ba8cb7a19cfe","64b003020eef62ee308107cc","64b04049b76fbea58f9ad50f","null","null","<p style=""font-size: 60px; font-family: BACS"">YQbcGQYQ</p>","","","","","","","",""
"html-keyboard-response","316","675437","0.0-13.0-0.66","60a45e33f404ba8cb7a19cfe","64b003020eef62ee308107cc","64b04049b76fbea58f9ad50f","null","null","<p style=""font-size: 60px; font-family: BACS"">BECkbTE</p>","","","","","","","",""
"html-keyboard-response","317","676445","0.0-13.0-0.67","60a45e33f404ba8cb7a19cfe","64b003020eef62ee308107cc","64b04049b76fbea58f9ad50f","null","null","<p style=""font-size: 60px; font-family: BACS"">tRdMCPMl</p>","","","","","","","",""
"html-keyboard-response","318","677453","0.0-13.0-0.68","60a45e33f404ba8cb7a19cfe","64b003020eef62ee308107cc","64b04049b76fbea58f9ad50f","null","null","<p style=""font-size: 60px; font-family: BACS"">CDEmYbTE</p>","","","","","","","",""
"html-keyboard-response","319","678461","0.0-13.0-0.69","60a45e33f404ba8cb7a19cfe","64b003020eef62ee308107cc","64b04049b76fbea58f9ad50f","null","null","<p style=""font-size: 60px; font-family: BACS"">ukYZGQYQ</p>","","","","","","","",""
"html-keyboard-response","320","679465","0.0-13.0-0.70","60a45e33f404ba8cb7a19cfe","64b003020eef62ee308107cc","64b04049b76fbea58f9ad50f","null","null","<p style=""font-size: 60px; font-family: BACS"">btlcklRE</p>","","","","","","","",""
"html-keyboard-response","321","680478","0.0-13.0-0.71","60a45e33f404ba8cb7a19cfe","64b003020eef62ee308107cc","64b04049b76fbea58f9ad50f","null","null","<p style=""font-size: 60px; font-family: BACS"">ZkGmYGlu</p>","","","","","","","",""
"html-keyboard-response","322","681486","0.0-13.0-0.72","60a45e33f404ba8cb7a19cfe","64b003020eef62ee308107cc","64b04049b76fbea58f9ad50f","null","null","<p style=""font-size: 60px; font-family: BACS"">CDEmYhBK</p>","","","","","","","",""
"html-keyboard-response","323","682493","0.0-13.0-0.73","60a45e33f404ba8cb7a19cfe","64b003020eef62ee308107cc","64b04049b76fbea58f9ad50f","null","null","<p style=""font-size: 60px; font-family: BACS"">btlckbTE</p>","","","","","","","",""
"html-keyboard-response","324","683501","0.0-13.0-0.74","60a45e33f404ba8cb7a19cfe","64b003020eef62ee308107cc","64b04049b76fbea58f9ad50f","null","null","<p style=""font-size: 60px; font-family: BACS"">BMEMAOtM</p>","","","","","","","",""
"html-keyboard-response","325","684508","0.0-13.0-0.75","60a45e33f404ba8cb7a19cfe","64b003020eef62ee308107cc","64b04049b76fbea58f9ad50f","null","null","<p style=""font-size: 60px; font-family: BACS"">ZkGmYdUr</p>","","","","","","","",""
"html-keyboard-response","326","685518","0.0-13.0-0.76","60a45e33f404ba8cb7a19cfe","64b003020eef62ee308107cc","64b04049b76fbea58f9ad50f","null","null","<p style=""font-size: 60px; font-family: BACS"">kbmZOGlu</p>","","","","","","","",""
"html-keyboard-response","327","686526","0.0-13.0-0.77","60a45e33f404ba8cb7a19cfe","64b003020eef62ee308107cc","64b04049b76fbea58f9ad50f","null","null","<p style=""font-size: 60px; font-family: BACS"">KBKBEhBK</p>","","","","","","","",""
"html-keyboard-response","328","687533","0.0-13.0-0.78","60a45e33f404ba8cb7a19cfe","64b003020eef62ee308107cc","64b04049b76fbea58f9ad50f","null","null","<p style=""font-size: 60px; font-family: BACS"">JNkadUr</p>","","","","","","","",""
"html-keyboard-response","329","688541","0.0-13.0-0.79","60a45e33f404ba8cb7a19cfe","64b003020eef62ee308107cc","64b04049b76fbea58f9ad50f","null","null","<p style=""font-size: 60px; font-family: BACS"">kbmZOJcUk</p>","","","","","","","",""
"html-keyboard-response","330","700968","0.0-14.0","60a45e33f404ba8cb7a19cfe","64b003020eef62ee308107cc","64b04049b76fbea58f9ad50f","12425"," ","<p>Ottimo, hai visto il quarto blocco di parole. Ora puoi prenderti una piccola pausa.</p>
      <p>Premi la barra quando sei pronta/o per riprendere.</p>","","","","","","","",""
"html-keyboard-response","331","701982","0.0-15.0-0.0","60a45e33f404ba8cb7a19cfe","64b003020eef62ee308107cc","64b04049b76fbea58f9ad50f","null","null","<p style=""font-size: 60px; font-family: BACS"">ZkGmYdUr</p>","","","","","","","",""
"html-keyboard-response","332","702989","0.0-15.0-0.1","60a45e33f404ba8cb7a19cfe","64b003020eef62ee308107cc","64b04049b76fbea58f9ad50f","null","null","<p style=""font-size: 60px; font-family: BACS"">ZkGmYdUr</p>","","","","","","","",""
"html-keyboard-response","333","703997","0.0-15.0-0.2","60a45e33f404ba8cb7a19cfe","64b003020eef62ee308107cc","64b04049b76fbea58f9ad50f","null","null","<p style=""font-size: 60px; font-family: BACS"">ZkGmYdUr</p>","","","","","","","",""
"html-keyboard-response","334","705002","0.0-15.0-0.3","60a45e33f404ba8cb7a19cfe","64b003020eef62ee308107cc","64b04049b76fbea58f9ad50f","null","null","<p style=""font-size: 60px; font-family: BACS"">ZkGmYdUr</p>","","","","","","","",""
"html-keyboard-response","335","706008","0.0-15.0-0.4","60a45e33f404ba8cb7a19cfe","64b003020eef62ee308107cc","64b04049b76fbea58f9ad50f","null","null","<p style=""font-size: 60px; font-family: BACS"">ZkGmYdUr</p>","","","","","","","",""
"html-keyboard-response","336","707021","0.0-15.0-0.5","60a45e33f404ba8cb7a19cfe","64b003020eef62ee308107cc","64b04049b76fbea58f9ad50f","null","null","<p style=""font-size: 60px; font-family: BACS"">ZkGmYdUr</p>","","","","","","","",""
"html-keyboard-response","337","708027","0.0-15.0-0.6","60a45e33f404ba8cb7a19cfe","64b003020eef62ee308107cc","64b04049b76fbea58f9ad50f","null","null","<p style=""font-size: 60px; font-family: BACS"">ZkGmYdUr</p>","","","","","","","",""
"html-keyboard-response","338","709037","0.0-15.0-0.7","60a45e33f404ba8cb7a19cfe","64b003020eef62ee308107cc","64b04049b76fbea58f9ad50f","null","null","<p style=""font-size: 60px; font-family: BACS"">ZkGmYdUr</p>","","","","","","","",""
"html-keyboard-response","339","710044","0.0-15.0-0.8","60a45e33f404ba8cb7a19cfe","64b003020eef62ee308107cc","64b04049b76fbea58f9ad50f","null","null","<p style=""font-size: 60px; font-family: BACS"">ZkGmYdUr</p>","","","","","","","",""
"html-keyboard-response","340","711049","0.0-15.0-0.9","60a45e33f404ba8cb7a19cfe","64b003020eef62ee308107cc","64b04049b76fbea58f9ad50f","null","null","<p style=""font-size: 60px; font-family: BACS"">ZkGmYdUr</p>","","","","","","","",""
"html-keyboard-response","341","712060","0.0-15.0-0.10","60a45e33f404ba8cb7a19cfe","64b003020eef62ee308107cc","64b04049b76fbea58f9ad50f","null","null","<p style=""font-size: 60px; font-family: BACS"">ZkGmYdUr</p>","","","","","","","",""
"html-keyboard-response","342","713069","0.0-15.0-0.11","60a45e33f404ba8cb7a19cfe","64b003020eef62ee308107cc","64b04049b76fbea58f9ad50f","null","null","<p style=""font-size: 60px; font-family: BACS"">ZkGmYdUr</p>","","","","","","","",""
"html-keyboard-response","343","714075","0.0-15.0-0.12","60a45e33f404ba8cb7a19cfe","64b003020eef62ee308107cc","64b04049b76fbea58f9ad50f","null","null","<p style=""font-size: 60px; font-family: BACS"">ZkGmYdUr</p>","","","","","","","",""
"html-keyboard-response","344","715086","0.0-15.0-0.13","60a45e33f404ba8cb7a19cfe","64b003020eef62ee308107cc","64b04049b76fbea58f9ad50f","null","null","<p style=""font-size: 60px; font-family: BACS"">ZkGmYdUr</p>","","","","","","","",""
"html-keyboard-response","345","716092","0.0-15.0-0.14","60a45e33f404ba8cb7a19cfe","64b003020eef62ee308107cc","64b04049b76fbea58f9ad50f","null","null","<p style=""font-size: 60px; font-family: BACS"">ZkGmYdUr</p>","","","","","","","",""
"html-keyboard-response","346","717098","0.0-15.0-0.15","60a45e33f404ba8cb7a19cfe","64b003020eef62ee308107cc","64b04049b76fbea58f9ad50f","null","null","<p style=""font-size: 60px; font-family: BACS"">ZkGmYdUr</p>","","","","","","","",""
"html-keyboard-response","347","718108","0.0-15.0-0.16","60a45e33f404ba8cb7a19cfe","64b003020eef62ee308107cc","64b04049b76fbea58f9ad50f","null","null","<p style=""font-size: 60px; font-family: BACS"">ZkGmYdUr</p>","","","","","","","",""
"html-keyboard-response","348","719118","0.0-15.0-0.17","60a45e33f404ba8cb7a19cfe","64b003020eef62ee308107cc","64b04049b76fbea58f9ad50f","null","null","<p style=""font-size: 60px; font-family: BACS"">ZkGmYdUr</p>","","","","","","","",""
"html-keyboard-response","349","720124","0.0-15.0-0.18","60a45e33f404ba8cb7a19cfe","64b003020eef62ee308107cc","64b04049b76fbea58f9ad50f","null","null","<p style=""font-size: 60px; font-family: BACS"">ZkGmYdUr</p>","","","","","","","",""
"html-keyboard-response","350","721130","0.0-15.0-0.19","60a45e33f404ba8cb7a19cfe","64b003020eef62ee308107cc","64b04049b76fbea58f9ad50f","null","null","<p style=""font-size: 60px; font-family: BACS"">ZkGmYdUr</p>","","","","","","","",""
"html-keyboard-response","351","722141","0.0-15.0-0.20","60a45e33f404ba8cb7a19cfe","64b003020eef62ee308107cc","64b04049b76fbea58f9ad50f","null","null","<p style=""font-size: 60px; font-family: BACS"">ZkGmYdUr</p>","","","","","","","",""
"html-keyboard-response","352","723149","0.0-15.0-0.21","60a45e33f404ba8cb7a19cfe","64b003020eef62ee308107cc","64b04049b76fbea58f9ad50f","null","null","<p style=""font-size: 60px; font-family: BACS"">ZkGmYdUr</p>","","","","","","","",""
"html-keyboard-response","353","724155","0.0-15.0-0.22","60a45e33f404ba8cb7a19cfe","64b003020eef62ee308107cc","64b04049b76fbea58f9ad50f","null","null","<p style=""font-size: 60px; font-family: BACS"">ZkGmYdUr</p>","","","","","","","",""
"html-keyboard-response","354","725165","0.0-15.0-0.23","60a45e33f404ba8cb7a19cfe","64b003020eef62ee308107cc","64b04049b76fbea58f9ad50f","null","null","<p style=""font-size: 60px; font-family: BACS"">ZkGmYdUr</p>","","","","","","","",""
"html-keyboard-response","355","726170","0.0-15.0-0.24","60a45e33f404ba8cb7a19cfe","64b003020eef62ee308107cc","64b04049b76fbea58f9ad50f","null","null","<p style=""font-size: 60px; font-family: BACS"">ZkGmYdUr</p>","","","","","","","",""
"html-keyboard-response","356","727181","0.0-15.0-0.25","60a45e33f404ba8cb7a19cfe","64b003020eef62ee308107cc","64b04049b76fbea58f9ad50f","null","null","<p style=""font-size: 60px; font-family: BACS"">ZkGmYdUr</p>","","","","","","","",""
"html-keyboard-response","357","728189","0.0-15.0-0.26","60a45e33f404ba8cb7a19cfe","64b003020eef62ee308107cc","64b04049b76fbea58f9ad50f","null","null","<p style=""font-size: 60px; font-family: BACS"">ZkGmYdUr</p>","","","","","","","",""
"html-keyboard-response","358","729195","0.0-15.0-0.27","60a45e33f404ba8cb7a19cfe","64b003020eef62ee308107cc","64b04049b76fbea58f9ad50f","null","null","<p style=""font-size: 60px; font-family: BACS"">ZkGmYdUr</p>","","","","","","","",""
"html-keyboard-response","359","730205","0.0-15.0-0.28","60a45e33f404ba8cb7a19cfe","64b003020eef62ee308107cc","64b04049b76fbea58f9ad50f","null","null","<p style=""font-size: 60px; font-family: BACS"">ZkGmYdUr</p>","","","","","","","",""
"html-keyboard-response","360","731213","0.0-15.0-0.29","60a45e33f404ba8cb7a19cfe","64b003020eef62ee308107cc","64b04049b76fbea58f9ad50f","null","null","<p style=""font-size: 60px; font-family: BACS"">ZkGmYdUr</p>","","","","","","","",""
"html-keyboard-response","361","732221","0.0-15.0-0.30","60a45e33f404ba8cb7a19cfe","64b003020eef62ee308107cc","64b04049b76fbea58f9ad50f","null","null","<p style=""font-size: 60px; font-family: BACS"">ZkGmYdUr</p>","","","","","","","",""
"html-keyboard-response","362","733227","0.0-15.0-0.31","60a45e33f404ba8cb7a19cfe","64b003020eef62ee308107cc","64b04049b76fbea58f9ad50f","null","null","<p style=""font-size: 60px; font-family: BACS"">ZkGmYdUr</p>","","","","","","","",""
"html-keyboard-response","363","734238","0.0-15.0-0.32","60a45e33f404ba8cb7a19cfe","64b003020eef62ee308107cc","64b04049b76fbea58f9ad50f","null","null","<p style=""font-size: 60px; font-family: BACS"">ZkGmYdUr</p>","","","","","","","",""
"html-keyboard-response","364","735246","0.0-15.0-0.33","60a45e33f404ba8cb7a19cfe","64b003020eef62ee308107cc","64b04049b76fbea58f9ad50f","null","null","<p style=""font-size: 60px; font-family: BACS"">ZkGmYdUr</p>","","","","","","","",""
"html-keyboard-response","365","736253","0.0-15.0-0.34","60a45e33f404ba8cb7a19cfe","64b003020eef62ee308107cc","64b04049b76fbea58f9ad50f","null","null","<p style=""font-size: 60px; font-family: BACS"">ZkGmYdUr</p>","","","","","","","",""
"html-keyboard-response","366","737260","0.0-15.0-0.35","60a45e33f404ba8cb7a19cfe","64b003020eef62ee308107cc","64b04049b76fbea58f9ad50f","null","null","<p style=""font-size: 60px; font-family: BACS"">ZkGmYdUr</p>","","","","","","","",""
"html-keyboard-response","367","738269","0.0-15.0-0.36","60a45e33f404ba8cb7a19cfe","64b003020eef62ee308107cc","64b04049b76fbea58f9ad50f","null","null","<p style=""font-size: 60px; font-family: BACS"">ZkGmYdUr</p>","","","","","","","",""
"html-keyboard-response","368","739278","0.0-15.0-0.37","60a45e33f404ba8cb7a19cfe","64b003020eef62ee308107cc","64b04049b76fbea58f9ad50f","null","null","<p style=""font-size: 60px; font-family: BACS"">ZkGmYdUr</p>","","","","","","","",""
"html-keyboard-response","369","740286","0.0-15.0-0.38","60a45e33f404ba8cb7a19cfe","64b003020eef62ee308107cc","64b04049b76fbea58f9ad50f","null","null","<p style=""font-size: 60px; font-family: BACS"">ZkGmYdUr</p>","","","","","","","",""
"html-keyboard-response","370","741294","0.0-15.0-0.39","60a45e33f404ba8cb7a19cfe","64b003020eef62ee308107cc","64b04049b76fbea58f9ad50f","null","null","<p style=""font-size: 60px; font-family: BACS"">ZkGmYdUr</p>","","","","","","","",""
"html-keyboard-response","371","742301","0.0-15.0-0.40","60a45e33f404ba8cb7a19cfe","64b003020eef62ee308107cc","64b04049b76fbea58f9ad50f","null","null","<p style=""font-size: 60px; font-family: BACS"">ZkGmYdUr</p>","","","","","","","",""
"html-keyboard-response","372","743310","0.0-15.0-0.41","60a45e33f404ba8cb7a19cfe","64b003020eef62ee308107cc","64b04049b76fbea58f9ad50f","null","null","<p style=""font-size: 60px; font-family: BACS"">ZkGmYdUr</p>","","","","","","","",""
"html-keyboard-response","373","744315","0.0-15.0-0.42","60a45e33f404ba8cb7a19cfe","64b003020eef62ee308107cc","64b04049b76fbea58f9ad50f","null","null","<p style=""font-size: 60px; font-family: BACS"">ZkGmYdUr</p>","","","","","","","",""
"html-keyboard-response","374","745325","0.0-15.0-0.43","60a45e33f404ba8cb7a19cfe","64b003020eef62ee308107cc","64b04049b76fbea58f9ad50f","null","null","<p style=""font-size: 60px; font-family: BACS"">ZkGmYdUr</p>","","","","","","","",""
"html-keyboard-response","375","746334","0.0-15.0-0.44","60a45e33f404ba8cb7a19cfe","64b003020eef62ee308107cc","64b04049b76fbea58f9ad50f","null","null","<p style=""font-size: 60px; font-family: BACS"">ZkGmYdUr</p>","","","","","","","",""
"html-keyboard-response","376","747342","0.0-15.0-0.45","60a45e33f404ba8cb7a19cfe","64b003020eef62ee308107cc","64b04049b76fbea58f9ad50f","null","null","<p style=""font-size: 60px; font-family: BACS"">ZkGmYdUr</p>","","","","","","","",""
"html-keyboard-response","377","748349","0.0-15.0-0.46","60a45e33f404ba8cb7a19cfe","64b003020eef62ee308107cc","64b04049b76fbea58f9ad50f","null","null","<p style=""font-size: 60px; font-family: BACS"">ZkGmYdUr</p>","","","","","","","",""
"html-keyboard-response","378","749358","0.0-15.0-0.47","60a45e33f404ba8cb7a19cfe","64b003020eef62ee308107cc","64b04049b76fbea58f9ad50f","null","null","<p style=""font-size: 60px; font-family: BACS"">ZkGmYdUr</p>","","","","","","","",""
"html-keyboard-response","379","750366","0.0-15.0-0.48","60a45e33f404ba8cb7a19cfe","64b003020eef62ee308107cc","64b04049b76fbea58f9ad50f","null","null","<p style=""font-size: 60px; font-family: BACS"">ZkGmYdUr</p>","","","","","","","",""
"html-keyboard-response","380","751374","0.0-15.0-0.49","60a45e33f404ba8cb7a19cfe","64b003020eef62ee308107cc","64b04049b76fbea58f9ad50f","null","null","<p style=""font-size: 60px; font-family: BACS"">ZkGmYdUr</p>","","","","","","","",""
"html-keyboard-response","381","752381","0.0-15.0-0.50","60a45e33f404ba8cb7a19cfe","64b003020eef62ee308107cc","64b04049b76fbea58f9ad50f","null","null","<p style=""font-size: 60px; font-family: BACS"">ZkGmYdUr</p>","","","","","","","",""
"html-keyboard-response","382","753390","0.0-15.0-0.51","60a45e33f404ba8cb7a19cfe","64b003020eef62ee308107cc","64b04049b76fbea58f9ad50f","null","null","<p style=""font-size: 60px; font-family: BACS"">ZkGmYdUr</p>","","","","","","","",""
"html-keyboard-response","383","754396","0.0-15.0-0.52","60a45e33f404ba8cb7a19cfe","64b003020eef62ee308107cc","64b04049b76fbea58f9ad50f","null","null","<p style=""font-size: 60px; font-family: BACS"">ZkGmYdUr</p>","","","","","","","",""
"html-keyboard-response","384","755406","0.0-15.0-0.53","60a45e33f404ba8cb7a19cfe","64b003020eef62ee308107cc","64b04049b76fbea58f9ad50f","null","null","<p style=""font-size: 60px; font-family: BACS"">ZkGmYdUr</p>","","","","","","","",""
"html-keyboard-response","385","756412","0.0-15.0-0.54","60a45e33f404ba8cb7a19cfe","64b003020eef62ee308107cc","64b04049b76fbea58f9ad50f","null","null","<p style=""font-size: 60px; font-family: BACS"">ZkGmYdUr</p>","","","","","","","",""
"html-keyboard-response","386","757422","0.0-15.0-0.55","60a45e33f404ba8cb7a19cfe","64b003020eef62ee308107cc","64b04049b76fbea58f9ad50f","null","null","<p style=""font-size: 60px; font-family: BACS"">ZkGmYdUr</p>","","","","","","","",""
"html-keyboard-response","387","758430","0.0-15.0-0.56","60a45e33f404ba8cb7a19cfe","64b003020eef62ee308107cc","64b04049b76fbea58f9ad50f","null","null","<p style=""font-size: 60px; font-family: BACS"">ZkGmYdUr</p>","","","","","","","",""
"html-keyboard-response","388","759438","0.0-15.0-0.57","60a45e33f404ba8cb7a19cfe","64b003020eef62ee308107cc","64b04049b76fbea58f9ad50f","null","null","<p style=""font-size: 60px; font-family: BACS"">ZkGmYdUr</p>","","","","","","","",""
"html-keyboard-response","389","760445","0.0-15.0-0.58","60a45e33f404ba8cb7a19cfe","64b003020eef62ee308107cc","64b04049b76fbea58f9ad50f","null","null","<p style=""font-size: 60px; font-family: BACS"">ZkGmYdUr</p>","","","","","","","",""
"html-keyboard-response","390","761454","0.0-15.0-0.59","60a45e33f404ba8cb7a19cfe","64b003020eef62ee308107cc","64b04049b76fbea58f9ad50f","null","null","<p style=""font-size: 60px; font-family: BACS"">ZkGmYdUr</p>","","","","","","","",""
"html-keyboard-response","391","762462","0.0-15.0-0.60","60a45e33f404ba8cb7a19cfe","64b003020eef62ee308107cc","64b04049b76fbea58f9ad50f","null","null","<p style=""font-size: 60px; font-family: BACS"">ZkGmYdUr</p>","","","","","","","",""
"html-keyboard-response","392","763468","0.0-15.0-0.61","60a45e33f404ba8cb7a19cfe","64b003020eef62ee308107cc","64b04049b76fbea58f9ad50f","null","null","<p style=""font-size: 60px; font-family: BACS"">ZkGmYdUr</p>","","","","","","","",""
"html-keyboard-response","393","764478","0.0-15.0-0.62","60a45e33f404ba8cb7a19cfe","64b003020eef62ee308107cc","64b04049b76fbea58f9ad50f","null","null","<p style=""font-size: 60px; font-family: BACS"">ZkGmYdUr</p>","","","","","","","",""
"html-keyboard-response","394","765486","0.0-15.0-0.63","60a45e33f404ba8cb7a19cfe","64b003020eef62ee308107cc","64b04049b76fbea58f9ad50f","null","null","<p style=""font-size: 60px; font-family: BACS"">ZkGmYdUr</p>","","","","","","","",""
"html-keyboard-response","395","766490","0.0-15.0-0.64","60a45e33f404ba8cb7a19cfe","64b003020eef62ee308107cc","64b04049b76fbea58f9ad50f","null","null","<p style=""font-size: 60px; font-family: BACS"">ZkGmYdUr</p>","","","","","","","",""
"html-keyboard-response","396","767502","0.0-15.0-0.65","60a45e33f404ba8cb7a19cfe","64b003020eef62ee308107cc","64b04049b76fbea58f9ad50f","null","null","<p style=""font-size: 60px; font-family: BACS"">ZkGmYdUr</p>","","","","","","","",""
"html-keyboard-response","397","768510","0.0-15.0-0.66","60a45e33f404ba8cb7a19cfe","64b003020eef62ee308107cc","64b04049b76fbea58f9ad50f","null","null","<p style=""font-size: 60px; font-family: BACS"">ZkGmYdUr</p>","","","","","","","",""
"html-keyboard-response","398","769514","0.0-15.0-0.67","60a45e33f404ba8cb7a19cfe","64b003020eef62ee308107cc","64b04049b76fbea58f9ad50f","null","null","<p style=""font-size: 60px; font-family: BACS"">ZkGmYdUr</p>","","","","","","","",""
"html-keyboard-response","399","770526","0.0-15.0-0.68","60a45e33f404ba8cb7a19cfe","64b003020eef62ee308107cc","64b04049b76fbea58f9ad50f","null","null","<p style=""font-size: 60px; font-family: BACS"">ZkGmYdUr</p>","","","","","","","",""
"html-keyboard-response","400","771533","0.0-15.0-0.69","60a45e33f404ba8cb7a19cfe","64b003020eef62ee308107cc","64b04049b76fbea58f9ad50f","null","null","<p style=""font-size: 60px; font-family: BACS"">ZkGmYdUr</p>","","","","","","","",""
