"trial_type","trial_index","time_elapsed","internal_node_id","subject_id","study_id","session_id","rt","response","stimulus","success","item","task","correct_response","testing_condition","correct","target","confound","name","view_history"
"pavlovia","0","703","0.0-0.0","616891e25a026e1f7262116c","650c16f0f2faf8d7a0d14c09","651c1d799f6b135f9d67ea35","","","","","","","","","","","","",""
"survey-html-form","1","25178","0.0-1.0","616891e25a026e1f7262116c","650c16f0f2faf8d7a0d14c09","651c1d799f6b135f9d67ea35","24471","{""ID"":""616891e25a026e1f7262116c""}","","","","","","","","","","",""
"html-keyboard-response","2","37812","0.0-2.0","616891e25a026e1f7262116c","650c16f0f2faf8d7a0d14c09","651c1d799f6b135f9d67ea35","12632"," ","<p style=""font-size: 15px;"">Before beginning, we ask that you read the consent information and confirm your agreement to participate in the experiment.</p>
      <p style=""font-size: 15px;""> We ask that you remember that this is a research project and that your participation is entirely voluntary. You can stop your participation at any time, without needing to provide any explanation. The study we're asking you to participate in aims at examining how readers process written words. You will be engaged in a session of apprximately 20 minutes, followed by a brief questionnaire. You will have the opportunity to take a few breaks during the experiment. You will be paid £4 for your participation, corresponding to a rate of £8/hour. While this experiment looks at cognitive faculties, this experiment doesn't constitute clinical proof of eventual pathologies.</p>
      <p style=""font-size: 15px;"">All of the information collected thanks to yours and others' participation will be held in a secure password-protected server, and will not be shared with anyone not authorised to view it. Your personal information will be kept with an arbitrary participant ID. Thanks to this data anonymity process, any researcher analysing the data won't be able to track the information back to a specific participant. Therefore, this process will make identifying you impossibile, even when results from the study will be published in scientific reviews, presented at congresses, or at any other public forum. More generally, the collected data will be treated in accordance with the laws on privacy and conformity to the Legislative Degree n. 196 ""Code regarding the protection of personal data"" of the 30th of June 2003 and to the European Regulation 2016/670 (General Data Protection Regulation - GDPR). The Data Protection Officer is Avv. Valentina Carollo, who can be contacted at the following email addresses: <a href=""mailto:dpo@sissa.it"">dpo@sissa.it</a> or <a href=""mailto:rpd@sissa.it"">rpd@sissa.it</a> - PEC: <a href=""mailto:protocollo@pec.sissa.it"">protocollo@pec.sissa.it</a>.</p>
      <p style=""font-size: 15px;""> Before expressing your consent to participate, we would like to remind you again that in case you need explanations on any aspect of the experimental procedure, the researcher is at your disposition (<a href=""mailto:aliebelt@sissa.it"">aliebelt@sissa.it</a>, <a href=""mailto:davide.crepaldi@sissa.it"">davide.crepaldi@sissa.it</a>).</p>
      <p style=""font-size: 15px;"">If you would like to download the informed consent form, you can do so here: <a href=""BASL-Informed_Consent.pdf"" download>informed consent form</a>.</p>
      <p style=""font-size: 15px;"">We ask that you press the spacebar to proceed to the consent section.</p>","","","","","","","","","",""
"survey-html-form","3","68826","0.0-3.0","616891e25a026e1f7262116c","650c16f0f2faf8d7a0d14c09","651c1d799f6b135f9d67ea35","31010","{""consent1"":""YES"",""consent2"":""YES"",""consent3"":""YES"",""consent4"":""YES"",""consent5"":""YES"",""consent6"":""YES""}","","","","","","","","","","",""
"fullscreen","4","118897","0.0-4.0","616891e25a026e1f7262116c","650c16f0f2faf8d7a0d14c09","651c1d799f6b135f9d67ea35","","","","true","","","","","","","","",""
"html-keyboard-response","5","127018","0.0-5.0","616891e25a026e1f7262116c","650c16f0f2faf8d7a0d14c09","651c1d799f6b135f9d67ea35","8116"," ","<p>Welcome, and thank you very much for your time!</p>
      <p>In this experiment, you'll be a language expert who's been asked to take a look at words that Earth has received in its first communication with aliens. Your task, in this first part of the experiment, is to pay close attention to the words you'll be shown; later, world leaders will ask you questions on what you saw. The words will be shown to you quite quickly; it seems that the aliens were in a hurry :-)</p>
      <p>Press the spacebar to continue.<p>","","","","","","","","","",""
"html-keyboard-response","6","127077","0.0-6.0","616891e25a026e1f7262116c","650c16f0f2faf8d7a0d14c09","651c1d799f6b135f9d67ea35","null","null","<p style=""font-size: 120px; font-family: BACS""> </p>","","","","","","","","","",""
"html-keyboard-response","7","133934","0.0-7.0","616891e25a026e1f7262116c","650c16f0f2faf8d7a0d14c09","651c1d799f6b135f9d67ea35","6856"," ","<p>Here is an example of the words you'll see:</p>
      <img src='esempio.png' height='400px'>
      <p>When you're ready to begin, press the spacebar.</p></div>","","","","","","","","","",""
"html-keyboard-response","8","134943","0.0-8.0-0.0","616891e25a026e1f7262116c","650c16f0f2faf8d7a0d14c09","651c1d799f6b135f9d67ea35","null","null","<p style=""font-size: 60px; font-family: BACS"">PctRCTAm</p>","","","","","","","","","",""
"html-keyboard-response","9","135957","0.0-8.0-0.1","616891e25a026e1f7262116c","650c16f0f2faf8d7a0d14c09","651c1d799f6b135f9d67ea35","null","null","<p style=""font-size: 60px; font-family: BACS"">YuaNdkYL</p>","","","","","","","","","",""
"html-keyboard-response","10","136962","0.0-8.0-0.2","616891e25a026e1f7262116c","650c16f0f2faf8d7a0d14c09","651c1d799f6b135f9d67ea35","null","null","<p style=""font-size: 60px; font-family: BACS"">NvYJLcO</p>","","","","","","","","","",""
"html-keyboard-response","11","137965","0.0-8.0-0.3","616891e25a026e1f7262116c","650c16f0f2faf8d7a0d14c09","651c1d799f6b135f9d67ea35","null","null","<p style=""font-size: 60px; font-family: BACS"">thbOMtRb</p>","","","","","","","","","",""
"html-keyboard-response","12","138979","0.0-8.0-0.4","616891e25a026e1f7262116c","650c16f0f2faf8d7a0d14c09","651c1d799f6b135f9d67ea35","null","null","<p style=""font-size: 60px; font-family: BACS"">hBmMCcDR</p>","","","","","","","","","",""
"html-keyboard-response","13","139986","0.0-8.0-0.5","616891e25a026e1f7262116c","650c16f0f2faf8d7a0d14c09","651c1d799f6b135f9d67ea35","null","null","<p style=""font-size: 60px; font-family: BACS"">kZUbcrdY</p>","","","","","","","","","",""
"html-keyboard-response","14","140995","0.0-8.0-0.6","616891e25a026e1f7262116c","650c16f0f2faf8d7a0d14c09","651c1d799f6b135f9d67ea35","null","null","<p style=""font-size: 60px; font-family: BACS"">PctRCtRb</p>","","","","","","","","","",""
"html-keyboard-response","15","142005","0.0-8.0-0.7","616891e25a026e1f7262116c","650c16f0f2faf8d7a0d14c09","651c1d799f6b135f9d67ea35","null","null","<p style=""font-size: 60px; font-family: BACS"">QOLmukYL</p>","","","","","","","","","",""
"html-keyboard-response","16","143020","0.0-8.0-0.8","616891e25a026e1f7262116c","650c16f0f2faf8d7a0d14c09","651c1d799f6b135f9d67ea35","null","null","<p style=""font-size: 60px; font-family: BACS"">PctRCTRkY</p>","","","","","","","","","",""
"html-keyboard-response","17","144031","0.0-8.0-0.9","616891e25a026e1f7262116c","650c16f0f2faf8d7a0d14c09","651c1d799f6b135f9d67ea35","null","null","<p style=""font-size: 60px; font-family: BACS"">OtlRcDR</p>","","","","","","","","","",""
"html-keyboard-response","18","145046","0.0-8.0-0.10","616891e25a026e1f7262116c","650c16f0f2faf8d7a0d14c09","651c1d799f6b135f9d67ea35","null","null","<p style=""font-size: 60px; font-family: BACS"">kGlUkYL</p>","","","","","","","","","",""
"html-keyboard-response","19","146066","0.0-8.0-0.11","616891e25a026e1f7262116c","650c16f0f2faf8d7a0d14c09","651c1d799f6b135f9d67ea35","null","null","<p style=""font-size: 60px; font-family: BACS"">rLaZrNlZ</p>","","","","","","","","","",""
"html-keyboard-response","20","147071","0.0-8.0-0.12","616891e25a026e1f7262116c","650c16f0f2faf8d7a0d14c09","651c1d799f6b135f9d67ea35","null","null","<p style=""font-size: 60px; font-family: BACS"">kZUbLcO</p>","","","","","","","","","",""
"html-keyboard-response","21","148087","0.0-8.0-0.13","616891e25a026e1f7262116c","650c16f0f2faf8d7a0d14c09","651c1d799f6b135f9d67ea35","null","null","<p style=""font-size: 60px; font-family: BACS"">rbYburNlZ</p>","","","","","","","","","",""
"html-keyboard-response","22","149091","0.0-8.0-0.14","616891e25a026e1f7262116c","650c16f0f2faf8d7a0d14c09","651c1d799f6b135f9d67ea35","null","null","<p style=""font-size: 60px; font-family: BACS"">KBKBEtRb</p>","","","","","","","","","",""
"html-keyboard-response","23","150094","0.0-8.0-0.15","616891e25a026e1f7262116c","650c16f0f2faf8d7a0d14c09","651c1d799f6b135f9d67ea35","null","null","<p style=""font-size: 60px; font-family: BACS"">kLvdNkYL</p>","","","","","","","","","",""
"html-keyboard-response","24","151106","0.0-8.0-0.16","616891e25a026e1f7262116c","650c16f0f2faf8d7a0d14c09","651c1d799f6b135f9d67ea35","null","null","<p style=""font-size: 60px; font-family: BACS"">KBKBEkhMD</p>","","","","","","","","","",""
"html-keyboard-response","25","152115","0.0-8.0-0.17","616891e25a026e1f7262116c","650c16f0f2faf8d7a0d14c09","651c1d799f6b135f9d67ea35","null","null","<p style=""font-size: 60px; font-family: BACS"">OtlRTAm</p>","","","","","","","","","",""
"html-keyboard-response","26","153130","0.0-8.0-0.18","616891e25a026e1f7262116c","650c16f0f2faf8d7a0d14c09","651c1d799f6b135f9d67ea35","null","null","<p style=""font-size: 60px; font-family: BACS"">mrOdkYL</p>","","","","","","","","","",""
"html-keyboard-response","27","154133","0.0-8.0-0.19","616891e25a026e1f7262116c","650c16f0f2faf8d7a0d14c09","651c1d799f6b135f9d67ea35","null","null","<p style=""font-size: 60px; font-family: BACS"">rbYbuGlu</p>","","","","","","","","","",""
"html-keyboard-response","28","155155","0.0-8.0-0.20","616891e25a026e1f7262116c","650c16f0f2faf8d7a0d14c09","651c1d799f6b135f9d67ea35","null","null","<p style=""font-size: 60px; font-family: BACS"">hBmMCTAm</p>","","","","","","","","","",""
"html-keyboard-response","29","156171","0.0-8.0-0.21","616891e25a026e1f7262116c","650c16f0f2faf8d7a0d14c09","651c1d799f6b135f9d67ea35","null","null","<p style=""font-size: 60px; font-family: BACS"">kGlUGlu</p>","","","","","","","","","",""
"html-keyboard-response","30","157188","0.0-8.0-0.22","616891e25a026e1f7262116c","650c16f0f2faf8d7a0d14c09","651c1d799f6b135f9d67ea35","null","null","<p style=""font-size: 60px; font-family: BACS"">EtMDMkhMD</p>","","","","","","","","","",""
"html-keyboard-response","31","158199","0.0-8.0-0.23","616891e25a026e1f7262116c","650c16f0f2faf8d7a0d14c09","651c1d799f6b135f9d67ea35","null","null","<p style=""font-size: 60px; font-family: BACS"">YuaNdGlu</p>","","","","","","","","","",""
"html-keyboard-response","32","159218","0.0-8.0-0.24","616891e25a026e1f7262116c","650c16f0f2faf8d7a0d14c09","651c1d799f6b135f9d67ea35","null","null","<p style=""font-size: 60px; font-family: BACS"">NvYJcrdY</p>","","","","","","","","","",""
"html-keyboard-response","33","160229","0.0-8.0-0.25","616891e25a026e1f7262116c","650c16f0f2faf8d7a0d14c09","651c1d799f6b135f9d67ea35","null","null","<p style=""font-size: 60px; font-family: BACS"">rbYbukYL</p>","","","","","","","","","",""
"html-keyboard-response","34","161246","0.0-8.0-0.26","616891e25a026e1f7262116c","650c16f0f2faf8d7a0d14c09","651c1d799f6b135f9d67ea35","null","null","<p style=""font-size: 60px; font-family: BACS"">DlDdcDR</p>","","","","","","","","","",""
"html-keyboard-response","35","162256","0.0-8.0-0.27","616891e25a026e1f7262116c","650c16f0f2faf8d7a0d14c09","651c1d799f6b135f9d67ea35","null","null","<p style=""font-size: 60px; font-family: BACS"">thbOMkhMD</p>","","","","","","","","","",""
"html-keyboard-response","36","163263","0.0-8.0-0.28","616891e25a026e1f7262116c","650c16f0f2faf8d7a0d14c09","651c1d799f6b135f9d67ea35","null","null","<p style=""font-size: 60px; font-family: BACS"">kLvdNcrdY</p>","","","","","","","","","",""
"html-keyboard-response","37","164275","0.0-8.0-0.29","616891e25a026e1f7262116c","650c16f0f2faf8d7a0d14c09","651c1d799f6b135f9d67ea35","null","null","<p style=""font-size: 60px; font-family: BACS"">ckduAGlu</p>","","","","","","","","","",""
"html-keyboard-response","38","165282","0.0-8.0-0.30","616891e25a026e1f7262116c","650c16f0f2faf8d7a0d14c09","651c1d799f6b135f9d67ea35","null","null","<p style=""font-size: 60px; font-family: BACS"">hBmMCTRkY</p>","","","","","","","","","",""
"html-keyboard-response","39","166286","0.0-8.0-0.31","616891e25a026e1f7262116c","650c16f0f2faf8d7a0d14c09","651c1d799f6b135f9d67ea35","null","null","<p style=""font-size: 60px; font-family: BACS"">rbYbuLcO</p>","","","","","","","","","",""
"html-keyboard-response","40","167289","0.0-8.0-0.32","616891e25a026e1f7262116c","650c16f0f2faf8d7a0d14c09","651c1d799f6b135f9d67ea35","null","null","<p style=""font-size: 60px; font-family: BACS"">DlDdkhMD</p>","","","","","","","","","",""
"html-keyboard-response","41","168306","0.0-8.0-0.33","616891e25a026e1f7262116c","650c16f0f2faf8d7a0d14c09","651c1d799f6b135f9d67ea35","null","null","<p style=""font-size: 60px; font-family: BACS"">CmcOtRb</p>","","","","","","","","","",""
"html-keyboard-response","42","169319","0.0-8.0-0.34","616891e25a026e1f7262116c","650c16f0f2faf8d7a0d14c09","651c1d799f6b135f9d67ea35","null","null","<p style=""font-size: 60px; font-family: BACS"">KBKBEcDR</p>","","","","","","","","","",""
"html-keyboard-response","43","170336","0.0-8.0-0.35","616891e25a026e1f7262116c","650c16f0f2faf8d7a0d14c09","651c1d799f6b135f9d67ea35","null","null","<p style=""font-size: 60px; font-family: BACS"">YuaNdrNlZ</p>","","","","","","","","","",""
"html-keyboard-response","44","171352","0.0-8.0-0.36","616891e25a026e1f7262116c","650c16f0f2faf8d7a0d14c09","651c1d799f6b135f9d67ea35","null","null","<p style=""font-size: 60px; font-family: BACS"">OtlRTRkY</p>","","","","","","","","","",""
"html-keyboard-response","45","172363","0.0-8.0-0.37","616891e25a026e1f7262116c","650c16f0f2faf8d7a0d14c09","651c1d799f6b135f9d67ea35","null","null","<p style=""font-size: 60px; font-family: BACS"">rLaZcrdY</p>","","","","","","","","","",""
"html-keyboard-response","46","173378","0.0-8.0-0.38","616891e25a026e1f7262116c","650c16f0f2faf8d7a0d14c09","651c1d799f6b135f9d67ea35","null","null","<p style=""font-size: 60px; font-family: BACS"">kGlULcO</p>","","","","","","","","","",""
"html-keyboard-response","47","174382","0.0-8.0-0.39","616891e25a026e1f7262116c","650c16f0f2faf8d7a0d14c09","651c1d799f6b135f9d67ea35","null","null","<p style=""font-size: 60px; font-family: BACS"">EtMDMtRb</p>","","","","","","","","","",""
"html-keyboard-response","48","175392","0.0-8.0-0.40","616891e25a026e1f7262116c","650c16f0f2faf8d7a0d14c09","651c1d799f6b135f9d67ea35","null","null","<p style=""font-size: 60px; font-family: BACS"">rLaZLcO</p>","","","","","","","","","",""
"html-keyboard-response","49","176398","0.0-8.0-0.41","616891e25a026e1f7262116c","650c16f0f2faf8d7a0d14c09","651c1d799f6b135f9d67ea35","null","null","<p style=""font-size: 60px; font-family: BACS"">mrOdGlu</p>","","","","","","","","","",""
"html-keyboard-response","50","177402","0.0-8.0-0.42","616891e25a026e1f7262116c","650c16f0f2faf8d7a0d14c09","651c1d799f6b135f9d67ea35","null","null","<p style=""font-size: 60px; font-family: BACS"">OtlRkhMD</p>","","","","","","","","","",""
"html-keyboard-response","51","178410","0.0-8.0-0.43","616891e25a026e1f7262116c","650c16f0f2faf8d7a0d14c09","651c1d799f6b135f9d67ea35","null","null","<p style=""font-size: 60px; font-family: BACS"">kZUbrNlZ</p>","","","","","","","","","",""
"html-keyboard-response","52","179424","0.0-8.0-0.44","616891e25a026e1f7262116c","650c16f0f2faf8d7a0d14c09","651c1d799f6b135f9d67ea35","null","null","<p style=""font-size: 60px; font-family: BACS"">cRElDkhMD</p>","","","","","","","","","",""
"html-keyboard-response","53","180427","0.0-8.0-0.45","616891e25a026e1f7262116c","650c16f0f2faf8d7a0d14c09","651c1d799f6b135f9d67ea35","null","null","<p style=""font-size: 60px; font-family: BACS"">thbOMcDR</p>","","","","","","","","","",""
"html-keyboard-response","54","181439","0.0-8.0-0.46","616891e25a026e1f7262116c","650c16f0f2faf8d7a0d14c09","651c1d799f6b135f9d67ea35","null","null","<p style=""font-size: 60px; font-family: BACS"">COtBDkhMD</p>","","","","","","","","","",""
"html-keyboard-response","55","182446","0.0-8.0-0.47","616891e25a026e1f7262116c","650c16f0f2faf8d7a0d14c09","651c1d799f6b135f9d67ea35","null","null","<p style=""font-size: 60px; font-family: BACS"">kLvdNGlu</p>","","","","","","","","","",""
"html-keyboard-response","56","183450","0.0-8.0-0.48","616891e25a026e1f7262116c","650c16f0f2faf8d7a0d14c09","651c1d799f6b135f9d67ea35","null","null","<p style=""font-size: 60px; font-family: BACS"">EtMDMTRkY</p>","","","","","","","","","",""
"html-keyboard-response","57","184452","0.0-8.0-0.49","616891e25a026e1f7262116c","650c16f0f2faf8d7a0d14c09","651c1d799f6b135f9d67ea35","null","null","<p style=""font-size: 60px; font-family: BACS"">ckduALcO</p>","","","","","","","","","",""
"html-keyboard-response","58","185461","0.0-8.0-0.50","616891e25a026e1f7262116c","650c16f0f2faf8d7a0d14c09","651c1d799f6b135f9d67ea35","null","null","<p style=""font-size: 60px; font-family: BACS"">NvYJrNlZ</p>","","","","","","","","","",""
"html-keyboard-response","59","186463","0.0-8.0-0.51","616891e25a026e1f7262116c","650c16f0f2faf8d7a0d14c09","651c1d799f6b135f9d67ea35","null","null","<p style=""font-size: 60px; font-family: BACS"">cRElDTAm</p>","","","","","","","","","",""
"html-keyboard-response","60","187477","0.0-8.0-0.52","616891e25a026e1f7262116c","650c16f0f2faf8d7a0d14c09","651c1d799f6b135f9d67ea35","null","null","<p style=""font-size: 60px; font-family: BACS"">COtBDtRb</p>","","","","","","","","","",""
"html-keyboard-response","61","188494","0.0-8.0-0.53","616891e25a026e1f7262116c","650c16f0f2faf8d7a0d14c09","651c1d799f6b135f9d67ea35","null","null","<p style=""font-size: 60px; font-family: BACS"">CmcOTAm</p>","","","","","","","","","",""
"html-keyboard-response","62","189509","0.0-8.0-0.54","616891e25a026e1f7262116c","650c16f0f2faf8d7a0d14c09","651c1d799f6b135f9d67ea35","null","null","<p style=""font-size: 60px; font-family: BACS"">QOLmurNlZ</p>","","","","","","","","","",""
"html-keyboard-response","63","190526","0.0-8.0-0.55","616891e25a026e1f7262116c","650c16f0f2faf8d7a0d14c09","651c1d799f6b135f9d67ea35","null","null","<p style=""font-size: 60px; font-family: BACS"">cRElDcDR</p>","","","","","","","","","",""
"html-keyboard-response","64","191541","0.0-8.0-0.56","616891e25a026e1f7262116c","650c16f0f2faf8d7a0d14c09","651c1d799f6b135f9d67ea35","null","null","<p style=""font-size: 60px; font-family: BACS"">kLvdNLcO</p>","","","","","","","","","",""
"html-keyboard-response","65","192558","0.0-8.0-0.57","616891e25a026e1f7262116c","650c16f0f2faf8d7a0d14c09","651c1d799f6b135f9d67ea35","null","null","<p style=""font-size: 60px; font-family: BACS"">cRElDTRkY</p>","","","","","","","","","",""
"html-keyboard-response","66","193571","0.0-8.0-0.58","616891e25a026e1f7262116c","650c16f0f2faf8d7a0d14c09","651c1d799f6b135f9d67ea35","null","null","<p style=""font-size: 60px; font-family: BACS"">COtBDcDR</p>","","","","","","","","","",""
"html-keyboard-response","67","194588","0.0-8.0-0.59","616891e25a026e1f7262116c","650c16f0f2faf8d7a0d14c09","651c1d799f6b135f9d67ea35","null","null","<p style=""font-size: 60px; font-family: BACS"">QOLmucrdY</p>","","","","","","","","","",""
"html-keyboard-response","68","195605","0.0-8.0-0.60","616891e25a026e1f7262116c","650c16f0f2faf8d7a0d14c09","651c1d799f6b135f9d67ea35","null","null","<p style=""font-size: 60px; font-family: BACS"">mrOdLcO</p>","","","","","","","","","",""
"html-keyboard-response","69","196608","0.0-8.0-0.61","616891e25a026e1f7262116c","650c16f0f2faf8d7a0d14c09","651c1d799f6b135f9d67ea35","null","null","<p style=""font-size: 60px; font-family: BACS"">ckduAcrdY</p>","","","","","","","","","",""
"html-keyboard-response","70","197625","0.0-8.0-0.62","616891e25a026e1f7262116c","650c16f0f2faf8d7a0d14c09","651c1d799f6b135f9d67ea35","null","null","<p style=""font-size: 60px; font-family: BACS"">rLaZGlu</p>","","","","","","","","","",""
"html-keyboard-response","71","198630","0.0-8.0-0.63","616891e25a026e1f7262116c","650c16f0f2faf8d7a0d14c09","651c1d799f6b135f9d67ea35","null","null","<p style=""font-size: 60px; font-family: BACS"">YuaNdcrdY</p>","","","","","","","","","",""
"html-keyboard-response","72","199640","0.0-8.0-0.64","616891e25a026e1f7262116c","650c16f0f2faf8d7a0d14c09","651c1d799f6b135f9d67ea35","null","null","<p style=""font-size: 60px; font-family: BACS"">QOLmuGlu</p>","","","","","","","","","",""
"html-keyboard-response","73","200644","0.0-8.0-0.65","616891e25a026e1f7262116c","650c16f0f2faf8d7a0d14c09","651c1d799f6b135f9d67ea35","null","null","<p style=""font-size: 60px; font-family: BACS"">mrOdcrdY</p>","","","","","","","","","",""
"html-keyboard-response","74","201665","0.0-8.0-0.66","616891e25a026e1f7262116c","650c16f0f2faf8d7a0d14c09","651c1d799f6b135f9d67ea35","null","null","<p style=""font-size: 60px; font-family: BACS"">kGlUrNlZ</p>","","","","","","","","","",""
"html-keyboard-response","75","202672","0.0-8.0-0.67","616891e25a026e1f7262116c","650c16f0f2faf8d7a0d14c09","651c1d799f6b135f9d67ea35","null","null","<p style=""font-size: 60px; font-family: BACS"">COtBDTRkY</p>","","","","","","","","","",""
"html-keyboard-response","76","203677","0.0-8.0-0.68","616891e25a026e1f7262116c","650c16f0f2faf8d7a0d14c09","651c1d799f6b135f9d67ea35","null","null","<p style=""font-size: 60px; font-family: BACS"">NvYJkYL</p>","","","","","","","","","",""
"html-keyboard-response","77","204693","0.0-8.0-0.69","616891e25a026e1f7262116c","650c16f0f2faf8d7a0d14c09","651c1d799f6b135f9d67ea35","null","null","<p style=""font-size: 60px; font-family: BACS"">PctRCkhMD</p>","","","","","","","","","",""
"html-keyboard-response","78","205695","0.0-8.0-0.70","616891e25a026e1f7262116c","650c16f0f2faf8d7a0d14c09","651c1d799f6b135f9d67ea35","null","null","<p style=""font-size: 60px; font-family: BACS"">DlDdTAm</p>","","","","","","","","","",""
"html-keyboard-response","79","206705","0.0-8.0-0.71","616891e25a026e1f7262116c","650c16f0f2faf8d7a0d14c09","651c1d799f6b135f9d67ea35","null","null","<p style=""font-size: 60px; font-family: BACS"">CmcOcDR</p>","","","","","","","","","",""
"html-keyboard-response","80","207724","0.0-8.0-0.72","616891e25a026e1f7262116c","650c16f0f2faf8d7a0d14c09","651c1d799f6b135f9d67ea35","null","null","<p style=""font-size: 60px; font-family: BACS"">DlDdtRb</p>","","","","","","","","","",""
"html-keyboard-response","81","208728","0.0-8.0-0.73","616891e25a026e1f7262116c","650c16f0f2faf8d7a0d14c09","651c1d799f6b135f9d67ea35","null","null","<p style=""font-size: 60px; font-family: BACS"">CmcOTRkY</p>","","","","","","","","","",""
"html-keyboard-response","82","209731","0.0-8.0-0.74","616891e25a026e1f7262116c","650c16f0f2faf8d7a0d14c09","651c1d799f6b135f9d67ea35","null","null","<p style=""font-size: 60px; font-family: BACS"">hBmMCtRb</p>","","","","","","","","","",""
"html-keyboard-response","83","210736","0.0-8.0-0.75","616891e25a026e1f7262116c","650c16f0f2faf8d7a0d14c09","651c1d799f6b135f9d67ea35","null","null","<p style=""font-size: 60px; font-family: BACS"">thbOMTRkY</p>","","","","","","","","","",""
"html-keyboard-response","84","211740","0.0-8.0-0.76","616891e25a026e1f7262116c","650c16f0f2faf8d7a0d14c09","651c1d799f6b135f9d67ea35","null","null","<p style=""font-size: 60px; font-family: BACS"">ckduArNlZ</p>","","","","","","","","","",""
"html-keyboard-response","85","212753","0.0-8.0-0.77","616891e25a026e1f7262116c","650c16f0f2faf8d7a0d14c09","651c1d799f6b135f9d67ea35","null","null","<p style=""font-size: 60px; font-family: BACS"">EtMDMTAm</p>","","","","","","","","","",""
"html-keyboard-response","86","213755","0.0-8.0-0.78","616891e25a026e1f7262116c","650c16f0f2faf8d7a0d14c09","651c1d799f6b135f9d67ea35","null","null","<p style=""font-size: 60px; font-family: BACS"">kZUbkYL</p>","","","","","","","","","",""
"html-keyboard-response","87","214773","0.0-8.0-0.79","616891e25a026e1f7262116c","650c16f0f2faf8d7a0d14c09","651c1d799f6b135f9d67ea35","null","null","<p style=""font-size: 60px; font-family: BACS"">KBKBETAm</p>","","","","","","","","","",""
"html-keyboard-response","88","301499","0.0-9.0","616891e25a026e1f7262116c","650c16f0f2faf8d7a0d14c09","651c1d799f6b135f9d67ea35","86723"," ","<p>Great, you've seen the first block of words. You may now take a short break.</p>
      <p>Press the spacebar when you're ready to continue.</p>","","","","","","","","","",""
"html-keyboard-response","89","302512","0.0-10.0-0.0","616891e25a026e1f7262116c","650c16f0f2faf8d7a0d14c09","651c1d799f6b135f9d67ea35","null","null","<p style=""font-size: 60px; font-family: BACS"">thbOMtRb</p>","","","","","","","","","",""
"html-keyboard-response","90","303525","0.0-10.0-0.1","616891e25a026e1f7262116c","650c16f0f2faf8d7a0d14c09","651c1d799f6b135f9d67ea35","null","null","<p style=""font-size: 60px; font-family: BACS"">kZUbrNlZ</p>","","","","","","","","","",""
"html-keyboard-response","91","304532","0.0-10.0-0.2","616891e25a026e1f7262116c","650c16f0f2faf8d7a0d14c09","651c1d799f6b135f9d67ea35","null","null","<p style=""font-size: 60px; font-family: BACS"">rbYbuGlu</p>","","","","","","","","","",""
"html-keyboard-response","92","305545","0.0-10.0-0.3","616891e25a026e1f7262116c","650c16f0f2faf8d7a0d14c09","651c1d799f6b135f9d67ea35","null","null","<p style=""font-size: 60px; font-family: BACS"">kZUbcrdY</p>","","","","","","","","","",""
"html-keyboard-response","93","306558","0.0-10.0-0.4","616891e25a026e1f7262116c","650c16f0f2faf8d7a0d14c09","651c1d799f6b135f9d67ea35","null","null","<p style=""font-size: 60px; font-family: BACS"">rLaZLcO</p>","","","","","","","","","",""
"html-keyboard-response","94","307563","0.0-10.0-0.5","616891e25a026e1f7262116c","650c16f0f2faf8d7a0d14c09","651c1d799f6b135f9d67ea35","null","null","<p style=""font-size: 60px; font-family: BACS"">EtMDMkhMD</p>","","","","","","","","","",""
"html-keyboard-response","95","308577","0.0-10.0-0.6","616891e25a026e1f7262116c","650c16f0f2faf8d7a0d14c09","651c1d799f6b135f9d67ea35","null","null","<p style=""font-size: 60px; font-family: BACS"">NvYJcrdY</p>","","","","","","","","","",""
"html-keyboard-response","96","309582","0.0-10.0-0.7","616891e25a026e1f7262116c","650c16f0f2faf8d7a0d14c09","651c1d799f6b135f9d67ea35","null","null","<p style=""font-size: 60px; font-family: BACS"">DlDdkhMD</p>","","","","","","","","","",""
"html-keyboard-response","97","310596","0.0-10.0-0.8","616891e25a026e1f7262116c","650c16f0f2faf8d7a0d14c09","651c1d799f6b135f9d67ea35","null","null","<p style=""font-size: 60px; font-family: BACS"">CmcOTRkY</p>","","","","","","","","","",""
"html-keyboard-response","98","311607","0.0-10.0-0.9","616891e25a026e1f7262116c","650c16f0f2faf8d7a0d14c09","651c1d799f6b135f9d67ea35","null","null","<p style=""font-size: 60px; font-family: BACS"">KBKBEkhMD</p>","","","","","","","","","",""
"html-keyboard-response","99","312626","0.0-10.0-0.10","616891e25a026e1f7262116c","650c16f0f2faf8d7a0d14c09","651c1d799f6b135f9d67ea35","null","null","<p style=""font-size: 60px; font-family: BACS"">CmcOcDR</p>","","","","","","","","","",""
"html-keyboard-response","100","313646","0.0-10.0-0.11","616891e25a026e1f7262116c","650c16f0f2faf8d7a0d14c09","651c1d799f6b135f9d67ea35","null","null","<p style=""font-size: 60px; font-family: BACS"">rbYbuLcO</p>","","","","","","","","","",""
"html-keyboard-response","101","314658","0.0-10.0-0.12","616891e25a026e1f7262116c","650c16f0f2faf8d7a0d14c09","651c1d799f6b135f9d67ea35","null","null","<p style=""font-size: 60px; font-family: BACS"">COtBDkhMD</p>","","","","","","","","","",""
"html-keyboard-response","102","315670","0.0-10.0-0.13","616891e25a026e1f7262116c","650c16f0f2faf8d7a0d14c09","651c1d799f6b135f9d67ea35","null","null","<p style=""font-size: 60px; font-family: BACS"">hBmMCcDR</p>","","","","","","","","","",""
"html-keyboard-response","103","316673","0.0-10.0-0.14","616891e25a026e1f7262116c","650c16f0f2faf8d7a0d14c09","651c1d799f6b135f9d67ea35","null","null","<p style=""font-size: 60px; font-family: BACS"">QOLmuGlu</p>","","","","","","","","","",""
"html-keyboard-response","104","317677","0.0-10.0-0.15","616891e25a026e1f7262116c","650c16f0f2faf8d7a0d14c09","651c1d799f6b135f9d67ea35","null","null","<p style=""font-size: 60px; font-family: BACS"">COtBDtRb</p>","","","","","","","","","",""
"html-keyboard-response","105","318686","0.0-10.0-0.16","616891e25a026e1f7262116c","650c16f0f2faf8d7a0d14c09","651c1d799f6b135f9d67ea35","null","null","<p style=""font-size: 60px; font-family: BACS"">kLvdNGlu</p>","","","","","","","","","",""
"html-keyboard-response","106","319703","0.0-10.0-0.17","616891e25a026e1f7262116c","650c16f0f2faf8d7a0d14c09","651c1d799f6b135f9d67ea35","null","null","<p style=""font-size: 60px; font-family: BACS"">PctRCtRb</p>","","","","","","","","","",""
"html-keyboard-response","107","320719","0.0-10.0-0.18","616891e25a026e1f7262116c","650c16f0f2faf8d7a0d14c09","651c1d799f6b135f9d67ea35","null","null","<p style=""font-size: 60px; font-family: BACS"">ckduAGlu</p>","","","","","","","","","",""
"html-keyboard-response","108","321739","0.0-10.0-0.19","616891e25a026e1f7262116c","650c16f0f2faf8d7a0d14c09","651c1d799f6b135f9d67ea35","null","null","<p style=""font-size: 60px; font-family: BACS"">hBmMCTRkY</p>","","","","","","","","","",""
"html-keyboard-response","109","322745","0.0-10.0-0.20","616891e25a026e1f7262116c","650c16f0f2faf8d7a0d14c09","651c1d799f6b135f9d67ea35","null","null","<p style=""font-size: 60px; font-family: BACS"">YuaNdrNlZ</p>","","","","","","","","","",""
"html-keyboard-response","110","323756","0.0-10.0-0.21","616891e25a026e1f7262116c","650c16f0f2faf8d7a0d14c09","651c1d799f6b135f9d67ea35","null","null","<p style=""font-size: 60px; font-family: BACS"">kGlUGlu</p>","","","","","","","","","",""
"html-keyboard-response","111","324771","0.0-10.0-0.22","616891e25a026e1f7262116c","650c16f0f2faf8d7a0d14c09","651c1d799f6b135f9d67ea35","null","null","<p style=""font-size: 60px; font-family: BACS"">cRElDTRkY</p>","","","","","","","","","",""
"html-keyboard-response","112","325786","0.0-10.0-0.23","616891e25a026e1f7262116c","650c16f0f2faf8d7a0d14c09","651c1d799f6b135f9d67ea35","null","null","<p style=""font-size: 60px; font-family: BACS"">kGlUrNlZ</p>","","","","","","","","","",""
"html-keyboard-response","113","326792","0.0-10.0-0.24","616891e25a026e1f7262116c","650c16f0f2faf8d7a0d14c09","651c1d799f6b135f9d67ea35","null","null","<p style=""font-size: 60px; font-family: BACS"">COtBDcDR</p>","","","","","","","","","",""
"html-keyboard-response","114","327809","0.0-10.0-0.25","616891e25a026e1f7262116c","650c16f0f2faf8d7a0d14c09","651c1d799f6b135f9d67ea35","null","null","<p style=""font-size: 60px; font-family: BACS"">thbOMkhMD</p>","","","","","","","","","",""
"html-keyboard-response","115","328823","0.0-10.0-0.26","616891e25a026e1f7262116c","650c16f0f2faf8d7a0d14c09","651c1d799f6b135f9d67ea35","null","null","<p style=""font-size: 60px; font-family: BACS"">QOLmucrdY</p>","","","","","","","","","",""
"html-keyboard-response","116","329840","0.0-10.0-0.27","616891e25a026e1f7262116c","650c16f0f2faf8d7a0d14c09","651c1d799f6b135f9d67ea35","null","null","<p style=""font-size: 60px; font-family: BACS"">thbOMTRkY</p>","","","","","","","","","",""
"html-keyboard-response","117","330867","0.0-10.0-0.28","616891e25a026e1f7262116c","650c16f0f2faf8d7a0d14c09","651c1d799f6b135f9d67ea35","null","null","<p style=""font-size: 60px; font-family: BACS"">OtlRcDR</p>","","","","","","","","","",""
"html-keyboard-response","118","331872","0.0-10.0-0.29","616891e25a026e1f7262116c","650c16f0f2faf8d7a0d14c09","651c1d799f6b135f9d67ea35","null","null","<p style=""font-size: 60px; font-family: BACS"">rbYbukYL</p>","","","","","","","","","",""
"html-keyboard-response","119","332876","0.0-10.0-0.30","616891e25a026e1f7262116c","650c16f0f2faf8d7a0d14c09","651c1d799f6b135f9d67ea35","null","null","<p style=""font-size: 60px; font-family: BACS"">PctRCTRkY</p>","","","","","","","","","",""
"html-keyboard-response","120","333881","0.0-10.0-0.31","616891e25a026e1f7262116c","650c16f0f2faf8d7a0d14c09","651c1d799f6b135f9d67ea35","null","null","<p style=""font-size: 60px; font-family: BACS"">NvYJLcO</p>","","","","","","","","","",""
"html-keyboard-response","121","334898","0.0-10.0-0.32","616891e25a026e1f7262116c","650c16f0f2faf8d7a0d14c09","651c1d799f6b135f9d67ea35","null","null","<p style=""font-size: 60px; font-family: BACS"">YuaNdkYL</p>","","","","","","","","","",""
"html-keyboard-response","122","335916","0.0-10.0-0.33","616891e25a026e1f7262116c","650c16f0f2faf8d7a0d14c09","651c1d799f6b135f9d67ea35","null","null","<p style=""font-size: 60px; font-family: BACS"">rLaZGlu</p>","","","","","","","","","",""
"html-keyboard-response","123","336931","0.0-10.0-0.34","616891e25a026e1f7262116c","650c16f0f2faf8d7a0d14c09","651c1d799f6b135f9d67ea35","null","null","<p style=""font-size: 60px; font-family: BACS"">QOLmukYL</p>","","","","","","","","","",""
"html-keyboard-response","124","337941","0.0-10.0-0.35","616891e25a026e1f7262116c","650c16f0f2faf8d7a0d14c09","651c1d799f6b135f9d67ea35","null","null","<p style=""font-size: 60px; font-family: BACS"">PctRCkhMD</p>","","","","","","","","","",""
"html-keyboard-response","125","338956","0.0-10.0-0.36","616891e25a026e1f7262116c","650c16f0f2faf8d7a0d14c09","651c1d799f6b135f9d67ea35","null","null","<p style=""font-size: 60px; font-family: BACS"">ckduArNlZ</p>","","","","","","","","","",""
"html-keyboard-response","126","339972","0.0-10.0-0.37","616891e25a026e1f7262116c","650c16f0f2faf8d7a0d14c09","651c1d799f6b135f9d67ea35","null","null","<p style=""font-size: 60px; font-family: BACS"">OtlRTAm</p>","","","","","","","","","",""
"html-keyboard-response","127","340985","0.0-10.0-0.38","616891e25a026e1f7262116c","650c16f0f2faf8d7a0d14c09","651c1d799f6b135f9d67ea35","null","null","<p style=""font-size: 60px; font-family: BACS"">EtMDMTRkY</p>","","","","","","","","","",""
"html-keyboard-response","128","342002","0.0-10.0-0.39","616891e25a026e1f7262116c","650c16f0f2faf8d7a0d14c09","651c1d799f6b135f9d67ea35","null","null","<p style=""font-size: 60px; font-family: BACS"">kLvdNcrdY</p>","","","","","","","","","",""
"html-keyboard-response","129","343006","0.0-10.0-0.40","616891e25a026e1f7262116c","650c16f0f2faf8d7a0d14c09","651c1d799f6b135f9d67ea35","null","null","<p style=""font-size: 60px; font-family: BACS"">cRElDTAm</p>","","","","","","","","","",""
"html-keyboard-response","130","344008","0.0-10.0-0.41","616891e25a026e1f7262116c","650c16f0f2faf8d7a0d14c09","651c1d799f6b135f9d67ea35","null","null","<p style=""font-size: 60px; font-family: BACS"">mrOdcrdY</p>","","","","","","","","","",""
"html-keyboard-response","131","345023","0.0-10.0-0.42","616891e25a026e1f7262116c","650c16f0f2faf8d7a0d14c09","651c1d799f6b135f9d67ea35","null","null","<p style=""font-size: 60px; font-family: BACS"">kZUbLcO</p>","","","","","","","","","",""
"html-keyboard-response","132","346034","0.0-10.0-0.43","616891e25a026e1f7262116c","650c16f0f2faf8d7a0d14c09","651c1d799f6b135f9d67ea35","null","null","<p style=""font-size: 60px; font-family: BACS"">rbYburNlZ</p>","","","","","","","","","",""
"html-keyboard-response","133","347046","0.0-10.0-0.44","616891e25a026e1f7262116c","650c16f0f2faf8d7a0d14c09","651c1d799f6b135f9d67ea35","null","null","<p style=""font-size: 60px; font-family: BACS"">DlDdcDR</p>","","","","","","","","","",""
"html-keyboard-response","134","348060","0.0-10.0-0.45","616891e25a026e1f7262116c","650c16f0f2faf8d7a0d14c09","651c1d799f6b135f9d67ea35","null","null","<p style=""font-size: 60px; font-family: BACS"">OtlRTRkY</p>","","","","","","","","","",""
"html-keyboard-response","135","349063","0.0-10.0-0.46","616891e25a026e1f7262116c","650c16f0f2faf8d7a0d14c09","651c1d799f6b135f9d67ea35","null","null","<p style=""font-size: 60px; font-family: BACS"">kLvdNLcO</p>","","","","","","","","","",""
"html-keyboard-response","136","350080","0.0-10.0-0.47","616891e25a026e1f7262116c","650c16f0f2faf8d7a0d14c09","651c1d799f6b135f9d67ea35","null","null","<p style=""font-size: 60px; font-family: BACS"">CmcOtRb</p>","","","","","","","","","",""
"html-keyboard-response","137","351091","0.0-10.0-0.48","616891e25a026e1f7262116c","650c16f0f2faf8d7a0d14c09","651c1d799f6b135f9d67ea35","null","null","<p style=""font-size: 60px; font-family: BACS"">kZUbkYL</p>","","","","","","","","","",""
"html-keyboard-response","138","352107","0.0-10.0-0.49","616891e25a026e1f7262116c","650c16f0f2faf8d7a0d14c09","651c1d799f6b135f9d67ea35","null","null","<p style=""font-size: 60px; font-family: BACS"">mrOdGlu</p>","","","","","","","","","",""
"html-keyboard-response","139","353126","0.0-10.0-0.50","616891e25a026e1f7262116c","650c16f0f2faf8d7a0d14c09","651c1d799f6b135f9d67ea35","null","null","<p style=""font-size: 60px; font-family: BACS"">ckduALcO</p>","","","","","","","","","",""
"html-keyboard-response","140","354137","0.0-10.0-0.51","616891e25a026e1f7262116c","650c16f0f2faf8d7a0d14c09","651c1d799f6b135f9d67ea35","null","null","<p style=""font-size: 60px; font-family: BACS"">YuaNdGlu</p>","","","","","","","","","",""
"html-keyboard-response","141","355159","0.0-10.0-0.52","616891e25a026e1f7262116c","650c16f0f2faf8d7a0d14c09","651c1d799f6b135f9d67ea35","null","null","<p style=""font-size: 60px; font-family: BACS"">kGlULcO</p>","","","","","","","","","",""
"html-keyboard-response","142","356174","0.0-10.0-0.53","616891e25a026e1f7262116c","650c16f0f2faf8d7a0d14c09","651c1d799f6b135f9d67ea35","null","null","<p style=""font-size: 60px; font-family: BACS"">thbOMcDR</p>","","","","","","","","","",""
"html-keyboard-response","143","357190","0.0-10.0-0.54","616891e25a026e1f7262116c","650c16f0f2faf8d7a0d14c09","651c1d799f6b135f9d67ea35","null","null","<p style=""font-size: 60px; font-family: BACS"">mrOdkYL</p>","","","","","","","","","",""
"html-keyboard-response","144","358198","0.0-10.0-0.55","616891e25a026e1f7262116c","650c16f0f2faf8d7a0d14c09","651c1d799f6b135f9d67ea35","null","null","<p style=""font-size: 60px; font-family: BACS"">DlDdtRb</p>","","","","","","","","","",""
"html-keyboard-response","145","359201","0.0-10.0-0.56","616891e25a026e1f7262116c","650c16f0f2faf8d7a0d14c09","651c1d799f6b135f9d67ea35","null","null","<p style=""font-size: 60px; font-family: BACS"">cRElDkhMD</p>","","","","","","","","","",""
"html-keyboard-response","146","360207","0.0-10.0-0.57","616891e25a026e1f7262116c","650c16f0f2faf8d7a0d14c09","651c1d799f6b135f9d67ea35","null","null","<p style=""font-size: 60px; font-family: BACS"">COtBDTRkY</p>","","","","","","","","","",""
"html-keyboard-response","147","361214","0.0-10.0-0.58","616891e25a026e1f7262116c","650c16f0f2faf8d7a0d14c09","651c1d799f6b135f9d67ea35","null","null","<p style=""font-size: 60px; font-family: BACS"">hBmMCTAm</p>","","","","","","","","","",""
"html-keyboard-response","148","362219","0.0-10.0-0.59","616891e25a026e1f7262116c","650c16f0f2faf8d7a0d14c09","651c1d799f6b135f9d67ea35","null","null","<p style=""font-size: 60px; font-family: BACS"">kGlUkYL</p>","","","","","","","","","",""
"html-keyboard-response","149","363237","0.0-10.0-0.60","616891e25a026e1f7262116c","650c16f0f2faf8d7a0d14c09","651c1d799f6b135f9d67ea35","null","null","<p style=""font-size: 60px; font-family: BACS"">KBKBEcDR</p>","","","","","","","","","",""
"html-keyboard-response","150","364246","0.0-10.0-0.61","616891e25a026e1f7262116c","650c16f0f2faf8d7a0d14c09","651c1d799f6b135f9d67ea35","null","null","<p style=""font-size: 60px; font-family: BACS"">PctRCTAm</p>","","","","","","","","","",""
"html-keyboard-response","151","365252","0.0-10.0-0.62","616891e25a026e1f7262116c","650c16f0f2faf8d7a0d14c09","651c1d799f6b135f9d67ea35","null","null","<p style=""font-size: 60px; font-family: BACS"">cRElDcDR</p>","","","","","","","","","",""
"html-keyboard-response","152","366259","0.0-10.0-0.63","616891e25a026e1f7262116c","650c16f0f2faf8d7a0d14c09","651c1d799f6b135f9d67ea35","null","null","<p style=""font-size: 60px; font-family: BACS"">QOLmurNlZ</p>","","","","","","","","","",""
"html-keyboard-response","153","367268","0.0-10.0-0.64","616891e25a026e1f7262116c","650c16f0f2faf8d7a0d14c09","651c1d799f6b135f9d67ea35","null","null","<p style=""font-size: 60px; font-family: BACS"">KBKBEtRb</p>","","","","","","","","","",""
"html-keyboard-response","154","368275","0.0-10.0-0.65","616891e25a026e1f7262116c","650c16f0f2faf8d7a0d14c09","651c1d799f6b135f9d67ea35","null","null","<p style=""font-size: 60px; font-family: BACS"">rLaZrNlZ</p>","","","","","","","","","",""
"html-keyboard-response","155","369280","0.0-10.0-0.66","616891e25a026e1f7262116c","650c16f0f2faf8d7a0d14c09","651c1d799f6b135f9d67ea35","null","null","<p style=""font-size: 60px; font-family: BACS"">CmcOTAm</p>","","","","","","","","","",""
"html-keyboard-response","156","370289","0.0-10.0-0.67","616891e25a026e1f7262116c","650c16f0f2faf8d7a0d14c09","651c1d799f6b135f9d67ea35","null","null","<p style=""font-size: 60px; font-family: BACS"">YuaNdcrdY</p>","","","","","","","","","",""
"html-keyboard-response","157","371297","0.0-10.0-0.68","616891e25a026e1f7262116c","650c16f0f2faf8d7a0d14c09","651c1d799f6b135f9d67ea35","null","null","<p style=""font-size: 60px; font-family: BACS"">EtMDMtRb</p>","","","","","","","","","",""
"html-keyboard-response","158","372302","0.0-10.0-0.69","616891e25a026e1f7262116c","650c16f0f2faf8d7a0d14c09","651c1d799f6b135f9d67ea35","null","null","<p style=""font-size: 60px; font-family: BACS"">kLvdNkYL</p>","","","","","","","","","",""
"html-keyboard-response","159","373314","0.0-10.0-0.70","616891e25a026e1f7262116c","650c16f0f2faf8d7a0d14c09","651c1d799f6b135f9d67ea35","null","null","<p style=""font-size: 60px; font-family: BACS"">OtlRkhMD</p>","","","","","","","","","",""
"html-keyboard-response","160","374324","0.0-10.0-0.71","616891e25a026e1f7262116c","650c16f0f2faf8d7a0d14c09","651c1d799f6b135f9d67ea35","null","null","<p style=""font-size: 60px; font-family: BACS"">rLaZcrdY</p>","","","","","","","","","",""
"html-keyboard-response","161","375341","0.0-10.0-0.72","616891e25a026e1f7262116c","650c16f0f2faf8d7a0d14c09","651c1d799f6b135f9d67ea35","null","null","<p style=""font-size: 60px; font-family: BACS"">mrOdLcO</p>","","","","","","","","","",""
"html-keyboard-response","162","376347","0.0-10.0-0.73","616891e25a026e1f7262116c","650c16f0f2faf8d7a0d14c09","651c1d799f6b135f9d67ea35","null","null","<p style=""font-size: 60px; font-family: BACS"">hBmMCtRb</p>","","","","","","","","","",""
"html-keyboard-response","163","377369","0.0-10.0-0.74","616891e25a026e1f7262116c","650c16f0f2faf8d7a0d14c09","651c1d799f6b135f9d67ea35","null","null","<p style=""font-size: 60px; font-family: BACS"">NvYJkYL</p>","","","","","","","","","",""
"html-keyboard-response","164","378379","0.0-10.0-0.75","616891e25a026e1f7262116c","650c16f0f2faf8d7a0d14c09","651c1d799f6b135f9d67ea35","null","null","<p style=""font-size: 60px; font-family: BACS"">DlDdTAm</p>","","","","","","","","","",""
"html-keyboard-response","165","379384","0.0-10.0-0.76","616891e25a026e1f7262116c","650c16f0f2faf8d7a0d14c09","651c1d799f6b135f9d67ea35","null","null","<p style=""font-size: 60px; font-family: BACS"">NvYJrNlZ</p>","","","","","","","","","",""
"html-keyboard-response","166","380391","0.0-10.0-0.77","616891e25a026e1f7262116c","650c16f0f2faf8d7a0d14c09","651c1d799f6b135f9d67ea35","null","null","<p style=""font-size: 60px; font-family: BACS"">EtMDMTAm</p>","","","","","","","","","",""
"html-keyboard-response","167","381396","0.0-10.0-0.78","616891e25a026e1f7262116c","650c16f0f2faf8d7a0d14c09","651c1d799f6b135f9d67ea35","null","null","<p style=""font-size: 60px; font-family: BACS"">ckduAcrdY</p>","","","","","","","","","",""
"html-keyboard-response","168","382410","0.0-10.0-0.79","616891e25a026e1f7262116c","650c16f0f2faf8d7a0d14c09","651c1d799f6b135f9d67ea35","null","null","<p style=""font-size: 60px; font-family: BACS"">KBKBETAm</p>","","","","","","","","","",""
"html-keyboard-response","169","489761","0.0-11.0","616891e25a026e1f7262116c","650c16f0f2faf8d7a0d14c09","651c1d799f6b135f9d67ea35","107350"," ","<p>Great, you've seen the second block of words. You may now take a short break.</p>
      <p>Press the spacebar when you're ready to continue.</p>","","","","","","","","","",""
"html-keyboard-response","170","490765","0.0-12.0-0.0","616891e25a026e1f7262116c","650c16f0f2faf8d7a0d14c09","651c1d799f6b135f9d67ea35","null","null","<p style=""font-size: 60px; font-family: BACS"">rbYburNlZ</p>","","","","","","","","","",""
"html-keyboard-response","171","491776","0.0-12.0-0.1","616891e25a026e1f7262116c","650c16f0f2faf8d7a0d14c09","651c1d799f6b135f9d67ea35","null","null","<p style=""font-size: 60px; font-family: BACS"">PctRCtRb</p>","","","","","","","","","",""
"html-keyboard-response","172","492792","0.0-12.0-0.2","616891e25a026e1f7262116c","650c16f0f2faf8d7a0d14c09","651c1d799f6b135f9d67ea35","null","null","<p style=""font-size: 60px; font-family: BACS"">rbYbuGlu</p>","","","","","","","","","",""
"html-keyboard-response","173","493798","0.0-12.0-0.3","616891e25a026e1f7262116c","650c16f0f2faf8d7a0d14c09","651c1d799f6b135f9d67ea35","null","null","<p style=""font-size: 60px; font-family: BACS"">EtMDMtRb</p>","","","","","","","","","",""
"html-keyboard-response","174","494815","0.0-12.0-0.4","616891e25a026e1f7262116c","650c16f0f2faf8d7a0d14c09","651c1d799f6b135f9d67ea35","null","null","<p style=""font-size: 60px; font-family: BACS"">KBKBEkhMD</p>","","","","","","","","","",""
"html-keyboard-response","175","495835","0.0-12.0-0.5","616891e25a026e1f7262116c","650c16f0f2faf8d7a0d14c09","651c1d799f6b135f9d67ea35","null","null","<p style=""font-size: 60px; font-family: BACS"">kZUbLcO</p>","","","","","","","","","",""
"html-keyboard-response","176","496843","0.0-12.0-0.6","616891e25a026e1f7262116c","650c16f0f2faf8d7a0d14c09","651c1d799f6b135f9d67ea35","null","null","<p style=""font-size: 60px; font-family: BACS"">cRElDkhMD</p>","","","","","","","","","",""
"html-keyboard-response","177","497859","0.0-12.0-0.7","616891e25a026e1f7262116c","650c16f0f2faf8d7a0d14c09","651c1d799f6b135f9d67ea35","null","null","<p style=""font-size: 60px; font-family: BACS"">kZUbkYL</p>","","","","","","","","","",""
"html-keyboard-response","178","498872","0.0-12.0-0.8","616891e25a026e1f7262116c","650c16f0f2faf8d7a0d14c09","651c1d799f6b135f9d67ea35","null","null","<p style=""font-size: 60px; font-family: BACS"">mrOdcrdY</p>","","","","","","","","","",""
"html-keyboard-response","179","499886","0.0-12.0-0.9","616891e25a026e1f7262116c","650c16f0f2faf8d7a0d14c09","651c1d799f6b135f9d67ea35","null","null","<p style=""font-size: 60px; font-family: BACS"">OtlRcDR</p>","","","","","","","","","",""
"html-keyboard-response","180","500895","0.0-12.0-0.10","616891e25a026e1f7262116c","650c16f0f2faf8d7a0d14c09","651c1d799f6b135f9d67ea35","null","null","<p style=""font-size: 60px; font-family: BACS"">KBKBETAm</p>","","","","","","","","","",""
"html-keyboard-response","181","501912","0.0-12.0-0.11","616891e25a026e1f7262116c","650c16f0f2faf8d7a0d14c09","651c1d799f6b135f9d67ea35","null","null","<p style=""font-size: 60px; font-family: BACS"">PctRCkhMD</p>","","","","","","","","","",""
"html-keyboard-response","182","502930","0.0-12.0-0.12","616891e25a026e1f7262116c","650c16f0f2faf8d7a0d14c09","651c1d799f6b135f9d67ea35","null","null","<p style=""font-size: 60px; font-family: BACS"">COtBDtRb</p>","","","","","","","","","",""
"html-keyboard-response","183","503940","0.0-12.0-0.13","616891e25a026e1f7262116c","650c16f0f2faf8d7a0d14c09","651c1d799f6b135f9d67ea35","null","null","<p style=""font-size: 60px; font-family: BACS"">OtlRkhMD</p>","","","","","","","","","",""
"html-keyboard-response","184","504945","0.0-12.0-0.14","616891e25a026e1f7262116c","650c16f0f2faf8d7a0d14c09","651c1d799f6b135f9d67ea35","null","null","<p style=""font-size: 60px; font-family: BACS"">rbYbuLcO</p>","","","","","","","","","",""
"html-keyboard-response","185","505954","0.0-12.0-0.15","616891e25a026e1f7262116c","650c16f0f2faf8d7a0d14c09","651c1d799f6b135f9d67ea35","null","null","<p style=""font-size: 60px; font-family: BACS"">kGlUGlu</p>","","","","","","","","","",""
"html-keyboard-response","186","506963","0.0-12.0-0.16","616891e25a026e1f7262116c","650c16f0f2faf8d7a0d14c09","651c1d799f6b135f9d67ea35","null","null","<p style=""font-size: 60px; font-family: BACS"">EtMDMTRkY</p>","","","","","","","","","",""
"html-keyboard-response","187","507980","0.0-12.0-0.17","616891e25a026e1f7262116c","650c16f0f2faf8d7a0d14c09","651c1d799f6b135f9d67ea35","null","null","<p style=""font-size: 60px; font-family: BACS"">YuaNdkYL</p>","","","","","","","","","",""
"html-keyboard-response","188","508986","0.0-12.0-0.18","616891e25a026e1f7262116c","650c16f0f2faf8d7a0d14c09","651c1d799f6b135f9d67ea35","null","null","<p style=""font-size: 60px; font-family: BACS"">ckduArNlZ</p>","","","","","","","","","",""
"html-keyboard-response","189","509999","0.0-12.0-0.19","616891e25a026e1f7262116c","650c16f0f2faf8d7a0d14c09","651c1d799f6b135f9d67ea35","null","null","<p style=""font-size: 60px; font-family: BACS"">PctRCTAm</p>","","","","","","","","","",""
"html-keyboard-response","190","511010","0.0-12.0-0.20","616891e25a026e1f7262116c","650c16f0f2faf8d7a0d14c09","651c1d799f6b135f9d67ea35","null","null","<p style=""font-size: 60px; font-family: BACS"">OtlRTRkY</p>","","","","","","","","","",""
"html-keyboard-response","191","512025","0.0-12.0-0.21","616891e25a026e1f7262116c","650c16f0f2faf8d7a0d14c09","651c1d799f6b135f9d67ea35","null","null","<p style=""font-size: 60px; font-family: BACS"">kLvdNLcO</p>","","","","","","","","","",""
"html-keyboard-response","192","513040","0.0-12.0-0.22","616891e25a026e1f7262116c","650c16f0f2faf8d7a0d14c09","651c1d799f6b135f9d67ea35","null","null","<p style=""font-size: 60px; font-family: BACS"">YuaNdrNlZ</p>","","","","","","","","","",""
"html-keyboard-response","193","514056","0.0-12.0-0.23","616891e25a026e1f7262116c","650c16f0f2faf8d7a0d14c09","651c1d799f6b135f9d67ea35","null","null","<p style=""font-size: 60px; font-family: BACS"">KBKBEcDR</p>","","","","","","","","","",""
"html-keyboard-response","194","515067","0.0-12.0-0.24","616891e25a026e1f7262116c","650c16f0f2faf8d7a0d14c09","651c1d799f6b135f9d67ea35","null","null","<p style=""font-size: 60px; font-family: BACS"">kGlUrNlZ</p>","","","","","","","","","",""
"html-keyboard-response","195","516081","0.0-12.0-0.25","616891e25a026e1f7262116c","650c16f0f2faf8d7a0d14c09","651c1d799f6b135f9d67ea35","null","null","<p style=""font-size: 60px; font-family: BACS"">QOLmukYL</p>","","","","","","","","","",""
"html-keyboard-response","196","517084","0.0-12.0-0.26","616891e25a026e1f7262116c","650c16f0f2faf8d7a0d14c09","651c1d799f6b135f9d67ea35","null","null","<p style=""font-size: 60px; font-family: BACS"">hBmMCcDR</p>","","","","","","","","","",""
"html-keyboard-response","197","518095","0.0-12.0-0.27","616891e25a026e1f7262116c","650c16f0f2faf8d7a0d14c09","651c1d799f6b135f9d67ea35","null","null","<p style=""font-size: 60px; font-family: BACS"">NvYJrNlZ</p>","","","","","","","","","",""
"html-keyboard-response","198","519116","0.0-12.0-0.28","616891e25a026e1f7262116c","650c16f0f2faf8d7a0d14c09","651c1d799f6b135f9d67ea35","null","null","<p style=""font-size: 60px; font-family: BACS"">PctRCTRkY</p>","","","","","","","","","",""
"html-keyboard-response","199","520134","0.0-12.0-0.29","616891e25a026e1f7262116c","650c16f0f2faf8d7a0d14c09","651c1d799f6b135f9d67ea35","null","null","<p style=""font-size: 60px; font-family: BACS"">thbOMtRb</p>","","","","","","","","","",""
"html-keyboard-response","200","521145","0.0-12.0-0.30","616891e25a026e1f7262116c","650c16f0f2faf8d7a0d14c09","651c1d799f6b135f9d67ea35","null","null","<p style=""font-size: 60px; font-family: BACS"">QOLmuGlu</p>","","","","","","","","","",""
"html-keyboard-response","201","522148","0.0-12.0-0.31","616891e25a026e1f7262116c","650c16f0f2faf8d7a0d14c09","651c1d799f6b135f9d67ea35","null","null","<p style=""font-size: 60px; font-family: BACS"">hBmMCTRkY</p>","","","","","","","","","",""
"html-keyboard-response","202","523161","0.0-12.0-0.32","616891e25a026e1f7262116c","650c16f0f2faf8d7a0d14c09","651c1d799f6b135f9d67ea35","null","null","<p style=""font-size: 60px; font-family: BACS"">DlDdTAm</p>","","","","","","","","","",""
"html-keyboard-response","203","524177","0.0-12.0-0.33","616891e25a026e1f7262116c","650c16f0f2faf8d7a0d14c09","651c1d799f6b135f9d67ea35","null","null","<p style=""font-size: 60px; font-family: BACS"">hBmMCtRb</p>","","","","","","","","","",""
"html-keyboard-response","204","525182","0.0-12.0-0.34","616891e25a026e1f7262116c","650c16f0f2faf8d7a0d14c09","651c1d799f6b135f9d67ea35","null","null","<p style=""font-size: 60px; font-family: BACS"">QOLmurNlZ</p>","","","","","","","","","",""
"html-keyboard-response","205","526193","0.0-12.0-0.35","616891e25a026e1f7262116c","650c16f0f2faf8d7a0d14c09","651c1d799f6b135f9d67ea35","null","null","<p style=""font-size: 60px; font-family: BACS"">EtMDMkhMD</p>","","","","","","","","","",""
"html-keyboard-response","206","527202","0.0-12.0-0.36","616891e25a026e1f7262116c","650c16f0f2faf8d7a0d14c09","651c1d799f6b135f9d67ea35","null","null","<p style=""font-size: 60px; font-family: BACS"">hBmMCTAm</p>","","","","","","","","","",""
"html-keyboard-response","207","528203","0.0-12.0-0.37","616891e25a026e1f7262116c","650c16f0f2faf8d7a0d14c09","651c1d799f6b135f9d67ea35","null","null","<p style=""font-size: 60px; font-family: BACS"">mrOdLcO</p>","","","","","","","","","",""
"html-keyboard-response","208","529207","0.0-12.0-0.38","616891e25a026e1f7262116c","650c16f0f2faf8d7a0d14c09","651c1d799f6b135f9d67ea35","null","null","<p style=""font-size: 60px; font-family: BACS"">kZUbrNlZ</p>","","","","","","","","","",""
"html-keyboard-response","209","530220","0.0-12.0-0.39","616891e25a026e1f7262116c","650c16f0f2faf8d7a0d14c09","651c1d799f6b135f9d67ea35","null","null","<p style=""font-size: 60px; font-family: BACS"">CmcOcDR</p>","","","","","","","","","",""
"html-keyboard-response","210","531229","0.0-12.0-0.40","616891e25a026e1f7262116c","650c16f0f2faf8d7a0d14c09","651c1d799f6b135f9d67ea35","null","null","<p style=""font-size: 60px; font-family: BACS"">EtMDMTAm</p>","","","","","","","","","",""
"html-keyboard-response","211","532235","0.0-12.0-0.41","616891e25a026e1f7262116c","650c16f0f2faf8d7a0d14c09","651c1d799f6b135f9d67ea35","null","null","<p style=""font-size: 60px; font-family: BACS"">rbYbukYL</p>","","","","","","","","","",""
"html-keyboard-response","212","533243","0.0-12.0-0.42","616891e25a026e1f7262116c","650c16f0f2faf8d7a0d14c09","651c1d799f6b135f9d67ea35","null","null","<p style=""font-size: 60px; font-family: BACS"">cRElDTRkY</p>","","","","","","","","","",""
"html-keyboard-response","213","534257","0.0-12.0-0.43","616891e25a026e1f7262116c","650c16f0f2faf8d7a0d14c09","651c1d799f6b135f9d67ea35","null","null","<p style=""font-size: 60px; font-family: BACS"">QOLmucrdY</p>","","","","","","","","","",""
"html-keyboard-response","214","535264","0.0-12.0-0.44","616891e25a026e1f7262116c","650c16f0f2faf8d7a0d14c09","651c1d799f6b135f9d67ea35","null","null","<p style=""font-size: 60px; font-family: BACS"">YuaNdGlu</p>","","","","","","","","","",""
"html-keyboard-response","215","536278","0.0-12.0-0.45","616891e25a026e1f7262116c","650c16f0f2faf8d7a0d14c09","651c1d799f6b135f9d67ea35","null","null","<p style=""font-size: 60px; font-family: BACS"">kGlULcO</p>","","","","","","","","","",""
"html-keyboard-response","216","537294","0.0-12.0-0.46","616891e25a026e1f7262116c","650c16f0f2faf8d7a0d14c09","651c1d799f6b135f9d67ea35","null","null","<p style=""font-size: 60px; font-family: BACS"">rLaZcrdY</p>","","","","","","","","","",""
"html-keyboard-response","217","538308","0.0-12.0-0.47","616891e25a026e1f7262116c","650c16f0f2faf8d7a0d14c09","651c1d799f6b135f9d67ea35","null","null","<p style=""font-size: 60px; font-family: BACS"">CmcOtRb</p>","","","","","","","","","",""
"html-keyboard-response","218","539312","0.0-12.0-0.48","616891e25a026e1f7262116c","650c16f0f2faf8d7a0d14c09","651c1d799f6b135f9d67ea35","null","null","<p style=""font-size: 60px; font-family: BACS"">COtBDTRkY</p>","","","","","","","","","",""
"html-keyboard-response","219","540322","0.0-12.0-0.49","616891e25a026e1f7262116c","650c16f0f2faf8d7a0d14c09","651c1d799f6b135f9d67ea35","null","null","<p style=""font-size: 60px; font-family: BACS"">kLvdNkYL</p>","","","","","","","","","",""
"html-keyboard-response","220","541326","0.0-12.0-0.50","616891e25a026e1f7262116c","650c16f0f2faf8d7a0d14c09","651c1d799f6b135f9d67ea35","null","null","<p style=""font-size: 60px; font-family: BACS"">COtBDkhMD</p>","","","","","","","","","",""
"html-keyboard-response","221","542342","0.0-12.0-0.51","616891e25a026e1f7262116c","650c16f0f2faf8d7a0d14c09","651c1d799f6b135f9d67ea35","null","null","<p style=""font-size: 60px; font-family: BACS"">OtlRTAm</p>","","","","","","","","","",""
"html-keyboard-response","222","543358","0.0-12.0-0.52","616891e25a026e1f7262116c","650c16f0f2faf8d7a0d14c09","651c1d799f6b135f9d67ea35","null","null","<p style=""font-size: 60px; font-family: BACS"">kLvdNGlu</p>","","","","","","","","","",""
"html-keyboard-response","223","544371","0.0-12.0-0.53","616891e25a026e1f7262116c","650c16f0f2faf8d7a0d14c09","651c1d799f6b135f9d67ea35","null","null","<p style=""font-size: 60px; font-family: BACS"">KBKBEtRb</p>","","","","","","","","","",""
"html-keyboard-response","224","545377","0.0-12.0-0.54","616891e25a026e1f7262116c","650c16f0f2faf8d7a0d14c09","651c1d799f6b135f9d67ea35","null","null","<p style=""font-size: 60px; font-family: BACS"">YuaNdcrdY</p>","","","","","","","","","",""
"html-keyboard-response","225","546380","0.0-12.0-0.55","616891e25a026e1f7262116c","650c16f0f2faf8d7a0d14c09","651c1d799f6b135f9d67ea35","null","null","<p style=""font-size: 60px; font-family: BACS"">thbOMkhMD</p>","","","","","","","","","",""
"html-keyboard-response","226","547385","0.0-12.0-0.56","616891e25a026e1f7262116c","650c16f0f2faf8d7a0d14c09","651c1d799f6b135f9d67ea35","null","null","<p style=""font-size: 60px; font-family: BACS"">DlDdcDR</p>","","","","","","","","","",""
"html-keyboard-response","227","548390","0.0-12.0-0.57","616891e25a026e1f7262116c","650c16f0f2faf8d7a0d14c09","651c1d799f6b135f9d67ea35","null","null","<p style=""font-size: 60px; font-family: BACS"">ckduAGlu</p>","","","","","","","","","",""
"html-keyboard-response","228","549393","0.0-12.0-0.58","616891e25a026e1f7262116c","650c16f0f2faf8d7a0d14c09","651c1d799f6b135f9d67ea35","null","null","<p style=""font-size: 60px; font-family: BACS"">NvYJkYL</p>","","","","","","","","","",""
"html-keyboard-response","229","550408","0.0-12.0-0.59","616891e25a026e1f7262116c","650c16f0f2faf8d7a0d14c09","651c1d799f6b135f9d67ea35","null","null","<p style=""font-size: 60px; font-family: BACS"">cRElDcDR</p>","","","","","","","","","",""
"html-keyboard-response","230","551426","0.0-12.0-0.60","616891e25a026e1f7262116c","650c16f0f2faf8d7a0d14c09","651c1d799f6b135f9d67ea35","null","null","<p style=""font-size: 60px; font-family: BACS"">DlDdkhMD</p>","","","","","","","","","",""
"html-keyboard-response","231","552430","0.0-12.0-0.61","616891e25a026e1f7262116c","650c16f0f2faf8d7a0d14c09","651c1d799f6b135f9d67ea35","null","null","<p style=""font-size: 60px; font-family: BACS"">ckduAcrdY</p>","","","","","","","","","",""
"html-keyboard-response","232","553438","0.0-12.0-0.62","616891e25a026e1f7262116c","650c16f0f2faf8d7a0d14c09","651c1d799f6b135f9d67ea35","null","null","<p style=""font-size: 60px; font-family: BACS"">rLaZLcO</p>","","","","","","","","","",""
"html-keyboard-response","233","554445","0.0-12.0-0.63","616891e25a026e1f7262116c","650c16f0f2faf8d7a0d14c09","651c1d799f6b135f9d67ea35","null","null","<p style=""font-size: 60px; font-family: BACS"">thbOMcDR</p>","","","","","","","","","",""
"html-keyboard-response","234","555457","0.0-12.0-0.64","616891e25a026e1f7262116c","650c16f0f2faf8d7a0d14c09","651c1d799f6b135f9d67ea35","null","null","<p style=""font-size: 60px; font-family: BACS"">kLvdNcrdY</p>","","","","","","","","","",""
"html-keyboard-response","235","556475","0.0-12.0-0.65","616891e25a026e1f7262116c","650c16f0f2faf8d7a0d14c09","651c1d799f6b135f9d67ea35","null","null","<p style=""font-size: 60px; font-family: BACS"">rLaZrNlZ</p>","","","","","","","","","",""
"html-keyboard-response","236","557479","0.0-12.0-0.66","616891e25a026e1f7262116c","650c16f0f2faf8d7a0d14c09","651c1d799f6b135f9d67ea35","null","null","<p style=""font-size: 60px; font-family: BACS"">CmcOTAm</p>","","","","","","","","","",""
"html-keyboard-response","237","558488","0.0-12.0-0.67","616891e25a026e1f7262116c","650c16f0f2faf8d7a0d14c09","651c1d799f6b135f9d67ea35","null","null","<p style=""font-size: 60px; font-family: BACS"">thbOMTRkY</p>","","","","","","","","","",""
"html-keyboard-response","238","559509","0.0-12.0-0.68","616891e25a026e1f7262116c","650c16f0f2faf8d7a0d14c09","651c1d799f6b135f9d67ea35","null","null","<p style=""font-size: 60px; font-family: BACS"">cRElDTAm</p>","","","","","","","","","",""
"html-keyboard-response","239","560523","0.0-12.0-0.69","616891e25a026e1f7262116c","650c16f0f2faf8d7a0d14c09","651c1d799f6b135f9d67ea35","null","null","<p style=""font-size: 60px; font-family: BACS"">rLaZGlu</p>","","","","","","","","","",""
"html-keyboard-response","240","561537","0.0-12.0-0.70","616891e25a026e1f7262116c","650c16f0f2faf8d7a0d14c09","651c1d799f6b135f9d67ea35","null","null","<p style=""font-size: 60px; font-family: BACS"">COtBDcDR</p>","","","","","","","","","",""
"html-keyboard-response","241","562555","0.0-12.0-0.71","616891e25a026e1f7262116c","650c16f0f2faf8d7a0d14c09","651c1d799f6b135f9d67ea35","null","null","<p style=""font-size: 60px; font-family: BACS"">NvYJLcO</p>","","","","","","","","","",""
"html-keyboard-response","242","563569","0.0-12.0-0.72","616891e25a026e1f7262116c","650c16f0f2faf8d7a0d14c09","651c1d799f6b135f9d67ea35","null","null","<p style=""font-size: 60px; font-family: BACS"">kZUbcrdY</p>","","","","","","","","","",""
"html-keyboard-response","243","564581","0.0-12.0-0.73","616891e25a026e1f7262116c","650c16f0f2faf8d7a0d14c09","651c1d799f6b135f9d67ea35","null","null","<p style=""font-size: 60px; font-family: BACS"">DlDdtRb</p>","","","","","","","","","",""
"html-keyboard-response","244","565589","0.0-12.0-0.74","616891e25a026e1f7262116c","650c16f0f2faf8d7a0d14c09","651c1d799f6b135f9d67ea35","null","null","<p style=""font-size: 60px; font-family: BACS"">mrOdGlu</p>","","","","","","","","","",""
"html-keyboard-response","245","566605","0.0-12.0-0.75","616891e25a026e1f7262116c","650c16f0f2faf8d7a0d14c09","651c1d799f6b135f9d67ea35","null","null","<p style=""font-size: 60px; font-family: BACS"">ckduALcO</p>","","","","","","","","","",""
"html-keyboard-response","246","567612","0.0-12.0-0.76","616891e25a026e1f7262116c","650c16f0f2faf8d7a0d14c09","651c1d799f6b135f9d67ea35","null","null","<p style=""font-size: 60px; font-family: BACS"">mrOdkYL</p>","","","","","","","","","",""
"html-keyboard-response","247","568628","0.0-12.0-0.77","616891e25a026e1f7262116c","650c16f0f2faf8d7a0d14c09","651c1d799f6b135f9d67ea35","null","null","<p style=""font-size: 60px; font-family: BACS"">CmcOTRkY</p>","","","","","","","","","",""
"html-keyboard-response","248","569639","0.0-12.0-0.78","616891e25a026e1f7262116c","650c16f0f2faf8d7a0d14c09","651c1d799f6b135f9d67ea35","null","null","<p style=""font-size: 60px; font-family: BACS"">kGlUkYL</p>","","","","","","","","","",""
"html-keyboard-response","249","570644","0.0-12.0-0.79","616891e25a026e1f7262116c","650c16f0f2faf8d7a0d14c09","651c1d799f6b135f9d67ea35","null","null","<p style=""font-size: 60px; font-family: BACS"">NvYJcrdY</p>","","","","","","","","","",""
"html-keyboard-response","250","620177","0.0-13.0","616891e25a026e1f7262116c","650c16f0f2faf8d7a0d14c09","651c1d799f6b135f9d67ea35","49531"," ","<p>Great, you've seen the third block of words. You may now take a short break.</p>
      <p>Press the spacebar when you're ready to continue.</p>","","","","","","","","","",""
"html-keyboard-response","251","621184","0.0-14.0-0.0","616891e25a026e1f7262116c","650c16f0f2faf8d7a0d14c09","651c1d799f6b135f9d67ea35","null","null","<p style=""font-size: 60px; font-family: BACS"">KBKBEkhMD</p>","","","","","","","","","",""
"html-keyboard-response","252","622186","0.0-14.0-0.1","616891e25a026e1f7262116c","650c16f0f2faf8d7a0d14c09","651c1d799f6b135f9d67ea35","null","null","<p style=""font-size: 60px; font-family: BACS"">mrOdGlu</p>","","","","","","","","","",""
"html-keyboard-response","253","623195","0.0-14.0-0.2","616891e25a026e1f7262116c","650c16f0f2faf8d7a0d14c09","651c1d799f6b135f9d67ea35","null","null","<p style=""font-size: 60px; font-family: BACS"">cRElDTAm</p>","","","","","","","","","",""
"html-keyboard-response","254","624208","0.0-14.0-0.3","616891e25a026e1f7262116c","650c16f0f2faf8d7a0d14c09","651c1d799f6b135f9d67ea35","null","null","<p style=""font-size: 60px; font-family: BACS"">COtBDTRkY</p>","","","","","","","","","",""
"html-keyboard-response","255","625219","0.0-14.0-0.4","616891e25a026e1f7262116c","650c16f0f2faf8d7a0d14c09","651c1d799f6b135f9d67ea35","null","null","<p style=""font-size: 60px; font-family: BACS"">kZUbkYL</p>","","","","","","","","","",""
"html-keyboard-response","256","626230","0.0-14.0-0.5","616891e25a026e1f7262116c","650c16f0f2faf8d7a0d14c09","651c1d799f6b135f9d67ea35","null","null","<p style=""font-size: 60px; font-family: BACS"">cRElDcDR</p>","","","","","","","","","",""
"html-keyboard-response","257","627233","0.0-14.0-0.6","616891e25a026e1f7262116c","650c16f0f2faf8d7a0d14c09","651c1d799f6b135f9d67ea35","null","null","<p style=""font-size: 60px; font-family: BACS"">CmcOTRkY</p>","","","","","","","","","",""
"html-keyboard-response","258","628253","0.0-14.0-0.7","616891e25a026e1f7262116c","650c16f0f2faf8d7a0d14c09","651c1d799f6b135f9d67ea35","null","null","<p style=""font-size: 60px; font-family: BACS"">mrOdkYL</p>","","","","","","","","","",""
"html-keyboard-response","259","629268","0.0-14.0-0.8","616891e25a026e1f7262116c","650c16f0f2faf8d7a0d14c09","651c1d799f6b135f9d67ea35","null","null","<p style=""font-size: 60px; font-family: BACS"">KBKBETAm</p>","","","","","","","","","",""
"html-keyboard-response","260","630272","0.0-14.0-0.9","616891e25a026e1f7262116c","650c16f0f2faf8d7a0d14c09","651c1d799f6b135f9d67ea35","null","null","<p style=""font-size: 60px; font-family: BACS"">kLvdNGlu</p>","","","","","","","","","",""
"html-keyboard-response","261","631280","0.0-14.0-0.10","616891e25a026e1f7262116c","650c16f0f2faf8d7a0d14c09","651c1d799f6b135f9d67ea35","null","null","<p style=""font-size: 60px; font-family: BACS"">YuaNdkYL</p>","","","","","","","","","",""
"html-keyboard-response","262","632294","0.0-14.0-0.11","616891e25a026e1f7262116c","650c16f0f2faf8d7a0d14c09","651c1d799f6b135f9d67ea35","null","null","<p style=""font-size: 60px; font-family: BACS"">rLaZcrdY</p>","","","","","","","","","",""
"html-keyboard-response","263","633308","0.0-14.0-0.12","616891e25a026e1f7262116c","650c16f0f2faf8d7a0d14c09","651c1d799f6b135f9d67ea35","null","null","<p style=""font-size: 60px; font-family: BACS"">QOLmukYL</p>","","","","","","","","","",""
"html-keyboard-response","264","634324","0.0-14.0-0.13","616891e25a026e1f7262116c","650c16f0f2faf8d7a0d14c09","651c1d799f6b135f9d67ea35","null","null","<p style=""font-size: 60px; font-family: BACS"">NvYJLcO</p>","","","","","","","","","",""
"html-keyboard-response","265","635335","0.0-14.0-0.14","616891e25a026e1f7262116c","650c16f0f2faf8d7a0d14c09","651c1d799f6b135f9d67ea35","null","null","<p style=""font-size: 60px; font-family: BACS"">OtlRcDR</p>","","","","","","","","","",""
"html-keyboard-response","266","636340","0.0-14.0-0.15","616891e25a026e1f7262116c","650c16f0f2faf8d7a0d14c09","651c1d799f6b135f9d67ea35","null","null","<p style=""font-size: 60px; font-family: BACS"">kGlUkYL</p>","","","","","","","","","",""
"html-keyboard-response","267","637347","0.0-14.0-0.16","616891e25a026e1f7262116c","650c16f0f2faf8d7a0d14c09","651c1d799f6b135f9d67ea35","null","null","<p style=""font-size: 60px; font-family: BACS"">DlDdtRb</p>","","","","","","","","","",""
"html-keyboard-response","268","638359","0.0-14.0-0.17","616891e25a026e1f7262116c","650c16f0f2faf8d7a0d14c09","651c1d799f6b135f9d67ea35","null","null","<p style=""font-size: 60px; font-family: BACS"">thbOMcDR</p>","","","","","","","","","",""
"html-keyboard-response","269","639364","0.0-14.0-0.18","616891e25a026e1f7262116c","650c16f0f2faf8d7a0d14c09","651c1d799f6b135f9d67ea35","null","null","<p style=""font-size: 60px; font-family: BACS"">rbYburNlZ</p>","","","","","","","","","",""
"html-keyboard-response","270","640376","0.0-14.0-0.19","616891e25a026e1f7262116c","650c16f0f2faf8d7a0d14c09","651c1d799f6b135f9d67ea35","null","null","<p style=""font-size: 60px; font-family: BACS"">KBKBEcDR</p>","","","","","","","","","",""
"html-keyboard-response","271","641392","0.0-14.0-0.20","616891e25a026e1f7262116c","650c16f0f2faf8d7a0d14c09","651c1d799f6b135f9d67ea35","null","null","<p style=""font-size: 60px; font-family: BACS"">mrOdLcO</p>","","","","","","","","","",""
"html-keyboard-response","272","642405","0.0-14.0-0.21","616891e25a026e1f7262116c","650c16f0f2faf8d7a0d14c09","651c1d799f6b135f9d67ea35","null","null","<p style=""font-size: 60px; font-family: BACS"">EtMDMkhMD</p>","","","","","","","","","",""
"html-keyboard-response","273","643412","0.0-14.0-0.22","616891e25a026e1f7262116c","650c16f0f2faf8d7a0d14c09","651c1d799f6b135f9d67ea35","null","null","<p style=""font-size: 60px; font-family: BACS"">kLvdNLcO</p>","","","","","","","","","",""
"html-keyboard-response","274","644423","0.0-14.0-0.23","616891e25a026e1f7262116c","650c16f0f2faf8d7a0d14c09","651c1d799f6b135f9d67ea35","null","null","<p style=""font-size: 60px; font-family: BACS"">QOLmucrdY</p>","","","","","","","","","",""
"html-keyboard-response","275","645428","0.0-14.0-0.24","616891e25a026e1f7262116c","650c16f0f2faf8d7a0d14c09","651c1d799f6b135f9d67ea35","null","null","<p style=""font-size: 60px; font-family: BACS"">kZUbLcO</p>","","","","","","","","","",""
"html-keyboard-response","276","646433","0.0-14.0-0.25","616891e25a026e1f7262116c","650c16f0f2faf8d7a0d14c09","651c1d799f6b135f9d67ea35","null","null","<p style=""font-size: 60px; font-family: BACS"">kLvdNkYL</p>","","","","","","","","","",""
"html-keyboard-response","277","647446","0.0-14.0-0.26","616891e25a026e1f7262116c","650c16f0f2faf8d7a0d14c09","651c1d799f6b135f9d67ea35","null","null","<p style=""font-size: 60px; font-family: BACS"">KBKBEtRb</p>","","","","","","","","","",""
"html-keyboard-response","278","648463","0.0-14.0-0.27","616891e25a026e1f7262116c","650c16f0f2faf8d7a0d14c09","651c1d799f6b135f9d67ea35","null","null","<p style=""font-size: 60px; font-family: BACS"">OtlRTAm</p>","","","","","","","","","",""
"html-keyboard-response","279","649475","0.0-14.0-0.28","616891e25a026e1f7262116c","650c16f0f2faf8d7a0d14c09","651c1d799f6b135f9d67ea35","null","null","<p style=""font-size: 60px; font-family: BACS"">COtBDkhMD</p>","","","","","","","","","",""
"html-keyboard-response","280","650480","0.0-14.0-0.29","616891e25a026e1f7262116c","650c16f0f2faf8d7a0d14c09","651c1d799f6b135f9d67ea35","null","null","<p style=""font-size: 60px; font-family: BACS"">thbOMTRkY</p>","","","","","","","","","",""
"html-keyboard-response","281","651496","0.0-14.0-0.30","616891e25a026e1f7262116c","650c16f0f2faf8d7a0d14c09","651c1d799f6b135f9d67ea35","null","null","<p style=""font-size: 60px; font-family: BACS"">ckduAGlu</p>","","","","","","","","","",""
"html-keyboard-response","282","652513","0.0-14.0-0.31","616891e25a026e1f7262116c","650c16f0f2faf8d7a0d14c09","651c1d799f6b135f9d67ea35","null","null","<p style=""font-size: 60px; font-family: BACS"">YuaNdrNlZ</p>","","","","","","","","","",""
"html-keyboard-response","283","653534","0.0-14.0-0.32","616891e25a026e1f7262116c","650c16f0f2faf8d7a0d14c09","651c1d799f6b135f9d67ea35","null","null","<p style=""font-size: 60px; font-family: BACS"">kGlULcO</p>","","","","","","","","","",""
"html-keyboard-response","284","654546","0.0-14.0-0.33","616891e25a026e1f7262116c","650c16f0f2faf8d7a0d14c09","651c1d799f6b135f9d67ea35","null","null","<p style=""font-size: 60px; font-family: BACS"">OtlRkhMD</p>","","","","","","","","","",""
"html-keyboard-response","285","655560","0.0-14.0-0.34","616891e25a026e1f7262116c","650c16f0f2faf8d7a0d14c09","651c1d799f6b135f9d67ea35","null","null","<p style=""font-size: 60px; font-family: BACS"">thbOMtRb</p>","","","","","","","","","",""
"html-keyboard-response","286","656573","0.0-14.0-0.35","616891e25a026e1f7262116c","650c16f0f2faf8d7a0d14c09","651c1d799f6b135f9d67ea35","null","null","<p style=""font-size: 60px; font-family: BACS"">PctRCkhMD</p>","","","","","","","","","",""
"html-keyboard-response","287","657589","0.0-14.0-0.36","616891e25a026e1f7262116c","650c16f0f2faf8d7a0d14c09","651c1d799f6b135f9d67ea35","null","null","<p style=""font-size: 60px; font-family: BACS"">hBmMCTRkY</p>","","","","","","","","","",""
"html-keyboard-response","288","658594","0.0-14.0-0.37","616891e25a026e1f7262116c","650c16f0f2faf8d7a0d14c09","651c1d799f6b135f9d67ea35","null","null","<p style=""font-size: 60px; font-family: BACS"">NvYJrNlZ</p>","","","","","","","","","",""
"html-keyboard-response","289","659597","0.0-14.0-0.38","616891e25a026e1f7262116c","650c16f0f2faf8d7a0d14c09","651c1d799f6b135f9d67ea35","null","null","<p style=""font-size: 60px; font-family: BACS"">DlDdkhMD</p>","","","","","","","","","",""
"html-keyboard-response","290","660616","0.0-14.0-0.39","616891e25a026e1f7262116c","650c16f0f2faf8d7a0d14c09","651c1d799f6b135f9d67ea35","null","null","<p style=""font-size: 60px; font-family: BACS"">YuaNdGlu</p>","","","","","","","","","",""
"html-keyboard-response","291","661623","0.0-14.0-0.40","616891e25a026e1f7262116c","650c16f0f2faf8d7a0d14c09","651c1d799f6b135f9d67ea35","null","null","<p style=""font-size: 60px; font-family: BACS"">kZUbcrdY</p>","","","","","","","","","",""
"html-keyboard-response","292","662629","0.0-14.0-0.41","616891e25a026e1f7262116c","650c16f0f2faf8d7a0d14c09","651c1d799f6b135f9d67ea35","null","null","<p style=""font-size: 60px; font-family: BACS"">rbYbuGlu</p>","","","","","","","","","",""
"html-keyboard-response","293","663644","0.0-14.0-0.42","616891e25a026e1f7262116c","650c16f0f2faf8d7a0d14c09","651c1d799f6b135f9d67ea35","null","null","<p style=""font-size: 60px; font-family: BACS"">PctRCTAm</p>","","","","","","","","","",""
"html-keyboard-response","294","664658","0.0-14.0-0.43","616891e25a026e1f7262116c","650c16f0f2faf8d7a0d14c09","651c1d799f6b135f9d67ea35","null","null","<p style=""font-size: 60px; font-family: BACS"">rLaZLcO</p>","","","","","","","","","",""
"html-keyboard-response","295","665666","0.0-14.0-0.44","616891e25a026e1f7262116c","650c16f0f2faf8d7a0d14c09","651c1d799f6b135f9d67ea35","null","null","<p style=""font-size: 60px; font-family: BACS"">kLvdNcrdY</p>","","","","","","","","","",""
"html-keyboard-response","296","666681","0.0-14.0-0.45","616891e25a026e1f7262116c","650c16f0f2faf8d7a0d14c09","651c1d799f6b135f9d67ea35","null","null","<p style=""font-size: 60px; font-family: BACS"">PctRCTRkY</p>","","","","","","","","","",""
"html-keyboard-response","297","667683","0.0-14.0-0.46","616891e25a026e1f7262116c","650c16f0f2faf8d7a0d14c09","651c1d799f6b135f9d67ea35","null","null","<p style=""font-size: 60px; font-family: BACS"">rbYbukYL</p>","","","","","","","","","",""
"html-keyboard-response","298","668699","0.0-14.0-0.47","616891e25a026e1f7262116c","650c16f0f2faf8d7a0d14c09","651c1d799f6b135f9d67ea35","null","null","<p style=""font-size: 60px; font-family: BACS"">hBmMCcDR</p>","","","","","","","","","",""
"html-keyboard-response","299","669704","0.0-14.0-0.48","616891e25a026e1f7262116c","650c16f0f2faf8d7a0d14c09","651c1d799f6b135f9d67ea35","null","null","<p style=""font-size: 60px; font-family: BACS"">EtMDMTAm</p>","","","","","","","","","",""
"html-keyboard-response","300","670708","0.0-14.0-0.49","616891e25a026e1f7262116c","650c16f0f2faf8d7a0d14c09","651c1d799f6b135f9d67ea35","null","null","<p style=""font-size: 60px; font-family: BACS"">NvYJkYL</p>","","","","","","","","","",""
"html-keyboard-response","301","671729","0.0-14.0-0.50","616891e25a026e1f7262116c","650c16f0f2faf8d7a0d14c09","651c1d799f6b135f9d67ea35","null","null","<p style=""font-size: 60px; font-family: BACS"">mrOdcrdY</p>","","","","","","","","","",""
"html-keyboard-response","302","672737","0.0-14.0-0.51","616891e25a026e1f7262116c","650c16f0f2faf8d7a0d14c09","651c1d799f6b135f9d67ea35","null","null","<p style=""font-size: 60px; font-family: BACS"">rLaZrNlZ</p>","","","","","","","","","",""
"html-keyboard-response","303","673748","0.0-14.0-0.52","616891e25a026e1f7262116c","650c16f0f2faf8d7a0d14c09","651c1d799f6b135f9d67ea35","null","null","<p style=""font-size: 60px; font-family: BACS"">EtMDMtRb</p>","","","","","","","","","",""
"html-keyboard-response","304","674751","0.0-14.0-0.53","616891e25a026e1f7262116c","650c16f0f2faf8d7a0d14c09","651c1d799f6b135f9d67ea35","null","null","<p style=""font-size: 60px; font-family: BACS"">NvYJcrdY</p>","","","","","","","","","",""
"html-keyboard-response","305","675763","0.0-14.0-0.54","616891e25a026e1f7262116c","650c16f0f2faf8d7a0d14c09","651c1d799f6b135f9d67ea35","null","null","<p style=""font-size: 60px; font-family: BACS"">COtBDtRb</p>","","","","","","","","","",""
"html-keyboard-response","306","676776","0.0-14.0-0.55","616891e25a026e1f7262116c","650c16f0f2faf8d7a0d14c09","651c1d799f6b135f9d67ea35","null","null","<p style=""font-size: 60px; font-family: BACS"">QOLmurNlZ</p>","","","","","","","","","",""
"html-keyboard-response","307","677791","0.0-14.0-0.56","616891e25a026e1f7262116c","650c16f0f2faf8d7a0d14c09","651c1d799f6b135f9d67ea35","null","null","<p style=""font-size: 60px; font-family: BACS"">rbYbuLcO</p>","","","","","","","","","",""
"html-keyboard-response","308","678795","0.0-14.0-0.57","616891e25a026e1f7262116c","650c16f0f2faf8d7a0d14c09","651c1d799f6b135f9d67ea35","null","null","<p style=""font-size: 60px; font-family: BACS"">CmcOTAm</p>","","","","","","","","","",""
"html-keyboard-response","309","679806","0.0-14.0-0.58","616891e25a026e1f7262116c","650c16f0f2faf8d7a0d14c09","651c1d799f6b135f9d67ea35","null","null","<p style=""font-size: 60px; font-family: BACS"">PctRCtRb</p>","","","","","","","","","",""
"html-keyboard-response","310","680824","0.0-14.0-0.59","616891e25a026e1f7262116c","650c16f0f2faf8d7a0d14c09","651c1d799f6b135f9d67ea35","null","null","<p style=""font-size: 60px; font-family: BACS"">cRElDkhMD</p>","","","","","","","","","",""
"html-keyboard-response","311","681836","0.0-14.0-0.60","616891e25a026e1f7262116c","650c16f0f2faf8d7a0d14c09","651c1d799f6b135f9d67ea35","null","null","<p style=""font-size: 60px; font-family: BACS"">CmcOtRb</p>","","","","","","","","","",""
"html-keyboard-response","312","682845","0.0-14.0-0.61","616891e25a026e1f7262116c","650c16f0f2faf8d7a0d14c09","651c1d799f6b135f9d67ea35","null","null","<p style=""font-size: 60px; font-family: BACS"">kGlUrNlZ</p>","","","","","","","","","",""
"html-keyboard-response","313","683847","0.0-14.0-0.62","616891e25a026e1f7262116c","650c16f0f2faf8d7a0d14c09","651c1d799f6b135f9d67ea35","null","null","<p style=""font-size: 60px; font-family: BACS"">rLaZGlu</p>","","","","","","","","","",""
"html-keyboard-response","314","684857","0.0-14.0-0.63","616891e25a026e1f7262116c","650c16f0f2faf8d7a0d14c09","651c1d799f6b135f9d67ea35","null","null","<p style=""font-size: 60px; font-family: BACS"">ckduArNlZ</p>","","","","","","","","","",""
"html-keyboard-response","315","685863","0.0-14.0-0.64","616891e25a026e1f7262116c","650c16f0f2faf8d7a0d14c09","651c1d799f6b135f9d67ea35","null","null","<p style=""font-size: 60px; font-family: BACS"">cRElDTRkY</p>","","","","","","","","","",""
"html-keyboard-response","316","686871","0.0-14.0-0.65","616891e25a026e1f7262116c","650c16f0f2faf8d7a0d14c09","651c1d799f6b135f9d67ea35","null","null","<p style=""font-size: 60px; font-family: BACS"">DlDdTAm</p>","","","","","","","","","",""
"html-keyboard-response","317","687884","0.0-14.0-0.66","616891e25a026e1f7262116c","650c16f0f2faf8d7a0d14c09","651c1d799f6b135f9d67ea35","null","null","<p style=""font-size: 60px; font-family: BACS"">kZUbrNlZ</p>","","","","","","","","","",""
"html-keyboard-response","318","688886","0.0-14.0-0.67","616891e25a026e1f7262116c","650c16f0f2faf8d7a0d14c09","651c1d799f6b135f9d67ea35","null","null","<p style=""font-size: 60px; font-family: BACS"">ckduALcO</p>","","","","","","","","","",""
"html-keyboard-response","319","689891","0.0-14.0-0.68","616891e25a026e1f7262116c","650c16f0f2faf8d7a0d14c09","651c1d799f6b135f9d67ea35","null","null","<p style=""font-size: 60px; font-family: BACS"">YuaNdcrdY</p>","","","","","","","","","",""
"html-keyboard-response","320","690915","0.0-14.0-0.69","616891e25a026e1f7262116c","650c16f0f2faf8d7a0d14c09","651c1d799f6b135f9d67ea35","null","null","<p style=""font-size: 60px; font-family: BACS"">kGlUGlu</p>","","","","","","","","","",""
"html-keyboard-response","321","692064","0.0-14.0-0.70","616891e25a026e1f7262116c","650c16f0f2faf8d7a0d14c09","651c1d799f6b135f9d67ea35","null","null","<p style=""font-size: 60px; font-family: BACS"">COtBDcDR</p>","","","","","","","","","",""
"html-keyboard-response","322","694062","0.0-14.0-0.71","616891e25a026e1f7262116c","650c16f0f2faf8d7a0d14c09","651c1d799f6b135f9d67ea35","null","null","<p style=""font-size: 60px; font-family: BACS"">hBmMCtRb</p>","","","","","","","","","",""
"html-keyboard-response","323","696060","0.0-14.0-0.72","616891e25a026e1f7262116c","650c16f0f2faf8d7a0d14c09","651c1d799f6b135f9d67ea35","null","null","<p style=""font-size: 60px; font-family: BACS"">EtMDMTRkY</p>","","","","","","","","","",""
"html-keyboard-response","324","698057","0.0-14.0-0.73","616891e25a026e1f7262116c","650c16f0f2faf8d7a0d14c09","651c1d799f6b135f9d67ea35","null","null","<p style=""font-size: 60px; font-family: BACS"">thbOMkhMD</p>","","","","","","","","","",""
"html-keyboard-response","325","699071","0.0-14.0-0.74","616891e25a026e1f7262116c","650c16f0f2faf8d7a0d14c09","651c1d799f6b135f9d67ea35","null","null","<p style=""font-size: 60px; font-family: BACS"">DlDdcDR</p>","","","","","","","","","",""
"html-keyboard-response","326","701063","0.0-14.0-0.75","616891e25a026e1f7262116c","650c16f0f2faf8d7a0d14c09","651c1d799f6b135f9d67ea35","null","null","<p style=""font-size: 60px; font-family: BACS"">OtlRTRkY</p>","","","","","","","","","",""
"html-keyboard-response","327","702079","0.0-14.0-0.76","616891e25a026e1f7262116c","650c16f0f2faf8d7a0d14c09","651c1d799f6b135f9d67ea35","null","null","<p style=""font-size: 60px; font-family: BACS"">hBmMCTAm</p>","","","","","","","","","",""
"html-keyboard-response","328","703096","0.0-14.0-0.77","616891e25a026e1f7262116c","650c16f0f2faf8d7a0d14c09","651c1d799f6b135f9d67ea35","null","null","<p style=""font-size: 60px; font-family: BACS"">QOLmuGlu</p>","","","","","","","","","",""
"html-keyboard-response","329","704108","0.0-14.0-0.78","616891e25a026e1f7262116c","650c16f0f2faf8d7a0d14c09","651c1d799f6b135f9d67ea35","null","null","<p style=""font-size: 60px; font-family: BACS"">ckduAcrdY</p>","","","","","","","","","",""
"html-keyboard-response","330","705116","0.0-14.0-0.79","616891e25a026e1f7262116c","650c16f0f2faf8d7a0d14c09","651c1d799f6b135f9d67ea35","null","null","<p style=""font-size: 60px; font-family: BACS"">CmcOcDR</p>","","","","","","","","","",""
"html-keyboard-response","331","709417","0.0-15.0","616891e25a026e1f7262116c","650c16f0f2faf8d7a0d14c09","651c1d799f6b135f9d67ea35","4298"," ","<p>Great, you've seen the fourth block of words. You may now take a short break.</p>
      <p>Press the spacebar when you're ready to continue.</p>","","","","","","","","","",""
"html-keyboard-response","332","710433","0.0-16.0-0.0","616891e25a026e1f7262116c","650c16f0f2faf8d7a0d14c09","651c1d799f6b135f9d67ea35","null","null","<p style=""font-size: 60px; font-family: BACS"">KBKBETAm</p>","","","","","","","","","",""
"html-keyboard-response","333","711448","0.0-16.0-0.1","616891e25a026e1f7262116c","650c16f0f2faf8d7a0d14c09","651c1d799f6b135f9d67ea35","null","null","<p style=""font-size: 60px; font-family: BACS"">KBKBETAm</p>","","","","","","","","","",""
"html-keyboard-response","334","712461","0.0-16.0-0.2","616891e25a026e1f7262116c","650c16f0f2faf8d7a0d14c09","651c1d799f6b135f9d67ea35","null","null","<p style=""font-size: 60px; font-family: BACS"">KBKBETAm</p>","","","","","","","","","",""
"html-keyboard-response","335","713466","0.0-16.0-0.3","616891e25a026e1f7262116c","650c16f0f2faf8d7a0d14c09","651c1d799f6b135f9d67ea35","null","null","<p style=""font-size: 60px; font-family: BACS"">KBKBETAm</p>","","","","","","","","","",""
"html-keyboard-response","336","714475","0.0-16.0-0.4","616891e25a026e1f7262116c","650c16f0f2faf8d7a0d14c09","651c1d799f6b135f9d67ea35","null","null","<p style=""font-size: 60px; font-family: BACS"">KBKBETAm</p>","","","","","","","","","",""
"html-keyboard-response","337","715484","0.0-16.0-0.5","616891e25a026e1f7262116c","650c16f0f2faf8d7a0d14c09","651c1d799f6b135f9d67ea35","null","null","<p style=""font-size: 60px; font-family: BACS"">KBKBETAm</p>","","","","","","","","","",""
"html-keyboard-response","338","716492","0.0-16.0-0.6","616891e25a026e1f7262116c","650c16f0f2faf8d7a0d14c09","651c1d799f6b135f9d67ea35","null","null","<p style=""font-size: 60px; font-family: BACS"">KBKBETAm</p>","","","","","","","","","",""
"html-keyboard-response","339","717493","0.0-16.0-0.7","616891e25a026e1f7262116c","650c16f0f2faf8d7a0d14c09","651c1d799f6b135f9d67ea35","null","null","<p style=""font-size: 60px; font-family: BACS"">KBKBETAm</p>","","","","","","","","","",""
"html-keyboard-response","340","718512","0.0-16.0-0.8","616891e25a026e1f7262116c","650c16f0f2faf8d7a0d14c09","651c1d799f6b135f9d67ea35","null","null","<p style=""font-size: 60px; font-family: BACS"">KBKBETAm</p>","","","","","","","","","",""
"html-keyboard-response","341","719518","0.0-16.0-0.9","616891e25a026e1f7262116c","650c16f0f2faf8d7a0d14c09","651c1d799f6b135f9d67ea35","null","null","<p style=""font-size: 60px; font-family: BACS"">KBKBETAm</p>","","","","","","","","","",""
"html-keyboard-response","342","720529","0.0-16.0-0.10","616891e25a026e1f7262116c","650c16f0f2faf8d7a0d14c09","651c1d799f6b135f9d67ea35","null","null","<p style=""font-size: 60px; font-family: BACS"">KBKBETAm</p>","","","","","","","","","",""
"html-keyboard-response","343","721532","0.0-16.0-0.11","616891e25a026e1f7262116c","650c16f0f2faf8d7a0d14c09","651c1d799f6b135f9d67ea35","null","null","<p style=""font-size: 60px; font-family: BACS"">KBKBETAm</p>","","","","","","","","","",""
"html-keyboard-response","344","722547","0.0-16.0-0.12","616891e25a026e1f7262116c","650c16f0f2faf8d7a0d14c09","651c1d799f6b135f9d67ea35","null","null","<p style=""font-size: 60px; font-family: BACS"">KBKBETAm</p>","","","","","","","","","",""
"html-keyboard-response","345","723552","0.0-16.0-0.13","616891e25a026e1f7262116c","650c16f0f2faf8d7a0d14c09","651c1d799f6b135f9d67ea35","null","null","<p style=""font-size: 60px; font-family: BACS"">KBKBETAm</p>","","","","","","","","","",""
"html-keyboard-response","346","724562","0.0-16.0-0.14","616891e25a026e1f7262116c","650c16f0f2faf8d7a0d14c09","651c1d799f6b135f9d67ea35","null","null","<p style=""font-size: 60px; font-family: BACS"">KBKBETAm</p>","","","","","","","","","",""
"html-keyboard-response","347","725575","0.0-16.0-0.15","616891e25a026e1f7262116c","650c16f0f2faf8d7a0d14c09","651c1d799f6b135f9d67ea35","null","null","<p style=""font-size: 60px; font-family: BACS"">KBKBETAm</p>","","","","","","","","","",""
"html-keyboard-response","348","726582","0.0-16.0-0.16","616891e25a026e1f7262116c","650c16f0f2faf8d7a0d14c09","651c1d799f6b135f9d67ea35","null","null","<p style=""font-size: 60px; font-family: BACS"">KBKBETAm</p>","","","","","","","","","",""
"html-keyboard-response","349","728069","0.0-16.0-0.17","616891e25a026e1f7262116c","650c16f0f2faf8d7a0d14c09","651c1d799f6b135f9d67ea35","null","null","<p style=""font-size: 60px; font-family: BACS"">KBKBETAm</p>","","","","","","","","","",""
"html-keyboard-response","350","730063","0.0-16.0-0.18","616891e25a026e1f7262116c","650c16f0f2faf8d7a0d14c09","651c1d799f6b135f9d67ea35","null","null","<p style=""font-size: 60px; font-family: BACS"">KBKBETAm</p>","","","","","","","","","",""
"html-keyboard-response","351","732069","0.0-16.0-0.19","616891e25a026e1f7262116c","650c16f0f2faf8d7a0d14c09","651c1d799f6b135f9d67ea35","null","null","<p style=""font-size: 60px; font-family: BACS"">KBKBETAm</p>","","","","","","","","","",""
"html-keyboard-response","352","734059","0.0-16.0-0.20","616891e25a026e1f7262116c","650c16f0f2faf8d7a0d14c09","651c1d799f6b135f9d67ea35","null","null","<p style=""font-size: 60px; font-family: BACS"">KBKBETAm</p>","","","","","","","","","",""
"html-keyboard-response","353","736057","0.0-16.0-0.21","616891e25a026e1f7262116c","650c16f0f2faf8d7a0d14c09","651c1d799f6b135f9d67ea35","null","null","<p style=""font-size: 60px; font-family: BACS"">KBKBETAm</p>","","","","","","","","","",""
"html-keyboard-response","354","737063","0.0-16.0-0.22","616891e25a026e1f7262116c","650c16f0f2faf8d7a0d14c09","651c1d799f6b135f9d67ea35","null","null","<p style=""font-size: 60px; font-family: BACS"">KBKBETAm</p>","","","","","","","","","",""
"html-keyboard-response","355","738070","0.0-16.0-0.23","616891e25a026e1f7262116c","650c16f0f2faf8d7a0d14c09","651c1d799f6b135f9d67ea35","null","null","<p style=""font-size: 60px; font-family: BACS"">KBKBETAm</p>","","","","","","","","","",""
"html-keyboard-response","356","740067","0.0-16.0-0.24","616891e25a026e1f7262116c","650c16f0f2faf8d7a0d14c09","651c1d799f6b135f9d67ea35","null","null","<p style=""font-size: 60px; font-family: BACS"">KBKBETAm</p>","","","","","","","","","",""
"html-keyboard-response","357","742062","0.0-16.0-0.25","616891e25a026e1f7262116c","650c16f0f2faf8d7a0d14c09","651c1d799f6b135f9d67ea35","null","null","<p style=""font-size: 60px; font-family: BACS"">KBKBETAm</p>","","","","","","","","","",""
"html-keyboard-response","358","744076","0.0-16.0-0.26","616891e25a026e1f7262116c","650c16f0f2faf8d7a0d14c09","651c1d799f6b135f9d67ea35","null","null","<p style=""font-size: 60px; font-family: BACS"">KBKBETAm</p>","","","","","","","","","",""
"html-keyboard-response","359","746064","0.0-16.0-0.27","616891e25a026e1f7262116c","650c16f0f2faf8d7a0d14c09","651c1d799f6b135f9d67ea35","null","null","<p style=""font-size: 60px; font-family: BACS"">KBKBETAm</p>","","","","","","","","","",""
"html-keyboard-response","360","747083","0.0-16.0-0.28","616891e25a026e1f7262116c","650c16f0f2faf8d7a0d14c09","651c1d799f6b135f9d67ea35","null","null","<p style=""font-size: 60px; font-family: BACS"">KBKBETAm</p>","","","","","","","","","",""
"html-keyboard-response","361","749061","0.0-16.0-0.29","616891e25a026e1f7262116c","650c16f0f2faf8d7a0d14c09","651c1d799f6b135f9d67ea35","null","null","<p style=""font-size: 60px; font-family: BACS"">KBKBETAm</p>","","","","","","","","","",""
"html-keyboard-response","362","751066","0.0-16.0-0.30","616891e25a026e1f7262116c","650c16f0f2faf8d7a0d14c09","651c1d799f6b135f9d67ea35","null","null","<p style=""font-size: 60px; font-family: BACS"">KBKBETAm</p>","","","","","","","","","",""
"html-keyboard-response","363","753072","0.0-16.0-0.31","616891e25a026e1f7262116c","650c16f0f2faf8d7a0d14c09","651c1d799f6b135f9d67ea35","null","null","<p style=""font-size: 60px; font-family: BACS"">KBKBETAm</p>","","","","","","","","","",""
"html-keyboard-response","364","755076","0.0-16.0-0.32","616891e25a026e1f7262116c","650c16f0f2faf8d7a0d14c09","651c1d799f6b135f9d67ea35","null","null","<p style=""font-size: 60px; font-family: BACS"">KBKBETAm</p>","","","","","","","","","",""
"html-keyboard-response","365","757078","0.0-16.0-0.33","616891e25a026e1f7262116c","650c16f0f2faf8d7a0d14c09","651c1d799f6b135f9d67ea35","null","null","<p style=""font-size: 60px; font-family: BACS"">KBKBETAm</p>","","","","","","","","","",""
"html-keyboard-response","366","759056","0.0-16.0-0.34","616891e25a026e1f7262116c","650c16f0f2faf8d7a0d14c09","651c1d799f6b135f9d67ea35","null","null","<p style=""font-size: 60px; font-family: BACS"">KBKBETAm</p>","","","","","","","","","",""
"html-keyboard-response","367","760059","0.0-16.0-0.35","616891e25a026e1f7262116c","650c16f0f2faf8d7a0d14c09","651c1d799f6b135f9d67ea35","null","null","<p style=""font-size: 60px; font-family: BACS"">KBKBETAm</p>","","","","","","","","","",""
"html-keyboard-response","368","761062","0.0-16.0-0.36","616891e25a026e1f7262116c","650c16f0f2faf8d7a0d14c09","651c1d799f6b135f9d67ea35","null","null","<p style=""font-size: 60px; font-family: BACS"">KBKBETAm</p>","","","","","","","","","",""
"html-keyboard-response","369","762066","0.0-16.0-0.37","616891e25a026e1f7262116c","650c16f0f2faf8d7a0d14c09","651c1d799f6b135f9d67ea35","null","null","<p style=""font-size: 60px; font-family: BACS"">KBKBETAm</p>","","","","","","","","","",""
"html-keyboard-response","370","763090","0.0-16.0-0.38","616891e25a026e1f7262116c","650c16f0f2faf8d7a0d14c09","651c1d799f6b135f9d67ea35","null","null","<p style=""font-size: 60px; font-family: BACS"">KBKBETAm</p>","","","","","","","","","",""
"html-keyboard-response","371","765063","0.0-16.0-0.39","616891e25a026e1f7262116c","650c16f0f2faf8d7a0d14c09","651c1d799f6b135f9d67ea35","null","null","<p style=""font-size: 60px; font-family: BACS"">KBKBETAm</p>","","","","","","","","","",""
"html-keyboard-response","372","766066","0.0-16.0-0.40","616891e25a026e1f7262116c","650c16f0f2faf8d7a0d14c09","651c1d799f6b135f9d67ea35","null","null","<p style=""font-size: 60px; font-family: BACS"">KBKBETAm</p>","","","","","","","","","",""
"html-keyboard-response","373","767079","0.0-16.0-0.41","616891e25a026e1f7262116c","650c16f0f2faf8d7a0d14c09","651c1d799f6b135f9d67ea35","null","null","<p style=""font-size: 60px; font-family: BACS"">KBKBETAm</p>","","","","","","","","","",""
"html-keyboard-response","374","769057","0.0-16.0-0.42","616891e25a026e1f7262116c","650c16f0f2faf8d7a0d14c09","651c1d799f6b135f9d67ea35","null","null","<p style=""font-size: 60px; font-family: BACS"">KBKBETAm</p>","","","","","","","","","",""
"html-keyboard-response","375","770078","0.0-16.0-0.43","616891e25a026e1f7262116c","650c16f0f2faf8d7a0d14c09","651c1d799f6b135f9d67ea35","null","null","<p style=""font-size: 60px; font-family: BACS"">KBKBETAm</p>","","","","","","","","","",""
"html-keyboard-response","376","772059","0.0-16.0-0.44","616891e25a026e1f7262116c","650c16f0f2faf8d7a0d14c09","651c1d799f6b135f9d67ea35","null","null","<p style=""font-size: 60px; font-family: BACS"">KBKBETAm</p>","","","","","","","","","",""
"html-keyboard-response","377","773084","0.0-16.0-0.45","616891e25a026e1f7262116c","650c16f0f2faf8d7a0d14c09","651c1d799f6b135f9d67ea35","null","null","<p style=""font-size: 60px; font-family: BACS"">KBKBETAm</p>","","","","","","","","","",""
"html-keyboard-response","378","775060","0.0-16.0-0.46","616891e25a026e1f7262116c","650c16f0f2faf8d7a0d14c09","651c1d799f6b135f9d67ea35","null","null","<p style=""font-size: 60px; font-family: BACS"">KBKBETAm</p>","","","","","","","","","",""
"html-keyboard-response","379","776070","0.0-16.0-0.47","616891e25a026e1f7262116c","650c16f0f2faf8d7a0d14c09","651c1d799f6b135f9d67ea35","null","null","<p style=""font-size: 60px; font-family: BACS"">KBKBETAm</p>","","","","","","","","","",""
"html-keyboard-response","380","777089","0.0-16.0-0.48","616891e25a026e1f7262116c","650c16f0f2faf8d7a0d14c09","651c1d799f6b135f9d67ea35","null","null","<p style=""font-size: 60px; font-family: BACS"">KBKBETAm</p>","","","","","","","","","",""
"html-keyboard-response","381","778190","0.0-16.0-0.49","616891e25a026e1f7262116c","650c16f0f2faf8d7a0d14c09","651c1d799f6b135f9d67ea35","null","null","<p style=""font-size: 60px; font-family: BACS"">KBKBETAm</p>","","","","","","","","","",""
"html-keyboard-response","382","779200","0.0-16.0-0.50","616891e25a026e1f7262116c","650c16f0f2faf8d7a0d14c09","651c1d799f6b135f9d67ea35","null","null","<p style=""font-size: 60px; font-family: BACS"">KBKBETAm</p>","","","","","","","","","",""
"html-keyboard-response","383","781059","0.0-16.0-0.51","616891e25a026e1f7262116c","650c16f0f2faf8d7a0d14c09","651c1d799f6b135f9d67ea35","null","null","<p style=""font-size: 60px; font-family: BACS"">KBKBETAm</p>","","","","","","","","","",""
"html-keyboard-response","384","782062","0.0-16.0-0.52","616891e25a026e1f7262116c","650c16f0f2faf8d7a0d14c09","651c1d799f6b135f9d67ea35","null","null","<p style=""font-size: 60px; font-family: BACS"">KBKBETAm</p>","","","","","","","","","",""
"html-keyboard-response","385","783071","0.0-16.0-0.53","616891e25a026e1f7262116c","650c16f0f2faf8d7a0d14c09","651c1d799f6b135f9d67ea35","null","null","<p style=""font-size: 60px; font-family: BACS"">KBKBETAm</p>","","","","","","","","","",""
"html-keyboard-response","386","784080","0.0-16.0-0.54","616891e25a026e1f7262116c","650c16f0f2faf8d7a0d14c09","651c1d799f6b135f9d67ea35","null","null","<p style=""font-size: 60px; font-family: BACS"">KBKBETAm</p>","","","","","","","","","",""
"html-keyboard-response","387","785084","0.0-16.0-0.55","616891e25a026e1f7262116c","650c16f0f2faf8d7a0d14c09","651c1d799f6b135f9d67ea35","null","null","<p style=""font-size: 60px; font-family: BACS"">KBKBETAm</p>","","","","","","","","","",""
"html-keyboard-response","388","786104","0.0-16.0-0.56","616891e25a026e1f7262116c","650c16f0f2faf8d7a0d14c09","651c1d799f6b135f9d67ea35","null","null","<p style=""font-size: 60px; font-family: BACS"">KBKBETAm</p>","","","","","","","","","",""
"html-keyboard-response","389","787115","0.0-16.0-0.57","616891e25a026e1f7262116c","650c16f0f2faf8d7a0d14c09","651c1d799f6b135f9d67ea35","null","null","<p style=""font-size: 60px; font-family: BACS"">KBKBETAm</p>","","","","","","","","","",""
"html-keyboard-response","390","788122","0.0-16.0-0.58","616891e25a026e1f7262116c","650c16f0f2faf8d7a0d14c09","651c1d799f6b135f9d67ea35","null","null","<p style=""font-size: 60px; font-family: BACS"">KBKBETAm</p>","","","","","","","","","",""
"html-keyboard-response","391","789124","0.0-16.0-0.59","616891e25a026e1f7262116c","650c16f0f2faf8d7a0d14c09","651c1d799f6b135f9d67ea35","null","null","<p style=""font-size: 60px; font-family: BACS"">KBKBETAm</p>","","","","","","","","","",""
"html-keyboard-response","392","790127","0.0-16.0-0.60","616891e25a026e1f7262116c","650c16f0f2faf8d7a0d14c09","651c1d799f6b135f9d67ea35","null","null","<p style=""font-size: 60px; font-family: BACS"">KBKBETAm</p>","","","","","","","","","",""
"html-keyboard-response","393","791145","0.0-16.0-0.61","616891e25a026e1f7262116c","650c16f0f2faf8d7a0d14c09","651c1d799f6b135f9d67ea35","null","null","<p style=""font-size: 60px; font-family: BACS"">KBKBETAm</p>","","","","","","","","","",""
