"trial_type","trial_index","time_elapsed","internal_node_id","subject_id","study_id","session_id","rt","response","stimulus","success","item","task","correct_response","correct","target","confound","name"
"pavlovia","0","2741","0.0-0.0","5e823b35726b2a9508db127c","64afc2c9a8732ea92db0087d","64aff83e1acde521b6c30924","","","","","","","","","","",""
"survey-html-form","1","15119","0.0-1.0","5e823b35726b2a9508db127c","64afc2c9a8732ea92db0087d","64aff83e1acde521b6c30924","12376","{""ID"":""5e823b35726b2a9508db127c""}","","","","","","","","",""
"html-keyboard-response","2","29930","0.0-2.0","5e823b35726b2a9508db127c","64afc2c9a8732ea92db0087d","64aff83e1acde521b6c30924","14810"," ","<p style=""font-size: 15px;"">Prima di cominciare, le chiediamo di leggere il modulo di consenso informato e confermare la sua volontà di partecipare all'esperimento.</p>
      <p style=""font-size: 15px;""> La preghiamo di ricordare che questo è un progetto di ricerca e che la sua partecipazione è completamente volontaria. Lei si potra' ritirare in qualunque momento, senza necessariamente dover dare alcuna spiegazione. Lo studio al quale Le si chiede di partecipare ha lo scopo di esaminare come i lettori elaborano le parole scritte. La somministrazione delle prove è individuale. Lei sarà impegnato in una sessione di lavoro della durata media di 10 minuti, e un questionario di 10 minuti. L’ordine delle prove ed il loro svolgimento sono stabiliti in modo tale da evitare un eventuale affaticamento. Tutte le prove saranno precedute da un breve addestramento in modo tale che abbia la possibilità di familiarizzare con il compito. Sono previste alcune pause nel corso dello svolgimento dell’esperimento. Una ricompensa di £4 (£8 per ora) Le verrà consegnata al termine della sessione di testing. Nonostante il testing preveda delle prove cognitive, il presente esperimento non costituisce una prova clinica che permetta la diagnosi di eventuali patologie.</p>
      <p style=""font-size: 15px;"">Tutti i dati raccolti grazie alla partecipazione Sua e di altre persone volontarie saranno custoditi in server sicuri e protetti da password, e non sarà consentito ad alcuna persona non autorizzata di accedervi. Le Sue informazioni personali saranno conservate separatamente dai risultati della presente ricerca, cui saranno associati soltanto attraverso un ID arbitrario. Grazie a questo processo di anonimizzazione dei dati, a nessun ricercatore sarà possibile analizzare i risultati sapendo da quale specifico partecipante essi provengono. Inoltre, questa procedura renderà impossibile la Sua identificazione anche nel momento in cui i risultati della ricerca fossero pubblicati su riviste scientifiche, o presentati a congressi o in qualsiasi altro pubblico consesso. Più in generale, i dati raccolti saranno trattati in accordo con le leggi sulla privacy e in conformità al Decreto Legislativo 30 giugno 2003 n. 196 “Codice in materia di protezione dei dati personali” e al Regolamento Europeo 2016/679 (General Data Protection Regulation - GDPR). Il Responsabile della protezione dei dati (RPD) è l’Avv. Valentina Carollo che può essere contattato ai seguenti indirizzi email: <a href=""mailto:dpo@sissa.it"">dpo@sissa.it</a> oppure <a href=""mailto:rpd@sissa.it"">rpd@sissa.it</a> - PEC: <a href=""mailto:protocollo@pec.sissa.it"">protocollo@pec.sissa.it</a>.</p>
      <p style=""font-size: 15px;""> Prima di esprimere il suo consenso alla partecipazione, Le ricordiamo ancora che in caso Lei abbia bisogno di delucidazioni su qualunque aspetto della procedura sperimentale, il ricercatore è a Sua completa disposizione (<a href=""mailto:aliebelt@sissa.it"">aliebelt@sissa.it</a>, <a href=""mailto:davide.crepaldi@sissa.it"">davide.crepaldi@sissa.it</a>).</p>
      <p style=""font-size: 15px;"">Se vuole scaricare il modulo di consenso informato, clicca qui: <a href=""BASL_modulo_consenso.pdf"" download>modulo di consenso</a>.</p>
      <p style=""font-size: 15px;""> Le chiediamo di premere la barra per continuare al consenso.</p>","","","","","","","",""
"survey-html-form","3","42561","0.0-3.0","5e823b35726b2a9508db127c","64afc2c9a8732ea92db0087d","64aff83e1acde521b6c30924","12629","{""consent1"":""YES"",""consent2"":""YES"",""consent3"":""YES"",""consent4"":""YES"",""consent5"":""YES"",""consent6"":""YES""}","","","","","","","","",""
"fullscreen","4","47896","0.0-4.0","5e823b35726b2a9508db127c","64afc2c9a8732ea92db0087d","64aff83e1acde521b6c30924","","","","true","","","","","","",""
"html-keyboard-response","5","70650","0.0-5.0","5e823b35726b2a9508db127c","64afc2c9a8732ea92db0087d","64aff83e1acde521b6c30924","22752"," ","<p>Benvenuta/o, e grazie mille del tuo tempo!</p>
      <p>In questo esperimento sarai un esperto/un'esperta di linguaggio cui è stato chiesto di dare un'occhiata ad alcuni messaggi che la Terra ha ricevuto dallo spazio. Il tuo compito, in questa prima parte dell'esperimento, sarà di fare molta attenzione alle parole che ti verranno mostrate; più tardi, i leader del mondo ti chiederanno qualche informazione su quello che hai visto. Le parole si susseguiranno abbastanza velocemente; sembra che questi alieni abbiano una certa fretta :-) </p>
      <p>Per favore, chiama lo sperimentatore se ha qualche domanda.</p><p>Premi la barra per continuare.</p>","","","","","","","",""
"html-keyboard-response","6","77234","0.0-6.0","5e823b35726b2a9508db127c","64afc2c9a8732ea92db0087d","64aff83e1acde521b6c30924","6584"," ","<p>Ecco un esempio delle parole che vedrai:</p>
      <img src='esempio.png' height='400px'>
      <p>Quando sei pronti per iniziare, premi la barra.</p></div>","","","","","","","",""
"html-keyboard-response","7","78241","0.0-7.0-0.0","5e823b35726b2a9508db127c","64afc2c9a8732ea92db0087d","64aff83e1acde521b6c30924","null","null","<p style=""font-size: 60px; font-family: BACS"">ECtbDkDOm</p>","","","","","","","",""
"html-keyboard-response","8","79247","0.0-7.0-0.1","5e823b35726b2a9508db127c","64afc2c9a8732ea92db0087d","64aff83e1acde521b6c30924","null","null","<p style=""font-size: 60px; font-family: BACS"">NJZlkam</p>","","","","","","","",""
"html-keyboard-response","9","80255","0.0-7.0-0.2","5e823b35726b2a9508db127c","64afc2c9a8732ea92db0087d","64aff83e1acde521b6c30924","null","null","<p style=""font-size: 60px; font-family: BACS"">krGucrdY</p>","","","","","","","",""
"html-keyboard-response","10","81271","0.0-7.0-0.3","5e823b35726b2a9508db127c","64afc2c9a8732ea92db0087d","64aff83e1acde521b6c30924","null","null","<p style=""font-size: 60px; font-family: BACS"">RtRhYBO</p>","","","","","","","",""
"html-keyboard-response","11","82286","0.0-7.0-0.4","5e823b35726b2a9508db127c","64afc2c9a8732ea92db0087d","64aff83e1acde521b6c30924","null","null","<p style=""font-size: 60px; font-family: BACS"">kabJbkmU</p>","","","","","","","",""
"html-keyboard-response","12","83302","0.0-7.0-0.5","5e823b35726b2a9508db127c","64afc2c9a8732ea92db0087d","64aff83e1acde521b6c30924","null","null","<p style=""font-size: 60px; font-family: BACS"">tmtEMCPMl</p>","","","","","","","",""
"html-keyboard-response","13","84317","0.0-7.0-0.6","5e823b35726b2a9508db127c","64afc2c9a8732ea92db0087d","64aff83e1acde521b6c30924","null","null","<p style=""font-size: 60px; font-family: BACS"">kRCkOCMdP</p>","","","","","","","",""
"html-keyboard-response","14","85318","0.0-7.0-0.7","5e823b35726b2a9508db127c","64afc2c9a8732ea92db0087d","64aff83e1acde521b6c30924","null","null","<p style=""font-size: 60px; font-family: BACS"">khmhYcM</p>","","","","","","","",""
"html-keyboard-response","15","86321","0.0-7.0-0.8","5e823b35726b2a9508db127c","64afc2c9a8732ea92db0087d","64aff83e1acde521b6c30924","null","null","<p style=""font-size: 60px; font-family: BACS"">kRCkOkDOm</p>","","","","","","","",""
"html-keyboard-response","16","87332","0.0-7.0-0.9","5e823b35726b2a9508db127c","64afc2c9a8732ea92db0087d","64aff83e1acde521b6c30924","null","null","<p style=""font-size: 60px; font-family: BACS"">kabJbcrdY</p>","","","","","","","",""
"html-keyboard-response","17","88347","0.0-7.0-0.10","5e823b35726b2a9508db127c","64afc2c9a8732ea92db0087d","64aff83e1acde521b6c30924","null","null","<p style=""font-size: 60px; font-family: BACS"">LOLkUkam</p>","","","","","","","",""
"html-keyboard-response","18","89362","0.0-7.0-0.11","5e823b35726b2a9508db127c","64afc2c9a8732ea92db0087d","64aff83e1acde521b6c30924","null","null","<p style=""font-size: 60px; font-family: BACS"">kabJbJcUk</p>","","","","","","","",""
"html-keyboard-response","19","90377","0.0-7.0-0.12","5e823b35726b2a9508db127c","64afc2c9a8732ea92db0087d","64aff83e1acde521b6c30924","null","null","<p style=""font-size: 60px; font-family: BACS"">NJZlkJdr</p>","","","","","","","",""
"html-keyboard-response","20","91395","0.0-7.0-0.13","5e823b35726b2a9508db127c","64afc2c9a8732ea92db0087d","64aff83e1acde521b6c30924","null","null","<p style=""font-size: 60px; font-family: BACS"">LckGNkmU</p>","","","","","","","",""
"html-keyboard-response","21","92411","0.0-7.0-0.14","5e823b35726b2a9508db127c","64afc2c9a8732ea92db0087d","64aff83e1acde521b6c30924","null","null","<p style=""font-size: 60px; font-family: BACS"">dTmEDCPMl</p>","","","","","","","",""
"html-keyboard-response","22","93427","0.0-7.0-0.15","5e823b35726b2a9508db127c","64afc2c9a8732ea92db0087d","64aff83e1acde521b6c30924","null","null","<p style=""font-size: 60px; font-family: BACS"">LckGNcrdY</p>","","","","","","","",""
"html-keyboard-response","23","94441","0.0-7.0-0.16","5e823b35726b2a9508db127c","64afc2c9a8732ea92db0087d","64aff83e1acde521b6c30924","null","null","<p style=""font-size: 60px; font-family: BACS"">tmtEMkDOm</p>","","","","","","","",""
"html-keyboard-response","24","95443","0.0-7.0-0.17","5e823b35726b2a9508db127c","64afc2c9a8732ea92db0087d","64aff83e1acde521b6c30924","null","null","<p style=""font-size: 60px; font-family: BACS"">kRCkOYcM</p>","","","","","","","",""
"html-keyboard-response","25","96456","0.0-7.0-0.18","5e823b35726b2a9508db127c","64afc2c9a8732ea92db0087d","64aff83e1acde521b6c30924","null","null","<p style=""font-size: 60px; font-family: BACS"">KTDTBCPMl</p>","","","","","","","",""
"html-keyboard-response","26","97471","0.0-7.0-0.19","5e823b35726b2a9508db127c","64afc2c9a8732ea92db0087d","64aff83e1acde521b6c30924","null","null","<p style=""font-size: 60px; font-family: BACS"">RtRhCMdP</p>","","","","","","","",""
"html-keyboard-response","27","98487","0.0-7.0-0.20","5e823b35726b2a9508db127c","64afc2c9a8732ea92db0087d","64aff83e1acde521b6c30924","null","null","<p style=""font-size: 60px; font-family: BACS"">khmhCPMl</p>","","","","","","","",""
"html-keyboard-response","28","99504","0.0-7.0-0.21","5e823b35726b2a9508db127c","64afc2c9a8732ea92db0087d","64aff83e1acde521b6c30924","null","null","<p style=""font-size: 60px; font-family: BACS"">ZYcQUJcUk</p>","","","","","","","",""
"html-keyboard-response","29","100519","0.0-7.0-0.22","5e823b35726b2a9508db127c","64afc2c9a8732ea92db0087d","64aff83e1acde521b6c30924","null","null","<p style=""font-size: 60px; font-family: BACS"">kabJbkJdr</p>","","","","","","","",""
"html-keyboard-response","30","101535","0.0-7.0-0.23","5e823b35726b2a9508db127c","64afc2c9a8732ea92db0087d","64aff83e1acde521b6c30924","null","null","<p style=""font-size: 60px; font-family: BACS"">kGlUkmU</p>","","","","","","","",""
"html-keyboard-response","31","102550","0.0-7.0-0.24","5e823b35726b2a9508db127c","64afc2c9a8732ea92db0087d","64aff83e1acde521b6c30924","null","null","<p style=""font-size: 60px; font-family: BACS"">vQdOJcUk</p>","","","","","","","",""
"html-keyboard-response","32","103567","0.0-7.0-0.25","5e823b35726b2a9508db127c","64afc2c9a8732ea92db0087d","64aff83e1acde521b6c30924","null","null","<p style=""font-size: 60px; font-family: BACS"">dOYmlYcM</p>","","","","","","","",""
"html-keyboard-response","33","104581","0.0-7.0-0.26","5e823b35726b2a9508db127c","64afc2c9a8732ea92db0087d","64aff83e1acde521b6c30924","null","null","<p style=""font-size: 60px; font-family: BACS"">tmtEMCMdP</p>","","","","","","","",""
"html-keyboard-response","34","105596","0.0-7.0-0.27","5e823b35726b2a9508db127c","64afc2c9a8732ea92db0087d","64aff83e1acde521b6c30924","null","null","<p style=""font-size: 60px; font-family: BACS"">EdBbkDOm</p>","","","","","","","",""
"html-keyboard-response","35","106613","0.0-7.0-0.28","5e823b35726b2a9508db127c","64afc2c9a8732ea92db0087d","64aff83e1acde521b6c30924","null","null","<p style=""font-size: 60px; font-family: BACS"">mkmJNcrdY</p>","","","","","","","",""
"html-keyboard-response","36","107629","0.0-7.0-0.29","5e823b35726b2a9508db127c","64afc2c9a8732ea92db0087d","64aff83e1acde521b6c30924","null","null","<p style=""font-size: 60px; font-family: BACS"">ZYcQUkmU</p>","","","","","","","",""
"html-keyboard-response","37","108644","0.0-7.0-0.30","5e823b35726b2a9508db127c","64afc2c9a8732ea92db0087d","64aff83e1acde521b6c30924","null","null","<p style=""font-size: 60px; font-family: BACS"">EdBbYBO</p>","","","","","","","",""
"html-keyboard-response","38","109645","0.0-7.0-0.31","5e823b35726b2a9508db127c","64afc2c9a8732ea92db0087d","64aff83e1acde521b6c30924","null","null","<p style=""font-size: 60px; font-family: BACS"">RtRhkDOm</p>","","","","","","","",""
"html-keyboard-response","39","110660","0.0-7.0-0.32","5e823b35726b2a9508db127c","64afc2c9a8732ea92db0087d","64aff83e1acde521b6c30924","null","null","<p style=""font-size: 60px; font-family: BACS"">vQdOcrdY</p>","","","","","","","",""
"html-keyboard-response","40","111673","0.0-7.0-0.33","5e823b35726b2a9508db127c","64afc2c9a8732ea92db0087d","64aff83e1acde521b6c30924","null","null","<p style=""font-size: 60px; font-family: BACS"">krGukam</p>","","","","","","","",""
"html-keyboard-response","41","112675","0.0-7.0-0.34","5e823b35726b2a9508db127c","64afc2c9a8732ea92db0087d","64aff83e1acde521b6c30924","null","null","<p style=""font-size: 60px; font-family: BACS"">ZkGmYkmU</p>","","","","","","","",""
"html-keyboard-response","42","113689","0.0-7.0-0.35","5e823b35726b2a9508db127c","64afc2c9a8732ea92db0087d","64aff83e1acde521b6c30924","null","null","<p style=""font-size: 60px; font-family: BACS"">kRCkOCPMl</p>","","","","","","","",""
"html-keyboard-response","43","114706","0.0-7.0-0.36","5e823b35726b2a9508db127c","64afc2c9a8732ea92db0087d","64aff83e1acde521b6c30924","null","null","<p style=""font-size: 60px; font-family: BACS"">RtRhYcM</p>","","","","","","","",""
"html-keyboard-response","44","115722","0.0-7.0-0.37","5e823b35726b2a9508db127c","64afc2c9a8732ea92db0087d","64aff83e1acde521b6c30924","null","null","<p style=""font-size: 60px; font-family: BACS"">kPOtkDOm</p>","","","","","","","",""
"html-keyboard-response","45","116739","0.0-7.0-0.38","5e823b35726b2a9508db127c","64afc2c9a8732ea92db0087d","64aff83e1acde521b6c30924","null","null","<p style=""font-size: 60px; font-family: BACS"">khmhYBO</p>","","","","","","","",""
"html-keyboard-response","46","117753","0.0-7.0-0.39","5e823b35726b2a9508db127c","64afc2c9a8732ea92db0087d","64aff83e1acde521b6c30924","null","null","<p style=""font-size: 60px; font-family: BACS"">krGuJcUk</p>","","","","","","","",""
"html-keyboard-response","47","118769","0.0-7.0-0.40","5e823b35726b2a9508db127c","64afc2c9a8732ea92db0087d","64aff83e1acde521b6c30924","null","null","<p style=""font-size: 60px; font-family: BACS"">dOYmlCMdP</p>","","","","","","","",""
"html-keyboard-response","48","119784","0.0-7.0-0.41","5e823b35726b2a9508db127c","64afc2c9a8732ea92db0087d","64aff83e1acde521b6c30924","null","null","<p style=""font-size: 60px; font-family: BACS"">kGlUkJdr</p>","","","","","","","",""
"html-keyboard-response","49","120798","0.0-7.0-0.42","5e823b35726b2a9508db127c","64afc2c9a8732ea92db0087d","64aff83e1acde521b6c30924","null","null","<p style=""font-size: 60px; font-family: BACS"">LOLkUJcUk</p>","","","","","","","",""
"html-keyboard-response","50","121799","0.0-7.0-0.43","5e823b35726b2a9508db127c","64afc2c9a8732ea92db0087d","64aff83e1acde521b6c30924","null","null","<p style=""font-size: 60px; font-family: BACS"">kPOtYBO</p>","","","","","","","",""
"html-keyboard-response","51","122815","0.0-7.0-0.44","5e823b35726b2a9508db127c","64afc2c9a8732ea92db0087d","64aff83e1acde521b6c30924","null","null","<p style=""font-size: 60px; font-family: BACS"">NJZlJcUk</p>","","","","","","","",""
"html-keyboard-response","52","123829","0.0-7.0-0.45","5e823b35726b2a9508db127c","64afc2c9a8732ea92db0087d","64aff83e1acde521b6c30924","null","null","<p style=""font-size: 60px; font-family: BACS"">dTmEDYBO</p>","","","","","","","",""
"html-keyboard-response","53","124846","0.0-7.0-0.46","5e823b35726b2a9508db127c","64afc2c9a8732ea92db0087d","64aff83e1acde521b6c30924","null","null","<p style=""font-size: 60px; font-family: BACS"">ZkGmYkJdr</p>","","","","","","","",""
"html-keyboard-response","54","125862","0.0-7.0-0.47","5e823b35726b2a9508db127c","64afc2c9a8732ea92db0087d","64aff83e1acde521b6c30924","null","null","<p style=""font-size: 60px; font-family: BACS"">dTmEDYcM</p>","","","","","","","",""
"html-keyboard-response","55","126864","0.0-7.0-0.48","5e823b35726b2a9508db127c","64afc2c9a8732ea92db0087d","64aff83e1acde521b6c30924","null","null","<p style=""font-size: 60px; font-family: BACS"">krGukmU</p>","","","","","","","",""
"html-keyboard-response","56","127878","0.0-7.0-0.49","5e823b35726b2a9508db127c","64afc2c9a8732ea92db0087d","64aff83e1acde521b6c30924","null","null","<p style=""font-size: 60px; font-family: BACS"">ECtbDYBO</p>","","","","","","","",""
"html-keyboard-response","57","128893","0.0-7.0-0.50","5e823b35726b2a9508db127c","64afc2c9a8732ea92db0087d","64aff83e1acde521b6c30924","null","null","<p style=""font-size: 60px; font-family: BACS"">NJZlcrdY</p>","","","","","","","",""
"html-keyboard-response","58","129906","0.0-7.0-0.51","5e823b35726b2a9508db127c","64afc2c9a8732ea92db0087d","64aff83e1acde521b6c30924","null","null","<p style=""font-size: 60px; font-family: BACS"">mkmJNJcUk</p>","","","","","","","",""
"html-keyboard-response","59","130908","0.0-7.0-0.52","5e823b35726b2a9508db127c","64afc2c9a8732ea92db0087d","64aff83e1acde521b6c30924","null","null","<p style=""font-size: 60px; font-family: BACS"">kPOtCPMl</p>","","","","","","","",""
"html-keyboard-response","60","131922","0.0-7.0-0.53","5e823b35726b2a9508db127c","64afc2c9a8732ea92db0087d","64aff83e1acde521b6c30924","null","null","<p style=""font-size: 60px; font-family: BACS"">KTDTBCMdP</p>","","","","","","","",""
"html-keyboard-response","61","132938","0.0-7.0-0.54","5e823b35726b2a9508db127c","64afc2c9a8732ea92db0087d","64aff83e1acde521b6c30924","null","null","<p style=""font-size: 60px; font-family: BACS"">kGlUkam</p>","","","","","","","",""
"html-keyboard-response","62","133953","0.0-7.0-0.55","5e823b35726b2a9508db127c","64afc2c9a8732ea92db0087d","64aff83e1acde521b6c30924","null","null","<p style=""font-size: 60px; font-family: BACS"">dOYmlYBO</p>","","","","","","","",""
"html-keyboard-response","63","134968","0.0-7.0-0.56","5e823b35726b2a9508db127c","64afc2c9a8732ea92db0087d","64aff83e1acde521b6c30924","null","null","<p style=""font-size: 60px; font-family: BACS"">khmhkDOm</p>","","","","","","","",""
"html-keyboard-response","64","135983","0.0-7.0-0.57","5e823b35726b2a9508db127c","64afc2c9a8732ea92db0087d","64aff83e1acde521b6c30924","null","null","<p style=""font-size: 60px; font-family: BACS"">ECtbDCMdP</p>","","","","","","","",""
"html-keyboard-response","65","136984","0.0-7.0-0.58","5e823b35726b2a9508db127c","64afc2c9a8732ea92db0087d","64aff83e1acde521b6c30924","null","null","<p style=""font-size: 60px; font-family: BACS"">dOYmlCPMl</p>","","","","","","","",""
"html-keyboard-response","66","137999","0.0-7.0-0.59","5e823b35726b2a9508db127c","64afc2c9a8732ea92db0087d","64aff83e1acde521b6c30924","null","null","<p style=""font-size: 60px; font-family: BACS"">KTDTBYcM</p>","","","","","","","",""
"html-keyboard-response","67","139016","0.0-7.0-0.60","5e823b35726b2a9508db127c","64afc2c9a8732ea92db0087d","64aff83e1acde521b6c30924","null","null","<p style=""font-size: 60px; font-family: BACS"">dTmEDCMdP</p>","","","","","","","",""
"html-keyboard-response","68","140030","0.0-7.0-0.61","5e823b35726b2a9508db127c","64afc2c9a8732ea92db0087d","64aff83e1acde521b6c30924","null","null","<p style=""font-size: 60px; font-family: BACS"">mkmJNkJdr</p>","","","","","","","",""
"html-keyboard-response","69","141032","0.0-7.0-0.62","5e823b35726b2a9508db127c","64afc2c9a8732ea92db0087d","64aff83e1acde521b6c30924","null","null","<p style=""font-size: 60px; font-family: BACS"">EdBbCMdP</p>","","","","","","","",""
"html-keyboard-response","70","142047","0.0-7.0-0.63","5e823b35726b2a9508db127c","64afc2c9a8732ea92db0087d","64aff83e1acde521b6c30924","null","null","<p style=""font-size: 60px; font-family: BACS"">ZkGmYJcUk</p>","","","","","","","",""
"html-keyboard-response","71","143063","0.0-7.0-0.64","5e823b35726b2a9508db127c","64afc2c9a8732ea92db0087d","64aff83e1acde521b6c30924","null","null","<p style=""font-size: 60px; font-family: BACS"">KTDTBkDOm</p>","","","","","","","",""
"html-keyboard-response","72","144077","0.0-7.0-0.65","5e823b35726b2a9508db127c","64afc2c9a8732ea92db0087d","64aff83e1acde521b6c30924","null","null","<p style=""font-size: 60px; font-family: BACS"">LckGNkam</p>","","","","","","","",""
"html-keyboard-response","73","145092","0.0-7.0-0.66","5e823b35726b2a9508db127c","64afc2c9a8732ea92db0087d","64aff83e1acde521b6c30924","null","null","<p style=""font-size: 60px; font-family: BACS"">LOLkUkmU</p>","","","","","","","",""
"html-keyboard-response","74","146108","0.0-7.0-0.67","5e823b35726b2a9508db127c","64afc2c9a8732ea92db0087d","64aff83e1acde521b6c30924","null","null","<p style=""font-size: 60px; font-family: BACS"">tmtEMYBO</p>","","","","","","","",""
"html-keyboard-response","75","147124","0.0-7.0-0.68","5e823b35726b2a9508db127c","64afc2c9a8732ea92db0087d","64aff83e1acde521b6c30924","null","null","<p style=""font-size: 60px; font-family: BACS"">vQdOkam</p>","","","","","","","",""
"html-keyboard-response","76","148139","0.0-7.0-0.69","5e823b35726b2a9508db127c","64afc2c9a8732ea92db0087d","64aff83e1acde521b6c30924","null","null","<p style=""font-size: 60px; font-family: BACS"">ZYcQUkJdr</p>","","","","","","","",""
"html-keyboard-response","77","149141","0.0-7.0-0.70","5e823b35726b2a9508db127c","64afc2c9a8732ea92db0087d","64aff83e1acde521b6c30924","null","null","<p style=""font-size: 60px; font-family: BACS"">kGlUcrdY</p>","","","","","","","",""
"html-keyboard-response","78","150156","0.0-7.0-0.71","5e823b35726b2a9508db127c","64afc2c9a8732ea92db0087d","64aff83e1acde521b6c30924","null","null","<p style=""font-size: 60px; font-family: BACS"">kPOtYcM</p>","","","","","","","",""
"html-keyboard-response","79","151171","0.0-7.0-0.72","5e823b35726b2a9508db127c","64afc2c9a8732ea92db0087d","64aff83e1acde521b6c30924","null","null","<p style=""font-size: 60px; font-family: BACS"">ZkGmYkam</p>","","","","","","","",""
"html-keyboard-response","80","152184","0.0-7.0-0.73","5e823b35726b2a9508db127c","64afc2c9a8732ea92db0087d","64aff83e1acde521b6c30924","null","null","<p style=""font-size: 60px; font-family: BACS"">LckGNkJdr</p>","","","","","","","",""
"html-keyboard-response","81","153187","0.0-7.0-0.74","5e823b35726b2a9508db127c","64afc2c9a8732ea92db0087d","64aff83e1acde521b6c30924","null","null","<p style=""font-size: 60px; font-family: BACS"">mkmJNkmU</p>","","","","","","","",""
"html-keyboard-response","82","154198","0.0-7.0-0.75","5e823b35726b2a9508db127c","64afc2c9a8732ea92db0087d","64aff83e1acde521b6c30924","null","null","<p style=""font-size: 60px; font-family: BACS"">ECtbDCPMl</p>","","","","","","","",""
"html-keyboard-response","83","155201","0.0-7.0-0.76","5e823b35726b2a9508db127c","64afc2c9a8732ea92db0087d","64aff83e1acde521b6c30924","null","null","<p style=""font-size: 60px; font-family: BACS"">EdBbYcM</p>","","","","","","","",""
"html-keyboard-response","84","156217","0.0-7.0-0.77","5e823b35726b2a9508db127c","64afc2c9a8732ea92db0087d","64aff83e1acde521b6c30924","null","null","<p style=""font-size: 60px; font-family: BACS"">vQdOkJdr</p>","","","","","","","",""
"html-keyboard-response","85","157232","0.0-7.0-0.78","5e823b35726b2a9508db127c","64afc2c9a8732ea92db0087d","64aff83e1acde521b6c30924","null","null","<p style=""font-size: 60px; font-family: BACS"">ZYcQUkam</p>","","","","","","","",""
"html-keyboard-response","86","158247","0.0-7.0-0.79","5e823b35726b2a9508db127c","64afc2c9a8732ea92db0087d","64aff83e1acde521b6c30924","null","null","<p style=""font-size: 60px; font-family: BACS"">LOLkUcrdY</p>","","","","","","","",""
"html-keyboard-response","87","161960","0.0-8.0","5e823b35726b2a9508db127c","64afc2c9a8732ea92db0087d","64aff83e1acde521b6c30924","3711"," ","<p>Ottimo, hai visto il primo blocco di parole. Ora puoi prenderti una piccola pausa.</p>
      <p>Premi la barra quando sei pronta/o per riprendere.</p>","","","","","","","",""
"html-keyboard-response","88","162976","0.0-9.0-0.0","5e823b35726b2a9508db127c","64afc2c9a8732ea92db0087d","64aff83e1acde521b6c30924","null","null","<p style=""font-size: 60px; font-family: BACS"">EdBbCMdP</p>","","","","","","","",""
"html-keyboard-response","89","163990","0.0-9.0-0.1","5e823b35726b2a9508db127c","64afc2c9a8732ea92db0087d","64aff83e1acde521b6c30924","null","null","<p style=""font-size: 60px; font-family: BACS"">kRCkOYcM</p>","","","","","","","",""
"html-keyboard-response","90","164991","0.0-9.0-0.2","5e823b35726b2a9508db127c","64afc2c9a8732ea92db0087d","64aff83e1acde521b6c30924","null","null","<p style=""font-size: 60px; font-family: BACS"">ECtbDCMdP</p>","","","","","","","",""
"html-keyboard-response","91","166005","0.0-9.0-0.3","5e823b35726b2a9508db127c","64afc2c9a8732ea92db0087d","64aff83e1acde521b6c30924","null","null","<p style=""font-size: 60px; font-family: BACS"">LckGNkJdr</p>","","","","","","","",""
"html-keyboard-response","92","167021","0.0-9.0-0.4","5e823b35726b2a9508db127c","64afc2c9a8732ea92db0087d","64aff83e1acde521b6c30924","null","null","<p style=""font-size: 60px; font-family: BACS"">ZkGmYkmU</p>","","","","","","","",""
"html-keyboard-response","93","168023","0.0-9.0-0.5","5e823b35726b2a9508db127c","64afc2c9a8732ea92db0087d","64aff83e1acde521b6c30924","null","null","<p style=""font-size: 60px; font-family: BACS"">KTDTBkDOm</p>","","","","","","","",""
"html-keyboard-response","94","169036","0.0-9.0-0.6","5e823b35726b2a9508db127c","64afc2c9a8732ea92db0087d","64aff83e1acde521b6c30924","null","null","<p style=""font-size: 60px; font-family: BACS"">khmhCPMl</p>","","","","","","","",""
"html-keyboard-response","95","170053","0.0-9.0-0.7","5e823b35726b2a9508db127c","64afc2c9a8732ea92db0087d","64aff83e1acde521b6c30924","null","null","<p style=""font-size: 60px; font-family: BACS"">EdBbYBO</p>","","","","","","","",""
"html-keyboard-response","96","171070","0.0-9.0-0.8","5e823b35726b2a9508db127c","64afc2c9a8732ea92db0087d","64aff83e1acde521b6c30924","null","null","<p style=""font-size: 60px; font-family: BACS"">ZkGmYJcUk</p>","","","","","","","",""
"html-keyboard-response","97","172085","0.0-9.0-0.9","5e823b35726b2a9508db127c","64afc2c9a8732ea92db0087d","64aff83e1acde521b6c30924","null","null","<p style=""font-size: 60px; font-family: BACS"">kPOtCPMl</p>","","","","","","","",""
"html-keyboard-response","98","173099","0.0-9.0-0.10","5e823b35726b2a9508db127c","64afc2c9a8732ea92db0087d","64aff83e1acde521b6c30924","null","null","<p style=""font-size: 60px; font-family: BACS"">vQdOcrdY</p>","","","","","","","",""
"html-keyboard-response","99","174100","0.0-9.0-0.11","5e823b35726b2a9508db127c","64afc2c9a8732ea92db0087d","64aff83e1acde521b6c30924","null","null","<p style=""font-size: 60px; font-family: BACS"">ZYcQUkJdr</p>","","","","","","","",""
"html-keyboard-response","100","175101","0.0-9.0-0.12","5e823b35726b2a9508db127c","64afc2c9a8732ea92db0087d","64aff83e1acde521b6c30924","null","null","<p style=""font-size: 60px; font-family: BACS"">NJZlcrdY</p>","","","","","","","",""
"html-keyboard-response","101","176114","0.0-9.0-0.13","5e823b35726b2a9508db127c","64afc2c9a8732ea92db0087d","64aff83e1acde521b6c30924","null","null","<p style=""font-size: 60px; font-family: BACS"">tmtEMCMdP</p>","","","","","","","",""
"html-keyboard-response","102","177129","0.0-9.0-0.14","5e823b35726b2a9508db127c","64afc2c9a8732ea92db0087d","64aff83e1acde521b6c30924","null","null","<p style=""font-size: 60px; font-family: BACS"">LckGNkam</p>","","","","","","","",""
"html-keyboard-response","103","178144","0.0-9.0-0.15","5e823b35726b2a9508db127c","64afc2c9a8732ea92db0087d","64aff83e1acde521b6c30924","null","null","<p style=""font-size: 60px; font-family: BACS"">mkmJNJcUk</p>","","","","","","","",""
"html-keyboard-response","104","179160","0.0-9.0-0.16","5e823b35726b2a9508db127c","64afc2c9a8732ea92db0087d","64aff83e1acde521b6c30924","null","null","<p style=""font-size: 60px; font-family: BACS"">ZYcQUkmU</p>","","","","","","","",""
"html-keyboard-response","105","180176","0.0-9.0-0.17","5e823b35726b2a9508db127c","64afc2c9a8732ea92db0087d","64aff83e1acde521b6c30924","null","null","<p style=""font-size: 60px; font-family: BACS"">NJZlkam</p>","","","","","","","",""
"html-keyboard-response","106","181191","0.0-9.0-0.18","5e823b35726b2a9508db127c","64afc2c9a8732ea92db0087d","64aff83e1acde521b6c30924","null","null","<p style=""font-size: 60px; font-family: BACS"">tmtEMkDOm</p>","","","","","","","",""
"html-keyboard-response","107","182208","0.0-9.0-0.19","5e823b35726b2a9508db127c","64afc2c9a8732ea92db0087d","64aff83e1acde521b6c30924","null","null","<p style=""font-size: 60px; font-family: BACS"">dTmEDYBO</p>","","","","","","","",""
"html-keyboard-response","108","183225","0.0-9.0-0.20","5e823b35726b2a9508db127c","64afc2c9a8732ea92db0087d","64aff83e1acde521b6c30924","null","null","<p style=""font-size: 60px; font-family: BACS"">ZYcQUJcUk</p>","","","","","","","",""
"html-keyboard-response","109","184241","0.0-9.0-0.21","5e823b35726b2a9508db127c","64afc2c9a8732ea92db0087d","64aff83e1acde521b6c30924","null","null","<p style=""font-size: 60px; font-family: BACS"">khmhYcM</p>","","","","","","","",""
"html-keyboard-response","110","185243","0.0-9.0-0.22","5e823b35726b2a9508db127c","64afc2c9a8732ea92db0087d","64aff83e1acde521b6c30924","null","null","<p style=""font-size: 60px; font-family: BACS"">ZkGmYkJdr</p>","","","","","","","",""
"html-keyboard-response","111","186255","0.0-9.0-0.23","5e823b35726b2a9508db127c","64afc2c9a8732ea92db0087d","64aff83e1acde521b6c30924","null","null","<p style=""font-size: 60px; font-family: BACS"">tmtEMYBO</p>","","","","","","","",""
"html-keyboard-response","112","187272","0.0-9.0-0.24","5e823b35726b2a9508db127c","64afc2c9a8732ea92db0087d","64aff83e1acde521b6c30924","null","null","<p style=""font-size: 60px; font-family: BACS"">vQdOkJdr</p>","","","","","","","",""
"html-keyboard-response","113","188285","0.0-9.0-0.25","5e823b35726b2a9508db127c","64afc2c9a8732ea92db0087d","64aff83e1acde521b6c30924","null","null","<p style=""font-size: 60px; font-family: BACS"">RtRhkDOm</p>","","","","","","","",""
"html-keyboard-response","114","189300","0.0-9.0-0.26","5e823b35726b2a9508db127c","64afc2c9a8732ea92db0087d","64aff83e1acde521b6c30924","null","null","<p style=""font-size: 60px; font-family: BACS"">kGlUkmU</p>","","","","","","","",""
"html-keyboard-response","115","190316","0.0-9.0-0.27","5e823b35726b2a9508db127c","64afc2c9a8732ea92db0087d","64aff83e1acde521b6c30924","null","null","<p style=""font-size: 60px; font-family: BACS"">kabJbkJdr</p>","","","","","","","",""
"html-keyboard-response","116","191331","0.0-9.0-0.28","5e823b35726b2a9508db127c","64afc2c9a8732ea92db0087d","64aff83e1acde521b6c30924","null","null","<p style=""font-size: 60px; font-family: BACS"">EdBbYcM</p>","","","","","","","",""
"html-keyboard-response","117","192348","0.0-9.0-0.29","5e823b35726b2a9508db127c","64afc2c9a8732ea92db0087d","64aff83e1acde521b6c30924","null","null","<p style=""font-size: 60px; font-family: BACS"">krGukam</p>","","","","","","","",""
"html-keyboard-response","118","193350","0.0-9.0-0.30","5e823b35726b2a9508db127c","64afc2c9a8732ea92db0087d","64aff83e1acde521b6c30924","null","null","<p style=""font-size: 60px; font-family: BACS"">LckGNcrdY</p>","","","","","","","",""
"html-keyboard-response","119","194364","0.0-9.0-0.31","5e823b35726b2a9508db127c","64afc2c9a8732ea92db0087d","64aff83e1acde521b6c30924","null","null","<p style=""font-size: 60px; font-family: BACS"">ECtbDkDOm</p>","","","","","","","",""
"html-keyboard-response","120","195380","0.0-9.0-0.32","5e823b35726b2a9508db127c","64afc2c9a8732ea92db0087d","64aff83e1acde521b6c30924","null","null","<p style=""font-size: 60px; font-family: BACS"">krGukmU</p>","","","","","","","",""
"html-keyboard-response","121","196395","0.0-9.0-0.33","5e823b35726b2a9508db127c","64afc2c9a8732ea92db0087d","64aff83e1acde521b6c30924","null","null","<p style=""font-size: 60px; font-family: BACS"">kGlUcrdY</p>","","","","","","","",""
"html-keyboard-response","122","197409","0.0-9.0-0.34","5e823b35726b2a9508db127c","64afc2c9a8732ea92db0087d","64aff83e1acde521b6c30924","null","null","<p style=""font-size: 60px; font-family: BACS"">dTmEDCPMl</p>","","","","","","","",""
"html-keyboard-response","123","198424","0.0-9.0-0.35","5e823b35726b2a9508db127c","64afc2c9a8732ea92db0087d","64aff83e1acde521b6c30924","null","null","<p style=""font-size: 60px; font-family: BACS"">dOYmlYcM</p>","","","","","","","",""
"html-keyboard-response","124","199426","0.0-9.0-0.36","5e823b35726b2a9508db127c","64afc2c9a8732ea92db0087d","64aff83e1acde521b6c30924","null","null","<p style=""font-size: 60px; font-family: BACS"">kPOtYBO</p>","","","","","","","",""
"html-keyboard-response","125","200439","0.0-9.0-0.37","5e823b35726b2a9508db127c","64afc2c9a8732ea92db0087d","64aff83e1acde521b6c30924","null","null","<p style=""font-size: 60px; font-family: BACS"">kGlUkam</p>","","","","","","","",""
"html-keyboard-response","126","201454","0.0-9.0-0.38","5e823b35726b2a9508db127c","64afc2c9a8732ea92db0087d","64aff83e1acde521b6c30924","null","null","<p style=""font-size: 60px; font-family: BACS"">EdBbkDOm</p>","","","","","","","",""
"html-keyboard-response","127","202455","0.0-9.0-0.39","5e823b35726b2a9508db127c","64afc2c9a8732ea92db0087d","64aff83e1acde521b6c30924","null","null","<p style=""font-size: 60px; font-family: BACS"">LOLkUkmU</p>","","","","","","","",""
"html-keyboard-response","128","203456","0.0-9.0-0.40","5e823b35726b2a9508db127c","64afc2c9a8732ea92db0087d","64aff83e1acde521b6c30924","null","null","<p style=""font-size: 60px; font-family: BACS"">RtRhCMdP</p>","","","","","","","",""
"html-keyboard-response","129","204470","0.0-9.0-0.41","5e823b35726b2a9508db127c","64afc2c9a8732ea92db0087d","64aff83e1acde521b6c30924","null","null","<p style=""font-size: 60px; font-family: BACS"">ECtbDCPMl</p>","","","","","","","",""
"html-keyboard-response","130","205485","0.0-9.0-0.42","5e823b35726b2a9508db127c","64afc2c9a8732ea92db0087d","64aff83e1acde521b6c30924","null","null","<p style=""font-size: 60px; font-family: BACS"">dTmEDCMdP</p>","","","","","","","",""
"html-keyboard-response","131","206501","0.0-9.0-0.43","5e823b35726b2a9508db127c","64afc2c9a8732ea92db0087d","64aff83e1acde521b6c30924","null","null","<p style=""font-size: 60px; font-family: BACS"">LOLkUJcUk</p>","","","","","","","",""
"html-keyboard-response","132","207516","0.0-9.0-0.44","5e823b35726b2a9508db127c","64afc2c9a8732ea92db0087d","64aff83e1acde521b6c30924","null","null","<p style=""font-size: 60px; font-family: BACS"">tmtEMCPMl</p>","","","","","","","",""
"html-keyboard-response","133","208518","0.0-9.0-0.45","5e823b35726b2a9508db127c","64afc2c9a8732ea92db0087d","64aff83e1acde521b6c30924","null","null","<p style=""font-size: 60px; font-family: BACS"">kPOtYcM</p>","","","","","","","",""
"html-keyboard-response","134","209531","0.0-9.0-0.46","5e823b35726b2a9508db127c","64afc2c9a8732ea92db0087d","64aff83e1acde521b6c30924","null","null","<p style=""font-size: 60px; font-family: BACS"">LckGNkmU</p>","","","","","","","",""
"html-keyboard-response","135","210533","0.0-9.0-0.47","5e823b35726b2a9508db127c","64afc2c9a8732ea92db0087d","64aff83e1acde521b6c30924","null","null","<p style=""font-size: 60px; font-family: BACS"">NJZlJcUk</p>","","","","","","","",""
"html-keyboard-response","136","211547","0.0-9.0-0.48","5e823b35726b2a9508db127c","64afc2c9a8732ea92db0087d","64aff83e1acde521b6c30924","null","null","<p style=""font-size: 60px; font-family: BACS"">kRCkOCPMl</p>","","","","","","","",""
"html-keyboard-response","137","212561","0.0-9.0-0.49","5e823b35726b2a9508db127c","64afc2c9a8732ea92db0087d","64aff83e1acde521b6c30924","null","null","<p style=""font-size: 60px; font-family: BACS"">ZYcQUkam</p>","","","","","","","",""
"html-keyboard-response","138","213563","0.0-9.0-0.50","5e823b35726b2a9508db127c","64afc2c9a8732ea92db0087d","64aff83e1acde521b6c30924","null","null","<p style=""font-size: 60px; font-family: BACS"">dTmEDYcM</p>","","","","","","","",""
"html-keyboard-response","139","214576","0.0-9.0-0.51","5e823b35726b2a9508db127c","64afc2c9a8732ea92db0087d","64aff83e1acde521b6c30924","null","null","<p style=""font-size: 60px; font-family: BACS"">mkmJNkmU</p>","","","","","","","",""
"html-keyboard-response","140","215578","0.0-9.0-0.52","5e823b35726b2a9508db127c","64afc2c9a8732ea92db0087d","64aff83e1acde521b6c30924","null","null","<p style=""font-size: 60px; font-family: BACS"">KTDTBYcM</p>","","","","","","","",""
"html-keyboard-response","141","216592","0.0-9.0-0.53","5e823b35726b2a9508db127c","64afc2c9a8732ea92db0087d","64aff83e1acde521b6c30924","null","null","<p style=""font-size: 60px; font-family: BACS"">vQdOkam</p>","","","","","","","",""
"html-keyboard-response","142","217608","0.0-9.0-0.54","5e823b35726b2a9508db127c","64afc2c9a8732ea92db0087d","64aff83e1acde521b6c30924","null","null","<p style=""font-size: 60px; font-family: BACS"">kabJbcrdY</p>","","","","","","","",""
"html-keyboard-response","143","218622","0.0-9.0-0.55","5e823b35726b2a9508db127c","64afc2c9a8732ea92db0087d","64aff83e1acde521b6c30924","null","null","<p style=""font-size: 60px; font-family: BACS"">kPOtkDOm</p>","","","","","","","",""
"html-keyboard-response","144","219638","0.0-9.0-0.56","5e823b35726b2a9508db127c","64afc2c9a8732ea92db0087d","64aff83e1acde521b6c30924","null","null","<p style=""font-size: 60px; font-family: BACS"">kabJbkmU</p>","","","","","","","",""
"html-keyboard-response","145","220639","0.0-9.0-0.57","5e823b35726b2a9508db127c","64afc2c9a8732ea92db0087d","64aff83e1acde521b6c30924","null","null","<p style=""font-size: 60px; font-family: BACS"">vQdOJcUk</p>","","","","","","","",""
"html-keyboard-response","146","221654","0.0-9.0-0.58","5e823b35726b2a9508db127c","64afc2c9a8732ea92db0087d","64aff83e1acde521b6c30924","null","null","<p style=""font-size: 60px; font-family: BACS"">NJZlkJdr</p>","","","","","","","",""
"html-keyboard-response","147","222671","0.0-9.0-0.59","5e823b35726b2a9508db127c","64afc2c9a8732ea92db0087d","64aff83e1acde521b6c30924","null","null","<p style=""font-size: 60px; font-family: BACS"">mkmJNcrdY</p>","","","","","","","",""
"html-keyboard-response","148","223685","0.0-9.0-0.60","5e823b35726b2a9508db127c","64afc2c9a8732ea92db0087d","64aff83e1acde521b6c30924","null","null","<p style=""font-size: 60px; font-family: BACS"">krGuJcUk</p>","","","","","","","",""
"html-keyboard-response","149","224702","0.0-9.0-0.61","5e823b35726b2a9508db127c","64afc2c9a8732ea92db0087d","64aff83e1acde521b6c30924","null","null","<p style=""font-size: 60px; font-family: BACS"">mkmJNkJdr</p>","","","","","","","",""
"html-keyboard-response","150","225718","0.0-9.0-0.62","5e823b35726b2a9508db127c","64afc2c9a8732ea92db0087d","64aff83e1acde521b6c30924","null","null","<p style=""font-size: 60px; font-family: BACS"">ZkGmYkam</p>","","","","","","","",""
"html-keyboard-response","151","226732","0.0-9.0-0.63","5e823b35726b2a9508db127c","64afc2c9a8732ea92db0087d","64aff83e1acde521b6c30924","null","null","<p style=""font-size: 60px; font-family: BACS"">kRCkOCMdP</p>","","","","","","","",""
"html-keyboard-response","152","227747","0.0-9.0-0.64","5e823b35726b2a9508db127c","64afc2c9a8732ea92db0087d","64aff83e1acde521b6c30924","null","null","<p style=""font-size: 60px; font-family: BACS"">KTDTBCPMl</p>","","","","","","","",""
"html-keyboard-response","153","228763","0.0-9.0-0.65","5e823b35726b2a9508db127c","64afc2c9a8732ea92db0087d","64aff83e1acde521b6c30924","null","null","<p style=""font-size: 60px; font-family: BACS"">RtRhYBO</p>","","","","","","","",""
"html-keyboard-response","154","229764","0.0-9.0-0.66","5e823b35726b2a9508db127c","64afc2c9a8732ea92db0087d","64aff83e1acde521b6c30924","null","null","<p style=""font-size: 60px; font-family: BACS"">kabJbJcUk</p>","","","","","","","",""
"html-keyboard-response","155","230776","0.0-9.0-0.67","5e823b35726b2a9508db127c","64afc2c9a8732ea92db0087d","64aff83e1acde521b6c30924","null","null","<p style=""font-size: 60px; font-family: BACS"">dOYmlYBO</p>","","","","","","","",""
"html-keyboard-response","156","231792","0.0-9.0-0.68","5e823b35726b2a9508db127c","64afc2c9a8732ea92db0087d","64aff83e1acde521b6c30924","null","null","<p style=""font-size: 60px; font-family: BACS"">LOLkUkam</p>","","","","","","","",""
"html-keyboard-response","157","232794","0.0-9.0-0.69","5e823b35726b2a9508db127c","64afc2c9a8732ea92db0087d","64aff83e1acde521b6c30924","null","null","<p style=""font-size: 60px; font-family: BACS"">kRCkOkDOm</p>","","","","","","","",""
"html-keyboard-response","158","233809","0.0-9.0-0.70","5e823b35726b2a9508db127c","64afc2c9a8732ea92db0087d","64aff83e1acde521b6c30924","null","null","<p style=""font-size: 60px; font-family: BACS"">ECtbDYBO</p>","","","","","","","",""
"html-keyboard-response","159","234826","0.0-9.0-0.71","5e823b35726b2a9508db127c","64afc2c9a8732ea92db0087d","64aff83e1acde521b6c30924","null","null","<p style=""font-size: 60px; font-family: BACS"">LOLkUcrdY</p>","","","","","","","",""
"html-keyboard-response","160","235842","0.0-9.0-0.72","5e823b35726b2a9508db127c","64afc2c9a8732ea92db0087d","64aff83e1acde521b6c30924","null","null","<p style=""font-size: 60px; font-family: BACS"">khmhkDOm</p>","","","","","","","",""
"html-keyboard-response","161","236857","0.0-9.0-0.73","5e823b35726b2a9508db127c","64afc2c9a8732ea92db0087d","64aff83e1acde521b6c30924","null","null","<p style=""font-size: 60px; font-family: BACS"">KTDTBCMdP</p>","","","","","","","",""
"html-keyboard-response","162","237872","0.0-9.0-0.74","5e823b35726b2a9508db127c","64afc2c9a8732ea92db0087d","64aff83e1acde521b6c30924","null","null","<p style=""font-size: 60px; font-family: BACS"">dOYmlCPMl</p>","","","","","","","",""
"html-keyboard-response","163","238888","0.0-9.0-0.75","5e823b35726b2a9508db127c","64afc2c9a8732ea92db0087d","64aff83e1acde521b6c30924","null","null","<p style=""font-size: 60px; font-family: BACS"">kGlUkJdr</p>","","","","","","","",""
"html-keyboard-response","164","239903","0.0-9.0-0.76","5e823b35726b2a9508db127c","64afc2c9a8732ea92db0087d","64aff83e1acde521b6c30924","null","null","<p style=""font-size: 60px; font-family: BACS"">krGucrdY</p>","","","","","","","",""
"html-keyboard-response","165","240919","0.0-9.0-0.77","5e823b35726b2a9508db127c","64afc2c9a8732ea92db0087d","64aff83e1acde521b6c30924","null","null","<p style=""font-size: 60px; font-family: BACS"">dOYmlCMdP</p>","","","","","","","",""
"html-keyboard-response","166","241935","0.0-9.0-0.78","5e823b35726b2a9508db127c","64afc2c9a8732ea92db0087d","64aff83e1acde521b6c30924","null","null","<p style=""font-size: 60px; font-family: BACS"">khmhYBO</p>","","","","","","","",""
"html-keyboard-response","167","242951","0.0-9.0-0.79","5e823b35726b2a9508db127c","64afc2c9a8732ea92db0087d","64aff83e1acde521b6c30924","null","null","<p style=""font-size: 60px; font-family: BACS"">RtRhYcM</p>","","","","","","","",""
"html-keyboard-response","168","245684","0.0-10.0","5e823b35726b2a9508db127c","64afc2c9a8732ea92db0087d","64aff83e1acde521b6c30924","2732"," ","<p>Ottimo, hai visto il secondo blocco di parole. Ora puoi prenderti una piccola pausa.</p>
      <p>Premi la barra quando sei pronta/o per riprendere.</p>","","","","","","","",""
"html-keyboard-response","169","246698","0.0-11.0-0.0","5e823b35726b2a9508db127c","64afc2c9a8732ea92db0087d","64aff83e1acde521b6c30924","null","null","<p style=""font-size: 60px; font-family: BACS"">LckGNkJdr</p>","","","","","","","",""
"html-keyboard-response","170","247713","0.0-11.0-0.1","5e823b35726b2a9508db127c","64afc2c9a8732ea92db0087d","64aff83e1acde521b6c30924","null","null","<p style=""font-size: 60px; font-family: BACS"">ECtbDYBO</p>","","","","","","","",""
"html-keyboard-response","171","248728","0.0-11.0-0.2","5e823b35726b2a9508db127c","64afc2c9a8732ea92db0087d","64aff83e1acde521b6c30924","null","null","<p style=""font-size: 60px; font-family: BACS"">KTDTBYcM</p>","","","","","","","",""
"html-keyboard-response","172","249743","0.0-11.0-0.3","5e823b35726b2a9508db127c","64afc2c9a8732ea92db0087d","64aff83e1acde521b6c30924","null","null","<p style=""font-size: 60px; font-family: BACS"">ECtbDkDOm</p>","","","","","","","",""
"html-keyboard-response","173","250759","0.0-11.0-0.4","5e823b35726b2a9508db127c","64afc2c9a8732ea92db0087d","64aff83e1acde521b6c30924","null","null","<p style=""font-size: 60px; font-family: BACS"">kPOtYcM</p>","","","","","","","",""
"html-keyboard-response","174","251775","0.0-11.0-0.5","5e823b35726b2a9508db127c","64afc2c9a8732ea92db0087d","64aff83e1acde521b6c30924","null","null","<p style=""font-size: 60px; font-family: BACS"">RtRhkDOm</p>","","","","","","","",""
"html-keyboard-response","175","252790","0.0-11.0-0.6","5e823b35726b2a9508db127c","64afc2c9a8732ea92db0087d","64aff83e1acde521b6c30924","null","null","<p style=""font-size: 60px; font-family: BACS"">vQdOJcUk</p>","","","","","","","",""
"html-keyboard-response","176","253806","0.0-11.0-0.7","5e823b35726b2a9508db127c","64afc2c9a8732ea92db0087d","64aff83e1acde521b6c30924","null","null","<p style=""font-size: 60px; font-family: BACS"">dTmEDCMdP</p>","","","","","","","",""
"html-keyboard-response","177","254822","0.0-11.0-0.8","5e823b35726b2a9508db127c","64afc2c9a8732ea92db0087d","64aff83e1acde521b6c30924","null","null","<p style=""font-size: 60px; font-family: BACS"">LckGNcrdY</p>","","","","","","","",""
"html-keyboard-response","178","255839","0.0-11.0-0.9","5e823b35726b2a9508db127c","64afc2c9a8732ea92db0087d","64aff83e1acde521b6c30924","null","null","<p style=""font-size: 60px; font-family: BACS"">kRCkOYcM</p>","","","","","","","",""
"html-keyboard-response","179","256854","0.0-11.0-0.10","5e823b35726b2a9508db127c","64afc2c9a8732ea92db0087d","64aff83e1acde521b6c30924","null","null","<p style=""font-size: 60px; font-family: BACS"">vQdOcrdY</p>","","","","","","","",""
"html-keyboard-response","180","257869","0.0-11.0-0.11","5e823b35726b2a9508db127c","64afc2c9a8732ea92db0087d","64aff83e1acde521b6c30924","null","null","<p style=""font-size: 60px; font-family: BACS"">kPOtCPMl</p>","","","","","","","",""
"html-keyboard-response","181","258885","0.0-11.0-0.12","5e823b35726b2a9508db127c","64afc2c9a8732ea92db0087d","64aff83e1acde521b6c30924","null","null","<p style=""font-size: 60px; font-family: BACS"">krGuJcUk</p>","","","","","","","",""
"html-keyboard-response","182","259900","0.0-11.0-0.13","5e823b35726b2a9508db127c","64afc2c9a8732ea92db0087d","64aff83e1acde521b6c30924","null","null","<p style=""font-size: 60px; font-family: BACS"">NJZlkJdr</p>","","","","","","","",""
"html-keyboard-response","183","260902","0.0-11.0-0.14","5e823b35726b2a9508db127c","64afc2c9a8732ea92db0087d","64aff83e1acde521b6c30924","null","null","<p style=""font-size: 60px; font-family: BACS"">ECtbDCPMl</p>","","","","","","","",""
"html-keyboard-response","184","261916","0.0-11.0-0.15","5e823b35726b2a9508db127c","64afc2c9a8732ea92db0087d","64aff83e1acde521b6c30924","null","null","<p style=""font-size: 60px; font-family: BACS"">kabJbJcUk</p>","","","","","","","",""
"html-keyboard-response","185","262931","0.0-11.0-0.16","5e823b35726b2a9508db127c","64afc2c9a8732ea92db0087d","64aff83e1acde521b6c30924","null","null","<p style=""font-size: 60px; font-family: BACS"">EdBbYcM</p>","","","","","","","",""
"html-keyboard-response","186","263946","0.0-11.0-0.17","5e823b35726b2a9508db127c","64afc2c9a8732ea92db0087d","64aff83e1acde521b6c30924","null","null","<p style=""font-size: 60px; font-family: BACS"">KTDTBkDOm</p>","","","","","","","",""
"html-keyboard-response","187","264948","0.0-11.0-0.18","5e823b35726b2a9508db127c","64afc2c9a8732ea92db0087d","64aff83e1acde521b6c30924","null","null","<p style=""font-size: 60px; font-family: BACS"">khmhYBO</p>","","","","","","","",""
"html-keyboard-response","188","265962","0.0-11.0-0.19","5e823b35726b2a9508db127c","64afc2c9a8732ea92db0087d","64aff83e1acde521b6c30924","null","null","<p style=""font-size: 60px; font-family: BACS"">EdBbkDOm</p>","","","","","","","",""
"html-keyboard-response","189","266978","0.0-11.0-0.20","5e823b35726b2a9508db127c","64afc2c9a8732ea92db0087d","64aff83e1acde521b6c30924","null","null","<p style=""font-size: 60px; font-family: BACS"">kPOtYBO</p>","","","","","","","",""
"html-keyboard-response","190","267993","0.0-11.0-0.21","5e823b35726b2a9508db127c","64afc2c9a8732ea92db0087d","64aff83e1acde521b6c30924","null","null","<p style=""font-size: 60px; font-family: BACS"">NJZlJcUk</p>","","","","","","","",""
"html-keyboard-response","191","269009","0.0-11.0-0.22","5e823b35726b2a9508db127c","64afc2c9a8732ea92db0087d","64aff83e1acde521b6c30924","null","null","<p style=""font-size: 60px; font-family: BACS"">tmtEMCPMl</p>","","","","","","","",""
"html-keyboard-response","192","270026","0.0-11.0-0.23","5e823b35726b2a9508db127c","64afc2c9a8732ea92db0087d","64aff83e1acde521b6c30924","null","null","<p style=""font-size: 60px; font-family: BACS"">kRCkOkDOm</p>","","","","","","","",""
"html-keyboard-response","193","271041","0.0-11.0-0.24","5e823b35726b2a9508db127c","64afc2c9a8732ea92db0087d","64aff83e1acde521b6c30924","null","null","<p style=""font-size: 60px; font-family: BACS"">ZYcQUkJdr</p>","","","","","","","",""
"html-keyboard-response","194","272055","0.0-11.0-0.25","5e823b35726b2a9508db127c","64afc2c9a8732ea92db0087d","64aff83e1acde521b6c30924","null","null","<p style=""font-size: 60px; font-family: BACS"">mkmJNJcUk</p>","","","","","","","",""
"html-keyboard-response","195","273071","0.0-11.0-0.26","5e823b35726b2a9508db127c","64afc2c9a8732ea92db0087d","64aff83e1acde521b6c30924","null","null","<p style=""font-size: 60px; font-family: BACS"">LckGNkmU</p>","","","","","","","",""
"html-keyboard-response","196","274086","0.0-11.0-0.27","5e823b35726b2a9508db127c","64afc2c9a8732ea92db0087d","64aff83e1acde521b6c30924","null","null","<p style=""font-size: 60px; font-family: BACS"">khmhYcM</p>","","","","","","","",""
"html-keyboard-response","197","275088","0.0-11.0-0.28","5e823b35726b2a9508db127c","64afc2c9a8732ea92db0087d","64aff83e1acde521b6c30924","null","null","<p style=""font-size: 60px; font-family: BACS"">kabJbcrdY</p>","","","","","","","",""
"html-keyboard-response","198","276102","0.0-11.0-0.29","5e823b35726b2a9508db127c","64afc2c9a8732ea92db0087d","64aff83e1acde521b6c30924","null","null","<p style=""font-size: 60px; font-family: BACS"">dTmEDCPMl</p>","","","","","","","",""
"html-keyboard-response","199","277119","0.0-11.0-0.30","5e823b35726b2a9508db127c","64afc2c9a8732ea92db0087d","64aff83e1acde521b6c30924","null","null","<p style=""font-size: 60px; font-family: BACS"">ZkGmYkJdr</p>","","","","","","","",""
"html-keyboard-response","200","278134","0.0-11.0-0.31","5e823b35726b2a9508db127c","64afc2c9a8732ea92db0087d","64aff83e1acde521b6c30924","null","null","<p style=""font-size: 60px; font-family: BACS"">NJZlkam</p>","","","","","","","",""
"html-keyboard-response","201","279151","0.0-11.0-0.32","5e823b35726b2a9508db127c","64afc2c9a8732ea92db0087d","64aff83e1acde521b6c30924","null","null","<p style=""font-size: 60px; font-family: BACS"">dTmEDYBO</p>","","","","","","","",""
"html-keyboard-response","202","280164","0.0-11.0-0.33","5e823b35726b2a9508db127c","64afc2c9a8732ea92db0087d","64aff83e1acde521b6c30924","null","null","<p style=""font-size: 60px; font-family: BACS"">ZkGmYkam</p>","","","","","","","",""
"html-keyboard-response","203","281181","0.0-11.0-0.34","5e823b35726b2a9508db127c","64afc2c9a8732ea92db0087d","64aff83e1acde521b6c30924","null","null","<p style=""font-size: 60px; font-family: BACS"">khmhkDOm</p>","","","","","","","",""
"html-keyboard-response","204","282196","0.0-11.0-0.35","5e823b35726b2a9508db127c","64afc2c9a8732ea92db0087d","64aff83e1acde521b6c30924","null","null","<p style=""font-size: 60px; font-family: BACS"">kabJbkmU</p>","","","","","","","",""
"html-keyboard-response","205","283198","0.0-11.0-0.36","5e823b35726b2a9508db127c","64afc2c9a8732ea92db0087d","64aff83e1acde521b6c30924","null","null","<p style=""font-size: 60px; font-family: BACS"">ZkGmYJcUk</p>","","","","","","","",""
"html-keyboard-response","206","284210","0.0-11.0-0.37","5e823b35726b2a9508db127c","64afc2c9a8732ea92db0087d","64aff83e1acde521b6c30924","null","null","<p style=""font-size: 60px; font-family: BACS"">RtRhCMdP</p>","","","","","","","",""
"html-keyboard-response","207","285211","0.0-11.0-0.38","5e823b35726b2a9508db127c","64afc2c9a8732ea92db0087d","64aff83e1acde521b6c30924","null","null","<p style=""font-size: 60px; font-family: BACS"">khmhCPMl</p>","","","","","","","",""
"html-keyboard-response","208","286226","0.0-11.0-0.39","5e823b35726b2a9508db127c","64afc2c9a8732ea92db0087d","64aff83e1acde521b6c30924","null","null","<p style=""font-size: 60px; font-family: BACS"">kGlUkmU</p>","","","","","","","",""
"html-keyboard-response","209","287241","0.0-11.0-0.40","5e823b35726b2a9508db127c","64afc2c9a8732ea92db0087d","64aff83e1acde521b6c30924","null","null","<p style=""font-size: 60px; font-family: BACS"">dOYmlCMdP</p>","","","","","","","",""
"html-keyboard-response","210","288258","0.0-11.0-0.41","5e823b35726b2a9508db127c","64afc2c9a8732ea92db0087d","64aff83e1acde521b6c30924","null","null","<p style=""font-size: 60px; font-family: BACS"">ZYcQUkam</p>","","","","","","","",""
"html-keyboard-response","211","289270","0.0-11.0-0.42","5e823b35726b2a9508db127c","64afc2c9a8732ea92db0087d","64aff83e1acde521b6c30924","null","null","<p style=""font-size: 60px; font-family: BACS"">krGucrdY</p>","","","","","","","",""
"html-keyboard-response","212","290273","0.0-11.0-0.43","5e823b35726b2a9508db127c","64afc2c9a8732ea92db0087d","64aff83e1acde521b6c30924","null","null","<p style=""font-size: 60px; font-family: BACS"">ZkGmYkmU</p>","","","","","","","",""
"html-keyboard-response","213","291289","0.0-11.0-0.44","5e823b35726b2a9508db127c","64afc2c9a8732ea92db0087d","64aff83e1acde521b6c30924","null","null","<p style=""font-size: 60px; font-family: BACS"">KTDTBCPMl</p>","","","","","","","",""
"html-keyboard-response","214","292304","0.0-11.0-0.45","5e823b35726b2a9508db127c","64afc2c9a8732ea92db0087d","64aff83e1acde521b6c30924","null","null","<p style=""font-size: 60px; font-family: BACS"">EdBbYBO</p>","","","","","","","",""
"html-keyboard-response","215","293319","0.0-11.0-0.46","5e823b35726b2a9508db127c","64afc2c9a8732ea92db0087d","64aff83e1acde521b6c30924","null","null","<p style=""font-size: 60px; font-family: BACS"">kRCkOCPMl</p>","","","","","","","",""
"html-keyboard-response","216","294321","0.0-11.0-0.47","5e823b35726b2a9508db127c","64afc2c9a8732ea92db0087d","64aff83e1acde521b6c30924","null","null","<p style=""font-size: 60px; font-family: BACS"">krGukmU</p>","","","","","","","",""
"html-keyboard-response","217","295335","0.0-11.0-0.48","5e823b35726b2a9508db127c","64afc2c9a8732ea92db0087d","64aff83e1acde521b6c30924","null","null","<p style=""font-size: 60px; font-family: BACS"">vQdOkam</p>","","","","","","","",""
"html-keyboard-response","218","296350","0.0-11.0-0.49","5e823b35726b2a9508db127c","64afc2c9a8732ea92db0087d","64aff83e1acde521b6c30924","null","null","<p style=""font-size: 60px; font-family: BACS"">LOLkUkmU</p>","","","","","","","",""
"html-keyboard-response","219","297365","0.0-11.0-0.50","5e823b35726b2a9508db127c","64afc2c9a8732ea92db0087d","64aff83e1acde521b6c30924","null","null","<p style=""font-size: 60px; font-family: BACS"">dOYmlYcM</p>","","","","","","","",""
"html-keyboard-response","220","298381","0.0-11.0-0.51","5e823b35726b2a9508db127c","64afc2c9a8732ea92db0087d","64aff83e1acde521b6c30924","null","null","<p style=""font-size: 60px; font-family: BACS"">kGlUcrdY</p>","","","","","","","",""
"html-keyboard-response","221","299383","0.0-11.0-0.52","5e823b35726b2a9508db127c","64afc2c9a8732ea92db0087d","64aff83e1acde521b6c30924","null","null","<p style=""font-size: 60px; font-family: BACS"">dOYmlYBO</p>","","","","","","","",""
"html-keyboard-response","222","300395","0.0-11.0-0.53","5e823b35726b2a9508db127c","64afc2c9a8732ea92db0087d","64aff83e1acde521b6c30924","null","null","<p style=""font-size: 60px; font-family: BACS"">NJZlcrdY</p>","","","","","","","",""
"html-keyboard-response","223","301396","0.0-11.0-0.54","5e823b35726b2a9508db127c","64afc2c9a8732ea92db0087d","64aff83e1acde521b6c30924","null","null","<p style=""font-size: 60px; font-family: BACS"">RtRhYcM</p>","","","","","","","",""
"html-keyboard-response","224","302410","0.0-11.0-0.55","5e823b35726b2a9508db127c","64afc2c9a8732ea92db0087d","64aff83e1acde521b6c30924","null","null","<p style=""font-size: 60px; font-family: BACS"">kabJbkJdr</p>","","","","","","","",""
"html-keyboard-response","225","303426","0.0-11.0-0.56","5e823b35726b2a9508db127c","64afc2c9a8732ea92db0087d","64aff83e1acde521b6c30924","null","null","<p style=""font-size: 60px; font-family: BACS"">kGlUkam</p>","","","","","","","",""
"html-keyboard-response","226","304441","0.0-11.0-0.57","5e823b35726b2a9508db127c","64afc2c9a8732ea92db0087d","64aff83e1acde521b6c30924","null","null","<p style=""font-size: 60px; font-family: BACS"">kPOtkDOm</p>","","","","","","","",""
"html-keyboard-response","227","305443","0.0-11.0-0.58","5e823b35726b2a9508db127c","64afc2c9a8732ea92db0087d","64aff83e1acde521b6c30924","null","null","<p style=""font-size: 60px; font-family: BACS"">LOLkUJcUk</p>","","","","","","","",""
"html-keyboard-response","228","306457","0.0-11.0-0.59","5e823b35726b2a9508db127c","64afc2c9a8732ea92db0087d","64aff83e1acde521b6c30924","null","null","<p style=""font-size: 60px; font-family: BACS"">ECtbDCMdP</p>","","","","","","","",""
"html-keyboard-response","229","307474","0.0-11.0-0.60","5e823b35726b2a9508db127c","64afc2c9a8732ea92db0087d","64aff83e1acde521b6c30924","null","null","<p style=""font-size: 60px; font-family: BACS"">tmtEMkDOm</p>","","","","","","","",""
"html-keyboard-response","230","308488","0.0-11.0-0.61","5e823b35726b2a9508db127c","64afc2c9a8732ea92db0087d","64aff83e1acde521b6c30924","null","null","<p style=""font-size: 60px; font-family: BACS"">kRCkOCMdP</p>","","","","","","","",""
"html-keyboard-response","231","309489","0.0-11.0-0.62","5e823b35726b2a9508db127c","64afc2c9a8732ea92db0087d","64aff83e1acde521b6c30924","null","null","<p style=""font-size: 60px; font-family: BACS"">dTmEDYcM</p>","","","","","","","",""
"html-keyboard-response","232","310504","0.0-11.0-0.63","5e823b35726b2a9508db127c","64afc2c9a8732ea92db0087d","64aff83e1acde521b6c30924","null","null","<p style=""font-size: 60px; font-family: BACS"">LOLkUkam</p>","","","","","","","",""
"html-keyboard-response","233","311519","0.0-11.0-0.64","5e823b35726b2a9508db127c","64afc2c9a8732ea92db0087d","64aff83e1acde521b6c30924","null","null","<p style=""font-size: 60px; font-family: BACS"">vQdOkJdr</p>","","","","","","","",""
"html-keyboard-response","234","312534","0.0-11.0-0.65","5e823b35726b2a9508db127c","64afc2c9a8732ea92db0087d","64aff83e1acde521b6c30924","null","null","<p style=""font-size: 60px; font-family: BACS"">tmtEMCMdP</p>","","","","","","","",""
"html-keyboard-response","235","313550","0.0-11.0-0.66","5e823b35726b2a9508db127c","64afc2c9a8732ea92db0087d","64aff83e1acde521b6c30924","null","null","<p style=""font-size: 60px; font-family: BACS"">LOLkUcrdY</p>","","","","","","","",""
"html-keyboard-response","236","314565","0.0-11.0-0.67","5e823b35726b2a9508db127c","64afc2c9a8732ea92db0087d","64aff83e1acde521b6c30924","null","null","<p style=""font-size: 60px; font-family: BACS"">mkmJNkmU</p>","","","","","","","",""
"html-keyboard-response","237","315581","0.0-11.0-0.68","5e823b35726b2a9508db127c","64afc2c9a8732ea92db0087d","64aff83e1acde521b6c30924","null","null","<p style=""font-size: 60px; font-family: BACS"">KTDTBCMdP</p>","","","","","","","",""
"html-keyboard-response","238","316596","0.0-11.0-0.69","5e823b35726b2a9508db127c","64afc2c9a8732ea92db0087d","64aff83e1acde521b6c30924","null","null","<p style=""font-size: 60px; font-family: BACS"">ZYcQUkmU</p>","","","","","","","",""
"html-keyboard-response","239","317598","0.0-11.0-0.70","5e823b35726b2a9508db127c","64afc2c9a8732ea92db0087d","64aff83e1acde521b6c30924","null","null","<p style=""font-size: 60px; font-family: BACS"">RtRhYBO</p>","","","","","","","",""
"html-keyboard-response","240","318611","0.0-11.0-0.71","5e823b35726b2a9508db127c","64afc2c9a8732ea92db0087d","64aff83e1acde521b6c30924","null","null","<p style=""font-size: 60px; font-family: BACS"">dOYmlCPMl</p>","","","","","","","",""
"html-keyboard-response","241","319612","0.0-11.0-0.72","5e823b35726b2a9508db127c","64afc2c9a8732ea92db0087d","64aff83e1acde521b6c30924","null","null","<p style=""font-size: 60px; font-family: BACS"">mkmJNcrdY</p>","","","","","","","",""
"html-keyboard-response","242","320628","0.0-11.0-0.73","5e823b35726b2a9508db127c","64afc2c9a8732ea92db0087d","64aff83e1acde521b6c30924","null","null","<p style=""font-size: 60px; font-family: BACS"">tmtEMYBO</p>","","","","","","","",""
"html-keyboard-response","243","321644","0.0-11.0-0.74","5e823b35726b2a9508db127c","64afc2c9a8732ea92db0087d","64aff83e1acde521b6c30924","null","null","<p style=""font-size: 60px; font-family: BACS"">mkmJNkJdr</p>","","","","","","","",""
"html-keyboard-response","244","322659","0.0-11.0-0.75","5e823b35726b2a9508db127c","64afc2c9a8732ea92db0087d","64aff83e1acde521b6c30924","null","null","<p style=""font-size: 60px; font-family: BACS"">ZYcQUJcUk</p>","","","","","","","",""
"html-keyboard-response","245","323675","0.0-11.0-0.76","5e823b35726b2a9508db127c","64afc2c9a8732ea92db0087d","64aff83e1acde521b6c30924","null","null","<p style=""font-size: 60px; font-family: BACS"">krGukam</p>","","","","","","","",""
"html-keyboard-response","246","324691","0.0-11.0-0.77","5e823b35726b2a9508db127c","64afc2c9a8732ea92db0087d","64aff83e1acde521b6c30924","null","null","<p style=""font-size: 60px; font-family: BACS"">kGlUkJdr</p>","","","","","","","",""
"html-keyboard-response","247","325704","0.0-11.0-0.78","5e823b35726b2a9508db127c","64afc2c9a8732ea92db0087d","64aff83e1acde521b6c30924","null","null","<p style=""font-size: 60px; font-family: BACS"">LckGNkam</p>","","","","","","","",""
"html-keyboard-response","248","326707","0.0-11.0-0.79","5e823b35726b2a9508db127c","64afc2c9a8732ea92db0087d","64aff83e1acde521b6c30924","null","null","<p style=""font-size: 60px; font-family: BACS"">EdBbCMdP</p>","","","","","","","",""
"html-keyboard-response","249","328664","0.0-12.0","5e823b35726b2a9508db127c","64afc2c9a8732ea92db0087d","64aff83e1acde521b6c30924","1957"," ","<p>Ottimo, hai visto il terzo blocco di parole. Ora puoi prenderti una piccola pausa.</p>
      <p>Premi la barra quando sei pronta/o per riprendere.</p>","","","","","","","",""
"html-keyboard-response","250","329670","0.0-13.0-0.0","5e823b35726b2a9508db127c","64afc2c9a8732ea92db0087d","64aff83e1acde521b6c30924","null","null","<p style=""font-size: 60px; font-family: BACS"">kRCkOkDOm</p>","","","","","","","",""
"html-keyboard-response","251","330684","0.0-13.0-0.1","5e823b35726b2a9508db127c","64afc2c9a8732ea92db0087d","64aff83e1acde521b6c30924","null","null","<p style=""font-size: 60px; font-family: BACS"">NJZlkJdr</p>","","","","","","","",""
"html-keyboard-response","252","331700","0.0-13.0-0.2","5e823b35726b2a9508db127c","64afc2c9a8732ea92db0087d","64aff83e1acde521b6c30924","null","null","<p style=""font-size: 60px; font-family: BACS"">mkmJNJcUk</p>","","","","","","","",""
"html-keyboard-response","253","332714","0.0-13.0-0.3","5e823b35726b2a9508db127c","64afc2c9a8732ea92db0087d","64aff83e1acde521b6c30924","null","null","<p style=""font-size: 60px; font-family: BACS"">kPOtYBO</p>","","","","","","","",""
"html-keyboard-response","254","333731","0.0-13.0-0.4","5e823b35726b2a9508db127c","64afc2c9a8732ea92db0087d","64aff83e1acde521b6c30924","null","null","<p style=""font-size: 60px; font-family: BACS"">KTDTBCMdP</p>","","","","","","","",""
"html-keyboard-response","255","334748","0.0-13.0-0.5","5e823b35726b2a9508db127c","64afc2c9a8732ea92db0087d","64aff83e1acde521b6c30924","null","null","<p style=""font-size: 60px; font-family: BACS"">EdBbkDOm</p>","","","","","","","",""
"html-keyboard-response","256","335762","0.0-13.0-0.6","5e823b35726b2a9508db127c","64afc2c9a8732ea92db0087d","64aff83e1acde521b6c30924","null","null","<p style=""font-size: 60px; font-family: BACS"">LOLkUkmU</p>","","","","","","","",""
"html-keyboard-response","257","336766","0.0-13.0-0.7","5e823b35726b2a9508db127c","64afc2c9a8732ea92db0087d","64aff83e1acde521b6c30924","null","null","<p style=""font-size: 60px; font-family: BACS"">NJZlcrdY</p>","","","","","","","",""
"html-keyboard-response","258","337777","0.0-13.0-0.8","5e823b35726b2a9508db127c","64afc2c9a8732ea92db0087d","64aff83e1acde521b6c30924","null","null","<p style=""font-size: 60px; font-family: BACS"">vQdOJcUk</p>","","","","","","","",""
"html-keyboard-response","259","338792","0.0-13.0-0.9","5e823b35726b2a9508db127c","64afc2c9a8732ea92db0087d","64aff83e1acde521b6c30924","null","null","<p style=""font-size: 60px; font-family: BACS"">dTmEDCPMl</p>","","","","","","","",""
"html-keyboard-response","260","339794","0.0-13.0-0.10","5e823b35726b2a9508db127c","64afc2c9a8732ea92db0087d","64aff83e1acde521b6c30924","null","null","<p style=""font-size: 60px; font-family: BACS"">KTDTBYcM</p>","","","","","","","",""
"html-keyboard-response","261","340809","0.0-13.0-0.11","5e823b35726b2a9508db127c","64afc2c9a8732ea92db0087d","64aff83e1acde521b6c30924","null","null","<p style=""font-size: 60px; font-family: BACS"">krGukam</p>","","","","","","","",""
"html-keyboard-response","262","341823","0.0-13.0-0.12","5e823b35726b2a9508db127c","64afc2c9a8732ea92db0087d","64aff83e1acde521b6c30924","null","null","<p style=""font-size: 60px; font-family: BACS"">kPOtYcM</p>","","","","","","","",""
"html-keyboard-response","263","342839","0.0-13.0-0.13","5e823b35726b2a9508db127c","64afc2c9a8732ea92db0087d","64aff83e1acde521b6c30924","null","null","<p style=""font-size: 60px; font-family: BACS"">ZYcQUkmU</p>","","","","","","","",""
"html-keyboard-response","264","343854","0.0-13.0-0.14","5e823b35726b2a9508db127c","64afc2c9a8732ea92db0087d","64aff83e1acde521b6c30924","null","null","<p style=""font-size: 60px; font-family: BACS"">KTDTBCPMl</p>","","","","","","","",""
"html-keyboard-response","265","344870","0.0-13.0-0.15","5e823b35726b2a9508db127c","64afc2c9a8732ea92db0087d","64aff83e1acde521b6c30924","null","null","<p style=""font-size: 60px; font-family: BACS"">LOLkUkam</p>","","","","","","","",""
"html-keyboard-response","266","345886","0.0-13.0-0.16","5e823b35726b2a9508db127c","64afc2c9a8732ea92db0087d","64aff83e1acde521b6c30924","null","null","<p style=""font-size: 60px; font-family: BACS"">kPOtCPMl</p>","","","","","","","",""
"html-keyboard-response","267","346903","0.0-13.0-0.17","5e823b35726b2a9508db127c","64afc2c9a8732ea92db0087d","64aff83e1acde521b6c30924","null","null","<p style=""font-size: 60px; font-family: BACS"">dOYmlYBO</p>","","","","","","","",""
"html-keyboard-response","268","347918","0.0-13.0-0.18","5e823b35726b2a9508db127c","64afc2c9a8732ea92db0087d","64aff83e1acde521b6c30924","null","null","<p style=""font-size: 60px; font-family: BACS"">krGukmU</p>","","","","","","","",""
"html-keyboard-response","269","348935","0.0-13.0-0.19","5e823b35726b2a9508db127c","64afc2c9a8732ea92db0087d","64aff83e1acde521b6c30924","null","null","<p style=""font-size: 60px; font-family: BACS"">EdBbYBO</p>","","","","","","","",""
"html-keyboard-response","270","349949","0.0-13.0-0.20","5e823b35726b2a9508db127c","64afc2c9a8732ea92db0087d","64aff83e1acde521b6c30924","null","null","<p style=""font-size: 60px; font-family: BACS"">tmtEMCMdP</p>","","","","","","","",""
"html-keyboard-response","271","350966","0.0-13.0-0.21","5e823b35726b2a9508db127c","64afc2c9a8732ea92db0087d","64aff83e1acde521b6c30924","null","null","<p style=""font-size: 60px; font-family: BACS"">khmhYBO</p>","","","","","","","",""
"html-keyboard-response","272","351979","0.0-13.0-0.22","5e823b35726b2a9508db127c","64afc2c9a8732ea92db0087d","64aff83e1acde521b6c30924","null","null","<p style=""font-size: 60px; font-family: BACS"">ZYcQUkam</p>","","","","","","","",""
"html-keyboard-response","273","352996","0.0-13.0-0.23","5e823b35726b2a9508db127c","64afc2c9a8732ea92db0087d","64aff83e1acde521b6c30924","null","null","<p style=""font-size: 60px; font-family: BACS"">kabJbcrdY</p>","","","","","","","",""
"html-keyboard-response","274","353997","0.0-13.0-0.24","5e823b35726b2a9508db127c","64afc2c9a8732ea92db0087d","64aff83e1acde521b6c30924","null","null","<p style=""font-size: 60px; font-family: BACS"">NJZlJcUk</p>","","","","","","","",""
"html-keyboard-response","275","355012","0.0-13.0-0.25","5e823b35726b2a9508db127c","64afc2c9a8732ea92db0087d","64aff83e1acde521b6c30924","null","null","<p style=""font-size: 60px; font-family: BACS"">mkmJNkJdr</p>","","","","","","","",""
"html-keyboard-response","276","356027","0.0-13.0-0.26","5e823b35726b2a9508db127c","64afc2c9a8732ea92db0087d","64aff83e1acde521b6c30924","null","null","<p style=""font-size: 60px; font-family: BACS"">tmtEMkDOm</p>","","","","","","","",""
"html-keyboard-response","277","357043","0.0-13.0-0.27","5e823b35726b2a9508db127c","64afc2c9a8732ea92db0087d","64aff83e1acde521b6c30924","null","null","<p style=""font-size: 60px; font-family: BACS"">dTmEDYBO</p>","","","","","","","",""
"html-keyboard-response","278","358059","0.0-13.0-0.28","5e823b35726b2a9508db127c","64afc2c9a8732ea92db0087d","64aff83e1acde521b6c30924","null","null","<p style=""font-size: 60px; font-family: BACS"">EdBbCMdP</p>","","","","","","","",""
"html-keyboard-response","279","359075","0.0-13.0-0.29","5e823b35726b2a9508db127c","64afc2c9a8732ea92db0087d","64aff83e1acde521b6c30924","null","null","<p style=""font-size: 60px; font-family: BACS"">RtRhYcM</p>","","","","","","","",""
"html-keyboard-response","280","360091","0.0-13.0-0.30","5e823b35726b2a9508db127c","64afc2c9a8732ea92db0087d","64aff83e1acde521b6c30924","null","null","<p style=""font-size: 60px; font-family: BACS"">tmtEMCPMl</p>","","","","","","","",""
"html-keyboard-response","281","361106","0.0-13.0-0.31","5e823b35726b2a9508db127c","64afc2c9a8732ea92db0087d","64aff83e1acde521b6c30924","null","null","<p style=""font-size: 60px; font-family: BACS"">mkmJNcrdY</p>","","","","","","","",""
"html-keyboard-response","282","362121","0.0-13.0-0.32","5e823b35726b2a9508db127c","64afc2c9a8732ea92db0087d","64aff83e1acde521b6c30924","null","null","<p style=""font-size: 60px; font-family: BACS"">ZkGmYkam</p>","","","","","","","",""
"html-keyboard-response","283","363137","0.0-13.0-0.33","5e823b35726b2a9508db127c","64afc2c9a8732ea92db0087d","64aff83e1acde521b6c30924","null","null","<p style=""font-size: 60px; font-family: BACS"">kRCkOCPMl</p>","","","","","","","",""
"html-keyboard-response","284","364153","0.0-13.0-0.34","5e823b35726b2a9508db127c","64afc2c9a8732ea92db0087d","64aff83e1acde521b6c30924","null","null","<p style=""font-size: 60px; font-family: BACS"">vQdOkJdr</p>","","","","","","","",""
"html-keyboard-response","285","365169","0.0-13.0-0.35","5e823b35726b2a9508db127c","64afc2c9a8732ea92db0087d","64aff83e1acde521b6c30924","null","null","<p style=""font-size: 60px; font-family: BACS"">dTmEDCMdP</p>","","","","","","","",""
"html-keyboard-response","286","366184","0.0-13.0-0.36","5e823b35726b2a9508db127c","64afc2c9a8732ea92db0087d","64aff83e1acde521b6c30924","null","null","<p style=""font-size: 60px; font-family: BACS"">ZYcQUJcUk</p>","","","","","","","",""
"html-keyboard-response","287","367200","0.0-13.0-0.37","5e823b35726b2a9508db127c","64afc2c9a8732ea92db0087d","64aff83e1acde521b6c30924","null","null","<p style=""font-size: 60px; font-family: BACS"">kGlUkam</p>","","","","","","","",""
"html-keyboard-response","288","368215","0.0-13.0-0.38","5e823b35726b2a9508db127c","64afc2c9a8732ea92db0087d","64aff83e1acde521b6c30924","null","null","<p style=""font-size: 60px; font-family: BACS"">LckGNkmU</p>","","","","","","","",""
"html-keyboard-response","289","369231","0.0-13.0-0.39","5e823b35726b2a9508db127c","64afc2c9a8732ea92db0087d","64aff83e1acde521b6c30924","null","null","<p style=""font-size: 60px; font-family: BACS"">vQdOcrdY</p>","","","","","","","",""
"html-keyboard-response","290","370246","0.0-13.0-0.40","5e823b35726b2a9508db127c","64afc2c9a8732ea92db0087d","64aff83e1acde521b6c30924","null","null","<p style=""font-size: 60px; font-family: BACS"">LckGNkJdr</p>","","","","","","","",""
"html-keyboard-response","291","371262","0.0-13.0-0.41","5e823b35726b2a9508db127c","64afc2c9a8732ea92db0087d","64aff83e1acde521b6c30924","null","null","<p style=""font-size: 60px; font-family: BACS"">ECtbDkDOm</p>","","","","","","","",""
"html-keyboard-response","292","372264","0.0-13.0-0.42","5e823b35726b2a9508db127c","64afc2c9a8732ea92db0087d","64aff83e1acde521b6c30924","null","null","<p style=""font-size: 60px; font-family: BACS"">khmhCPMl</p>","","","","","","","",""
"html-keyboard-response","293","373276","0.0-13.0-0.43","5e823b35726b2a9508db127c","64afc2c9a8732ea92db0087d","64aff83e1acde521b6c30924","null","null","<p style=""font-size: 60px; font-family: BACS"">vQdOkam</p>","","","","","","","",""
"html-keyboard-response","294","374292","0.0-13.0-0.44","5e823b35726b2a9508db127c","64afc2c9a8732ea92db0087d","64aff83e1acde521b6c30924","null","null","<p style=""font-size: 60px; font-family: BACS"">kabJbkmU</p>","","","","","","","",""
"html-keyboard-response","295","375308","0.0-13.0-0.45","5e823b35726b2a9508db127c","64afc2c9a8732ea92db0087d","64aff83e1acde521b6c30924","null","null","<p style=""font-size: 60px; font-family: BACS"">krGucrdY</p>","","","","","","","",""
"html-keyboard-response","296","376324","0.0-13.0-0.46","5e823b35726b2a9508db127c","64afc2c9a8732ea92db0087d","64aff83e1acde521b6c30924","null","null","<p style=""font-size: 60px; font-family: BACS"">ECtbDCMdP</p>","","","","","","","",""
"html-keyboard-response","297","377341","0.0-13.0-0.47","5e823b35726b2a9508db127c","64afc2c9a8732ea92db0087d","64aff83e1acde521b6c30924","null","null","<p style=""font-size: 60px; font-family: BACS"">mkmJNkmU</p>","","","","","","","",""
"html-keyboard-response","298","378355","0.0-13.0-0.48","5e823b35726b2a9508db127c","64afc2c9a8732ea92db0087d","64aff83e1acde521b6c30924","null","null","<p style=""font-size: 60px; font-family: BACS"">dOYmlCPMl</p>","","","","","","","",""
"html-keyboard-response","299","379370","0.0-13.0-0.49","5e823b35726b2a9508db127c","64afc2c9a8732ea92db0087d","64aff83e1acde521b6c30924","null","null","<p style=""font-size: 60px; font-family: BACS"">ZkGmYJcUk</p>","","","","","","","",""
"html-keyboard-response","300","380387","0.0-13.0-0.50","5e823b35726b2a9508db127c","64afc2c9a8732ea92db0087d","64aff83e1acde521b6c30924","null","null","<p style=""font-size: 60px; font-family: BACS"">tmtEMYBO</p>","","","","","","","",""
"html-keyboard-response","301","381403","0.0-13.0-0.51","5e823b35726b2a9508db127c","64afc2c9a8732ea92db0087d","64aff83e1acde521b6c30924","null","null","<p style=""font-size: 60px; font-family: BACS"">NJZlkam</p>","","","","","","","",""
"html-keyboard-response","302","382418","0.0-13.0-0.52","5e823b35726b2a9508db127c","64afc2c9a8732ea92db0087d","64aff83e1acde521b6c30924","null","null","<p style=""font-size: 60px; font-family: BACS"">ZkGmYkmU</p>","","","","","","","",""
"html-keyboard-response","303","383434","0.0-13.0-0.53","5e823b35726b2a9508db127c","64afc2c9a8732ea92db0087d","64aff83e1acde521b6c30924","null","null","<p style=""font-size: 60px; font-family: BACS"">RtRhYBO</p>","","","","","","","",""
"html-keyboard-response","304","384449","0.0-13.0-0.54","5e823b35726b2a9508db127c","64afc2c9a8732ea92db0087d","64aff83e1acde521b6c30924","null","null","<p style=""font-size: 60px; font-family: BACS"">dTmEDYcM</p>","","","","","","","",""
"html-keyboard-response","305","385463","0.0-13.0-0.55","5e823b35726b2a9508db127c","64afc2c9a8732ea92db0087d","64aff83e1acde521b6c30924","null","null","<p style=""font-size: 60px; font-family: BACS"">RtRhCMdP</p>","","","","","","","",""
"html-keyboard-response","306","386481","0.0-13.0-0.56","5e823b35726b2a9508db127c","64afc2c9a8732ea92db0087d","64aff83e1acde521b6c30924","null","null","<p style=""font-size: 60px; font-family: BACS"">EdBbYcM</p>","","","","","","","",""
"html-keyboard-response","307","387481","0.0-13.0-0.57","5e823b35726b2a9508db127c","64afc2c9a8732ea92db0087d","64aff83e1acde521b6c30924","null","null","<p style=""font-size: 60px; font-family: BACS"">LOLkUJcUk</p>","","","","","","","",""
"html-keyboard-response","308","388483","0.0-13.0-0.58","5e823b35726b2a9508db127c","64afc2c9a8732ea92db0087d","64aff83e1acde521b6c30924","null","null","<p style=""font-size: 60px; font-family: BACS"">khmhkDOm</p>","","","","","","","",""
"html-keyboard-response","309","389496","0.0-13.0-0.59","5e823b35726b2a9508db127c","64afc2c9a8732ea92db0087d","64aff83e1acde521b6c30924","null","null","<p style=""font-size: 60px; font-family: BACS"">dOYmlYcM</p>","","","","","","","",""
"html-keyboard-response","310","390509","0.0-13.0-0.60","5e823b35726b2a9508db127c","64afc2c9a8732ea92db0087d","64aff83e1acde521b6c30924","null","null","<p style=""font-size: 60px; font-family: BACS"">LOLkUcrdY</p>","","","","","","","",""
"html-keyboard-response","311","391525","0.0-13.0-0.61","5e823b35726b2a9508db127c","64afc2c9a8732ea92db0087d","64aff83e1acde521b6c30924","null","null","<p style=""font-size: 60px; font-family: BACS"">KTDTBkDOm</p>","","","","","","","",""
"html-keyboard-response","312","392541","0.0-13.0-0.62","5e823b35726b2a9508db127c","64afc2c9a8732ea92db0087d","64aff83e1acde521b6c30924","null","null","<p style=""font-size: 60px; font-family: BACS"">kabJbkJdr</p>","","","","","","","",""
"html-keyboard-response","313","393558","0.0-13.0-0.63","5e823b35726b2a9508db127c","64afc2c9a8732ea92db0087d","64aff83e1acde521b6c30924","null","null","<p style=""font-size: 60px; font-family: BACS"">ECtbDCPMl</p>","","","","","","","",""
"html-keyboard-response","314","394573","0.0-13.0-0.64","5e823b35726b2a9508db127c","64afc2c9a8732ea92db0087d","64aff83e1acde521b6c30924","null","null","<p style=""font-size: 60px; font-family: BACS"">khmhYcM</p>","","","","","","","",""
"html-keyboard-response","315","395589","0.0-13.0-0.65","5e823b35726b2a9508db127c","64afc2c9a8732ea92db0087d","64aff83e1acde521b6c30924","null","null","<p style=""font-size: 60px; font-family: BACS"">kabJbJcUk</p>","","","","","","","",""
"html-keyboard-response","316","396604","0.0-13.0-0.66","5e823b35726b2a9508db127c","64afc2c9a8732ea92db0087d","64aff83e1acde521b6c30924","null","null","<p style=""font-size: 60px; font-family: BACS"">ZYcQUkJdr</p>","","","","","","","",""
"html-keyboard-response","317","397619","0.0-13.0-0.67","5e823b35726b2a9508db127c","64afc2c9a8732ea92db0087d","64aff83e1acde521b6c30924","null","null","<p style=""font-size: 60px; font-family: BACS"">LckGNcrdY</p>","","","","","","","",""
"html-keyboard-response","318","398635","0.0-13.0-0.68","5e823b35726b2a9508db127c","64afc2c9a8732ea92db0087d","64aff83e1acde521b6c30924","null","null","<p style=""font-size: 60px; font-family: BACS"">kPOtkDOm</p>","","","","","","","",""
"html-keyboard-response","319","399636","0.0-13.0-0.69","5e823b35726b2a9508db127c","64afc2c9a8732ea92db0087d","64aff83e1acde521b6c30924","null","null","<p style=""font-size: 60px; font-family: BACS"">ECtbDYBO</p>","","","","","","","",""
"html-keyboard-response","320","400652","0.0-13.0-0.70","5e823b35726b2a9508db127c","64afc2c9a8732ea92db0087d","64aff83e1acde521b6c30924","null","null","<p style=""font-size: 60px; font-family: BACS"">kGlUkJdr</p>","","","","","","","",""
"html-keyboard-response","321","401666","0.0-13.0-0.71","5e823b35726b2a9508db127c","64afc2c9a8732ea92db0087d","64aff83e1acde521b6c30924","null","null","<p style=""font-size: 60px; font-family: BACS"">krGuJcUk</p>","","","","","","","",""
"html-keyboard-response","322","402667","0.0-13.0-0.72","5e823b35726b2a9508db127c","64afc2c9a8732ea92db0087d","64aff83e1acde521b6c30924","null","null","<p style=""font-size: 60px; font-family: BACS"">dOYmlCMdP</p>","","","","","","","",""
"html-keyboard-response","323","403680","0.0-13.0-0.73","5e823b35726b2a9508db127c","64afc2c9a8732ea92db0087d","64aff83e1acde521b6c30924","null","null","<p style=""font-size: 60px; font-family: BACS"">kRCkOYcM</p>","","","","","","","",""
"html-keyboard-response","324","404682","0.0-13.0-0.74","5e823b35726b2a9508db127c","64afc2c9a8732ea92db0087d","64aff83e1acde521b6c30924","null","null","<p style=""font-size: 60px; font-family: BACS"">RtRhkDOm</p>","","","","","","","",""
"html-keyboard-response","325","405688","0.0-13.0-0.75","5e823b35726b2a9508db127c","64afc2c9a8732ea92db0087d","64aff83e1acde521b6c30924","null","null","<p style=""font-size: 60px; font-family: BACS"">LckGNkam</p>","","","","","","","",""
"html-keyboard-response","326","406695","0.0-13.0-0.76","5e823b35726b2a9508db127c","64afc2c9a8732ea92db0087d","64aff83e1acde521b6c30924","null","null","<p style=""font-size: 60px; font-family: BACS"">kGlUcrdY</p>","","","","","","","",""
"html-keyboard-response","327","407712","0.0-13.0-0.77","5e823b35726b2a9508db127c","64afc2c9a8732ea92db0087d","64aff83e1acde521b6c30924","null","null","<p style=""font-size: 60px; font-family: BACS"">kRCkOCMdP</p>","","","","","","","",""
"html-keyboard-response","328","408726","0.0-13.0-0.78","5e823b35726b2a9508db127c","64afc2c9a8732ea92db0087d","64aff83e1acde521b6c30924","null","null","<p style=""font-size: 60px; font-family: BACS"">ZkGmYkJdr</p>","","","","","","","",""
"html-keyboard-response","329","409742","0.0-13.0-0.79","5e823b35726b2a9508db127c","64afc2c9a8732ea92db0087d","64aff83e1acde521b6c30924","null","null","<p style=""font-size: 60px; font-family: BACS"">kGlUkmU</p>","","","","","","","",""
"html-keyboard-response","330","412932","0.0-14.0","5e823b35726b2a9508db127c","64afc2c9a8732ea92db0087d","64aff83e1acde521b6c30924","3190"," ","<p>Ottimo! Hai visto tutte le parole che abbiamo ricevuto dallo spazio.</p>
      <p>Premi la barra quando sei pronta/o per continuare.</p>","","","","","","","",""
"html-keyboard-response","331","446051","0.0-15.0","5e823b35726b2a9508db127c","64afc2c9a8732ea92db0087d","64aff83e1acde521b6c30924","33117"," ","<p>In questa seconda parte, vedrai delle nuove parole che abbiamo ricevuto dallo stesso gruppo di alieni, e altre che invece provengono da un'altra comunicazione, con un altro gruppo di alieni. Purtroppo le due comunicazioni non arrivano a noi separatamente, per cui le parole sono mescolate tra loro. Il tuo compito sarà quello di individuare le parole che provengono dal gruppo che hai studiato nella prima parte dell'esperimento.</p>
      <p>Questo compito non è per nulla facile; le due comunicazioni infatti usano gli stessi caratteri. Il tuo meeting con i leader mondiali inizia tra poco, per cui non avrai molto tempo per prendere la tua decisione; dovrai essere veloce. Cerca di fare del tuo meglio usando la tua intuizione; non hai tempo di stare a pensare a lungo su ogni singola parola.</p>
      <p>Premi <strong>k</strong> quando pensi che la parola che stai vedendo sia degli stessi alieni che hai studiato prima, e <strong>d</strong> quando invece pensi che la parola che stai vedendo venga dall'altra comunicazione, con il nuovo gruppo di alieni.</p><p>Premi la barra quando sei pronta/o per iniziare.</p>","","","","","","","",""
"html-keyboard-response","332","449312","0.0-16.0-0.0","5e823b35726b2a9508db127c","64afc2c9a8732ea92db0087d","64aff83e1acde521b6c30924","3260","d","<p style=""font-size: 30px;"">La parola viene del gruppo di alieni che hai studiato prima?</p><br><p style=""font-size: 60px; font-family: BACS"">ECtbDYcM<p style=""font-size: 15px"">Premi <strong>k</strong> per sì, <strong>d</strong> per no.</p>","","ECtbDYcM","testing","k","false","","",""
"html-keyboard-response","333","452201","0.0-16.0-1.0-0.0","5e823b35726b2a9508db127c","64afc2c9a8732ea92db0087d","64aff83e1acde521b6c30924","2887"," ","<p style=""font-size: 30px; color: red"">Attenzione! Sei stato troppo lento con questa parola.</p>
      <p style=""font-size: 30px; color: red"">Cerca di essere più veloce.</p><p></p><p>Premi la barra per continuare.</p>","","","","","","","",""
"html-keyboard-response","334","453243","0.0-16.0-0.1","5e823b35726b2a9508db127c","64afc2c9a8732ea92db0087d","64aff83e1acde521b6c30924","1041","d","<p style=""font-size: 30px;"">La parola viene del gruppo di alieni che hai studiato prima?</p><br><p style=""font-size: 60px; font-family: BACS"">khmhkJdr<p style=""font-size: 15px"">Premi <strong>k</strong> per sì, <strong>d</strong> per no.</p>","","khmhkJdr","testing","d","true","","",""
"html-keyboard-response","335","454467","0.0-16.0-0.2","5e823b35726b2a9508db127c","64afc2c9a8732ea92db0087d","64aff83e1acde521b6c30924","1223","k","<p style=""font-size: 30px;"">La parola viene del gruppo di alieni che hai studiato prima?</p><br><p style=""font-size: 60px; font-family: BACS"">KTDTBYBO<p style=""font-size: 15px"">Premi <strong>k</strong> per sì, <strong>d</strong> per no.</p>","","KTDTBYBO","testing","k","true","","",""
"html-keyboard-response","336","455618","0.0-16.0-0.3","5e823b35726b2a9508db127c","64afc2c9a8732ea92db0087d","64aff83e1acde521b6c30924","1150","k","<p style=""font-size: 30px"">&emsp;</p><br><p style=""font-size: 60px; font-family: BACS"">RtRhcrdY<p style=""font-size: 15px"">Premi <strong>k</strong> per sì, <strong>d</strong> per no.</p>","","RtRhcrdY","testing","d","false","","",""
"html-keyboard-response","337","456982","0.0-16.0-0.4","5e823b35726b2a9508db127c","64afc2c9a8732ea92db0087d","64aff83e1acde521b6c30924","1363","k","<p style=""font-size: 30px"">&emsp;</p><br><p style=""font-size: 60px; font-family: BACS"">LOLkUkJdr<p style=""font-size: 15px"">Premi <strong>k</strong> per sì, <strong>d</strong> per no.</p>","","LOLkUkJdr","testing","k","true","","",""
"html-keyboard-response","338","457881","0.0-16.0-0.5","5e823b35726b2a9508db127c","64afc2c9a8732ea92db0087d","64aff83e1acde521b6c30924","898","d","<p style=""font-size: 30px"">&emsp;</p><br><p style=""font-size: 60px; font-family: BACS"">ZYcQUCPMl<p style=""font-size: 15px"">Premi <strong>k</strong> per sì, <strong>d</strong> per no.</p>","","ZYcQUCPMl","testing","d","true","","",""
"html-keyboard-response","339","459003","0.0-16.0-0.6","5e823b35726b2a9508db127c","64afc2c9a8732ea92db0087d","64aff83e1acde521b6c30924","1122","k","<p style=""font-size: 30px"">&emsp;</p><br><p style=""font-size: 60px; font-family: BACS"">mkmJNkam<p style=""font-size: 15px"">Premi <strong>k</strong> per sì, <strong>d</strong> per no.</p>","","mkmJNkam","testing","k","true","","",""
"html-keyboard-response","340","459939","0.0-16.0-0.7","5e823b35726b2a9508db127c","64afc2c9a8732ea92db0087d","64aff83e1acde521b6c30924","935","k","<p style=""font-size: 30px"">&emsp;</p><br><p style=""font-size: 60px; font-family: BACS"">dTmEDJcUk<p style=""font-size: 15px"">Premi <strong>k</strong> per sì, <strong>d</strong> per no.</p>","","dTmEDJcUk","testing","d","false","","",""
"html-keyboard-response","341","461132","0.0-16.0-0.8","5e823b35726b2a9508db127c","64afc2c9a8732ea92db0087d","64aff83e1acde521b6c30924","1192","d","<p style=""font-size: 30px"">&emsp;</p><br><p style=""font-size: 60px; font-family: BACS"">khmhCMdP<p style=""font-size: 15px"">Premi <strong>k</strong> per sì, <strong>d</strong> per no.</p>","","khmhCMdP","testing","k","false","","",""
"html-keyboard-response","342","462169","0.0-16.0-0.9","5e823b35726b2a9508db127c","64afc2c9a8732ea92db0087d","64aff83e1acde521b6c30924","1036","d","<p style=""font-size: 30px"">&emsp;</p><br><p style=""font-size: 60px; font-family: BACS"">EdBbCPMl<p style=""font-size: 15px"">Premi <strong>k</strong> per sì, <strong>d</strong> per no.</p>","","EdBbCPMl","testing","k","false","","",""
"html-keyboard-response","343","463180","0.0-16.0-0.10","5e823b35726b2a9508db127c","64afc2c9a8732ea92db0087d","64aff83e1acde521b6c30924","1010","k","<p style=""font-size: 30px"">&emsp;</p><br><p style=""font-size: 60px; font-family: BACS"">krGukJdr<p style=""font-size: 15px"">Premi <strong>k</strong> per sì, <strong>d</strong> per no.</p>","","krGukJdr","testing","k","true","","",""
"html-keyboard-response","344","464261","0.0-16.0-0.11","5e823b35726b2a9508db127c","64afc2c9a8732ea92db0087d","64aff83e1acde521b6c30924","1081","d","<p style=""font-size: 30px"">&emsp;</p><br><p style=""font-size: 60px; font-family: BACS"">EdBbcrdY<p style=""font-size: 15px"">Premi <strong>k</strong> per sì, <strong>d</strong> per no.</p>","","EdBbcrdY","testing","d","true","","",""
"html-keyboard-response","345","465391","0.0-16.0-0.12","5e823b35726b2a9508db127c","64afc2c9a8732ea92db0087d","64aff83e1acde521b6c30924","1129","d","<p style=""font-size: 30px"">&emsp;</p><br><p style=""font-size: 60px; font-family: BACS"">ECtbDkmU<p style=""font-size: 15px"">Premi <strong>k</strong> per sì, <strong>d</strong> per no.</p>","","ECtbDkmU","testing","d","true","","",""
"html-keyboard-response","346","466261","0.0-16.0-0.13","5e823b35726b2a9508db127c","64afc2c9a8732ea92db0087d","64aff83e1acde521b6c30924","869","k","<p style=""font-size: 30px"">&emsp;</p><br><p style=""font-size: 60px; font-family: BACS"">ZYcQUcrdY<p style=""font-size: 15px"">Premi <strong>k</strong> per sì, <strong>d</strong> per no.</p>","","ZYcQUcrdY","testing","k","true","","",""
"html-keyboard-response","347","467326","0.0-16.0-0.14","5e823b35726b2a9508db127c","64afc2c9a8732ea92db0087d","64aff83e1acde521b6c30924","1065","d","<p style=""font-size: 30px"">&emsp;</p><br><p style=""font-size: 60px; font-family: BACS"">RtRhCPMl<p style=""font-size: 15px"">Premi <strong>k</strong> per sì, <strong>d</strong> per no.</p>","","RtRhCPMl","testing","k","false","","",""
"html-keyboard-response","348","468208","0.0-16.0-0.15","5e823b35726b2a9508db127c","64afc2c9a8732ea92db0087d","64aff83e1acde521b6c30924","881","k","<p style=""font-size: 30px"">&emsp;</p><br><p style=""font-size: 60px; font-family: BACS"">kRCkOYBO<p style=""font-size: 15px"">Premi <strong>k</strong> per sì, <strong>d</strong> per no.</p>","","kRCkOYBO","testing","k","true","","",""
"html-keyboard-response","349","469065","0.0-16.0-0.16","5e823b35726b2a9508db127c","64afc2c9a8732ea92db0087d","64aff83e1acde521b6c30924","856","k","<p style=""font-size: 30px"">&emsp;</p><br><p style=""font-size: 60px; font-family: BACS"">LOLkUCMdP<p style=""font-size: 15px"">Premi <strong>k</strong> per sì, <strong>d</strong> per no.</p>","","LOLkUCMdP","testing","d","false","","",""
"html-keyboard-response","350","469956","0.0-16.0-0.17","5e823b35726b2a9508db127c","64afc2c9a8732ea92db0087d","64aff83e1acde521b6c30924","891","d","<p style=""font-size: 30px"">&emsp;</p><br><p style=""font-size: 60px; font-family: BACS"">kGlUkDOm<p style=""font-size: 15px"">Premi <strong>k</strong> per sì, <strong>d</strong> per no.</p>","","kGlUkDOm","testing","d","true","","",""
"html-keyboard-response","351","470851","0.0-16.0-0.18","5e823b35726b2a9508db127c","64afc2c9a8732ea92db0087d","64aff83e1acde521b6c30924","894","d","<p style=""font-size: 30px"">&emsp;</p><br><p style=""font-size: 60px; font-family: BACS"">kabJbkam<p style=""font-size: 15px"">Premi <strong>k</strong> per sì, <strong>d</strong> per no.</p>","","kabJbkam","testing","k","false","","",""
"html-keyboard-response","352","471735","0.0-16.0-0.19","5e823b35726b2a9508db127c","64afc2c9a8732ea92db0087d","64aff83e1acde521b6c30924","883","k","<p style=""font-size: 30px"">&emsp;</p><br><p style=""font-size: 60px; font-family: BACS"">LckGNkDOm<p style=""font-size: 15px"">Premi <strong>k</strong> per sì, <strong>d</strong> per no.</p>","","LckGNkDOm","testing","d","false","","",""
"html-keyboard-response","353","472648","0.0-16.0-0.20","5e823b35726b2a9508db127c","64afc2c9a8732ea92db0087d","64aff83e1acde521b6c30924","912","k","<p style=""font-size: 30px"">&emsp;</p><br><p style=""font-size: 60px; font-family: BACS"">NJZlYcM<p style=""font-size: 15px"">Premi <strong>k</strong> per sì, <strong>d</strong> per no.</p>","","NJZlYcM","testing","d","false","","",""
"html-keyboard-response","354","473466","0.0-16.0-0.21","5e823b35726b2a9508db127c","64afc2c9a8732ea92db0087d","64aff83e1acde521b6c30924","818","d","<p style=""font-size: 30px"">&emsp;</p><br><p style=""font-size: 60px; font-family: BACS"">kabJbYBO<p style=""font-size: 15px"">Premi <strong>k</strong> per sì, <strong>d</strong> per no.</p>","","kabJbYBO","testing","d","true","","",""
"html-keyboard-response","355","474346","0.0-16.0-0.22","5e823b35726b2a9508db127c","64afc2c9a8732ea92db0087d","64aff83e1acde521b6c30924","879","d","<p style=""font-size: 30px"">&emsp;</p><br><p style=""font-size: 60px; font-family: BACS"">vQdOkmU<p style=""font-size: 15px"">Premi <strong>k</strong> per sì, <strong>d</strong> per no.</p>","","vQdOkmU","testing","k","false","","",""
"html-keyboard-response","356","475469","0.0-16.0-0.23","5e823b35726b2a9508db127c","64afc2c9a8732ea92db0087d","64aff83e1acde521b6c30924","1122","k","<p style=""font-size: 30px"">&emsp;</p><br><p style=""font-size: 60px; font-family: BACS"">kPOtkJdr<p style=""font-size: 15px"">Premi <strong>k</strong> per sì, <strong>d</strong> per no.</p>","","kPOtkJdr","testing","d","false","","",""
"html-keyboard-response","357","476499","0.0-16.0-0.24","5e823b35726b2a9508db127c","64afc2c9a8732ea92db0087d","64aff83e1acde521b6c30924","1029","k","<p style=""font-size: 30px"">&emsp;</p><br><p style=""font-size: 60px; font-family: BACS"">ZkGmYCPMl<p style=""font-size: 15px"">Premi <strong>k</strong> per sì, <strong>d</strong> per no.</p>","","ZkGmYCPMl","testing","d","false","","",""
"html-keyboard-response","358","477316","0.0-16.0-0.25","5e823b35726b2a9508db127c","64afc2c9a8732ea92db0087d","64aff83e1acde521b6c30924","817","k","<p style=""font-size: 30px"">&emsp;</p><br><p style=""font-size: 60px; font-family: BACS"">mkmJNYBO<p style=""font-size: 15px"">Premi <strong>k</strong> per sì, <strong>d</strong> per no.</p>","","mkmJNYBO","testing","d","false","","",""
"html-keyboard-response","359","478324","0.0-16.0-0.26","5e823b35726b2a9508db127c","64afc2c9a8732ea92db0087d","64aff83e1acde521b6c30924","1007","k","<p style=""font-size: 30px"">&emsp;</p><br><p style=""font-size: 60px; font-family: BACS"">krGuCMdP<p style=""font-size: 15px"">Premi <strong>k</strong> per sì, <strong>d</strong> per no.</p>","","krGuCMdP","testing","d","false","","",""
"html-keyboard-response","360","479049","0.0-16.0-0.27","5e823b35726b2a9508db127c","64afc2c9a8732ea92db0087d","64aff83e1acde521b6c30924","724","d","<p style=""font-size: 30px"">&emsp;</p><br><p style=""font-size: 60px; font-family: BACS"">LckGNJcUk<p style=""font-size: 15px"">Premi <strong>k</strong> per sì, <strong>d</strong> per no.</p>","","LckGNJcUk","testing","k","false","","",""
"html-keyboard-response","361","479979","0.0-16.0-0.28","5e823b35726b2a9508db127c","64afc2c9a8732ea92db0087d","64aff83e1acde521b6c30924","929","d","<p style=""font-size: 30px"">&emsp;</p><br><p style=""font-size: 60px; font-family: BACS"">dTmEDkDOm<p style=""font-size: 15px"">Premi <strong>k</strong> per sì, <strong>d</strong> per no.</p>","","dTmEDkDOm","testing","k","false","","",""
"html-keyboard-response","362","480992","0.0-16.0-0.29","5e823b35726b2a9508db127c","64afc2c9a8732ea92db0087d","64aff83e1acde521b6c30924","1013","d","<p style=""font-size: 30px"">&emsp;</p><br><p style=""font-size: 60px; font-family: BACS"">kRCkOkam<p style=""font-size: 15px"">Premi <strong>k</strong> per sì, <strong>d</strong> per no.</p>","","kRCkOkam","testing","d","true","","",""
"html-keyboard-response","363","481817","0.0-16.0-0.30","5e823b35726b2a9508db127c","64afc2c9a8732ea92db0087d","64aff83e1acde521b6c30924","824","k","<p style=""font-size: 30px"">&emsp;</p><br><p style=""font-size: 60px; font-family: BACS"">tmtEMkmU<p style=""font-size: 15px"">Premi <strong>k</strong> per sì, <strong>d</strong> per no.</p>","","tmtEMkmU","testing","d","false","","",""
"html-keyboard-response","364","482916","0.0-16.0-0.31","5e823b35726b2a9508db127c","64afc2c9a8732ea92db0087d","64aff83e1acde521b6c30924","1097","d","<p style=""font-size: 30px"">&emsp;</p><br><p style=""font-size: 60px; font-family: BACS"">KTDTBkam<p style=""font-size: 15px"">Premi <strong>k</strong> per sì, <strong>d</strong> per no.</p>","","KTDTBkam","testing","d","true","","",""
"html-keyboard-response","365","483859","0.0-16.0-0.32","5e823b35726b2a9508db127c","64afc2c9a8732ea92db0087d","64aff83e1acde521b6c30924","942","d","<p style=""font-size: 30px"">&emsp;</p><br><p style=""font-size: 60px; font-family: BACS"">NJZlkmU<p style=""font-size: 15px"">Premi <strong>k</strong> per sì, <strong>d</strong> per no.</p>","","NJZlkmU","testing","k","false","","",""
"html-keyboard-response","366","484634","0.0-16.0-0.33","5e823b35726b2a9508db127c","64afc2c9a8732ea92db0087d","64aff83e1acde521b6c30924","774","k","<p style=""font-size: 30px"">&emsp;</p><br><p style=""font-size: 60px; font-family: BACS"">tmtEMYcM<p style=""font-size: 15px"">Premi <strong>k</strong> per sì, <strong>d</strong> per no.</p>","","tmtEMYcM","testing","k","true","","",""
"html-keyboard-response","367","485554","0.0-16.0-0.34","5e823b35726b2a9508db127c","64afc2c9a8732ea92db0087d","64aff83e1acde521b6c30924","919","d","<p style=""font-size: 30px"">&emsp;</p><br><p style=""font-size: 60px; font-family: BACS"">ZkGmYcrdY<p style=""font-size: 15px"">Premi <strong>k</strong> per sì, <strong>d</strong> per no.</p>","","ZkGmYcrdY","testing","k","false","","",""
"html-keyboard-response","368","486480","0.0-16.0-0.35","5e823b35726b2a9508db127c","64afc2c9a8732ea92db0087d","64aff83e1acde521b6c30924","926","k","<p style=""font-size: 30px"">&emsp;</p><br><p style=""font-size: 60px; font-family: BACS"">vQdOYcM<p style=""font-size: 15px"">Premi <strong>k</strong> per sì, <strong>d</strong> per no.</p>","","vQdOYcM","testing","d","false","","",""
"html-keyboard-response","369","487325","0.0-16.0-0.36","5e823b35726b2a9508db127c","64afc2c9a8732ea92db0087d","64aff83e1acde521b6c30924","844","k","<p style=""font-size: 30px"">&emsp;</p><br><p style=""font-size: 60px; font-family: BACS"">dOYmlkDOm<p style=""font-size: 15px"">Premi <strong>k</strong> per sì, <strong>d</strong> per no.</p>","","dOYmlkDOm","testing","k","true","","",""
"html-keyboard-response","370","488228","0.0-16.0-0.37","5e823b35726b2a9508db127c","64afc2c9a8732ea92db0087d","64aff83e1acde521b6c30924","902","k","<p style=""font-size: 30px"">&emsp;</p><br><p style=""font-size: 60px; font-family: BACS"">kGlUJcUk<p style=""font-size: 15px"">Premi <strong>k</strong> per sì, <strong>d</strong> per no.</p>","","kGlUJcUk","testing","k","true","","",""
