"trial_type","trial_index","time_elapsed","internal_node_id","subject_id","study_id","session_id","rt","response","stimulus","success","item","task","correct_response","testing_condition","correct","target","confound","name","view_history"
"pavlovia","0","1665","0.0-0.0","5f1e8dc7e2161c86cdcd220a","650c16f0f2faf8d7a0d14c09","651c1d02c58ed94d241a0741","","","","","","","","","","","","",""
"survey-html-form","1","12379","0.0-1.0","5f1e8dc7e2161c86cdcd220a","650c16f0f2faf8d7a0d14c09","651c1d02c58ed94d241a0741","10713","{""ID"":""5f1e8dc7e2161c86cdcd220a""}","","","","","","","","","","",""
"html-keyboard-response","2","17957","0.0-2.0","5f1e8dc7e2161c86cdcd220a","650c16f0f2faf8d7a0d14c09","651c1d02c58ed94d241a0741","5576"," ","<p style=""font-size: 15px;"">Before beginning, we ask that you read the consent information and confirm your agreement to participate in the experiment.</p>
      <p style=""font-size: 15px;""> We ask that you remember that this is a research project and that your participation is entirely voluntary. You can stop your participation at any time, without needing to provide any explanation. The study we're asking you to participate in aims at examining how readers process written words. You will be engaged in a session of apprximately 20 minutes, followed by a brief questionnaire. You will have the opportunity to take a few breaks during the experiment. You will be paid £4 for your participation, corresponding to a rate of £8/hour. While this experiment looks at cognitive faculties, this experiment doesn't constitute clinical proof of eventual pathologies.</p>
      <p style=""font-size: 15px;"">All of the information collected thanks to yours and others' participation will be held in a secure password-protected server, and will not be shared with anyone not authorised to view it. Your personal information will be kept with an arbitrary participant ID. Thanks to this data anonymity process, any researcher analysing the data won't be able to track the information back to a specific participant. Therefore, this process will make identifying you impossibile, even when results from the study will be published in scientific reviews, presented at congresses, or at any other public forum. More generally, the collected data will be treated in accordance with the laws on privacy and conformity to the Legislative Degree n. 196 ""Code regarding the protection of personal data"" of the 30th of June 2003 and to the European Regulation 2016/670 (General Data Protection Regulation - GDPR). The Data Protection Officer is Avv. Valentina Carollo, who can be contacted at the following email addresses: <a href=""mailto:dpo@sissa.it"">dpo@sissa.it</a> or <a href=""mailto:rpd@sissa.it"">rpd@sissa.it</a> - PEC: <a href=""mailto:protocollo@pec.sissa.it"">protocollo@pec.sissa.it</a>.</p>
      <p style=""font-size: 15px;""> Before expressing your consent to participate, we would like to remind you again that in case you need explanations on any aspect of the experimental procedure, the researcher is at your disposition (<a href=""mailto:aliebelt@sissa.it"">aliebelt@sissa.it</a>, <a href=""mailto:davide.crepaldi@sissa.it"">davide.crepaldi@sissa.it</a>).</p>
      <p style=""font-size: 15px;"">If you would like to download the informed consent form, you can do so here: <a href=""BASL-Informed_Consent.pdf"" download>informed consent form</a>.</p>
      <p style=""font-size: 15px;"">We ask that you press the spacebar to proceed to the consent section.</p>","","","","","","","","","",""
"survey-html-form","3","42955","0.0-3.0","5f1e8dc7e2161c86cdcd220a","650c16f0f2faf8d7a0d14c09","651c1d02c58ed94d241a0741","24996","{""consent1"":""YES"",""consent2"":""YES"",""consent3"":""YES"",""consent4"":""YES"",""consent5"":""YES"",""consent6"":""YES""}","","","","","","","","","","",""
"fullscreen","4","48814","0.0-4.0","5f1e8dc7e2161c86cdcd220a","650c16f0f2faf8d7a0d14c09","651c1d02c58ed94d241a0741","","","","true","","","","","","","","",""
"html-keyboard-response","5","50419","0.0-5.0","5f1e8dc7e2161c86cdcd220a","650c16f0f2faf8d7a0d14c09","651c1d02c58ed94d241a0741","1604"," ","<p>Welcome, and thank you very much for your time!</p>
      <p>In this experiment, you'll be a language expert who's been asked to take a look at words that Earth has received in its first communication with aliens. Your task, in this first part of the experiment, is to pay close attention to the words you'll be shown; later, world leaders will ask you questions on what you saw. The words will be shown to you quite quickly; it seems that the aliens were in a hurry :-)</p>
      <p>Press the spacebar to continue.<p>","","","","","","","","","",""
"html-keyboard-response","6","50471","0.0-6.0","5f1e8dc7e2161c86cdcd220a","650c16f0f2faf8d7a0d14c09","651c1d02c58ed94d241a0741","null","null","<p style=""font-size: 120px; font-family: BACS""> </p>","","","","","","","","","",""
"html-keyboard-response","7","55299","0.0-7.0","5f1e8dc7e2161c86cdcd220a","650c16f0f2faf8d7a0d14c09","651c1d02c58ed94d241a0741","4826"," ","<p>Here is an example of the words you'll see:</p>
      <img src='esempio.png' height='400px'>
      <p>When you're ready to begin, press the spacebar.</p></div>","","","","","","","","","",""
"html-keyboard-response","8","56309","0.0-8.0-0.0","5f1e8dc7e2161c86cdcd220a","650c16f0f2faf8d7a0d14c09","651c1d02c58ed94d241a0741","null","null","<p style=""font-size: 60px; font-family: BACS"">dTmEDcMRl</p>","","","","","","","","","",""
"html-keyboard-response","9","57317","0.0-8.0-0.1","5f1e8dc7e2161c86cdcd220a","650c16f0f2faf8d7a0d14c09","651c1d02c58ed94d241a0741","null","null","<p style=""font-size: 60px; font-family: BACS"">ldAarZYd</p>","","","","","","","","","",""
"html-keyboard-response","10","58336","0.0-8.0-0.2","5f1e8dc7e2161c86cdcd220a","650c16f0f2faf8d7a0d14c09","651c1d02c58ed94d241a0741","null","null","<p style=""font-size: 60px; font-family: BACS"">rvUbYmb</p>","","","","","","","","","",""
"html-keyboard-response","11","59350","0.0-8.0-0.3","5f1e8dc7e2161c86cdcd220a","650c16f0f2faf8d7a0d14c09","651c1d02c58ed94d241a0741","null","null","<p style=""font-size: 60px; font-family: BACS"">AZaJcrZYd</p>","","","","","","","","","",""
"html-keyboard-response","12","60355","0.0-8.0-0.4","5f1e8dc7e2161c86cdcd220a","650c16f0f2faf8d7a0d14c09","651c1d02c58ed94d241a0741","null","null","<p style=""font-size: 60px; font-family: BACS"">BEPOkBD</p>","","","","","","","","","",""
"html-keyboard-response","13","61371","0.0-8.0-0.5","5f1e8dc7e2161c86cdcd220a","650c16f0f2faf8d7a0d14c09","651c1d02c58ed94d241a0741","null","null","<p style=""font-size: 60px; font-family: BACS"">UYZlZAld</p>","","","","","","","","","",""
"html-keyboard-response","14","62389","0.0-8.0-0.6","5f1e8dc7e2161c86cdcd220a","650c16f0f2faf8d7a0d14c09","651c1d02c58ed94d241a0741","null","null","<p style=""font-size: 60px; font-family: BACS"">hlkTdEPD</p>","","","","","","","","","",""
"html-keyboard-response","15","63394","0.0-8.0-0.7","5f1e8dc7e2161c86cdcd220a","650c16f0f2faf8d7a0d14c09","651c1d02c58ed94d241a0741","null","null","<p style=""font-size: 60px; font-family: BACS"">LdQvrZYd</p>","","","","","","","","","",""
"html-keyboard-response","16","64396","0.0-8.0-0.8","5f1e8dc7e2161c86cdcd220a","650c16f0f2faf8d7a0d14c09","651c1d02c58ed94d241a0741","null","null","<p style=""font-size: 60px; font-family: BACS"">khmhkBD</p>","","","","","","","","","",""
"html-keyboard-response","17","65401","0.0-8.0-0.9","5f1e8dc7e2161c86cdcd220a","650c16f0f2faf8d7a0d14c09","651c1d02c58ed94d241a0741","null","null","<p style=""font-size: 60px; font-family: BACS"">dTmEDdEPD</p>","","","","","","","","","",""
"html-keyboard-response","18","66405","0.0-8.0-0.10","5f1e8dc7e2161c86cdcd220a","650c16f0f2faf8d7a0d14c09","651c1d02c58ed94d241a0741","null","null","<p style=""font-size: 60px; font-family: BACS"">UAcdurZYd</p>","","","","","","","","","",""
"html-keyboard-response","19","67414","0.0-8.0-0.11","5f1e8dc7e2161c86cdcd220a","650c16f0f2faf8d7a0d14c09","651c1d02c58ed94d241a0741","null","null","<p style=""font-size: 60px; font-family: BACS"">cAZuAld</p>","","","","","","","","","",""
"html-keyboard-response","20","68427","0.0-8.0-0.12","5f1e8dc7e2161c86cdcd220a","650c16f0f2faf8d7a0d14c09","651c1d02c58ed94d241a0741","null","null","<p style=""font-size: 60px; font-family: BACS"">KABAkBD</p>","","","","","","","","","",""
"html-keyboard-response","21","69429","0.0-8.0-0.13","5f1e8dc7e2161c86cdcd220a","650c16f0f2faf8d7a0d14c09","651c1d02c58ed94d241a0741","null","null","<p style=""font-size: 60px; font-family: BACS"">rvUbAld</p>","","","","","","","","","",""
"html-keyboard-response","22","70435","0.0-8.0-0.14","5f1e8dc7e2161c86cdcd220a","650c16f0f2faf8d7a0d14c09","651c1d02c58ed94d241a0741","null","null","<p style=""font-size: 60px; font-family: BACS"">aYaNrZYd</p>","","","","","","","","","",""
"html-keyboard-response","23","71438","0.0-8.0-0.15","5f1e8dc7e2161c86cdcd220a","650c16f0f2faf8d7a0d14c09","651c1d02c58ed94d241a0741","null","null","<p style=""font-size: 60px; font-family: BACS"">hlkTkPM</p>","","","","","","","","","",""
"html-keyboard-response","24","72447","0.0-8.0-0.16","5f1e8dc7e2161c86cdcd220a","650c16f0f2faf8d7a0d14c09","651c1d02c58ed94d241a0741","null","null","<p style=""font-size: 60px; font-family: BACS"">DOBhYkBD</p>","","","","","","","","","",""
"html-keyboard-response","25","73474","0.0-8.0-0.17","5f1e8dc7e2161c86cdcd220a","650c16f0f2faf8d7a0d14c09","651c1d02c58ed94d241a0741","null","null","<p style=""font-size: 60px; font-family: BACS"">cAZuYmb</p>","","","","","","","","","",""
"html-keyboard-response","26","74482","0.0-8.0-0.18","5f1e8dc7e2161c86cdcd220a","650c16f0f2faf8d7a0d14c09","651c1d02c58ed94d241a0741","null","null","<p style=""font-size: 60px; font-family: BACS"">KElBmKcD</p>","","","","","","","","","",""
"html-keyboard-response","27","75496","0.0-8.0-0.19","5f1e8dc7e2161c86cdcd220a","650c16f0f2faf8d7a0d14c09","651c1d02c58ed94d241a0741","null","null","<p style=""font-size: 60px; font-family: BACS"">AZaJcQGb</p>","","","","","","","","","",""
"html-keyboard-response","28","76500","0.0-8.0-0.20","5f1e8dc7e2161c86cdcd220a","650c16f0f2faf8d7a0d14c09","651c1d02c58ed94d241a0741","null","null","<p style=""font-size: 60px; font-family: BACS"">ldAarULv</p>","","","","","","","","","",""
"html-keyboard-response","29","77506","0.0-8.0-0.21","5f1e8dc7e2161c86cdcd220a","650c16f0f2faf8d7a0d14c09","651c1d02c58ed94d241a0741","null","null","<p style=""font-size: 60px; font-family: BACS"">cAZuQGb</p>","","","","","","","","","",""
"html-keyboard-response","30","78519","0.0-8.0-0.22","5f1e8dc7e2161c86cdcd220a","650c16f0f2faf8d7a0d14c09","651c1d02c58ed94d241a0741","null","null","<p style=""font-size: 60px; font-family: BACS"">rvUbrULv</p>","","","","","","","","","",""
"html-keyboard-response","31","79531","0.0-8.0-0.23","5f1e8dc7e2161c86cdcd220a","650c16f0f2faf8d7a0d14c09","651c1d02c58ed94d241a0741","null","null","<p style=""font-size: 60px; font-family: BACS"">khmhmKcD</p>","","","","","","","","","",""
"html-keyboard-response","32","80546","0.0-8.0-0.24","5f1e8dc7e2161c86cdcd220a","650c16f0f2faf8d7a0d14c09","651c1d02c58ed94d241a0741","null","null","<p style=""font-size: 60px; font-family: BACS"">hlkTcMRl</p>","","","","","","","","","",""
"html-keyboard-response","33","81560","0.0-8.0-0.25","5f1e8dc7e2161c86cdcd220a","650c16f0f2faf8d7a0d14c09","651c1d02c58ed94d241a0741","null","null","<p style=""font-size: 60px; font-family: BACS"">PdDTkBD</p>","","","","","","","","","",""
"html-keyboard-response","34","82562","0.0-8.0-0.26","5f1e8dc7e2161c86cdcd220a","650c16f0f2faf8d7a0d14c09","651c1d02c58ed94d241a0741","null","null","<p style=""font-size: 60px; font-family: BACS"">DBlhdEPD</p>","","","","","","","","","",""
"html-keyboard-response","35","83576","0.0-8.0-0.27","5f1e8dc7e2161c86cdcd220a","650c16f0f2faf8d7a0d14c09","651c1d02c58ed94d241a0741","null","null","<p style=""font-size: 60px; font-family: BACS"">dTmEDkBD</p>","","","","","","","","","",""
"html-keyboard-response","36","84579","0.0-8.0-0.28","5f1e8dc7e2161c86cdcd220a","650c16f0f2faf8d7a0d14c09","651c1d02c58ed94d241a0741","null","null","<p style=""font-size: 60px; font-family: BACS"">UAcdurULv</p>","","","","","","","","","",""
"html-keyboard-response","37","85583","0.0-8.0-0.29","5f1e8dc7e2161c86cdcd220a","650c16f0f2faf8d7a0d14c09","651c1d02c58ed94d241a0741","null","null","<p style=""font-size: 60px; font-family: BACS"">muYNrZYd</p>","","","","","","","","","",""
"html-keyboard-response","38","86584","0.0-8.0-0.30","5f1e8dc7e2161c86cdcd220a","650c16f0f2faf8d7a0d14c09","651c1d02c58ed94d241a0741","null","null","<p style=""font-size: 60px; font-family: BACS"">khmhdEPD</p>","","","","","","","","","",""
"html-keyboard-response","39","87599","0.0-8.0-0.31","5f1e8dc7e2161c86cdcd220a","650c16f0f2faf8d7a0d14c09","651c1d02c58ed94d241a0741","null","null","<p style=""font-size: 60px; font-family: BACS"">PdDTkPM</p>","","","","","","","","","",""
"html-keyboard-response","40","88607","0.0-8.0-0.32","5f1e8dc7e2161c86cdcd220a","650c16f0f2faf8d7a0d14c09","651c1d02c58ed94d241a0741","null","null","<p style=""font-size: 60px; font-family: BACS"">LdQvYmb</p>","","","","","","","","","",""
"html-keyboard-response","41","89611","0.0-8.0-0.33","5f1e8dc7e2161c86cdcd220a","650c16f0f2faf8d7a0d14c09","651c1d02c58ed94d241a0741","null","null","<p style=""font-size: 60px; font-family: BACS"">PdDTmKcD</p>","","","","","","","","","",""
"html-keyboard-response","42","90612","0.0-8.0-0.34","5f1e8dc7e2161c86cdcd220a","650c16f0f2faf8d7a0d14c09","651c1d02c58ed94d241a0741","null","null","<p style=""font-size: 60px; font-family: BACS"">aYaNAld</p>","","","","","","","","","",""
"html-keyboard-response","43","91623","0.0-8.0-0.35","5f1e8dc7e2161c86cdcd220a","650c16f0f2faf8d7a0d14c09","651c1d02c58ed94d241a0741","null","null","<p style=""font-size: 60px; font-family: BACS"">PdDTcMRl</p>","","","","","","","","","",""
"html-keyboard-response","44","92635","0.0-8.0-0.36","5f1e8dc7e2161c86cdcd220a","650c16f0f2faf8d7a0d14c09","651c1d02c58ed94d241a0741","null","null","<p style=""font-size: 60px; font-family: BACS"">DBklmKcD</p>","","","","","","","","","",""
"html-keyboard-response","45","93659","0.0-8.0-0.37","5f1e8dc7e2161c86cdcd220a","650c16f0f2faf8d7a0d14c09","651c1d02c58ed94d241a0741","null","null","<p style=""font-size: 60px; font-family: BACS"">BEPOkPM</p>","","","","","","","","","",""
"html-keyboard-response","46","94666","0.0-8.0-0.38","5f1e8dc7e2161c86cdcd220a","650c16f0f2faf8d7a0d14c09","651c1d02c58ed94d241a0741","null","null","<p style=""font-size: 60px; font-family: BACS"">muYNAld</p>","","","","","","","","","",""
"html-keyboard-response","47","95682","0.0-8.0-0.39","5f1e8dc7e2161c86cdcd220a","650c16f0f2faf8d7a0d14c09","651c1d02c58ed94d241a0741","null","null","<p style=""font-size: 60px; font-family: BACS"">DBlhcMRl</p>","","","","","","","","","",""
"html-keyboard-response","48","96689","0.0-8.0-0.40","5f1e8dc7e2161c86cdcd220a","650c16f0f2faf8d7a0d14c09","651c1d02c58ed94d241a0741","null","null","<p style=""font-size: 60px; font-family: BACS"">AZaJcrULv</p>","","","","","","","","","",""
"html-keyboard-response","49","97700","0.0-8.0-0.41","5f1e8dc7e2161c86cdcd220a","650c16f0f2faf8d7a0d14c09","651c1d02c58ed94d241a0741","null","null","<p style=""font-size: 60px; font-family: BACS"">ZNLOvQGb</p>","","","","","","","","","",""
"html-keyboard-response","50","98702","0.0-8.0-0.42","5f1e8dc7e2161c86cdcd220a","650c16f0f2faf8d7a0d14c09","651c1d02c58ed94d241a0741","null","null","<p style=""font-size: 60px; font-family: BACS"">ldAaYmb</p>","","","","","","","","","",""
"html-keyboard-response","51","99711","0.0-8.0-0.43","5f1e8dc7e2161c86cdcd220a","650c16f0f2faf8d7a0d14c09","651c1d02c58ed94d241a0741","null","null","<p style=""font-size: 60px; font-family: BACS"">aYaNQGb</p>","","","","","","","","","",""
"html-keyboard-response","52","100713","0.0-8.0-0.44","5f1e8dc7e2161c86cdcd220a","650c16f0f2faf8d7a0d14c09","651c1d02c58ed94d241a0741","null","null","<p style=""font-size: 60px; font-family: BACS"">DBlhkBD</p>","","","","","","","","","",""
"html-keyboard-response","53","101715","0.0-8.0-0.45","5f1e8dc7e2161c86cdcd220a","650c16f0f2faf8d7a0d14c09","651c1d02c58ed94d241a0741","null","null","<p style=""font-size: 60px; font-family: BACS"">KABAdEPD</p>","","","","","","","","","",""
"html-keyboard-response","54","102716","0.0-8.0-0.46","5f1e8dc7e2161c86cdcd220a","650c16f0f2faf8d7a0d14c09","651c1d02c58ed94d241a0741","null","null","<p style=""font-size: 60px; font-family: BACS"">cAZurZYd</p>","","","","","","","","","",""
"html-keyboard-response","55","103718","0.0-8.0-0.47","5f1e8dc7e2161c86cdcd220a","650c16f0f2faf8d7a0d14c09","651c1d02c58ed94d241a0741","null","null","<p style=""font-size: 60px; font-family: BACS"">UYZlZrULv</p>","","","","","","","","","",""
"html-keyboard-response","56","104722","0.0-8.0-0.48","5f1e8dc7e2161c86cdcd220a","650c16f0f2faf8d7a0d14c09","651c1d02c58ed94d241a0741","null","null","<p style=""font-size: 60px; font-family: BACS"">hlkTmKcD</p>","","","","","","","","","",""
"html-keyboard-response","57","105727","0.0-8.0-0.49","5f1e8dc7e2161c86cdcd220a","650c16f0f2faf8d7a0d14c09","651c1d02c58ed94d241a0741","null","null","<p style=""font-size: 60px; font-family: BACS"">DOBhYcMRl</p>","","","","","","","","","",""
"html-keyboard-response","58","106735","0.0-8.0-0.50","5f1e8dc7e2161c86cdcd220a","650c16f0f2faf8d7a0d14c09","651c1d02c58ed94d241a0741","null","null","<p style=""font-size: 60px; font-family: BACS"">DBklkPM</p>","","","","","","","","","",""
"html-keyboard-response","59","107762","0.0-8.0-0.51","5f1e8dc7e2161c86cdcd220a","650c16f0f2faf8d7a0d14c09","651c1d02c58ed94d241a0741","null","null","<p style=""font-size: 60px; font-family: BACS"">rvUbQGb</p>","","","","","","","","","",""
"html-keyboard-response","60","108769","0.0-8.0-0.52","5f1e8dc7e2161c86cdcd220a","650c16f0f2faf8d7a0d14c09","651c1d02c58ed94d241a0741","null","null","<p style=""font-size: 60px; font-family: BACS"">BEPOmKcD</p>","","","","","","","","","",""
"html-keyboard-response","61","109772","0.0-8.0-0.53","5f1e8dc7e2161c86cdcd220a","650c16f0f2faf8d7a0d14c09","651c1d02c58ed94d241a0741","null","null","<p style=""font-size: 60px; font-family: BACS"">ZNLOvrZYd</p>","","","","","","","","","",""
"html-keyboard-response","62","110783","0.0-8.0-0.54","5f1e8dc7e2161c86cdcd220a","650c16f0f2faf8d7a0d14c09","651c1d02c58ed94d241a0741","null","null","<p style=""font-size: 60px; font-family: BACS"">KABAcMRl</p>","","","","","","","","","",""
"html-keyboard-response","63","111797","0.0-8.0-0.55","5f1e8dc7e2161c86cdcd220a","650c16f0f2faf8d7a0d14c09","651c1d02c58ed94d241a0741","null","null","<p style=""font-size: 60px; font-family: BACS"">LdQvAld</p>","","","","","","","","","",""
"html-keyboard-response","64","112809","0.0-8.0-0.56","5f1e8dc7e2161c86cdcd220a","650c16f0f2faf8d7a0d14c09","651c1d02c58ed94d241a0741","null","null","<p style=""font-size: 60px; font-family: BACS"">KABAmKcD</p>","","","","","","","","","",""
"html-keyboard-response","65","113818","0.0-8.0-0.57","5f1e8dc7e2161c86cdcd220a","650c16f0f2faf8d7a0d14c09","651c1d02c58ed94d241a0741","null","null","<p style=""font-size: 60px; font-family: BACS"">ZNLOvrULv</p>","","","","","","","","","",""
"html-keyboard-response","66","114820","0.0-8.0-0.58","5f1e8dc7e2161c86cdcd220a","650c16f0f2faf8d7a0d14c09","651c1d02c58ed94d241a0741","null","null","<p style=""font-size: 60px; font-family: BACS"">DBklcMRl</p>","","","","","","","","","",""
"html-keyboard-response","67","115831","0.0-8.0-0.59","5f1e8dc7e2161c86cdcd220a","650c16f0f2faf8d7a0d14c09","651c1d02c58ed94d241a0741","null","null","<p style=""font-size: 60px; font-family: BACS"">muYNQGb</p>","","","","","","","","","",""
"html-keyboard-response","68","116845","0.0-8.0-0.60","5f1e8dc7e2161c86cdcd220a","650c16f0f2faf8d7a0d14c09","651c1d02c58ed94d241a0741","null","null","<p style=""font-size: 60px; font-family: BACS"">DBlhkPM</p>","","","","","","","","","",""
"html-keyboard-response","69","117850","0.0-8.0-0.61","5f1e8dc7e2161c86cdcd220a","650c16f0f2faf8d7a0d14c09","651c1d02c58ed94d241a0741","null","null","<p style=""font-size: 60px; font-family: BACS"">khmhcMRl</p>","","","","","","","","","",""
"html-keyboard-response","70","118862","0.0-8.0-0.62","5f1e8dc7e2161c86cdcd220a","650c16f0f2faf8d7a0d14c09","651c1d02c58ed94d241a0741","null","null","<p style=""font-size: 60px; font-family: BACS"">UAcduYmb</p>","","","","","","","","","",""
"html-keyboard-response","71","119878","0.0-8.0-0.63","5f1e8dc7e2161c86cdcd220a","650c16f0f2faf8d7a0d14c09","651c1d02c58ed94d241a0741","null","null","<p style=""font-size: 60px; font-family: BACS"">KElBkPM</p>","","","","","","","","","",""
"html-keyboard-response","72","120891","0.0-8.0-0.64","5f1e8dc7e2161c86cdcd220a","650c16f0f2faf8d7a0d14c09","651c1d02c58ed94d241a0741","null","null","<p style=""font-size: 60px; font-family: BACS"">muYNrULv</p>","","","","","","","","","",""
"html-keyboard-response","73","121898","0.0-8.0-0.65","5f1e8dc7e2161c86cdcd220a","650c16f0f2faf8d7a0d14c09","651c1d02c58ed94d241a0741","null","null","<p style=""font-size: 60px; font-family: BACS"">BEPOdEPD</p>","","","","","","","","","",""
"html-keyboard-response","74","122900","0.0-8.0-0.66","5f1e8dc7e2161c86cdcd220a","650c16f0f2faf8d7a0d14c09","651c1d02c58ed94d241a0741","null","null","<p style=""font-size: 60px; font-family: BACS"">UAcduAld</p>","","","","","","","","","",""
"html-keyboard-response","75","123904","0.0-8.0-0.67","5f1e8dc7e2161c86cdcd220a","650c16f0f2faf8d7a0d14c09","651c1d02c58ed94d241a0741","null","null","<p style=""font-size: 60px; font-family: BACS"">UYZlZQGb</p>","","","","","","","","","",""
"html-keyboard-response","76","124915","0.0-8.0-0.68","5f1e8dc7e2161c86cdcd220a","650c16f0f2faf8d7a0d14c09","651c1d02c58ed94d241a0741","null","null","<p style=""font-size: 60px; font-family: BACS"">ZNLOvAld</p>","","","","","","","","","",""
"html-keyboard-response","77","125921","0.0-8.0-0.69","5f1e8dc7e2161c86cdcd220a","650c16f0f2faf8d7a0d14c09","651c1d02c58ed94d241a0741","null","null","<p style=""font-size: 60px; font-family: BACS"">DOBhYkPM</p>","","","","","","","","","",""
"html-keyboard-response","78","126939","0.0-8.0-0.70","5f1e8dc7e2161c86cdcd220a","650c16f0f2faf8d7a0d14c09","651c1d02c58ed94d241a0741","null","null","<p style=""font-size: 60px; font-family: BACS"">AZaJcYmb</p>","","","","","","","","","",""
"html-keyboard-response","79","127957","0.0-8.0-0.71","5f1e8dc7e2161c86cdcd220a","650c16f0f2faf8d7a0d14c09","651c1d02c58ed94d241a0741","null","null","<p style=""font-size: 60px; font-family: BACS"">DBkldEPD</p>","","","","","","","","","",""
"html-keyboard-response","80","128968","0.0-8.0-0.72","5f1e8dc7e2161c86cdcd220a","650c16f0f2faf8d7a0d14c09","651c1d02c58ed94d241a0741","null","null","<p style=""font-size: 60px; font-family: BACS"">aYaNYmb</p>","","","","","","","","","",""
"html-keyboard-response","81","129969","0.0-8.0-0.73","5f1e8dc7e2161c86cdcd220a","650c16f0f2faf8d7a0d14c09","651c1d02c58ed94d241a0741","null","null","<p style=""font-size: 60px; font-family: BACS"">ldAaQGb</p>","","","","","","","","","",""
"html-keyboard-response","82","130984","0.0-8.0-0.74","5f1e8dc7e2161c86cdcd220a","650c16f0f2faf8d7a0d14c09","651c1d02c58ed94d241a0741","null","null","<p style=""font-size: 60px; font-family: BACS"">dTmEDkPM</p>","","","","","","","","","",""
"html-keyboard-response","83","131995","0.0-8.0-0.75","5f1e8dc7e2161c86cdcd220a","650c16f0f2faf8d7a0d14c09","651c1d02c58ed94d241a0741","null","null","<p style=""font-size: 60px; font-family: BACS"">UYZlZYmb</p>","","","","","","","","","",""
"html-keyboard-response","84","133006","0.0-8.0-0.76","5f1e8dc7e2161c86cdcd220a","650c16f0f2faf8d7a0d14c09","651c1d02c58ed94d241a0741","null","null","<p style=""font-size: 60px; font-family: BACS"">LdQvrULv</p>","","","","","","","","","",""
"html-keyboard-response","85","134024","0.0-8.0-0.77","5f1e8dc7e2161c86cdcd220a","650c16f0f2faf8d7a0d14c09","651c1d02c58ed94d241a0741","null","null","<p style=""font-size: 60px; font-family: BACS"">KElBdEPD</p>","","","","","","","","","",""
"html-keyboard-response","86","135026","0.0-8.0-0.78","5f1e8dc7e2161c86cdcd220a","650c16f0f2faf8d7a0d14c09","651c1d02c58ed94d241a0741","null","null","<p style=""font-size: 60px; font-family: BACS"">DOBhYmKcD</p>","","","","","","","","","",""
"html-keyboard-response","87","136036","0.0-8.0-0.79","5f1e8dc7e2161c86cdcd220a","650c16f0f2faf8d7a0d14c09","651c1d02c58ed94d241a0741","null","null","<p style=""font-size: 60px; font-family: BACS"">KElBkBD</p>","","","","","","","","","",""
"html-keyboard-response","88","142722","0.0-9.0","5f1e8dc7e2161c86cdcd220a","650c16f0f2faf8d7a0d14c09","651c1d02c58ed94d241a0741","6686"," ","<p>Great, you've seen the first block of words. You may now take a short break.</p>
      <p>Press the spacebar when you're ready to continue.</p>","","","","","","","","","",""
"html-keyboard-response","89","143744","0.0-10.0-0.0","5f1e8dc7e2161c86cdcd220a","650c16f0f2faf8d7a0d14c09","651c1d02c58ed94d241a0741","null","null","<p style=""font-size: 60px; font-family: BACS"">ldAaQGb</p>","","","","","","","","","",""
"html-keyboard-response","90","144762","0.0-10.0-0.1","5f1e8dc7e2161c86cdcd220a","650c16f0f2faf8d7a0d14c09","651c1d02c58ed94d241a0741","null","null","<p style=""font-size: 60px; font-family: BACS"">UYZlZAld</p>","","","","","","","","","",""
"html-keyboard-response","91","145776","0.0-10.0-0.2","5f1e8dc7e2161c86cdcd220a","650c16f0f2faf8d7a0d14c09","651c1d02c58ed94d241a0741","null","null","<p style=""font-size: 60px; font-family: BACS"">KABAkBD</p>","","","","","","","","","",""
"html-keyboard-response","92","146782","0.0-10.0-0.3","5f1e8dc7e2161c86cdcd220a","650c16f0f2faf8d7a0d14c09","651c1d02c58ed94d241a0741","null","null","<p style=""font-size: 60px; font-family: BACS"">cAZuYmb</p>","","","","","","","","","",""
"html-keyboard-response","93","147798","0.0-10.0-0.4","5f1e8dc7e2161c86cdcd220a","650c16f0f2faf8d7a0d14c09","651c1d02c58ed94d241a0741","null","null","<p style=""font-size: 60px; font-family: BACS"">KElBmKcD</p>","","","","","","","","","",""
"html-keyboard-response","94","148811","0.0-10.0-0.5","5f1e8dc7e2161c86cdcd220a","650c16f0f2faf8d7a0d14c09","651c1d02c58ed94d241a0741","null","null","<p style=""font-size: 60px; font-family: BACS"">UYZlZrULv</p>","","","","","","","","","",""
"html-keyboard-response","95","149831","0.0-10.0-0.6","5f1e8dc7e2161c86cdcd220a","650c16f0f2faf8d7a0d14c09","651c1d02c58ed94d241a0741","null","null","<p style=""font-size: 60px; font-family: BACS"">muYNQGb</p>","","","","","","","","","",""
"html-keyboard-response","96","150842","0.0-10.0-0.7","5f1e8dc7e2161c86cdcd220a","650c16f0f2faf8d7a0d14c09","651c1d02c58ed94d241a0741","null","null","<p style=""font-size: 60px; font-family: BACS"">DOBhYkPM</p>","","","","","","","","","",""
"html-keyboard-response","97","151855","0.0-10.0-0.8","5f1e8dc7e2161c86cdcd220a","650c16f0f2faf8d7a0d14c09","651c1d02c58ed94d241a0741","null","null","<p style=""font-size: 60px; font-family: BACS"">UAcduYmb</p>","","","","","","","","","",""
"html-keyboard-response","98","152864","0.0-10.0-0.9","5f1e8dc7e2161c86cdcd220a","650c16f0f2faf8d7a0d14c09","651c1d02c58ed94d241a0741","null","null","<p style=""font-size: 60px; font-family: BACS"">rvUbQGb</p>","","","","","","","","","",""
"html-keyboard-response","99","153867","0.0-10.0-0.10","5f1e8dc7e2161c86cdcd220a","650c16f0f2faf8d7a0d14c09","651c1d02c58ed94d241a0741","null","null","<p style=""font-size: 60px; font-family: BACS"">PdDTkBD</p>","","","","","","","","","",""
"html-keyboard-response","100","154882","0.0-10.0-0.11","5f1e8dc7e2161c86cdcd220a","650c16f0f2faf8d7a0d14c09","651c1d02c58ed94d241a0741","null","null","<p style=""font-size: 60px; font-family: BACS"">ldAarULv</p>","","","","","","","","","",""
"html-keyboard-response","101","155884","0.0-10.0-0.12","5f1e8dc7e2161c86cdcd220a","650c16f0f2faf8d7a0d14c09","651c1d02c58ed94d241a0741","null","null","<p style=""font-size: 60px; font-family: BACS"">UYZlZQGb</p>","","","","","","","","","",""
"html-keyboard-response","102","156899","0.0-10.0-0.13","5f1e8dc7e2161c86cdcd220a","650c16f0f2faf8d7a0d14c09","651c1d02c58ed94d241a0741","null","null","<p style=""font-size: 60px; font-family: BACS"">BEPOkPM</p>","","","","","","","","","",""
"html-keyboard-response","103","157904","0.0-10.0-0.14","5f1e8dc7e2161c86cdcd220a","650c16f0f2faf8d7a0d14c09","651c1d02c58ed94d241a0741","null","null","<p style=""font-size: 60px; font-family: BACS"">muYNrZYd</p>","","","","","","","","","",""
"html-keyboard-response","104","158917","0.0-10.0-0.15","5f1e8dc7e2161c86cdcd220a","650c16f0f2faf8d7a0d14c09","651c1d02c58ed94d241a0741","null","null","<p style=""font-size: 60px; font-family: BACS"">BEPOkBD</p>","","","","","","","","","",""
"html-keyboard-response","105","159936","0.0-10.0-0.16","5f1e8dc7e2161c86cdcd220a","650c16f0f2faf8d7a0d14c09","651c1d02c58ed94d241a0741","null","null","<p style=""font-size: 60px; font-family: BACS"">AZaJcQGb</p>","","","","","","","","","",""
"html-keyboard-response","106","160938","0.0-10.0-0.17","5f1e8dc7e2161c86cdcd220a","650c16f0f2faf8d7a0d14c09","651c1d02c58ed94d241a0741","null","null","<p style=""font-size: 60px; font-family: BACS"">ZNLOvrULv</p>","","","","","","","","","",""
"html-keyboard-response","107","161941","0.0-10.0-0.18","5f1e8dc7e2161c86cdcd220a","650c16f0f2faf8d7a0d14c09","651c1d02c58ed94d241a0741","null","null","<p style=""font-size: 60px; font-family: BACS"">PdDTcMRl</p>","","","","","","","","","",""
"html-keyboard-response","108","162952","0.0-10.0-0.19","5f1e8dc7e2161c86cdcd220a","650c16f0f2faf8d7a0d14c09","651c1d02c58ed94d241a0741","null","null","<p style=""font-size: 60px; font-family: BACS"">UAcduAld</p>","","","","","","","","","",""
"html-keyboard-response","109","163956","0.0-10.0-0.20","5f1e8dc7e2161c86cdcd220a","650c16f0f2faf8d7a0d14c09","651c1d02c58ed94d241a0741","null","null","<p style=""font-size: 60px; font-family: BACS"">AZaJcrZYd</p>","","","","","","","","","",""
"html-keyboard-response","110","164960","0.0-10.0-0.21","5f1e8dc7e2161c86cdcd220a","650c16f0f2faf8d7a0d14c09","651c1d02c58ed94d241a0741","null","null","<p style=""font-size: 60px; font-family: BACS"">KElBdEPD</p>","","","","","","","","","",""
"html-keyboard-response","111","165971","0.0-10.0-0.22","5f1e8dc7e2161c86cdcd220a","650c16f0f2faf8d7a0d14c09","651c1d02c58ed94d241a0741","null","null","<p style=""font-size: 60px; font-family: BACS"">aYaNQGb</p>","","","","","","","","","",""
"html-keyboard-response","112","166987","0.0-10.0-0.23","5f1e8dc7e2161c86cdcd220a","650c16f0f2faf8d7a0d14c09","651c1d02c58ed94d241a0741","null","null","<p style=""font-size: 60px; font-family: BACS"">UAcdurZYd</p>","","","","","","","","","",""
"html-keyboard-response","113","168000","0.0-10.0-0.24","5f1e8dc7e2161c86cdcd220a","650c16f0f2faf8d7a0d14c09","651c1d02c58ed94d241a0741","null","null","<p style=""font-size: 60px; font-family: BACS"">DBlhdEPD</p>","","","","","","","","","",""
"html-keyboard-response","114","169011","0.0-10.0-0.25","5f1e8dc7e2161c86cdcd220a","650c16f0f2faf8d7a0d14c09","651c1d02c58ed94d241a0741","null","null","<p style=""font-size: 60px; font-family: BACS"">rvUbAld</p>","","","","","","","","","",""
"html-keyboard-response","115","170027","0.0-10.0-0.26","5f1e8dc7e2161c86cdcd220a","650c16f0f2faf8d7a0d14c09","651c1d02c58ed94d241a0741","null","null","<p style=""font-size: 60px; font-family: BACS"">aYaNYmb</p>","","","","","","","","","",""
"html-keyboard-response","116","171029","0.0-10.0-0.27","5f1e8dc7e2161c86cdcd220a","650c16f0f2faf8d7a0d14c09","651c1d02c58ed94d241a0741","null","null","<p style=""font-size: 60px; font-family: BACS"">dTmEDcMRl</p>","","","","","","","","","",""
"html-keyboard-response","117","172031","0.0-10.0-0.28","5f1e8dc7e2161c86cdcd220a","650c16f0f2faf8d7a0d14c09","651c1d02c58ed94d241a0741","null","null","<p style=""font-size: 60px; font-family: BACS"">khmhdEPD</p>","","","","","","","","","",""
"html-keyboard-response","118","173047","0.0-10.0-0.29","5f1e8dc7e2161c86cdcd220a","650c16f0f2faf8d7a0d14c09","651c1d02c58ed94d241a0741","null","null","<p style=""font-size: 60px; font-family: BACS"">DBklkPM</p>","","","","","","","","","",""
"html-keyboard-response","119","174055","0.0-10.0-0.30","5f1e8dc7e2161c86cdcd220a","650c16f0f2faf8d7a0d14c09","651c1d02c58ed94d241a0741","null","null","<p style=""font-size: 60px; font-family: BACS"">DOBhYkBD</p>","","","","","","","","","",""
"html-keyboard-response","120","175068","0.0-10.0-0.31","5f1e8dc7e2161c86cdcd220a","650c16f0f2faf8d7a0d14c09","651c1d02c58ed94d241a0741","null","null","<p style=""font-size: 60px; font-family: BACS"">ZNLOvAld</p>","","","","","","","","","",""
"html-keyboard-response","121","176083","0.0-10.0-0.32","5f1e8dc7e2161c86cdcd220a","650c16f0f2faf8d7a0d14c09","651c1d02c58ed94d241a0741","null","null","<p style=""font-size: 60px; font-family: BACS"">hlkTdEPD</p>","","","","","","","","","",""
"html-keyboard-response","122","177092","0.0-10.0-0.33","5f1e8dc7e2161c86cdcd220a","650c16f0f2faf8d7a0d14c09","651c1d02c58ed94d241a0741","null","null","<p style=""font-size: 60px; font-family: BACS"">PdDTkPM</p>","","","","","","","","","",""
"html-keyboard-response","123","178108","0.0-10.0-0.34","5f1e8dc7e2161c86cdcd220a","650c16f0f2faf8d7a0d14c09","651c1d02c58ed94d241a0741","null","null","<p style=""font-size: 60px; font-family: BACS"">UYZlZYmb</p>","","","","","","","","","",""
"html-keyboard-response","124","179124","0.0-10.0-0.35","5f1e8dc7e2161c86cdcd220a","650c16f0f2faf8d7a0d14c09","651c1d02c58ed94d241a0741","null","null","<p style=""font-size: 60px; font-family: BACS"">hlkTcMRl</p>","","","","","","","","","",""
"html-keyboard-response","125","180141","0.0-10.0-0.36","5f1e8dc7e2161c86cdcd220a","650c16f0f2faf8d7a0d14c09","651c1d02c58ed94d241a0741","null","null","<p style=""font-size: 60px; font-family: BACS"">BEPOdEPD</p>","","","","","","","","","",""
"html-keyboard-response","126","181156","0.0-10.0-0.37","5f1e8dc7e2161c86cdcd220a","650c16f0f2faf8d7a0d14c09","651c1d02c58ed94d241a0741","null","null","<p style=""font-size: 60px; font-family: BACS"">UAcdurULv</p>","","","","","","","","","",""
"html-keyboard-response","127","182173","0.0-10.0-0.38","5f1e8dc7e2161c86cdcd220a","650c16f0f2faf8d7a0d14c09","651c1d02c58ed94d241a0741","null","null","<p style=""font-size: 60px; font-family: BACS"">DOBhYmKcD</p>","","","","","","","","","",""
"html-keyboard-response","128","183181","0.0-10.0-0.39","5f1e8dc7e2161c86cdcd220a","650c16f0f2faf8d7a0d14c09","651c1d02c58ed94d241a0741","null","null","<p style=""font-size: 60px; font-family: BACS"">ldAarZYd</p>","","","","","","","","","",""
"html-keyboard-response","129","184197","0.0-10.0-0.40","5f1e8dc7e2161c86cdcd220a","650c16f0f2faf8d7a0d14c09","651c1d02c58ed94d241a0741","null","null","<p style=""font-size: 60px; font-family: BACS"">KABAdEPD</p>","","","","","","","","","",""
"html-keyboard-response","130","185204","0.0-10.0-0.41","5f1e8dc7e2161c86cdcd220a","650c16f0f2faf8d7a0d14c09","651c1d02c58ed94d241a0741","null","null","<p style=""font-size: 60px; font-family: BACS"">muYNAld</p>","","","","","","","","","",""
"html-keyboard-response","131","186211","0.0-10.0-0.42","5f1e8dc7e2161c86cdcd220a","650c16f0f2faf8d7a0d14c09","651c1d02c58ed94d241a0741","null","null","<p style=""font-size: 60px; font-family: BACS"">dTmEDdEPD</p>","","","","","","","","","",""
"html-keyboard-response","132","187225","0.0-10.0-0.43","5f1e8dc7e2161c86cdcd220a","650c16f0f2faf8d7a0d14c09","651c1d02c58ed94d241a0741","null","null","<p style=""font-size: 60px; font-family: BACS"">khmhmKcD</p>","","","","","","","","","",""
"html-keyboard-response","133","188230","0.0-10.0-0.44","5f1e8dc7e2161c86cdcd220a","650c16f0f2faf8d7a0d14c09","651c1d02c58ed94d241a0741","null","null","<p style=""font-size: 60px; font-family: BACS"">rvUbYmb</p>","","","","","","","","","",""
"html-keyboard-response","134","189233","0.0-10.0-0.45","5f1e8dc7e2161c86cdcd220a","650c16f0f2faf8d7a0d14c09","651c1d02c58ed94d241a0741","null","null","<p style=""font-size: 60px; font-family: BACS"">DBlhkBD</p>","","","","","","","","","",""
"html-keyboard-response","135","190249","0.0-10.0-0.46","5f1e8dc7e2161c86cdcd220a","650c16f0f2faf8d7a0d14c09","651c1d02c58ed94d241a0741","null","null","<p style=""font-size: 60px; font-family: BACS"">ZNLOvrZYd</p>","","","","","","","","","",""
"html-keyboard-response","136","191278","0.0-10.0-0.47","5f1e8dc7e2161c86cdcd220a","650c16f0f2faf8d7a0d14c09","651c1d02c58ed94d241a0741","null","null","<p style=""font-size: 60px; font-family: BACS"">DBklmKcD</p>","","","","","","","","","",""
"html-keyboard-response","137","192289","0.0-10.0-0.48","5f1e8dc7e2161c86cdcd220a","650c16f0f2faf8d7a0d14c09","651c1d02c58ed94d241a0741","null","null","<p style=""font-size: 60px; font-family: BACS"">aYaNrZYd</p>","","","","","","","","","",""
"html-keyboard-response","138","193299","0.0-10.0-0.49","5f1e8dc7e2161c86cdcd220a","650c16f0f2faf8d7a0d14c09","651c1d02c58ed94d241a0741","null","null","<p style=""font-size: 60px; font-family: BACS"">AZaJcYmb</p>","","","","","","","","","",""
"html-keyboard-response","139","194302","0.0-10.0-0.50","5f1e8dc7e2161c86cdcd220a","650c16f0f2faf8d7a0d14c09","651c1d02c58ed94d241a0741","null","null","<p style=""font-size: 60px; font-family: BACS"">khmhcMRl</p>","","","","","","","","","",""
"html-keyboard-response","140","195317","0.0-10.0-0.51","5f1e8dc7e2161c86cdcd220a","650c16f0f2faf8d7a0d14c09","651c1d02c58ed94d241a0741","null","null","<p style=""font-size: 60px; font-family: BACS"">KElBkPM</p>","","","","","","","","","",""
"html-keyboard-response","141","196331","0.0-10.0-0.52","5f1e8dc7e2161c86cdcd220a","650c16f0f2faf8d7a0d14c09","651c1d02c58ed94d241a0741","null","null","<p style=""font-size: 60px; font-family: BACS"">AZaJcrULv</p>","","","","","","","","","",""
"html-keyboard-response","142","197341","0.0-10.0-0.53","5f1e8dc7e2161c86cdcd220a","650c16f0f2faf8d7a0d14c09","651c1d02c58ed94d241a0741","null","null","<p style=""font-size: 60px; font-family: BACS"">KABAmKcD</p>","","","","","","","","","",""
"html-keyboard-response","143","198349","0.0-10.0-0.54","5f1e8dc7e2161c86cdcd220a","650c16f0f2faf8d7a0d14c09","651c1d02c58ed94d241a0741","null","null","<p style=""font-size: 60px; font-family: BACS"">DBlhcMRl</p>","","","","","","","","","",""
"html-keyboard-response","144","199364","0.0-10.0-0.55","5f1e8dc7e2161c86cdcd220a","650c16f0f2faf8d7a0d14c09","651c1d02c58ed94d241a0741","null","null","<p style=""font-size: 60px; font-family: BACS"">rvUbrULv</p>","","","","","","","","","",""
"html-keyboard-response","145","200368","0.0-10.0-0.56","5f1e8dc7e2161c86cdcd220a","650c16f0f2faf8d7a0d14c09","651c1d02c58ed94d241a0741","null","null","<p style=""font-size: 60px; font-family: BACS"">PdDTmKcD</p>","","","","","","","","","",""
"html-keyboard-response","146","201374","0.0-10.0-0.57","5f1e8dc7e2161c86cdcd220a","650c16f0f2faf8d7a0d14c09","651c1d02c58ed94d241a0741","null","null","<p style=""font-size: 60px; font-family: BACS"">LdQvYmb</p>","","","","","","","","","",""
"html-keyboard-response","147","202378","0.0-10.0-0.58","5f1e8dc7e2161c86cdcd220a","650c16f0f2faf8d7a0d14c09","651c1d02c58ed94d241a0741","null","null","<p style=""font-size: 60px; font-family: BACS"">ZNLOvQGb</p>","","","","","","","","","",""
"html-keyboard-response","148","203381","0.0-10.0-0.59","5f1e8dc7e2161c86cdcd220a","650c16f0f2faf8d7a0d14c09","651c1d02c58ed94d241a0741","null","null","<p style=""font-size: 60px; font-family: BACS"">ldAaYmb</p>","","","","","","","","","",""
"html-keyboard-response","149","204402","0.0-10.0-0.60","5f1e8dc7e2161c86cdcd220a","650c16f0f2faf8d7a0d14c09","651c1d02c58ed94d241a0741","null","null","<p style=""font-size: 60px; font-family: BACS"">hlkTmKcD</p>","","","","","","","","","",""
"html-keyboard-response","150","205418","0.0-10.0-0.61","5f1e8dc7e2161c86cdcd220a","650c16f0f2faf8d7a0d14c09","651c1d02c58ed94d241a0741","null","null","<p style=""font-size: 60px; font-family: BACS"">khmhkBD</p>","","","","","","","","","",""
"html-keyboard-response","151","206428","0.0-10.0-0.62","5f1e8dc7e2161c86cdcd220a","650c16f0f2faf8d7a0d14c09","651c1d02c58ed94d241a0741","null","null","<p style=""font-size: 60px; font-family: BACS"">cAZuQGb</p>","","","","","","","","","",""
"html-keyboard-response","152","207436","0.0-10.0-0.63","5f1e8dc7e2161c86cdcd220a","650c16f0f2faf8d7a0d14c09","651c1d02c58ed94d241a0741","null","null","<p style=""font-size: 60px; font-family: BACS"">aYaNAld</p>","","","","","","","","","",""
"html-keyboard-response","153","208443","0.0-10.0-0.64","5f1e8dc7e2161c86cdcd220a","650c16f0f2faf8d7a0d14c09","651c1d02c58ed94d241a0741","null","null","<p style=""font-size: 60px; font-family: BACS"">hlkTkPM</p>","","","","","","","","","",""
"html-keyboard-response","154","209460","0.0-10.0-0.65","5f1e8dc7e2161c86cdcd220a","650c16f0f2faf8d7a0d14c09","651c1d02c58ed94d241a0741","null","null","<p style=""font-size: 60px; font-family: BACS"">DBklcMRl</p>","","","","","","","","","",""
"html-keyboard-response","155","210478","0.0-10.0-0.66","5f1e8dc7e2161c86cdcd220a","650c16f0f2faf8d7a0d14c09","651c1d02c58ed94d241a0741","null","null","<p style=""font-size: 60px; font-family: BACS"">KElBkBD</p>","","","","","","","","","",""
"html-keyboard-response","156","211489","0.0-10.0-0.67","5f1e8dc7e2161c86cdcd220a","650c16f0f2faf8d7a0d14c09","651c1d02c58ed94d241a0741","null","null","<p style=""font-size: 60px; font-family: BACS"">LdQvAld</p>","","","","","","","","","",""
"html-keyboard-response","157","212497","0.0-10.0-0.68","5f1e8dc7e2161c86cdcd220a","650c16f0f2faf8d7a0d14c09","651c1d02c58ed94d241a0741","null","null","<p style=""font-size: 60px; font-family: BACS"">dTmEDkBD</p>","","","","","","","","","",""
"html-keyboard-response","158","213502","0.0-10.0-0.69","5f1e8dc7e2161c86cdcd220a","650c16f0f2faf8d7a0d14c09","651c1d02c58ed94d241a0741","null","null","<p style=""font-size: 60px; font-family: BACS"">LdQvrULv</p>","","","","","","","","","",""
"html-keyboard-response","159","214510","0.0-10.0-0.70","5f1e8dc7e2161c86cdcd220a","650c16f0f2faf8d7a0d14c09","651c1d02c58ed94d241a0741","null","null","<p style=""font-size: 60px; font-family: BACS"">cAZurZYd</p>","","","","","","","","","",""
"html-keyboard-response","160","215516","0.0-10.0-0.71","5f1e8dc7e2161c86cdcd220a","650c16f0f2faf8d7a0d14c09","651c1d02c58ed94d241a0741","null","null","<p style=""font-size: 60px; font-family: BACS"">DBkldEPD</p>","","","","","","","","","",""
"html-keyboard-response","161","216527","0.0-10.0-0.72","5f1e8dc7e2161c86cdcd220a","650c16f0f2faf8d7a0d14c09","651c1d02c58ed94d241a0741","null","null","<p style=""font-size: 60px; font-family: BACS"">DOBhYcMRl</p>","","","","","","","","","",""
"html-keyboard-response","162","217542","0.0-10.0-0.73","5f1e8dc7e2161c86cdcd220a","650c16f0f2faf8d7a0d14c09","651c1d02c58ed94d241a0741","null","null","<p style=""font-size: 60px; font-family: BACS"">muYNrULv</p>","","","","","","","","","",""
"html-keyboard-response","163","218554","0.0-10.0-0.74","5f1e8dc7e2161c86cdcd220a","650c16f0f2faf8d7a0d14c09","651c1d02c58ed94d241a0741","null","null","<p style=""font-size: 60px; font-family: BACS"">LdQvrZYd</p>","","","","","","","","","",""
"html-keyboard-response","164","219566","0.0-10.0-0.75","5f1e8dc7e2161c86cdcd220a","650c16f0f2faf8d7a0d14c09","651c1d02c58ed94d241a0741","null","null","<p style=""font-size: 60px; font-family: BACS"">KABAcMRl</p>","","","","","","","","","",""
"html-keyboard-response","165","220572","0.0-10.0-0.76","5f1e8dc7e2161c86cdcd220a","650c16f0f2faf8d7a0d14c09","651c1d02c58ed94d241a0741","null","null","<p style=""font-size: 60px; font-family: BACS"">DBlhkPM</p>","","","","","","","","","",""
"html-keyboard-response","166","221586","0.0-10.0-0.77","5f1e8dc7e2161c86cdcd220a","650c16f0f2faf8d7a0d14c09","651c1d02c58ed94d241a0741","null","null","<p style=""font-size: 60px; font-family: BACS"">cAZuAld</p>","","","","","","","","","",""
"html-keyboard-response","167","222600","0.0-10.0-0.78","5f1e8dc7e2161c86cdcd220a","650c16f0f2faf8d7a0d14c09","651c1d02c58ed94d241a0741","null","null","<p style=""font-size: 60px; font-family: BACS"">dTmEDkPM</p>","","","","","","","","","",""
"html-keyboard-response","168","223613","0.0-10.0-0.79","5f1e8dc7e2161c86cdcd220a","650c16f0f2faf8d7a0d14c09","651c1d02c58ed94d241a0741","null","null","<p style=""font-size: 60px; font-family: BACS"">BEPOmKcD</p>","","","","","","","","","",""
"html-keyboard-response","169","229649","0.0-11.0","5f1e8dc7e2161c86cdcd220a","650c16f0f2faf8d7a0d14c09","651c1d02c58ed94d241a0741","6037"," ","<p>Great, you've seen the second block of words. You may now take a short break.</p>
      <p>Press the spacebar when you're ready to continue.</p>","","","","","","","","","",""
"html-keyboard-response","170","230664","0.0-12.0-0.0","5f1e8dc7e2161c86cdcd220a","650c16f0f2faf8d7a0d14c09","651c1d02c58ed94d241a0741","null","null","<p style=""font-size: 60px; font-family: BACS"">ZNLOvAld</p>","","","","","","","","","",""
"html-keyboard-response","171","231690","0.0-12.0-0.1","5f1e8dc7e2161c86cdcd220a","650c16f0f2faf8d7a0d14c09","651c1d02c58ed94d241a0741","null","null","<p style=""font-size: 60px; font-family: BACS"">PdDTcMRl</p>","","","","","","","","","",""
"html-keyboard-response","172","232695","0.0-12.0-0.2","5f1e8dc7e2161c86cdcd220a","650c16f0f2faf8d7a0d14c09","651c1d02c58ed94d241a0741","null","null","<p style=""font-size: 60px; font-family: BACS"">KABAdEPD</p>","","","","","","","","","",""
"html-keyboard-response","173","233707","0.0-12.0-0.3","5f1e8dc7e2161c86cdcd220a","650c16f0f2faf8d7a0d14c09","651c1d02c58ed94d241a0741","null","null","<p style=""font-size: 60px; font-family: BACS"">UYZlZYmb</p>","","","","","","","","","",""
"html-keyboard-response","174","234714","0.0-12.0-0.4","5f1e8dc7e2161c86cdcd220a","650c16f0f2faf8d7a0d14c09","651c1d02c58ed94d241a0741","null","null","<p style=""font-size: 60px; font-family: BACS"">dTmEDcMRl</p>","","","","","","","","","",""
"html-keyboard-response","175","235730","0.0-12.0-0.5","5f1e8dc7e2161c86cdcd220a","650c16f0f2faf8d7a0d14c09","651c1d02c58ed94d241a0741","null","null","<p style=""font-size: 60px; font-family: BACS"">DBlhkPM</p>","","","","","","","","","",""
"html-keyboard-response","176","236740","0.0-12.0-0.6","5f1e8dc7e2161c86cdcd220a","650c16f0f2faf8d7a0d14c09","651c1d02c58ed94d241a0741","null","null","<p style=""font-size: 60px; font-family: BACS"">muYNrZYd</p>","","","","","","","","","",""
"html-keyboard-response","177","237749","0.0-12.0-0.7","5f1e8dc7e2161c86cdcd220a","650c16f0f2faf8d7a0d14c09","651c1d02c58ed94d241a0741","null","null","<p style=""font-size: 60px; font-family: BACS"">hlkTkPM</p>","","","","","","","","","",""
"html-keyboard-response","178","238756","0.0-12.0-0.8","5f1e8dc7e2161c86cdcd220a","650c16f0f2faf8d7a0d14c09","651c1d02c58ed94d241a0741","null","null","<p style=""font-size: 60px; font-family: BACS"">LdQvAld</p>","","","","","","","","","",""
"html-keyboard-response","179","239758","0.0-12.0-0.9","5f1e8dc7e2161c86cdcd220a","650c16f0f2faf8d7a0d14c09","651c1d02c58ed94d241a0741","null","null","<p style=""font-size: 60px; font-family: BACS"">hlkTcMRl</p>","","","","","","","","","",""
"html-keyboard-response","180","240774","0.0-12.0-0.10","5f1e8dc7e2161c86cdcd220a","650c16f0f2faf8d7a0d14c09","651c1d02c58ed94d241a0741","null","null","<p style=""font-size: 60px; font-family: BACS"">UAcduAld</p>","","","","","","","","","",""
"html-keyboard-response","181","241787","0.0-12.0-0.11","5f1e8dc7e2161c86cdcd220a","650c16f0f2faf8d7a0d14c09","651c1d02c58ed94d241a0741","null","null","<p style=""font-size: 60px; font-family: BACS"">DOBhYkPM</p>","","","","","","","","","",""
"html-keyboard-response","182","242791","0.0-12.0-0.12","5f1e8dc7e2161c86cdcd220a","650c16f0f2faf8d7a0d14c09","651c1d02c58ed94d241a0741","null","null","<p style=""font-size: 60px; font-family: BACS"">DBlhkBD</p>","","","","","","","","","",""
"html-keyboard-response","183","243792","0.0-12.0-0.13","5f1e8dc7e2161c86cdcd220a","650c16f0f2faf8d7a0d14c09","651c1d02c58ed94d241a0741","null","null","<p style=""font-size: 60px; font-family: BACS"">ZNLOvrULv</p>","","","","","","","","","",""
"html-keyboard-response","184","244798","0.0-12.0-0.14","5f1e8dc7e2161c86cdcd220a","650c16f0f2faf8d7a0d14c09","651c1d02c58ed94d241a0741","null","null","<p style=""font-size: 60px; font-family: BACS"">aYaNAld</p>","","","","","","","","","",""
"html-keyboard-response","185","245815","0.0-12.0-0.15","5f1e8dc7e2161c86cdcd220a","650c16f0f2faf8d7a0d14c09","651c1d02c58ed94d241a0741","null","null","<p style=""font-size: 60px; font-family: BACS"">UYZlZQGb</p>","","","","","","","","","",""
"html-keyboard-response","186","246828","0.0-12.0-0.16","5f1e8dc7e2161c86cdcd220a","650c16f0f2faf8d7a0d14c09","651c1d02c58ed94d241a0741","null","null","<p style=""font-size: 60px; font-family: BACS"">DBklkPM</p>","","","","","","","","","",""
"html-keyboard-response","187","247830","0.0-12.0-0.17","5f1e8dc7e2161c86cdcd220a","650c16f0f2faf8d7a0d14c09","651c1d02c58ed94d241a0741","null","null","<p style=""font-size: 60px; font-family: BACS"">KElBdEPD</p>","","","","","","","","","",""
"html-keyboard-response","188","248836","0.0-12.0-0.18","5f1e8dc7e2161c86cdcd220a","650c16f0f2faf8d7a0d14c09","651c1d02c58ed94d241a0741","null","null","<p style=""font-size: 60px; font-family: BACS"">ldAarULv</p>","","","","","","","","","",""
"html-keyboard-response","189","249845","0.0-12.0-0.19","5f1e8dc7e2161c86cdcd220a","650c16f0f2faf8d7a0d14c09","651c1d02c58ed94d241a0741","null","null","<p style=""font-size: 60px; font-family: BACS"">KElBkPM</p>","","","","","","","","","",""
"html-keyboard-response","190","250850","0.0-12.0-0.20","5f1e8dc7e2161c86cdcd220a","650c16f0f2faf8d7a0d14c09","651c1d02c58ed94d241a0741","null","null","<p style=""font-size: 60px; font-family: BACS"">muYNQGb</p>","","","","","","","","","",""
"html-keyboard-response","191","251858","0.0-12.0-0.21","5f1e8dc7e2161c86cdcd220a","650c16f0f2faf8d7a0d14c09","651c1d02c58ed94d241a0741","null","null","<p style=""font-size: 60px; font-family: BACS"">BEPOdEPD</p>","","","","","","","","","",""
"html-keyboard-response","192","252869","0.0-12.0-0.22","5f1e8dc7e2161c86cdcd220a","650c16f0f2faf8d7a0d14c09","651c1d02c58ed94d241a0741","null","null","<p style=""font-size: 60px; font-family: BACS"">dTmEDkPM</p>","","","","","","","","","",""
"html-keyboard-response","193","253881","0.0-12.0-0.23","5f1e8dc7e2161c86cdcd220a","650c16f0f2faf8d7a0d14c09","651c1d02c58ed94d241a0741","null","null","<p style=""font-size: 60px; font-family: BACS"">AZaJcrZYd</p>","","","","","","","","","",""
"html-keyboard-response","194","254887","0.0-12.0-0.24","5f1e8dc7e2161c86cdcd220a","650c16f0f2faf8d7a0d14c09","651c1d02c58ed94d241a0741","null","null","<p style=""font-size: 60px; font-family: BACS"">khmhcMRl</p>","","","","","","","","","",""
"html-keyboard-response","195","255895","0.0-12.0-0.25","5f1e8dc7e2161c86cdcd220a","650c16f0f2faf8d7a0d14c09","651c1d02c58ed94d241a0741","null","null","<p style=""font-size: 60px; font-family: BACS"">aYaNrZYd</p>","","","","","","","","","",""
"html-keyboard-response","196","256906","0.0-12.0-0.26","5f1e8dc7e2161c86cdcd220a","650c16f0f2faf8d7a0d14c09","651c1d02c58ed94d241a0741","null","null","<p style=""font-size: 60px; font-family: BACS"">BEPOkBD</p>","","","","","","","","","",""
"html-keyboard-response","197","257928","0.0-12.0-0.27","5f1e8dc7e2161c86cdcd220a","650c16f0f2faf8d7a0d14c09","651c1d02c58ed94d241a0741","null","null","<p style=""font-size: 60px; font-family: BACS"">UAcduYmb</p>","","","","","","","","","",""
"html-keyboard-response","198","258933","0.0-12.0-0.28","5f1e8dc7e2161c86cdcd220a","650c16f0f2faf8d7a0d14c09","651c1d02c58ed94d241a0741","null","null","<p style=""font-size: 60px; font-family: BACS"">BEPOmKcD</p>","","","","","","","","","",""
"html-keyboard-response","199","259950","0.0-12.0-0.29","5f1e8dc7e2161c86cdcd220a","650c16f0f2faf8d7a0d14c09","651c1d02c58ed94d241a0741","null","null","<p style=""font-size: 60px; font-family: BACS"">ZNLOvQGb</p>","","","","","","","","","",""
"html-keyboard-response","200","260957","0.0-12.0-0.30","5f1e8dc7e2161c86cdcd220a","650c16f0f2faf8d7a0d14c09","651c1d02c58ed94d241a0741","null","null","<p style=""font-size: 60px; font-family: BACS"">DBlhdEPD</p>","","","","","","","","","",""
"html-keyboard-response","201","261972","0.0-12.0-0.31","5f1e8dc7e2161c86cdcd220a","650c16f0f2faf8d7a0d14c09","651c1d02c58ed94d241a0741","null","null","<p style=""font-size: 60px; font-family: BACS"">AZaJcQGb</p>","","","","","","","","","",""
"html-keyboard-response","202","262988","0.0-12.0-0.32","5f1e8dc7e2161c86cdcd220a","650c16f0f2faf8d7a0d14c09","651c1d02c58ed94d241a0741","null","null","<p style=""font-size: 60px; font-family: BACS"">DOBhYkBD</p>","","","","","","","","","",""
"html-keyboard-response","203","263994","0.0-12.0-0.33","5f1e8dc7e2161c86cdcd220a","650c16f0f2faf8d7a0d14c09","651c1d02c58ed94d241a0741","null","null","<p style=""font-size: 60px; font-family: BACS"">ldAaQGb</p>","","","","","","","","","",""
"html-keyboard-response","204","265003","0.0-12.0-0.34","5f1e8dc7e2161c86cdcd220a","650c16f0f2faf8d7a0d14c09","651c1d02c58ed94d241a0741","null","null","<p style=""font-size: 60px; font-family: BACS"">UYZlZAld</p>","","","","","","","","","",""
"html-keyboard-response","205","266014","0.0-12.0-0.35","5f1e8dc7e2161c86cdcd220a","650c16f0f2faf8d7a0d14c09","651c1d02c58ed94d241a0741","null","null","<p style=""font-size: 60px; font-family: BACS"">hlkTdEPD</p>","","","","","","","","","",""
"html-keyboard-response","206","267028","0.0-12.0-0.36","5f1e8dc7e2161c86cdcd220a","650c16f0f2faf8d7a0d14c09","651c1d02c58ed94d241a0741","null","null","<p style=""font-size: 60px; font-family: BACS"">KElBmKcD</p>","","","","","","","","","",""
"html-keyboard-response","207","268033","0.0-12.0-0.37","5f1e8dc7e2161c86cdcd220a","650c16f0f2faf8d7a0d14c09","651c1d02c58ed94d241a0741","null","null","<p style=""font-size: 60px; font-family: BACS"">AZaJcYmb</p>","","","","","","","","","",""
"html-keyboard-response","208","269045","0.0-12.0-0.38","5f1e8dc7e2161c86cdcd220a","650c16f0f2faf8d7a0d14c09","651c1d02c58ed94d241a0741","null","null","<p style=""font-size: 60px; font-family: BACS"">cAZuQGb</p>","","","","","","","","","",""
"html-keyboard-response","209","270047","0.0-12.0-0.39","5f1e8dc7e2161c86cdcd220a","650c16f0f2faf8d7a0d14c09","651c1d02c58ed94d241a0741","null","null","<p style=""font-size: 60px; font-family: BACS"">rvUbYmb</p>","","","","","","","","","",""
"html-keyboard-response","210","271074","0.0-12.0-0.40","5f1e8dc7e2161c86cdcd220a","650c16f0f2faf8d7a0d14c09","651c1d02c58ed94d241a0741","null","null","<p style=""font-size: 60px; font-family: BACS"">muYNrULv</p>","","","","","","","","","",""
"html-keyboard-response","211","272094","0.0-12.0-0.41","5f1e8dc7e2161c86cdcd220a","650c16f0f2faf8d7a0d14c09","651c1d02c58ed94d241a0741","null","null","<p style=""font-size: 60px; font-family: BACS"">DBkldEPD</p>","","","","","","","","","",""
"html-keyboard-response","212","273100","0.0-12.0-0.42","5f1e8dc7e2161c86cdcd220a","650c16f0f2faf8d7a0d14c09","651c1d02c58ed94d241a0741","null","null","<p style=""font-size: 60px; font-family: BACS"">hlkTmKcD</p>","","","","","","","","","",""
"html-keyboard-response","213","274115","0.0-12.0-0.43","5f1e8dc7e2161c86cdcd220a","650c16f0f2faf8d7a0d14c09","651c1d02c58ed94d241a0741","null","null","<p style=""font-size: 60px; font-family: BACS"">cAZurZYd</p>","","","","","","","","","",""
"html-keyboard-response","214","275121","0.0-12.0-0.44","5f1e8dc7e2161c86cdcd220a","650c16f0f2faf8d7a0d14c09","651c1d02c58ed94d241a0741","null","null","<p style=""font-size: 60px; font-family: BACS"">aYaNYmb</p>","","","","","","","","","",""
"html-keyboard-response","215","276131","0.0-12.0-0.45","5f1e8dc7e2161c86cdcd220a","650c16f0f2faf8d7a0d14c09","651c1d02c58ed94d241a0741","null","null","<p style=""font-size: 60px; font-family: BACS"">muYNAld</p>","","","","","","","","","",""
"html-keyboard-response","216","277146","0.0-12.0-0.46","5f1e8dc7e2161c86cdcd220a","650c16f0f2faf8d7a0d14c09","651c1d02c58ed94d241a0741","null","null","<p style=""font-size: 60px; font-family: BACS"">DBklcMRl</p>","","","","","","","","","",""
"html-keyboard-response","217","278160","0.0-12.0-0.47","5f1e8dc7e2161c86cdcd220a","650c16f0f2faf8d7a0d14c09","651c1d02c58ed94d241a0741","null","null","<p style=""font-size: 60px; font-family: BACS"">LdQvrULv</p>","","","","","","","","","",""
"html-keyboard-response","218","279163","0.0-12.0-0.48","5f1e8dc7e2161c86cdcd220a","650c16f0f2faf8d7a0d14c09","651c1d02c58ed94d241a0741","null","null","<p style=""font-size: 60px; font-family: BACS"">aYaNQGb</p>","","","","","","","","","",""
"html-keyboard-response","219","280166","0.0-12.0-0.49","5f1e8dc7e2161c86cdcd220a","650c16f0f2faf8d7a0d14c09","651c1d02c58ed94d241a0741","null","null","<p style=""font-size: 60px; font-family: BACS"">cAZuAld</p>","","","","","","","","","",""
"html-keyboard-response","220","281184","0.0-12.0-0.50","5f1e8dc7e2161c86cdcd220a","650c16f0f2faf8d7a0d14c09","651c1d02c58ed94d241a0741","null","null","<p style=""font-size: 60px; font-family: BACS"">PdDTkPM</p>","","","","","","","","","",""
"html-keyboard-response","221","282186","0.0-12.0-0.51","5f1e8dc7e2161c86cdcd220a","650c16f0f2faf8d7a0d14c09","651c1d02c58ed94d241a0741","null","null","<p style=""font-size: 60px; font-family: BACS"">khmhdEPD</p>","","","","","","","","","",""
"html-keyboard-response","222","283188","0.0-12.0-0.52","5f1e8dc7e2161c86cdcd220a","650c16f0f2faf8d7a0d14c09","651c1d02c58ed94d241a0741","null","null","<p style=""font-size: 60px; font-family: BACS"">ldAarZYd</p>","","","","","","","","","",""
"html-keyboard-response","223","284214","0.0-12.0-0.53","5f1e8dc7e2161c86cdcd220a","650c16f0f2faf8d7a0d14c09","651c1d02c58ed94d241a0741","null","null","<p style=""font-size: 60px; font-family: BACS"">khmhkBD</p>","","","","","","","","","",""
"html-keyboard-response","224","285222","0.0-12.0-0.54","5f1e8dc7e2161c86cdcd220a","650c16f0f2faf8d7a0d14c09","651c1d02c58ed94d241a0741","null","null","<p style=""font-size: 60px; font-family: BACS"">cAZuYmb</p>","","","","","","","","","",""
"html-keyboard-response","225","286225","0.0-12.0-0.55","5f1e8dc7e2161c86cdcd220a","650c16f0f2faf8d7a0d14c09","651c1d02c58ed94d241a0741","null","null","<p style=""font-size: 60px; font-family: BACS"">KABAmKcD</p>","","","","","","","","","",""
"html-keyboard-response","226","287227","0.0-12.0-0.56","5f1e8dc7e2161c86cdcd220a","650c16f0f2faf8d7a0d14c09","651c1d02c58ed94d241a0741","null","null","<p style=""font-size: 60px; font-family: BACS"">rvUbAld</p>","","","","","","","","","",""
"html-keyboard-response","227","288237","0.0-12.0-0.57","5f1e8dc7e2161c86cdcd220a","650c16f0f2faf8d7a0d14c09","651c1d02c58ed94d241a0741","null","null","<p style=""font-size: 60px; font-family: BACS"">AZaJcrULv</p>","","","","","","","","","",""
"html-keyboard-response","228","289254","0.0-12.0-0.58","5f1e8dc7e2161c86cdcd220a","650c16f0f2faf8d7a0d14c09","651c1d02c58ed94d241a0741","null","null","<p style=""font-size: 60px; font-family: BACS"">DOBhYmKcD</p>","","","","","","","","","",""
"html-keyboard-response","229","290268","0.0-12.0-0.59","5f1e8dc7e2161c86cdcd220a","650c16f0f2faf8d7a0d14c09","651c1d02c58ed94d241a0741","null","null","<p style=""font-size: 60px; font-family: BACS"">LdQvYmb</p>","","","","","","","","","",""
"html-keyboard-response","230","291280","0.0-12.0-0.60","5f1e8dc7e2161c86cdcd220a","650c16f0f2faf8d7a0d14c09","651c1d02c58ed94d241a0741","null","null","<p style=""font-size: 60px; font-family: BACS"">DBlhcMRl</p>","","","","","","","","","",""
"html-keyboard-response","231","292287","0.0-12.0-0.61","5f1e8dc7e2161c86cdcd220a","650c16f0f2faf8d7a0d14c09","651c1d02c58ed94d241a0741","null","null","<p style=""font-size: 60px; font-family: BACS"">rvUbQGb</p>","","","","","","","","","",""
"html-keyboard-response","232","293305","0.0-12.0-0.62","5f1e8dc7e2161c86cdcd220a","650c16f0f2faf8d7a0d14c09","651c1d02c58ed94d241a0741","null","null","<p style=""font-size: 60px; font-family: BACS"">DOBhYcMRl</p>","","","","","","","","","",""
"html-keyboard-response","233","294321","0.0-12.0-0.63","5f1e8dc7e2161c86cdcd220a","650c16f0f2faf8d7a0d14c09","651c1d02c58ed94d241a0741","null","null","<p style=""font-size: 60px; font-family: BACS"">dTmEDdEPD</p>","","","","","","","","","",""
"html-keyboard-response","234","295323","0.0-12.0-0.64","5f1e8dc7e2161c86cdcd220a","650c16f0f2faf8d7a0d14c09","651c1d02c58ed94d241a0741","null","null","<p style=""font-size: 60px; font-family: BACS"">ZNLOvrZYd</p>","","","","","","","","","",""
"html-keyboard-response","235","296343","0.0-12.0-0.65","5f1e8dc7e2161c86cdcd220a","650c16f0f2faf8d7a0d14c09","651c1d02c58ed94d241a0741","null","null","<p style=""font-size: 60px; font-family: BACS"">PdDTkBD</p>","","","","","","","","","",""
"html-keyboard-response","236","297353","0.0-12.0-0.66","5f1e8dc7e2161c86cdcd220a","650c16f0f2faf8d7a0d14c09","651c1d02c58ed94d241a0741","null","null","<p style=""font-size: 60px; font-family: BACS"">LdQvrZYd</p>","","","","","","","","","",""
"html-keyboard-response","237","298358","0.0-12.0-0.67","5f1e8dc7e2161c86cdcd220a","650c16f0f2faf8d7a0d14c09","651c1d02c58ed94d241a0741","null","null","<p style=""font-size: 60px; font-family: BACS"">dTmEDkBD</p>","","","","","","","","","",""
"html-keyboard-response","238","299368","0.0-12.0-0.68","5f1e8dc7e2161c86cdcd220a","650c16f0f2faf8d7a0d14c09","651c1d02c58ed94d241a0741","null","null","<p style=""font-size: 60px; font-family: BACS"">UAcdurULv</p>","","","","","","","","","",""
"html-keyboard-response","239","300378","0.0-12.0-0.69","5f1e8dc7e2161c86cdcd220a","650c16f0f2faf8d7a0d14c09","651c1d02c58ed94d241a0741","null","null","<p style=""font-size: 60px; font-family: BACS"">KABAkBD</p>","","","","","","","","","",""
"html-keyboard-response","240","301379","0.0-12.0-0.70","5f1e8dc7e2161c86cdcd220a","650c16f0f2faf8d7a0d14c09","651c1d02c58ed94d241a0741","null","null","<p style=""font-size: 60px; font-family: BACS"">UYZlZrULv</p>","","","","","","","","","",""
"html-keyboard-response","241","302395","0.0-12.0-0.71","5f1e8dc7e2161c86cdcd220a","650c16f0f2faf8d7a0d14c09","651c1d02c58ed94d241a0741","null","null","<p style=""font-size: 60px; font-family: BACS"">PdDTmKcD</p>","","","","","","","","","",""
"html-keyboard-response","242","303400","0.0-12.0-0.72","5f1e8dc7e2161c86cdcd220a","650c16f0f2faf8d7a0d14c09","651c1d02c58ed94d241a0741","null","null","<p style=""font-size: 60px; font-family: BACS"">ldAaYmb</p>","","","","","","","","","",""
"html-keyboard-response","243","304413","0.0-12.0-0.73","5f1e8dc7e2161c86cdcd220a","650c16f0f2faf8d7a0d14c09","651c1d02c58ed94d241a0741","null","null","<p style=""font-size: 60px; font-family: BACS"">KABAcMRl</p>","","","","","","","","","",""
"html-keyboard-response","244","305427","0.0-12.0-0.74","5f1e8dc7e2161c86cdcd220a","650c16f0f2faf8d7a0d14c09","651c1d02c58ed94d241a0741","null","null","<p style=""font-size: 60px; font-family: BACS"">DBklmKcD</p>","","","","","","","","","",""
"html-keyboard-response","245","306435","0.0-12.0-0.75","5f1e8dc7e2161c86cdcd220a","650c16f0f2faf8d7a0d14c09","651c1d02c58ed94d241a0741","null","null","<p style=""font-size: 60px; font-family: BACS"">UAcdurZYd</p>","","","","","","","","","",""
"html-keyboard-response","246","307450","0.0-12.0-0.76","5f1e8dc7e2161c86cdcd220a","650c16f0f2faf8d7a0d14c09","651c1d02c58ed94d241a0741","null","null","<p style=""font-size: 60px; font-family: BACS"">rvUbrULv</p>","","","","","","","","","",""
"html-keyboard-response","247","308457","0.0-12.0-0.77","5f1e8dc7e2161c86cdcd220a","650c16f0f2faf8d7a0d14c09","651c1d02c58ed94d241a0741","null","null","<p style=""font-size: 60px; font-family: BACS"">khmhmKcD</p>","","","","","","","","","",""
"html-keyboard-response","248","309469","0.0-12.0-0.78","5f1e8dc7e2161c86cdcd220a","650c16f0f2faf8d7a0d14c09","651c1d02c58ed94d241a0741","null","null","<p style=""font-size: 60px; font-family: BACS"">KElBkBD</p>","","","","","","","","","",""
"html-keyboard-response","249","310473","0.0-12.0-0.79","5f1e8dc7e2161c86cdcd220a","650c16f0f2faf8d7a0d14c09","651c1d02c58ed94d241a0741","null","null","<p style=""font-size: 60px; font-family: BACS"">BEPOkPM</p>","","","","","","","","","",""
"html-keyboard-response","250","323876","0.0-13.0","5f1e8dc7e2161c86cdcd220a","650c16f0f2faf8d7a0d14c09","651c1d02c58ed94d241a0741","13402"," ","<p>Great, you've seen the third block of words. You may now take a short break.</p>
      <p>Press the spacebar when you're ready to continue.</p>","","","","","","","","","",""
"html-keyboard-response","251","324892","0.0-14.0-0.0","5f1e8dc7e2161c86cdcd220a","650c16f0f2faf8d7a0d14c09","651c1d02c58ed94d241a0741","null","null","<p style=""font-size: 60px; font-family: BACS"">cAZuAld</p>","","","","","","","","","",""
"html-keyboard-response","252","325899","0.0-14.0-0.1","5f1e8dc7e2161c86cdcd220a","650c16f0f2faf8d7a0d14c09","651c1d02c58ed94d241a0741","null","null","<p style=""font-size: 60px; font-family: BACS"">DBlhkPM</p>","","","","","","","","","",""
"html-keyboard-response","253","326918","0.0-14.0-0.2","5f1e8dc7e2161c86cdcd220a","650c16f0f2faf8d7a0d14c09","651c1d02c58ed94d241a0741","null","null","<p style=""font-size: 60px; font-family: BACS"">BEPOdEPD</p>","","","","","","","","","",""
"html-keyboard-response","254","327935","0.0-14.0-0.3","5f1e8dc7e2161c86cdcd220a","650c16f0f2faf8d7a0d14c09","651c1d02c58ed94d241a0741","null","null","<p style=""font-size: 60px; font-family: BACS"">KABAkBD</p>","","","","","","","","","",""
"html-keyboard-response","255","328951","0.0-14.0-0.4","5f1e8dc7e2161c86cdcd220a","650c16f0f2faf8d7a0d14c09","651c1d02c58ed94d241a0741","null","null","<p style=""font-size: 60px; font-family: BACS"">dTmEDcMRl</p>","","","","","","","","","",""
"html-keyboard-response","256","329967","0.0-14.0-0.5","5f1e8dc7e2161c86cdcd220a","650c16f0f2faf8d7a0d14c09","651c1d02c58ed94d241a0741","null","null","<p style=""font-size: 60px; font-family: BACS"">ldAarULv</p>","","","","","","","","","",""
"html-keyboard-response","257","330989","0.0-14.0-0.6","5f1e8dc7e2161c86cdcd220a","650c16f0f2faf8d7a0d14c09","651c1d02c58ed94d241a0741","null","null","<p style=""font-size: 60px; font-family: BACS"">DBkldEPD</p>","","","","","","","","","",""
"html-keyboard-response","258","332002","0.0-14.0-0.7","5f1e8dc7e2161c86cdcd220a","650c16f0f2faf8d7a0d14c09","651c1d02c58ed94d241a0741","null","null","<p style=""font-size: 60px; font-family: BACS"">aYaNQGb</p>","","","","","","","","","",""
"html-keyboard-response","259","333006","0.0-14.0-0.8","5f1e8dc7e2161c86cdcd220a","650c16f0f2faf8d7a0d14c09","651c1d02c58ed94d241a0741","null","null","<p style=""font-size: 60px; font-family: BACS"">khmhdEPD</p>","","","","","","","","","",""
"html-keyboard-response","260","334008","0.0-14.0-0.9","5f1e8dc7e2161c86cdcd220a","650c16f0f2faf8d7a0d14c09","651c1d02c58ed94d241a0741","null","null","<p style=""font-size: 60px; font-family: BACS"">cAZuYmb</p>","","","","","","","","","",""
"html-keyboard-response","261","335030","0.0-14.0-0.10","5f1e8dc7e2161c86cdcd220a","650c16f0f2faf8d7a0d14c09","651c1d02c58ed94d241a0741","null","null","<p style=""font-size: 60px; font-family: BACS"">ZNLOvQGb</p>","","","","","","","","","",""
"html-keyboard-response","262","336041","0.0-14.0-0.11","5f1e8dc7e2161c86cdcd220a","650c16f0f2faf8d7a0d14c09","651c1d02c58ed94d241a0741","null","null","<p style=""font-size: 60px; font-family: BACS"">DOBhYkPM</p>","","","","","","","","","",""
"html-keyboard-response","263","337050","0.0-14.0-0.12","5f1e8dc7e2161c86cdcd220a","650c16f0f2faf8d7a0d14c09","651c1d02c58ed94d241a0741","null","null","<p style=""font-size: 60px; font-family: BACS"">rvUbAld</p>","","","","","","","","","",""
"html-keyboard-response","264","338059","0.0-14.0-0.13","5f1e8dc7e2161c86cdcd220a","650c16f0f2faf8d7a0d14c09","651c1d02c58ed94d241a0741","null","null","<p style=""font-size: 60px; font-family: BACS"">KABAdEPD</p>","","","","","","","","","",""
"html-keyboard-response","265","339066","0.0-14.0-0.14","5f1e8dc7e2161c86cdcd220a","650c16f0f2faf8d7a0d14c09","651c1d02c58ed94d241a0741","null","null","<p style=""font-size: 60px; font-family: BACS"">ldAarZYd</p>","","","","","","","","","",""
"html-keyboard-response","266","340084","0.0-14.0-0.15","5f1e8dc7e2161c86cdcd220a","650c16f0f2faf8d7a0d14c09","651c1d02c58ed94d241a0741","null","null","<p style=""font-size: 60px; font-family: BACS"">aYaNYmb</p>","","","","","","","","","",""
"html-keyboard-response","267","341090","0.0-14.0-0.16","5f1e8dc7e2161c86cdcd220a","650c16f0f2faf8d7a0d14c09","651c1d02c58ed94d241a0741","null","null","<p style=""font-size: 60px; font-family: BACS"">muYNAld</p>","","","","","","","","","",""
"html-keyboard-response","268","342101","0.0-14.0-0.17","5f1e8dc7e2161c86cdcd220a","650c16f0f2faf8d7a0d14c09","651c1d02c58ed94d241a0741","null","null","<p style=""font-size: 60px; font-family: BACS"">DBlhcMRl</p>","","","","","","","","","",""
"html-keyboard-response","269","343107","0.0-14.0-0.18","5f1e8dc7e2161c86cdcd220a","650c16f0f2faf8d7a0d14c09","651c1d02c58ed94d241a0741","null","null","<p style=""font-size: 60px; font-family: BACS"">AZaJcQGb</p>","","","","","","","","","",""
"html-keyboard-response","270","344119","0.0-14.0-0.19","5f1e8dc7e2161c86cdcd220a","650c16f0f2faf8d7a0d14c09","651c1d02c58ed94d241a0741","null","null","<p style=""font-size: 60px; font-family: BACS"">DBklmKcD</p>","","","","","","","","","",""
"html-keyboard-response","271","345134","0.0-14.0-0.20","5f1e8dc7e2161c86cdcd220a","650c16f0f2faf8d7a0d14c09","651c1d02c58ed94d241a0741","null","null","<p style=""font-size: 60px; font-family: BACS"">UYZlZrULv</p>","","","","","","","","","",""
"html-keyboard-response","272","346148","0.0-14.0-0.21","5f1e8dc7e2161c86cdcd220a","650c16f0f2faf8d7a0d14c09","651c1d02c58ed94d241a0741","null","null","<p style=""font-size: 60px; font-family: BACS"">ldAaQGb</p>","","","","","","","","","",""
"html-keyboard-response","273","347169","0.0-14.0-0.22","5f1e8dc7e2161c86cdcd220a","650c16f0f2faf8d7a0d14c09","651c1d02c58ed94d241a0741","null","null","<p style=""font-size: 60px; font-family: BACS"">UYZlZYmb</p>","","","","","","","","","",""
"html-keyboard-response","274","348184","0.0-14.0-0.23","5f1e8dc7e2161c86cdcd220a","650c16f0f2faf8d7a0d14c09","651c1d02c58ed94d241a0741","null","null","<p style=""font-size: 60px; font-family: BACS"">khmhmKcD</p>","","","","","","","","","",""
"html-keyboard-response","275","349188","0.0-14.0-0.24","5f1e8dc7e2161c86cdcd220a","650c16f0f2faf8d7a0d14c09","651c1d02c58ed94d241a0741","null","null","<p style=""font-size: 60px; font-family: BACS"">ZNLOvrULv</p>","","","","","","","","","",""
"html-keyboard-response","276","350200","0.0-14.0-0.25","5f1e8dc7e2161c86cdcd220a","650c16f0f2faf8d7a0d14c09","651c1d02c58ed94d241a0741","null","null","<p style=""font-size: 60px; font-family: BACS"">DBlhdEPD</p>","","","","","","","","","",""
"html-keyboard-response","277","351214","0.0-14.0-0.26","5f1e8dc7e2161c86cdcd220a","650c16f0f2faf8d7a0d14c09","651c1d02c58ed94d241a0741","null","null","<p style=""font-size: 60px; font-family: BACS"">BEPOmKcD</p>","","","","","","","","","",""
"html-keyboard-response","278","352229","0.0-14.0-0.27","5f1e8dc7e2161c86cdcd220a","650c16f0f2faf8d7a0d14c09","651c1d02c58ed94d241a0741","null","null","<p style=""font-size: 60px; font-family: BACS"">LdQvrULv</p>","","","","","","","","","",""
"html-keyboard-response","279","353238","0.0-14.0-0.28","5f1e8dc7e2161c86cdcd220a","650c16f0f2faf8d7a0d14c09","651c1d02c58ed94d241a0741","null","null","<p style=""font-size: 60px; font-family: BACS"">muYNQGb</p>","","","","","","","","","",""
"html-keyboard-response","280","354248","0.0-14.0-0.29","5f1e8dc7e2161c86cdcd220a","650c16f0f2faf8d7a0d14c09","651c1d02c58ed94d241a0741","null","null","<p style=""font-size: 60px; font-family: BACS"">AZaJcrZYd</p>","","","","","","","","","",""
"html-keyboard-response","281","355259","0.0-14.0-0.30","5f1e8dc7e2161c86cdcd220a","650c16f0f2faf8d7a0d14c09","651c1d02c58ed94d241a0741","null","null","<p style=""font-size: 60px; font-family: BACS"">hlkTdEPD</p>","","","","","","","","","",""
"html-keyboard-response","282","356268","0.0-14.0-0.31","5f1e8dc7e2161c86cdcd220a","650c16f0f2faf8d7a0d14c09","651c1d02c58ed94d241a0741","null","null","<p style=""font-size: 60px; font-family: BACS"">UAcduAld</p>","","","","","","","","","",""
"html-keyboard-response","283","357275","0.0-14.0-0.32","5f1e8dc7e2161c86cdcd220a","650c16f0f2faf8d7a0d14c09","651c1d02c58ed94d241a0741","null","null","<p style=""font-size: 60px; font-family: BACS"">AZaJcrULv</p>","","","","","","","","","",""
"html-keyboard-response","284","358291","0.0-14.0-0.33","5f1e8dc7e2161c86cdcd220a","650c16f0f2faf8d7a0d14c09","651c1d02c58ed94d241a0741","null","null","<p style=""font-size: 60px; font-family: BACS"">cAZuQGb</p>","","","","","","","","","",""
"html-keyboard-response","285","359312","0.0-14.0-0.34","5f1e8dc7e2161c86cdcd220a","650c16f0f2faf8d7a0d14c09","651c1d02c58ed94d241a0741","null","null","<p style=""font-size: 60px; font-family: BACS"">LdQvAld</p>","","","","","","","","","",""
"html-keyboard-response","286","360327","0.0-14.0-0.35","5f1e8dc7e2161c86cdcd220a","650c16f0f2faf8d7a0d14c09","651c1d02c58ed94d241a0741","null","null","<p style=""font-size: 60px; font-family: BACS"">hlkTkPM</p>","","","","","","","","","",""
"html-keyboard-response","287","361329","0.0-14.0-0.36","5f1e8dc7e2161c86cdcd220a","650c16f0f2faf8d7a0d14c09","651c1d02c58ed94d241a0741","null","null","<p style=""font-size: 60px; font-family: BACS"">KABAcMRl</p>","","","","","","","","","",""
"html-keyboard-response","288","362338","0.0-14.0-0.37","5f1e8dc7e2161c86cdcd220a","650c16f0f2faf8d7a0d14c09","651c1d02c58ed94d241a0741","null","null","<p style=""font-size: 60px; font-family: BACS"">aYaNAld</p>","","","","","","","","","",""
"html-keyboard-response","289","363357","0.0-14.0-0.38","5f1e8dc7e2161c86cdcd220a","650c16f0f2faf8d7a0d14c09","651c1d02c58ed94d241a0741","null","null","<p style=""font-size: 60px; font-family: BACS"">KABAmKcD</p>","","","","","","","","","",""
"html-keyboard-response","290","364361","0.0-14.0-0.39","5f1e8dc7e2161c86cdcd220a","650c16f0f2faf8d7a0d14c09","651c1d02c58ed94d241a0741","null","null","<p style=""font-size: 60px; font-family: BACS"">dTmEDkBD</p>","","","","","","","","","",""
"html-keyboard-response","291","365371","0.0-14.0-0.40","5f1e8dc7e2161c86cdcd220a","650c16f0f2faf8d7a0d14c09","651c1d02c58ed94d241a0741","null","null","<p style=""font-size: 60px; font-family: BACS"">DOBhYcMRl</p>","","","","","","","","","",""
"html-keyboard-response","292","366375","0.0-14.0-0.41","5f1e8dc7e2161c86cdcd220a","650c16f0f2faf8d7a0d14c09","651c1d02c58ed94d241a0741","null","null","<p style=""font-size: 60px; font-family: BACS"">KElBmKcD</p>","","","","","","","","","",""
"html-keyboard-response","293","367384","0.0-14.0-0.42","5f1e8dc7e2161c86cdcd220a","650c16f0f2faf8d7a0d14c09","651c1d02c58ed94d241a0741","null","null","<p style=""font-size: 60px; font-family: BACS"">DBklcMRl</p>","","","","","","","","","",""
"html-keyboard-response","294","368392","0.0-14.0-0.43","5f1e8dc7e2161c86cdcd220a","650c16f0f2faf8d7a0d14c09","651c1d02c58ed94d241a0741","null","null","<p style=""font-size: 60px; font-family: BACS"">AZaJcYmb</p>","","","","","","","","","",""
"html-keyboard-response","295","369415","0.0-14.0-0.44","5f1e8dc7e2161c86cdcd220a","650c16f0f2faf8d7a0d14c09","651c1d02c58ed94d241a0741","null","null","<p style=""font-size: 60px; font-family: BACS"">ZNLOvrZYd</p>","","","","","","","","","",""
"html-keyboard-response","296","370420","0.0-14.0-0.45","5f1e8dc7e2161c86cdcd220a","650c16f0f2faf8d7a0d14c09","651c1d02c58ed94d241a0741","null","null","<p style=""font-size: 60px; font-family: BACS"">UAcdurULv</p>","","","","","","","","","",""
"html-keyboard-response","297","371428","0.0-14.0-0.46","5f1e8dc7e2161c86cdcd220a","650c16f0f2faf8d7a0d14c09","651c1d02c58ed94d241a0741","null","null","<p style=""font-size: 60px; font-family: BACS"">muYNrZYd</p>","","","","","","","","","",""
"html-keyboard-response","298","372444","0.0-14.0-0.47","5f1e8dc7e2161c86cdcd220a","650c16f0f2faf8d7a0d14c09","651c1d02c58ed94d241a0741","null","null","<p style=""font-size: 60px; font-family: BACS"">rvUbQGb</p>","","","","","","","","","",""
"html-keyboard-response","299","373458","0.0-14.0-0.48","5f1e8dc7e2161c86cdcd220a","650c16f0f2faf8d7a0d14c09","651c1d02c58ed94d241a0741","null","null","<p style=""font-size: 60px; font-family: BACS"">BEPOkBD</p>","","","","","","","","","",""
"html-keyboard-response","300","374462","0.0-14.0-0.49","5f1e8dc7e2161c86cdcd220a","650c16f0f2faf8d7a0d14c09","651c1d02c58ed94d241a0741","null","null","<p style=""font-size: 60px; font-family: BACS"">hlkTcMRl</p>","","","","","","","","","",""
"html-keyboard-response","301","375466","0.0-14.0-0.50","5f1e8dc7e2161c86cdcd220a","650c16f0f2faf8d7a0d14c09","651c1d02c58ed94d241a0741","null","null","<p style=""font-size: 60px; font-family: BACS"">DBklkPM</p>","","","","","","","","","",""
"html-keyboard-response","302","376481","0.0-14.0-0.51","5f1e8dc7e2161c86cdcd220a","650c16f0f2faf8d7a0d14c09","651c1d02c58ed94d241a0741","null","null","<p style=""font-size: 60px; font-family: BACS"">KElBkBD</p>","","","","","","","","","",""
"html-keyboard-response","303","377484","0.0-14.0-0.52","5f1e8dc7e2161c86cdcd220a","650c16f0f2faf8d7a0d14c09","651c1d02c58ed94d241a0741","null","null","<p style=""font-size: 60px; font-family: BACS"">dTmEDkPM</p>","","","","","","","","","",""
"html-keyboard-response","304","378499","0.0-14.0-0.53","5f1e8dc7e2161c86cdcd220a","650c16f0f2faf8d7a0d14c09","651c1d02c58ed94d241a0741","null","null","<p style=""font-size: 60px; font-family: BACS"">PdDTcMRl</p>","","","","","","","","","",""
"html-keyboard-response","305","379515","0.0-14.0-0.54","5f1e8dc7e2161c86cdcd220a","650c16f0f2faf8d7a0d14c09","651c1d02c58ed94d241a0741","null","null","<p style=""font-size: 60px; font-family: BACS"">LdQvYmb</p>","","","","","","","","","",""
"html-keyboard-response","306","380517","0.0-14.0-0.55","5f1e8dc7e2161c86cdcd220a","650c16f0f2faf8d7a0d14c09","651c1d02c58ed94d241a0741","null","null","<p style=""font-size: 60px; font-family: BACS"">PdDTmKcD</p>","","","","","","","","","",""
"html-keyboard-response","307","381533","0.0-14.0-0.56","5f1e8dc7e2161c86cdcd220a","650c16f0f2faf8d7a0d14c09","651c1d02c58ed94d241a0741","null","null","<p style=""font-size: 60px; font-family: BACS"">UYZlZQGb</p>","","","","","","","","","",""
"html-keyboard-response","308","382535","0.0-14.0-0.57","5f1e8dc7e2161c86cdcd220a","650c16f0f2faf8d7a0d14c09","651c1d02c58ed94d241a0741","null","null","<p style=""font-size: 60px; font-family: BACS"">hlkTmKcD</p>","","","","","","","","","",""
"html-keyboard-response","309","383551","0.0-14.0-0.58","5f1e8dc7e2161c86cdcd220a","650c16f0f2faf8d7a0d14c09","651c1d02c58ed94d241a0741","null","null","<p style=""font-size: 60px; font-family: BACS"">aYaNrZYd</p>","","","","","","","","","",""
"html-keyboard-response","310","384555","0.0-14.0-0.59","5f1e8dc7e2161c86cdcd220a","650c16f0f2faf8d7a0d14c09","651c1d02c58ed94d241a0741","null","null","<p style=""font-size: 60px; font-family: BACS"">PdDTkBD</p>","","","","","","","","","",""
"html-keyboard-response","311","385557","0.0-14.0-0.60","5f1e8dc7e2161c86cdcd220a","650c16f0f2faf8d7a0d14c09","651c1d02c58ed94d241a0741","null","null","<p style=""font-size: 60px; font-family: BACS"">muYNrULv</p>","","","","","","","","","",""
"html-keyboard-response","312","386572","0.0-14.0-0.61","5f1e8dc7e2161c86cdcd220a","650c16f0f2faf8d7a0d14c09","651c1d02c58ed94d241a0741","null","null","<p style=""font-size: 60px; font-family: BACS"">DBlhkBD</p>","","","","","","","","","",""
"html-keyboard-response","313","387574","0.0-14.0-0.62","5f1e8dc7e2161c86cdcd220a","650c16f0f2faf8d7a0d14c09","651c1d02c58ed94d241a0741","null","null","<p style=""font-size: 60px; font-family: BACS"">UAcdurZYd</p>","","","","","","","","","",""
"html-keyboard-response","314","388589","0.0-14.0-0.63","5f1e8dc7e2161c86cdcd220a","650c16f0f2faf8d7a0d14c09","651c1d02c58ed94d241a0741","null","null","<p style=""font-size: 60px; font-family: BACS"">rvUbYmb</p>","","","","","","","","","",""
"html-keyboard-response","315","389595","0.0-14.0-0.64","5f1e8dc7e2161c86cdcd220a","650c16f0f2faf8d7a0d14c09","651c1d02c58ed94d241a0741","null","null","<p style=""font-size: 60px; font-family: BACS"">ZNLOvAld</p>","","","","","","","","","",""
"html-keyboard-response","316","390610","0.0-14.0-0.65","5f1e8dc7e2161c86cdcd220a","650c16f0f2faf8d7a0d14c09","651c1d02c58ed94d241a0741","null","null","<p style=""font-size: 60px; font-family: BACS"">khmhkBD</p>","","","","","","","","","",""
"html-keyboard-response","317","391615","0.0-14.0-0.66","5f1e8dc7e2161c86cdcd220a","650c16f0f2faf8d7a0d14c09","651c1d02c58ed94d241a0741","null","null","<p style=""font-size: 60px; font-family: BACS"">DOBhYmKcD</p>","","","","","","","","","",""
"html-keyboard-response","318","392622","0.0-14.0-0.67","5f1e8dc7e2161c86cdcd220a","650c16f0f2faf8d7a0d14c09","651c1d02c58ed94d241a0741","null","null","<p style=""font-size: 60px; font-family: BACS"">rvUbrULv</p>","","","","","","","","","",""
"html-keyboard-response","319","393633","0.0-14.0-0.68","5f1e8dc7e2161c86cdcd220a","650c16f0f2faf8d7a0d14c09","651c1d02c58ed94d241a0741","null","null","<p style=""font-size: 60px; font-family: BACS"">khmhcMRl</p>","","","","","","","","","",""
"html-keyboard-response","320","394639","0.0-14.0-0.69","5f1e8dc7e2161c86cdcd220a","650c16f0f2faf8d7a0d14c09","651c1d02c58ed94d241a0741","null","null","<p style=""font-size: 60px; font-family: BACS"">ldAaYmb</p>","","","","","","","","","",""
"html-keyboard-response","321","395653","0.0-14.0-0.70","5f1e8dc7e2161c86cdcd220a","650c16f0f2faf8d7a0d14c09","651c1d02c58ed94d241a0741","null","null","<p style=""font-size: 60px; font-family: BACS"">KElBdEPD</p>","","","","","","","","","",""
"html-keyboard-response","322","396668","0.0-14.0-0.71","5f1e8dc7e2161c86cdcd220a","650c16f0f2faf8d7a0d14c09","651c1d02c58ed94d241a0741","null","null","<p style=""font-size: 60px; font-family: BACS"">PdDTkPM</p>","","","","","","","","","",""
"html-keyboard-response","323","397671","0.0-14.0-0.72","5f1e8dc7e2161c86cdcd220a","650c16f0f2faf8d7a0d14c09","651c1d02c58ed94d241a0741","null","null","<p style=""font-size: 60px; font-family: BACS"">DOBhYkBD</p>","","","","","","","","","",""
"html-keyboard-response","324","398681","0.0-14.0-0.73","5f1e8dc7e2161c86cdcd220a","650c16f0f2faf8d7a0d14c09","651c1d02c58ed94d241a0741","null","null","<p style=""font-size: 60px; font-family: BACS"">UYZlZAld</p>","","","","","","","","","",""
"html-keyboard-response","325","399696","0.0-14.0-0.74","5f1e8dc7e2161c86cdcd220a","650c16f0f2faf8d7a0d14c09","651c1d02c58ed94d241a0741","null","null","<p style=""font-size: 60px; font-family: BACS"">BEPOkPM</p>","","","","","","","","","",""
"html-keyboard-response","326","400713","0.0-14.0-0.75","5f1e8dc7e2161c86cdcd220a","650c16f0f2faf8d7a0d14c09","651c1d02c58ed94d241a0741","null","null","<p style=""font-size: 60px; font-family: BACS"">LdQvrZYd</p>","","","","","","","","","",""
"html-keyboard-response","327","401717","0.0-14.0-0.76","5f1e8dc7e2161c86cdcd220a","650c16f0f2faf8d7a0d14c09","651c1d02c58ed94d241a0741","null","null","<p style=""font-size: 60px; font-family: BACS"">dTmEDdEPD</p>","","","","","","","","","",""
"html-keyboard-response","328","402728","0.0-14.0-0.77","5f1e8dc7e2161c86cdcd220a","650c16f0f2faf8d7a0d14c09","651c1d02c58ed94d241a0741","null","null","<p style=""font-size: 60px; font-family: BACS"">cAZurZYd</p>","","","","","","","","","",""
"html-keyboard-response","329","403747","0.0-14.0-0.78","5f1e8dc7e2161c86cdcd220a","650c16f0f2faf8d7a0d14c09","651c1d02c58ed94d241a0741","null","null","<p style=""font-size: 60px; font-family: BACS"">KElBkPM</p>","","","","","","","","","",""
"html-keyboard-response","330","404769","0.0-14.0-0.79","5f1e8dc7e2161c86cdcd220a","650c16f0f2faf8d7a0d14c09","651c1d02c58ed94d241a0741","null","null","<p style=""font-size: 60px; font-family: BACS"">UAcduYmb</p>","","","","","","","","","",""
"html-keyboard-response","331","427064","0.0-15.0","5f1e8dc7e2161c86cdcd220a","650c16f0f2faf8d7a0d14c09","651c1d02c58ed94d241a0741","22291"," ","<p>Great, you've seen the fourth block of words. You may now take a short break.</p>
      <p>Press the spacebar when you're ready to continue.</p>","","","","","","","","","",""
"html-keyboard-response","332","428071","0.0-16.0-0.0","5f1e8dc7e2161c86cdcd220a","650c16f0f2faf8d7a0d14c09","651c1d02c58ed94d241a0741","null","null","<p style=""font-size: 60px; font-family: BACS"">KElBkBD</p>","","","","","","","","","",""
"html-keyboard-response","333","429074","0.0-16.0-0.1","5f1e8dc7e2161c86cdcd220a","650c16f0f2faf8d7a0d14c09","651c1d02c58ed94d241a0741","null","null","<p style=""font-size: 60px; font-family: BACS"">KElBkBD</p>","","","","","","","","","",""
"html-keyboard-response","334","430088","0.0-16.0-0.2","5f1e8dc7e2161c86cdcd220a","650c16f0f2faf8d7a0d14c09","651c1d02c58ed94d241a0741","null","null","<p style=""font-size: 60px; font-family: BACS"">KElBkBD</p>","","","","","","","","","",""
"html-keyboard-response","335","431090","0.0-16.0-0.3","5f1e8dc7e2161c86cdcd220a","650c16f0f2faf8d7a0d14c09","651c1d02c58ed94d241a0741","null","null","<p style=""font-size: 60px; font-family: BACS"">KElBkBD</p>","","","","","","","","","",""
"html-keyboard-response","336","432095","0.0-16.0-0.4","5f1e8dc7e2161c86cdcd220a","650c16f0f2faf8d7a0d14c09","651c1d02c58ed94d241a0741","null","null","<p style=""font-size: 60px; font-family: BACS"">KElBkBD</p>","","","","","","","","","",""
"html-keyboard-response","337","433104","0.0-16.0-0.5","5f1e8dc7e2161c86cdcd220a","650c16f0f2faf8d7a0d14c09","651c1d02c58ed94d241a0741","null","null","<p style=""font-size: 60px; font-family: BACS"">KElBkBD</p>","","","","","","","","","",""
"html-keyboard-response","338","434111","0.0-16.0-0.6","5f1e8dc7e2161c86cdcd220a","650c16f0f2faf8d7a0d14c09","651c1d02c58ed94d241a0741","null","null","<p style=""font-size: 60px; font-family: BACS"">KElBkBD</p>","","","","","","","","","",""
"html-keyboard-response","339","435115","0.0-16.0-0.7","5f1e8dc7e2161c86cdcd220a","650c16f0f2faf8d7a0d14c09","651c1d02c58ed94d241a0741","null","null","<p style=""font-size: 60px; font-family: BACS"">KElBkBD</p>","","","","","","","","","",""
"html-keyboard-response","340","436126","0.0-16.0-0.8","5f1e8dc7e2161c86cdcd220a","650c16f0f2faf8d7a0d14c09","651c1d02c58ed94d241a0741","null","null","<p style=""font-size: 60px; font-family: BACS"">KElBkBD</p>","","","","","","","","","",""
"html-keyboard-response","341","437134","0.0-16.0-0.9","5f1e8dc7e2161c86cdcd220a","650c16f0f2faf8d7a0d14c09","651c1d02c58ed94d241a0741","null","null","<p style=""font-size: 60px; font-family: BACS"">KElBkBD</p>","","","","","","","","","",""
"html-keyboard-response","342","438143","0.0-16.0-0.10","5f1e8dc7e2161c86cdcd220a","650c16f0f2faf8d7a0d14c09","651c1d02c58ed94d241a0741","null","null","<p style=""font-size: 60px; font-family: BACS"">KElBkBD</p>","","","","","","","","","",""
"html-keyboard-response","343","439149","0.0-16.0-0.11","5f1e8dc7e2161c86cdcd220a","650c16f0f2faf8d7a0d14c09","651c1d02c58ed94d241a0741","null","null","<p style=""font-size: 60px; font-family: BACS"">KElBkBD</p>","","","","","","","","","",""
"html-keyboard-response","344","440153","0.0-16.0-0.12","5f1e8dc7e2161c86cdcd220a","650c16f0f2faf8d7a0d14c09","651c1d02c58ed94d241a0741","null","null","<p style=""font-size: 60px; font-family: BACS"">KElBkBD</p>","","","","","","","","","",""
"html-keyboard-response","345","441155","0.0-16.0-0.13","5f1e8dc7e2161c86cdcd220a","650c16f0f2faf8d7a0d14c09","651c1d02c58ed94d241a0741","null","null","<p style=""font-size: 60px; font-family: BACS"">KElBkBD</p>","","","","","","","","","",""
"html-keyboard-response","346","442157","0.0-16.0-0.14","5f1e8dc7e2161c86cdcd220a","650c16f0f2faf8d7a0d14c09","651c1d02c58ed94d241a0741","null","null","<p style=""font-size: 60px; font-family: BACS"">KElBkBD</p>","","","","","","","","","",""
"html-keyboard-response","347","443163","0.0-16.0-0.15","5f1e8dc7e2161c86cdcd220a","650c16f0f2faf8d7a0d14c09","651c1d02c58ed94d241a0741","null","null","<p style=""font-size: 60px; font-family: BACS"">KElBkBD</p>","","","","","","","","","",""
"html-keyboard-response","348","444174","0.0-16.0-0.16","5f1e8dc7e2161c86cdcd220a","650c16f0f2faf8d7a0d14c09","651c1d02c58ed94d241a0741","null","null","<p style=""font-size: 60px; font-family: BACS"">KElBkBD</p>","","","","","","","","","",""
"html-keyboard-response","349","445190","0.0-16.0-0.17","5f1e8dc7e2161c86cdcd220a","650c16f0f2faf8d7a0d14c09","651c1d02c58ed94d241a0741","null","null","<p style=""font-size: 60px; font-family: BACS"">KElBkBD</p>","","","","","","","","","",""
"html-keyboard-response","350","446205","0.0-16.0-0.18","5f1e8dc7e2161c86cdcd220a","650c16f0f2faf8d7a0d14c09","651c1d02c58ed94d241a0741","null","null","<p style=""font-size: 60px; font-family: BACS"">KElBkBD</p>","","","","","","","","","",""
"html-keyboard-response","351","447210","0.0-16.0-0.19","5f1e8dc7e2161c86cdcd220a","650c16f0f2faf8d7a0d14c09","651c1d02c58ed94d241a0741","null","null","<p style=""font-size: 60px; font-family: BACS"">KElBkBD</p>","","","","","","","","","",""
"html-keyboard-response","352","448217","0.0-16.0-0.20","5f1e8dc7e2161c86cdcd220a","650c16f0f2faf8d7a0d14c09","651c1d02c58ed94d241a0741","null","null","<p style=""font-size: 60px; font-family: BACS"">KElBkBD</p>","","","","","","","","","",""
"html-keyboard-response","353","449233","0.0-16.0-0.21","5f1e8dc7e2161c86cdcd220a","650c16f0f2faf8d7a0d14c09","651c1d02c58ed94d241a0741","null","null","<p style=""font-size: 60px; font-family: BACS"">KElBkBD</p>","","","","","","","","","",""
"html-keyboard-response","354","450238","0.0-16.0-0.22","5f1e8dc7e2161c86cdcd220a","650c16f0f2faf8d7a0d14c09","651c1d02c58ed94d241a0741","null","null","<p style=""font-size: 60px; font-family: BACS"">KElBkBD</p>","","","","","","","","","",""
"html-keyboard-response","355","451250","0.0-16.0-0.23","5f1e8dc7e2161c86cdcd220a","650c16f0f2faf8d7a0d14c09","651c1d02c58ed94d241a0741","null","null","<p style=""font-size: 60px; font-family: BACS"">KElBkBD</p>","","","","","","","","","",""
"html-keyboard-response","356","452264","0.0-16.0-0.24","5f1e8dc7e2161c86cdcd220a","650c16f0f2faf8d7a0d14c09","651c1d02c58ed94d241a0741","null","null","<p style=""font-size: 60px; font-family: BACS"">KElBkBD</p>","","","","","","","","","",""
"html-keyboard-response","357","453267","0.0-16.0-0.25","5f1e8dc7e2161c86cdcd220a","650c16f0f2faf8d7a0d14c09","651c1d02c58ed94d241a0741","null","null","<p style=""font-size: 60px; font-family: BACS"">KElBkBD</p>","","","","","","","","","",""
"html-keyboard-response","358","454272","0.0-16.0-0.26","5f1e8dc7e2161c86cdcd220a","650c16f0f2faf8d7a0d14c09","651c1d02c58ed94d241a0741","null","null","<p style=""font-size: 60px; font-family: BACS"">KElBkBD</p>","","","","","","","","","",""
"html-keyboard-response","359","455274","0.0-16.0-0.27","5f1e8dc7e2161c86cdcd220a","650c16f0f2faf8d7a0d14c09","651c1d02c58ed94d241a0741","null","null","<p style=""font-size: 60px; font-family: BACS"">KElBkBD</p>","","","","","","","","","",""
"html-keyboard-response","360","456286","0.0-16.0-0.28","5f1e8dc7e2161c86cdcd220a","650c16f0f2faf8d7a0d14c09","651c1d02c58ed94d241a0741","null","null","<p style=""font-size: 60px; font-family: BACS"">KElBkBD</p>","","","","","","","","","",""
"html-keyboard-response","361","457288","0.0-16.0-0.29","5f1e8dc7e2161c86cdcd220a","650c16f0f2faf8d7a0d14c09","651c1d02c58ed94d241a0741","null","null","<p style=""font-size: 60px; font-family: BACS"">KElBkBD</p>","","","","","","","","","",""
"html-keyboard-response","362","458292","0.0-16.0-0.30","5f1e8dc7e2161c86cdcd220a","650c16f0f2faf8d7a0d14c09","651c1d02c58ed94d241a0741","null","null","<p style=""font-size: 60px; font-family: BACS"">KElBkBD</p>","","","","","","","","","",""
"html-keyboard-response","363","459306","0.0-16.0-0.31","5f1e8dc7e2161c86cdcd220a","650c16f0f2faf8d7a0d14c09","651c1d02c58ed94d241a0741","null","null","<p style=""font-size: 60px; font-family: BACS"">KElBkBD</p>","","","","","","","","","",""
"html-keyboard-response","364","460310","0.0-16.0-0.32","5f1e8dc7e2161c86cdcd220a","650c16f0f2faf8d7a0d14c09","651c1d02c58ed94d241a0741","null","null","<p style=""font-size: 60px; font-family: BACS"">KElBkBD</p>","","","","","","","","","",""
"html-keyboard-response","365","461332","0.0-16.0-0.33","5f1e8dc7e2161c86cdcd220a","650c16f0f2faf8d7a0d14c09","651c1d02c58ed94d241a0741","null","null","<p style=""font-size: 60px; font-family: BACS"">KElBkBD</p>","","","","","","","","","",""
"html-keyboard-response","366","462336","0.0-16.0-0.34","5f1e8dc7e2161c86cdcd220a","650c16f0f2faf8d7a0d14c09","651c1d02c58ed94d241a0741","null","null","<p style=""font-size: 60px; font-family: BACS"">KElBkBD</p>","","","","","","","","","",""
"html-keyboard-response","367","463340","0.0-16.0-0.35","5f1e8dc7e2161c86cdcd220a","650c16f0f2faf8d7a0d14c09","651c1d02c58ed94d241a0741","null","null","<p style=""font-size: 60px; font-family: BACS"">KElBkBD</p>","","","","","","","","","",""
"html-keyboard-response","368","464347","0.0-16.0-0.36","5f1e8dc7e2161c86cdcd220a","650c16f0f2faf8d7a0d14c09","651c1d02c58ed94d241a0741","null","null","<p style=""font-size: 60px; font-family: BACS"">KElBkBD</p>","","","","","","","","","",""
"html-keyboard-response","369","465365","0.0-16.0-0.37","5f1e8dc7e2161c86cdcd220a","650c16f0f2faf8d7a0d14c09","651c1d02c58ed94d241a0741","null","null","<p style=""font-size: 60px; font-family: BACS"">KElBkBD</p>","","","","","","","","","",""
"html-keyboard-response","370","466382","0.0-16.0-0.38","5f1e8dc7e2161c86cdcd220a","650c16f0f2faf8d7a0d14c09","651c1d02c58ed94d241a0741","null","null","<p style=""font-size: 60px; font-family: BACS"">KElBkBD</p>","","","","","","","","","",""
"html-keyboard-response","371","467393","0.0-16.0-0.39","5f1e8dc7e2161c86cdcd220a","650c16f0f2faf8d7a0d14c09","651c1d02c58ed94d241a0741","null","null","<p style=""font-size: 60px; font-family: BACS"">KElBkBD</p>","","","","","","","","","",""
"html-keyboard-response","372","468401","0.0-16.0-0.40","5f1e8dc7e2161c86cdcd220a","650c16f0f2faf8d7a0d14c09","651c1d02c58ed94d241a0741","null","null","<p style=""font-size: 60px; font-family: BACS"">KElBkBD</p>","","","","","","","","","",""
"html-keyboard-response","373","469416","0.0-16.0-0.41","5f1e8dc7e2161c86cdcd220a","650c16f0f2faf8d7a0d14c09","651c1d02c58ed94d241a0741","null","null","<p style=""font-size: 60px; font-family: BACS"">KElBkBD</p>","","","","","","","","","",""
"html-keyboard-response","374","470418","0.0-16.0-0.42","5f1e8dc7e2161c86cdcd220a","650c16f0f2faf8d7a0d14c09","651c1d02c58ed94d241a0741","null","null","<p style=""font-size: 60px; font-family: BACS"">KElBkBD</p>","","","","","","","","","",""
"html-keyboard-response","375","471423","0.0-16.0-0.43","5f1e8dc7e2161c86cdcd220a","650c16f0f2faf8d7a0d14c09","651c1d02c58ed94d241a0741","null","null","<p style=""font-size: 60px; font-family: BACS"">KElBkBD</p>","","","","","","","","","",""
"html-keyboard-response","376","472431","0.0-16.0-0.44","5f1e8dc7e2161c86cdcd220a","650c16f0f2faf8d7a0d14c09","651c1d02c58ed94d241a0741","null","null","<p style=""font-size: 60px; font-family: BACS"">KElBkBD</p>","","","","","","","","","",""
"html-keyboard-response","377","473436","0.0-16.0-0.45","5f1e8dc7e2161c86cdcd220a","650c16f0f2faf8d7a0d14c09","651c1d02c58ed94d241a0741","null","null","<p style=""font-size: 60px; font-family: BACS"">KElBkBD</p>","","","","","","","","","",""
"html-keyboard-response","378","474449","0.0-16.0-0.46","5f1e8dc7e2161c86cdcd220a","650c16f0f2faf8d7a0d14c09","651c1d02c58ed94d241a0741","null","null","<p style=""font-size: 60px; font-family: BACS"">KElBkBD</p>","","","","","","","","","",""
"html-keyboard-response","379","475467","0.0-16.0-0.47","5f1e8dc7e2161c86cdcd220a","650c16f0f2faf8d7a0d14c09","651c1d02c58ed94d241a0741","null","null","<p style=""font-size: 60px; font-family: BACS"">KElBkBD</p>","","","","","","","","","",""
"html-keyboard-response","380","476469","0.0-16.0-0.48","5f1e8dc7e2161c86cdcd220a","650c16f0f2faf8d7a0d14c09","651c1d02c58ed94d241a0741","null","null","<p style=""font-size: 60px; font-family: BACS"">KElBkBD</p>","","","","","","","","","",""
"html-keyboard-response","381","477471","0.0-16.0-0.49","5f1e8dc7e2161c86cdcd220a","650c16f0f2faf8d7a0d14c09","651c1d02c58ed94d241a0741","null","null","<p style=""font-size: 60px; font-family: BACS"">KElBkBD</p>","","","","","","","","","",""
"html-keyboard-response","382","478484","0.0-16.0-0.50","5f1e8dc7e2161c86cdcd220a","650c16f0f2faf8d7a0d14c09","651c1d02c58ed94d241a0741","null","null","<p style=""font-size: 60px; font-family: BACS"">KElBkBD</p>","","","","","","","","","",""
"html-keyboard-response","383","479493","0.0-16.0-0.51","5f1e8dc7e2161c86cdcd220a","650c16f0f2faf8d7a0d14c09","651c1d02c58ed94d241a0741","null","null","<p style=""font-size: 60px; font-family: BACS"">KElBkBD</p>","","","","","","","","","",""
"html-keyboard-response","384","480496","0.0-16.0-0.52","5f1e8dc7e2161c86cdcd220a","650c16f0f2faf8d7a0d14c09","651c1d02c58ed94d241a0741","null","null","<p style=""font-size: 60px; font-family: BACS"">KElBkBD</p>","","","","","","","","","",""
"html-keyboard-response","385","481526","0.0-16.0-0.53","5f1e8dc7e2161c86cdcd220a","650c16f0f2faf8d7a0d14c09","651c1d02c58ed94d241a0741","null","null","<p style=""font-size: 60px; font-family: BACS"">KElBkBD</p>","","","","","","","","","",""
"html-keyboard-response","386","482543","0.0-16.0-0.54","5f1e8dc7e2161c86cdcd220a","650c16f0f2faf8d7a0d14c09","651c1d02c58ed94d241a0741","null","null","<p style=""font-size: 60px; font-family: BACS"">KElBkBD</p>","","","","","","","","","",""
"html-keyboard-response","387","483545","0.0-16.0-0.55","5f1e8dc7e2161c86cdcd220a","650c16f0f2faf8d7a0d14c09","651c1d02c58ed94d241a0741","null","null","<p style=""font-size: 60px; font-family: BACS"">KElBkBD</p>","","","","","","","","","",""
"html-keyboard-response","388","484557","0.0-16.0-0.56","5f1e8dc7e2161c86cdcd220a","650c16f0f2faf8d7a0d14c09","651c1d02c58ed94d241a0741","null","null","<p style=""font-size: 60px; font-family: BACS"">KElBkBD</p>","","","","","","","","","",""
"html-keyboard-response","389","485574","0.0-16.0-0.57","5f1e8dc7e2161c86cdcd220a","650c16f0f2faf8d7a0d14c09","651c1d02c58ed94d241a0741","null","null","<p style=""font-size: 60px; font-family: BACS"">KElBkBD</p>","","","","","","","","","",""
"html-keyboard-response","390","486581","0.0-16.0-0.58","5f1e8dc7e2161c86cdcd220a","650c16f0f2faf8d7a0d14c09","651c1d02c58ed94d241a0741","null","null","<p style=""font-size: 60px; font-family: BACS"">KElBkBD</p>","","","","","","","","","",""
"html-keyboard-response","391","487593","0.0-16.0-0.59","5f1e8dc7e2161c86cdcd220a","650c16f0f2faf8d7a0d14c09","651c1d02c58ed94d241a0741","null","null","<p style=""font-size: 60px; font-family: BACS"">KElBkBD</p>","","","","","","","","","",""
"html-keyboard-response","392","488596","0.0-16.0-0.60","5f1e8dc7e2161c86cdcd220a","650c16f0f2faf8d7a0d14c09","651c1d02c58ed94d241a0741","null","null","<p style=""font-size: 60px; font-family: BACS"">KElBkBD</p>","","","","","","","","","",""
"html-keyboard-response","393","489605","0.0-16.0-0.61","5f1e8dc7e2161c86cdcd220a","650c16f0f2faf8d7a0d14c09","651c1d02c58ed94d241a0741","null","null","<p style=""font-size: 60px; font-family: BACS"">KElBkBD</p>","","","","","","","","","",""
