"trial_type","trial_index","time_elapsed","internal_node_id","subject_id","study_id","session_id","rt","response","stimulus","success","item","task","correct_response","testing_condition","correct","target","confound","name"
"pavlovia","0","761","0.0-0.0","60b87f3ca1dbf6bb340c9bb0","64e77d7b61f440b60e28659d","64ecad83544e1d4e75f21a6f","","","","","","","","","","","",""
"survey-html-form","1","12385","0.0-1.0","60b87f3ca1dbf6bb340c9bb0","64e77d7b61f440b60e28659d","64ecad83544e1d4e75f21a6f","11623","{""ID"":""60b87f3ca1dbf6bb340c9bb0""}","","","","","","","","","",""
"html-keyboard-response","2","18991","0.0-2.0","60b87f3ca1dbf6bb340c9bb0","64e77d7b61f440b60e28659d","64ecad83544e1d4e75f21a6f","6604"," ","<p style=""font-size: 15px;"">Before beginning, we ask that you read the consent information and confirm your agreement to participate in the experiment.</p>
      <p style=""font-size: 15px;""> We ask that you remember that this is a research project and that your participation is entirely voluntary. You can stop your participation at any time, without needing to provide any explanation. The study we're asking you to participate in aims at examining how readers process written words. You will be engaged in a session of apprximately 20 minutes, followed by a brief questionnaire. You will have the opportunity to take a few breaks during the experiment. You will be paid £4 for your participation, corresponding to a rate of £8/hour. While this experiment looks at cognitive faculties, this experiment doesn't constitute clinical proof of eventual pathologies.</p>
      <p style=""font-size: 15px;"">All of the information collected thanks to yours and others' participation will be held in a secure password-protected server, and will not be shared with anyone not authorised to view it. Your personal information will be kept with an arbitrary participant ID. Thanks to this data anonymity process, any researcher analysing the data won't be able to track the information back to a specific participant. Therefore, this process will make identifying you impossibile, even when results from the study will be published in scientific reviews, presented at congresses, or at any other public forum. More generally, the collected data will be treated in accordance with the laws on privacy and conformity to the Legislative Degree n. 196 ""Code regarding the protection of personal data"" of the 30th of June 2003 and to the European Regulation 2016/670 (General Data Protection Regulation - GDPR). The Data Protection Officer is Avv. Valentina Carollo, who can be contacted at the following email addresses: <a href=""mailto:dpo@sissa.it"">dpo@sissa.it</a> or <a href=""mailto:rpd@sissa.it"">rpd@sissa.it</a> - PEC: <a href=""mailto:protocollo@pec.sissa.it"">protocollo@pec.sissa.it</a>.</p>
      <p style=""font-size: 15px;""> Before expressing your consent to participate, we would like to remind you again that in case you need explanations on any aspect of the experimental procedure, the researcher is at your disposition (<a href=""mailto:aliebelt@sissa.it"">aliebelt@sissa.it</a>, <a href=""mailto:davide.crepaldi@sissa.it"">davide.crepaldi@sissa.it</a>).</p>
      <p style=""font-size: 15px;"">If you would like to download the informed consent form, you can do so here: <a href=""BASL-Informed_Consent.pdf"" download>informed consent form</a>.</p>
      <p style=""font-size: 15px;"">We ask that you press the spacebar to proceed to the consent section.</p>","","","","","","","","",""
"survey-html-form","3","38726","0.0-3.0","60b87f3ca1dbf6bb340c9bb0","64e77d7b61f440b60e28659d","64ecad83544e1d4e75f21a6f","19734","{""consent1"":""YES"",""consent2"":""YES"",""consent3"":""YES"",""consent4"":""YES"",""consent5"":""YES"",""consent6"":""YES""}","","","","","","","","","",""
"fullscreen","4","44141","0.0-4.0","60b87f3ca1dbf6bb340c9bb0","64e77d7b61f440b60e28659d","64ecad83544e1d4e75f21a6f","","","","true","","","","","","","",""
"html-keyboard-response","5","60021","0.0-5.0","60b87f3ca1dbf6bb340c9bb0","64e77d7b61f440b60e28659d","64ecad83544e1d4e75f21a6f","15880"," ","<p>Welcome, and thank you very much for your time!</p>
      <p>In this experiment, you'll be a language expert who's been asked to take a look at words that Earth has received in its first communication with aliens. Your task, in this first part of the experiment, is to pay close attention to the words you'll be shown; later, world leaders will ask you questions on what you saw. The words will be shown to you quite quickly; it seems that the aliens were in a hurry :-)</p>
      <p>Press the spacebar to continue.<p>","","","","","","","","",""
"html-keyboard-response","6","63572","0.0-6.0","60b87f3ca1dbf6bb340c9bb0","64e77d7b61f440b60e28659d","64ecad83544e1d4e75f21a6f","3550"," ","<p>Here is an example of the words you'll see:</p>
      <img src='esempio.png' height='400px'>
      <p>When you're ready to begin, press the spacebar.</p></div>","","","","","","","","",""
"html-keyboard-response","7","64574","0.0-7.0-0.0","60b87f3ca1dbf6bb340c9bb0","64e77d7b61f440b60e28659d","64ecad83544e1d4e75f21a6f","null","null","<p style=""font-size: 60px; font-family: BACS"">JrGvkGua</p>","","","","","","","","",""
"html-keyboard-response","8","65574","0.0-7.0-0.1","60b87f3ca1dbf6bb340c9bb0","64e77d7b61f440b60e28659d","64ecad83544e1d4e75f21a6f","null","null","<p style=""font-size: 60px; font-family: BACS"">OkGYLcO</p>","","","","","","","","",""
"html-keyboard-response","9","66575","0.0-7.0-0.2","60b87f3ca1dbf6bb340c9bb0","64e77d7b61f440b60e28659d","64ecad83544e1d4e75f21a6f","null","null","<p style=""font-size: 60px; font-family: BACS"">JrGvGUa</p>","","","","","","","","",""
"html-keyboard-response","10","67577","0.0-7.0-0.3","60b87f3ca1dbf6bb340c9bb0","64e77d7b61f440b60e28659d","64ecad83544e1d4e75f21a6f","null","null","<p style=""font-size: 60px; font-family: BACS"">KMDYtCEM</p>","","","","","","","","",""
"html-keyboard-response","11","68579","0.0-7.0-0.4","60b87f3ca1dbf6bb340c9bb0","64e77d7b61f440b60e28659d","64ecad83544e1d4e75f21a6f","null","null","<p style=""font-size: 60px; font-family: BACS"">uauOGUa</p>","","","","","","","","",""
"html-keyboard-response","12","69583","0.0-7.0-0.5","60b87f3ca1dbf6bb340c9bb0","64e77d7b61f440b60e28659d","64ecad83544e1d4e75f21a6f","null","null","<p style=""font-size: 60px; font-family: BACS"">GumLlLcO</p>","","","","","","","","",""
"html-keyboard-response","13","70585","0.0-7.0-0.6","60b87f3ca1dbf6bb340c9bb0","64e77d7b61f440b60e28659d","64ecad83544e1d4e75f21a6f","null","null","<p style=""font-size: 60px; font-family: BACS"">uauOkGua</p>","","","","","","","","",""
"html-keyboard-response","14","71587","0.0-7.0-0.7","60b87f3ca1dbf6bb340c9bb0","64e77d7b61f440b60e28659d","64ecad83544e1d4e75f21a6f","null","null","<p style=""font-size: 60px; font-family: BACS"">tcYbdCEM</p>","","","","","","","","",""
"html-keyboard-response","15","72588","0.0-7.0-0.8","60b87f3ca1dbf6bb340c9bb0","64e77d7b61f440b60e28659d","64ecad83544e1d4e75f21a6f","null","null","<p style=""font-size: 60px; font-family: BACS"">ZkGmYmvG</p>","","","","","","","","",""
"html-keyboard-response","16","73589","0.0-7.0-0.9","60b87f3ca1dbf6bb340c9bb0","64e77d7b61f440b60e28659d","64ecad83544e1d4e75f21a6f","null","null","<p style=""font-size: 60px; font-family: BACS"">DhMtTAm</p>","","","","","","","","",""
"html-keyboard-response","17","74590","0.0-7.0-0.10","60b87f3ca1dbf6bb340c9bb0","64e77d7b61f440b60e28659d","64ecad83544e1d4e75f21a6f","null","null","<p style=""font-size: 60px; font-family: BACS"">OkGYGUa</p>","","","","","","","","",""
"html-keyboard-response","18","75592","0.0-7.0-0.11","60b87f3ca1dbf6bb340c9bb0","64e77d7b61f440b60e28659d","64ecad83544e1d4e75f21a6f","null","null","<p style=""font-size: 60px; font-family: BACS"">KMDYtRdCc</p>","","","","","","","","",""
"html-keyboard-response","19","76594","0.0-7.0-0.12","60b87f3ca1dbf6bb340c9bb0","64e77d7b61f440b60e28659d","64ecad83544e1d4e75f21a6f","null","null","<p style=""font-size: 60px; font-family: BACS"">GumLlrGl</p>","","","","","","","","",""
"html-keyboard-response","20","77594","0.0-7.0-0.13","60b87f3ca1dbf6bb340c9bb0","64e77d7b61f440b60e28659d","64ecad83544e1d4e75f21a6f","null","null","<p style=""font-size: 60px; font-family: BACS"">YdudkGua</p>","","","","","","","","",""
"html-keyboard-response","21","78595","0.0-7.0-0.14","60b87f3ca1dbf6bb340c9bb0","64e77d7b61f440b60e28659d","64ecad83544e1d4e75f21a6f","null","null","<p style=""font-size: 60px; font-family: BACS"">ZkGmYLcO</p>","","","","","","","","",""
"html-keyboard-response","22","79597","0.0-7.0-0.15","60b87f3ca1dbf6bb340c9bb0","64e77d7b61f440b60e28659d","64ecad83544e1d4e75f21a6f","null","null","<p style=""font-size: 60px; font-family: BACS"">DRPkYPEdK</p>","","","","","","","","",""
"html-keyboard-response","23","80598","0.0-7.0-0.16","60b87f3ca1dbf6bb340c9bb0","64e77d7b61f440b60e28659d","64ecad83544e1d4e75f21a6f","null","null","<p style=""font-size: 60px; font-family: BACS"">AlQaQrGl</p>","","","","","","","","",""
"html-keyboard-response","24","81599","0.0-7.0-0.17","60b87f3ca1dbf6bb340c9bb0","64e77d7b61f440b60e28659d","64ecad83544e1d4e75f21a6f","null","null","<p style=""font-size: 60px; font-family: BACS"">mcOJLcO</p>","","","","","","","","",""
"html-keyboard-response","25","82600","0.0-7.0-0.18","60b87f3ca1dbf6bb340c9bb0","64e77d7b61f440b60e28659d","64ecad83544e1d4e75f21a6f","null","null","<p style=""font-size: 60px; font-family: BACS"">GumLlkGua</p>","","","","","","","","",""
"html-keyboard-response","26","83601","0.0-7.0-0.19","60b87f3ca1dbf6bb340c9bb0","64e77d7b61f440b60e28659d","64ecad83544e1d4e75f21a6f","null","null","<p style=""font-size: 60px; font-family: BACS"">kabJbrGl</p>","","","","","","","","",""
"html-keyboard-response","27","84603","0.0-7.0-0.20","60b87f3ca1dbf6bb340c9bb0","64e77d7b61f440b60e28659d","64ecad83544e1d4e75f21a6f","null","null","<p style=""font-size: 60px; font-family: BACS"">KMDYtTAm</p>","","","","","","","","",""
"html-keyboard-response","28","85604","0.0-7.0-0.21","60b87f3ca1dbf6bb340c9bb0","64e77d7b61f440b60e28659d","64ecad83544e1d4e75f21a6f","null","null","<p style=""font-size: 60px; font-family: BACS"">BOCRMPEdK</p>","","","","","","","","",""
"html-keyboard-response","29","86605","0.0-7.0-0.22","60b87f3ca1dbf6bb340c9bb0","64e77d7b61f440b60e28659d","64ecad83544e1d4e75f21a6f","null","null","<p style=""font-size: 60px; font-family: BACS"">kCRmhBK</p>","","","","","","","","",""
"html-keyboard-response","30","87606","0.0-7.0-0.23","60b87f3ca1dbf6bb340c9bb0","64e77d7b61f440b60e28659d","64ecad83544e1d4e75f21a6f","null","null","<p style=""font-size: 60px; font-family: BACS"">ZkGmYrGl</p>","","","","","","","","",""
"html-keyboard-response","31","88607","0.0-7.0-0.24","60b87f3ca1dbf6bb340c9bb0","64e77d7b61f440b60e28659d","64ecad83544e1d4e75f21a6f","null","null","<p style=""font-size: 60px; font-family: BACS"">DhMtCEM</p>","","","","","","","","",""
"html-keyboard-response","32","89609","0.0-7.0-0.25","60b87f3ca1dbf6bb340c9bb0","64e77d7b61f440b60e28659d","64ecad83544e1d4e75f21a6f","null","null","<p style=""font-size: 60px; font-family: BACS"">uauOmvG</p>","","","","","","","","",""
"html-keyboard-response","33","90609","0.0-7.0-0.26","60b87f3ca1dbf6bb340c9bb0","64e77d7b61f440b60e28659d","64ecad83544e1d4e75f21a6f","null","null","<p style=""font-size: 60px; font-family: BACS"">cROMtPEdK</p>","","","","","","","","",""
"html-keyboard-response","34","91611","0.0-7.0-0.27","60b87f3ca1dbf6bb340c9bb0","64e77d7b61f440b60e28659d","64ecad83544e1d4e75f21a6f","null","null","<p style=""font-size: 60px; font-family: BACS"">mcOJmvG</p>","","","","","","","","",""
"html-keyboard-response","35","92612","0.0-7.0-0.28","60b87f3ca1dbf6bb340c9bb0","64e77d7b61f440b60e28659d","64ecad83544e1d4e75f21a6f","null","null","<p style=""font-size: 60px; font-family: BACS"">OkGYkGua</p>","","","","","","","","",""
"html-keyboard-response","36","93614","0.0-7.0-0.29","60b87f3ca1dbf6bb340c9bb0","64e77d7b61f440b60e28659d","64ecad83544e1d4e75f21a6f","null","null","<p style=""font-size: 60px; font-family: BACS"">kabJbGUa</p>","","","","","","","","",""
"html-keyboard-response","37","94616","0.0-7.0-0.30","60b87f3ca1dbf6bb340c9bb0","64e77d7b61f440b60e28659d","64ecad83544e1d4e75f21a6f","null","null","<p style=""font-size: 60px; font-family: BACS"">BOCRMTAm</p>","","","","","","","","",""
"html-keyboard-response","38","95617","0.0-7.0-0.31","60b87f3ca1dbf6bb340c9bb0","64e77d7b61f440b60e28659d","64ecad83544e1d4e75f21a6f","null","null","<p style=""font-size: 60px; font-family: BACS"">AlQaQLcO</p>","","","","","","","","",""
"html-keyboard-response","39","96618","0.0-7.0-0.32","60b87f3ca1dbf6bb340c9bb0","64e77d7b61f440b60e28659d","64ecad83544e1d4e75f21a6f","null","null","<p style=""font-size: 60px; font-family: BACS"">RYtkcPEdK</p>","","","","","","","","",""
"html-keyboard-response","40","97620","0.0-7.0-0.33","60b87f3ca1dbf6bb340c9bb0","64e77d7b61f440b60e28659d","64ecad83544e1d4e75f21a6f","null","null","<p style=""font-size: 60px; font-family: BACS"">YdudmvG</p>","","","","","","","","",""
"html-keyboard-response","41","98621","0.0-7.0-0.34","60b87f3ca1dbf6bb340c9bb0","64e77d7b61f440b60e28659d","64ecad83544e1d4e75f21a6f","null","null","<p style=""font-size: 60px; font-family: BACS"">EhbthBK</p>","","","","","","","","",""
"html-keyboard-response","42","99622","0.0-7.0-0.35","60b87f3ca1dbf6bb340c9bb0","64e77d7b61f440b60e28659d","64ecad83544e1d4e75f21a6f","null","null","<p style=""font-size: 60px; font-family: BACS"">YdudGUa</p>","","","","","","","","",""
"html-keyboard-response","43","100624","0.0-7.0-0.36","60b87f3ca1dbf6bb340c9bb0","64e77d7b61f440b60e28659d","64ecad83544e1d4e75f21a6f","null","null","<p style=""font-size: 60px; font-family: BACS"">tcYbdPEdK</p>","","","","","","","","",""
"html-keyboard-response","44","101625","0.0-7.0-0.37","60b87f3ca1dbf6bb340c9bb0","64e77d7b61f440b60e28659d","64ecad83544e1d4e75f21a6f","null","null","<p style=""font-size: 60px; font-family: BACS"">bcbMTAm</p>","","","","","","","","",""
"html-keyboard-response","45","102626","0.0-7.0-0.38","60b87f3ca1dbf6bb340c9bb0","64e77d7b61f440b60e28659d","64ecad83544e1d4e75f21a6f","null","null","<p style=""font-size: 60px; font-family: BACS"">AlQaQkGua</p>","","","","","","","","",""
"html-keyboard-response","46","103627","0.0-7.0-0.39","60b87f3ca1dbf6bb340c9bb0","64e77d7b61f440b60e28659d","64ecad83544e1d4e75f21a6f","null","null","<p style=""font-size: 60px; font-family: BACS"">kCRmCEM</p>","","","","","","","","",""
"html-keyboard-response","47","104628","0.0-7.0-0.40","60b87f3ca1dbf6bb340c9bb0","64e77d7b61f440b60e28659d","64ecad83544e1d4e75f21a6f","null","null","<p style=""font-size: 60px; font-family: BACS"">RYtkcTAm</p>","","","","","","","","",""
"html-keyboard-response","48","105629","0.0-7.0-0.41","60b87f3ca1dbf6bb340c9bb0","64e77d7b61f440b60e28659d","64ecad83544e1d4e75f21a6f","null","null","<p style=""font-size: 60px; font-family: BACS"">EhbtPEdK</p>","","","","","","","","",""
"html-keyboard-response","49","106631","0.0-7.0-0.42","60b87f3ca1dbf6bb340c9bb0","64e77d7b61f440b60e28659d","64ecad83544e1d4e75f21a6f","null","null","<p style=""font-size: 60px; font-family: BACS"">mcOJrGl</p>","","","","","","","","",""
"html-keyboard-response","50","107633","0.0-7.0-0.43","60b87f3ca1dbf6bb340c9bb0","64e77d7b61f440b60e28659d","64ecad83544e1d4e75f21a6f","null","null","<p style=""font-size: 60px; font-family: BACS"">aOLZUmvG</p>","","","","","","","","",""
"html-keyboard-response","51","108635","0.0-7.0-0.44","60b87f3ca1dbf6bb340c9bb0","64e77d7b61f440b60e28659d","64ecad83544e1d4e75f21a6f","null","null","<p style=""font-size: 60px; font-family: BACS"">tcYbdRdCc</p>","","","","","","","","",""
"html-keyboard-response","52","109636","0.0-7.0-0.45","60b87f3ca1dbf6bb340c9bb0","64e77d7b61f440b60e28659d","64ecad83544e1d4e75f21a6f","null","null","<p style=""font-size: 60px; font-family: BACS"">JrGvmvG</p>","","","","","","","","",""
"html-keyboard-response","53","110638","0.0-7.0-0.46","60b87f3ca1dbf6bb340c9bb0","64e77d7b61f440b60e28659d","64ecad83544e1d4e75f21a6f","null","null","<p style=""font-size: 60px; font-family: BACS"">DhMtRdCc</p>","","","","","","","","",""
"html-keyboard-response","54","111638","0.0-7.0-0.47","60b87f3ca1dbf6bb340c9bb0","64e77d7b61f440b60e28659d","64ecad83544e1d4e75f21a6f","null","null","<p style=""font-size: 60px; font-family: BACS"">RYtkchBK</p>","","","","","","","","",""
"html-keyboard-response","55","112640","0.0-7.0-0.48","60b87f3ca1dbf6bb340c9bb0","64e77d7b61f440b60e28659d","64ecad83544e1d4e75f21a6f","null","null","<p style=""font-size: 60px; font-family: BACS"">kCRmPEdK</p>","","","","","","","","",""
"html-keyboard-response","56","113641","0.0-7.0-0.49","60b87f3ca1dbf6bb340c9bb0","64e77d7b61f440b60e28659d","64ecad83544e1d4e75f21a6f","null","null","<p style=""font-size: 60px; font-family: BACS"">DRPkYTAm</p>","","","","","","","","",""
"html-keyboard-response","57","114642","0.0-7.0-0.50","60b87f3ca1dbf6bb340c9bb0","64e77d7b61f440b60e28659d","64ecad83544e1d4e75f21a6f","null","null","<p style=""font-size: 60px; font-family: BACS"">AlQaQGUa</p>","","","","","","","","",""
"html-keyboard-response","58","115643","0.0-7.0-0.51","60b87f3ca1dbf6bb340c9bb0","64e77d7b61f440b60e28659d","64ecad83544e1d4e75f21a6f","null","null","<p style=""font-size: 60px; font-family: BACS"">DRPkYhBK</p>","","","","","","","","",""
"html-keyboard-response","59","116644","0.0-7.0-0.52","60b87f3ca1dbf6bb340c9bb0","64e77d7b61f440b60e28659d","64ecad83544e1d4e75f21a6f","null","null","<p style=""font-size: 60px; font-family: BACS"">aOLZUrGl</p>","","","","","","","","",""
"html-keyboard-response","60","117646","0.0-7.0-0.53","60b87f3ca1dbf6bb340c9bb0","64e77d7b61f440b60e28659d","64ecad83544e1d4e75f21a6f","null","null","<p style=""font-size: 60px; font-family: BACS"">YdudLcO</p>","","","","","","","","",""
"html-keyboard-response","61","118647","0.0-7.0-0.54","60b87f3ca1dbf6bb340c9bb0","64e77d7b61f440b60e28659d","64ecad83544e1d4e75f21a6f","null","null","<p style=""font-size: 60px; font-family: BACS"">cROMtTAm</p>","","","","","","","","",""
"html-keyboard-response","62","119649","0.0-7.0-0.55","60b87f3ca1dbf6bb340c9bb0","64e77d7b61f440b60e28659d","64ecad83544e1d4e75f21a6f","null","null","<p style=""font-size: 60px; font-family: BACS"">mcOJkGua</p>","","","","","","","","",""
"html-keyboard-response","63","120650","0.0-7.0-0.56","60b87f3ca1dbf6bb340c9bb0","64e77d7b61f440b60e28659d","64ecad83544e1d4e75f21a6f","null","null","<p style=""font-size: 60px; font-family: BACS"">GumLlmvG</p>","","","","","","","","",""
"html-keyboard-response","64","121651","0.0-7.0-0.57","60b87f3ca1dbf6bb340c9bb0","64e77d7b61f440b60e28659d","64ecad83544e1d4e75f21a6f","null","null","<p style=""font-size: 60px; font-family: BACS"">DRPkYCEM</p>","","","","","","","","",""
"html-keyboard-response","65","122653","0.0-7.0-0.58","60b87f3ca1dbf6bb340c9bb0","64e77d7b61f440b60e28659d","64ecad83544e1d4e75f21a6f","null","null","<p style=""font-size: 60px; font-family: BACS"">bcbMhBK</p>","","","","","","","","",""
"html-keyboard-response","66","123655","0.0-7.0-0.59","60b87f3ca1dbf6bb340c9bb0","64e77d7b61f440b60e28659d","64ecad83544e1d4e75f21a6f","null","null","<p style=""font-size: 60px; font-family: BACS"">BOCRMRdCc</p>","","","","","","","","",""
"html-keyboard-response","67","124657","0.0-7.0-0.60","60b87f3ca1dbf6bb340c9bb0","64e77d7b61f440b60e28659d","64ecad83544e1d4e75f21a6f","null","null","<p style=""font-size: 60px; font-family: BACS"">aOLZUGUa</p>","","","","","","","","",""
"html-keyboard-response","68","125657","0.0-7.0-0.61","60b87f3ca1dbf6bb340c9bb0","64e77d7b61f440b60e28659d","64ecad83544e1d4e75f21a6f","null","null","<p style=""font-size: 60px; font-family: BACS"">kCRmRdCc</p>","","","","","","","","",""
"html-keyboard-response","69","126659","0.0-7.0-0.62","60b87f3ca1dbf6bb340c9bb0","64e77d7b61f440b60e28659d","64ecad83544e1d4e75f21a6f","null","null","<p style=""font-size: 60px; font-family: BACS"">ZkGmYGUa</p>","","","","","","","","",""
"html-keyboard-response","70","127660","0.0-7.0-0.63","60b87f3ca1dbf6bb340c9bb0","64e77d7b61f440b60e28659d","64ecad83544e1d4e75f21a6f","null","null","<p style=""font-size: 60px; font-family: BACS"">bcbMRdCc</p>","","","","","","","","",""
"html-keyboard-response","71","128661","0.0-7.0-0.64","60b87f3ca1dbf6bb340c9bb0","64e77d7b61f440b60e28659d","64ecad83544e1d4e75f21a6f","null","null","<p style=""font-size: 60px; font-family: BACS"">cROMtCEM</p>","","","","","","","","",""
"html-keyboard-response","72","129662","0.0-7.0-0.65","60b87f3ca1dbf6bb340c9bb0","64e77d7b61f440b60e28659d","64ecad83544e1d4e75f21a6f","null","null","<p style=""font-size: 60px; font-family: BACS"">uauOrGl</p>","","","","","","","","",""
"html-keyboard-response","73","130662","0.0-7.0-0.66","60b87f3ca1dbf6bb340c9bb0","64e77d7b61f440b60e28659d","64ecad83544e1d4e75f21a6f","null","null","<p style=""font-size: 60px; font-family: BACS"">kabJbmvG</p>","","","","","","","","",""
"html-keyboard-response","74","131663","0.0-7.0-0.67","60b87f3ca1dbf6bb340c9bb0","64e77d7b61f440b60e28659d","64ecad83544e1d4e75f21a6f","null","null","<p style=""font-size: 60px; font-family: BACS"">KMDYthBK</p>","","","","","","","","",""
"html-keyboard-response","75","132665","0.0-7.0-0.68","60b87f3ca1dbf6bb340c9bb0","64e77d7b61f440b60e28659d","64ecad83544e1d4e75f21a6f","null","null","<p style=""font-size: 60px; font-family: BACS"">EhbtRdCc</p>","","","","","","","","",""
"html-keyboard-response","76","133667","0.0-7.0-0.69","60b87f3ca1dbf6bb340c9bb0","64e77d7b61f440b60e28659d","64ecad83544e1d4e75f21a6f","null","null","<p style=""font-size: 60px; font-family: BACS"">bcbMCEM</p>","","","","","","","","",""
"html-keyboard-response","77","134668","0.0-7.0-0.70","60b87f3ca1dbf6bb340c9bb0","64e77d7b61f440b60e28659d","64ecad83544e1d4e75f21a6f","null","null","<p style=""font-size: 60px; font-family: BACS"">aOLZUkGua</p>","","","","","","","","",""
"html-keyboard-response","78","135669","0.0-7.0-0.71","60b87f3ca1dbf6bb340c9bb0","64e77d7b61f440b60e28659d","64ecad83544e1d4e75f21a6f","null","null","<p style=""font-size: 60px; font-family: BACS"">JrGvLcO</p>","","","","","","","","",""
"html-keyboard-response","79","136669","0.0-7.0-0.72","60b87f3ca1dbf6bb340c9bb0","64e77d7b61f440b60e28659d","64ecad83544e1d4e75f21a6f","null","null","<p style=""font-size: 60px; font-family: BACS"">OkGYrGl</p>","","","","","","","","",""
"html-keyboard-response","80","137671","0.0-7.0-0.73","60b87f3ca1dbf6bb340c9bb0","64e77d7b61f440b60e28659d","64ecad83544e1d4e75f21a6f","null","null","<p style=""font-size: 60px; font-family: BACS"">RYtkcRdCc</p>","","","","","","","","",""
"html-keyboard-response","81","138672","0.0-7.0-0.74","60b87f3ca1dbf6bb340c9bb0","64e77d7b61f440b60e28659d","64ecad83544e1d4e75f21a6f","null","null","<p style=""font-size: 60px; font-family: BACS"">tcYbdhBK</p>","","","","","","","","",""
"html-keyboard-response","82","139673","0.0-7.0-0.75","60b87f3ca1dbf6bb340c9bb0","64e77d7b61f440b60e28659d","64ecad83544e1d4e75f21a6f","null","null","<p style=""font-size: 60px; font-family: BACS"">BOCRMCEM</p>","","","","","","","","",""
"html-keyboard-response","83","140674","0.0-7.0-0.76","60b87f3ca1dbf6bb340c9bb0","64e77d7b61f440b60e28659d","64ecad83544e1d4e75f21a6f","null","null","<p style=""font-size: 60px; font-family: BACS"">EhbtTAm</p>","","","","","","","","",""
"html-keyboard-response","84","141675","0.0-7.0-0.77","60b87f3ca1dbf6bb340c9bb0","64e77d7b61f440b60e28659d","64ecad83544e1d4e75f21a6f","null","null","<p style=""font-size: 60px; font-family: BACS"">DhMtPEdK</p>","","","","","","","","",""
"html-keyboard-response","85","142677","0.0-7.0-0.78","60b87f3ca1dbf6bb340c9bb0","64e77d7b61f440b60e28659d","64ecad83544e1d4e75f21a6f","null","null","<p style=""font-size: 60px; font-family: BACS"">kabJbLcO</p>","","","","","","","","",""
"html-keyboard-response","86","143679","0.0-7.0-0.79","60b87f3ca1dbf6bb340c9bb0","64e77d7b61f440b60e28659d","64ecad83544e1d4e75f21a6f","null","null","<p style=""font-size: 60px; font-family: BACS"">cROMthBK</p>","","","","","","","","",""
"html-keyboard-response","87","146786","0.0-8.0","60b87f3ca1dbf6bb340c9bb0","64e77d7b61f440b60e28659d","64ecad83544e1d4e75f21a6f","3107"," ","<p>Great, you've seen the first block of words. You may now take a short break.</p>
      <p>Press the spacebar when you're ready to continue.</p>","","","","","","","","",""
"html-keyboard-response","88","147788","0.0-9.0-0.0","60b87f3ca1dbf6bb340c9bb0","64e77d7b61f440b60e28659d","64ecad83544e1d4e75f21a6f","null","null","<p style=""font-size: 60px; font-family: BACS"">mcOJmvG</p>","","","","","","","","",""
"html-keyboard-response","89","148788","0.0-9.0-0.1","60b87f3ca1dbf6bb340c9bb0","64e77d7b61f440b60e28659d","64ecad83544e1d4e75f21a6f","null","null","<p style=""font-size: 60px; font-family: BACS"">KMDYtRdCc</p>","","","","","","","","",""
"html-keyboard-response","90","149790","0.0-9.0-0.2","60b87f3ca1dbf6bb340c9bb0","64e77d7b61f440b60e28659d","64ecad83544e1d4e75f21a6f","null","null","<p style=""font-size: 60px; font-family: BACS"">tcYbdhBK</p>","","","","","","","","",""
"html-keyboard-response","91","150791","0.0-9.0-0.3","60b87f3ca1dbf6bb340c9bb0","64e77d7b61f440b60e28659d","64ecad83544e1d4e75f21a6f","null","null","<p style=""font-size: 60px; font-family: BACS"">mcOJkGua</p>","","","","","","","","",""
"html-keyboard-response","92","151792","0.0-9.0-0.4","60b87f3ca1dbf6bb340c9bb0","64e77d7b61f440b60e28659d","64ecad83544e1d4e75f21a6f","null","null","<p style=""font-size: 60px; font-family: BACS"">aOLZUrGl</p>","","","","","","","","",""
"html-keyboard-response","93","152792","0.0-9.0-0.5","60b87f3ca1dbf6bb340c9bb0","64e77d7b61f440b60e28659d","64ecad83544e1d4e75f21a6f","null","null","<p style=""font-size: 60px; font-family: BACS"">DhMtCEM</p>","","","","","","","","",""
"html-keyboard-response","94","153793","0.0-9.0-0.6","60b87f3ca1dbf6bb340c9bb0","64e77d7b61f440b60e28659d","64ecad83544e1d4e75f21a6f","null","null","<p style=""font-size: 60px; font-family: BACS"">kabJbrGl</p>","","","","","","","","",""
"html-keyboard-response","95","154795","0.0-9.0-0.7","60b87f3ca1dbf6bb340c9bb0","64e77d7b61f440b60e28659d","64ecad83544e1d4e75f21a6f","null","null","<p style=""font-size: 60px; font-family: BACS"">tcYbdPEdK</p>","","","","","","","","",""
"html-keyboard-response","96","155796","0.0-9.0-0.8","60b87f3ca1dbf6bb340c9bb0","64e77d7b61f440b60e28659d","64ecad83544e1d4e75f21a6f","null","null","<p style=""font-size: 60px; font-family: BACS"">DhMtTAm</p>","","","","","","","","",""
"html-keyboard-response","97","156797","0.0-9.0-0.9","60b87f3ca1dbf6bb340c9bb0","64e77d7b61f440b60e28659d","64ecad83544e1d4e75f21a6f","null","null","<p style=""font-size: 60px; font-family: BACS"">EhbthBK</p>","","","","","","","","",""
"html-keyboard-response","98","157799","0.0-9.0-0.10","60b87f3ca1dbf6bb340c9bb0","64e77d7b61f440b60e28659d","64ecad83544e1d4e75f21a6f","null","null","<p style=""font-size: 60px; font-family: BACS"">uauOrGl</p>","","","","","","","","",""
"html-keyboard-response","99","158800","0.0-9.0-0.11","60b87f3ca1dbf6bb340c9bb0","64e77d7b61f440b60e28659d","64ecad83544e1d4e75f21a6f","null","null","<p style=""font-size: 60px; font-family: BACS"">GumLlkGua</p>","","","","","","","","",""
"html-keyboard-response","100","159802","0.0-9.0-0.12","60b87f3ca1dbf6bb340c9bb0","64e77d7b61f440b60e28659d","64ecad83544e1d4e75f21a6f","null","null","<p style=""font-size: 60px; font-family: BACS"">ZkGmYrGl</p>","","","","","","","","",""
"html-keyboard-response","101","160804","0.0-9.0-0.13","60b87f3ca1dbf6bb340c9bb0","64e77d7b61f440b60e28659d","64ecad83544e1d4e75f21a6f","null","null","<p style=""font-size: 60px; font-family: BACS"">cROMtCEM</p>","","","","","","","","",""
"html-keyboard-response","102","161805","0.0-9.0-0.14","60b87f3ca1dbf6bb340c9bb0","64e77d7b61f440b60e28659d","64ecad83544e1d4e75f21a6f","null","null","<p style=""font-size: 60px; font-family: BACS"">OkGYLcO</p>","","","","","","","","",""
"html-keyboard-response","103","162807","0.0-9.0-0.15","60b87f3ca1dbf6bb340c9bb0","64e77d7b61f440b60e28659d","64ecad83544e1d4e75f21a6f","null","null","<p style=""font-size: 60px; font-family: BACS"">RYtkchBK</p>","","","","","","","","",""
"html-keyboard-response","104","163808","0.0-9.0-0.16","60b87f3ca1dbf6bb340c9bb0","64e77d7b61f440b60e28659d","64ecad83544e1d4e75f21a6f","null","null","<p style=""font-size: 60px; font-family: BACS"">kabJbGUa</p>","","","","","","","","",""
"html-keyboard-response","105","164810","0.0-9.0-0.17","60b87f3ca1dbf6bb340c9bb0","64e77d7b61f440b60e28659d","64ecad83544e1d4e75f21a6f","null","null","<p style=""font-size: 60px; font-family: BACS"">OkGYrGl</p>","","","","","","","","",""
"html-keyboard-response","106","165811","0.0-9.0-0.18","60b87f3ca1dbf6bb340c9bb0","64e77d7b61f440b60e28659d","64ecad83544e1d4e75f21a6f","null","null","<p style=""font-size: 60px; font-family: BACS"">kCRmPEdK</p>","","","","","","","","",""
"html-keyboard-response","107","166812","0.0-9.0-0.19","60b87f3ca1dbf6bb340c9bb0","64e77d7b61f440b60e28659d","64ecad83544e1d4e75f21a6f","null","null","<p style=""font-size: 60px; font-family: BACS"">aOLZUmvG</p>","","","","","","","","",""
"html-keyboard-response","108","167813","0.0-9.0-0.20","60b87f3ca1dbf6bb340c9bb0","64e77d7b61f440b60e28659d","64ecad83544e1d4e75f21a6f","null","null","<p style=""font-size: 60px; font-family: BACS"">DhMtRdCc</p>","","","","","","","","",""
"html-keyboard-response","109","168815","0.0-9.0-0.21","60b87f3ca1dbf6bb340c9bb0","64e77d7b61f440b60e28659d","64ecad83544e1d4e75f21a6f","null","null","<p style=""font-size: 60px; font-family: BACS"">bcbMCEM</p>","","","","","","","","",""
"html-keyboard-response","110","169816","0.0-9.0-0.22","60b87f3ca1dbf6bb340c9bb0","64e77d7b61f440b60e28659d","64ecad83544e1d4e75f21a6f","null","null","<p style=""font-size: 60px; font-family: BACS"">AlQaQrGl</p>","","","","","","","","",""
"html-keyboard-response","111","170818","0.0-9.0-0.23","60b87f3ca1dbf6bb340c9bb0","64e77d7b61f440b60e28659d","64ecad83544e1d4e75f21a6f","null","null","<p style=""font-size: 60px; font-family: BACS"">kabJbmvG</p>","","","","","","","","",""
"html-keyboard-response","112","171819","0.0-9.0-0.24","60b87f3ca1dbf6bb340c9bb0","64e77d7b61f440b60e28659d","64ecad83544e1d4e75f21a6f","null","null","<p style=""font-size: 60px; font-family: BACS"">BOCRMRdCc</p>","","","","","","","","",""
"html-keyboard-response","113","172820","0.0-9.0-0.25","60b87f3ca1dbf6bb340c9bb0","64e77d7b61f440b60e28659d","64ecad83544e1d4e75f21a6f","null","null","<p style=""font-size: 60px; font-family: BACS"">bcbMTAm</p>","","","","","","","","",""
"html-keyboard-response","114","173822","0.0-9.0-0.26","60b87f3ca1dbf6bb340c9bb0","64e77d7b61f440b60e28659d","64ecad83544e1d4e75f21a6f","null","null","<p style=""font-size: 60px; font-family: BACS"">uauOkGua</p>","","","","","","","","",""
"html-keyboard-response","115","174823","0.0-9.0-0.27","60b87f3ca1dbf6bb340c9bb0","64e77d7b61f440b60e28659d","64ecad83544e1d4e75f21a6f","null","null","<p style=""font-size: 60px; font-family: BACS"">AlQaQGUa</p>","","","","","","","","",""
"html-keyboard-response","116","175824","0.0-9.0-0.28","60b87f3ca1dbf6bb340c9bb0","64e77d7b61f440b60e28659d","64ecad83544e1d4e75f21a6f","null","null","<p style=""font-size: 60px; font-family: BACS"">GumLlLcO</p>","","","","","","","","",""
"html-keyboard-response","117","176826","0.0-9.0-0.29","60b87f3ca1dbf6bb340c9bb0","64e77d7b61f440b60e28659d","64ecad83544e1d4e75f21a6f","null","null","<p style=""font-size: 60px; font-family: BACS"">RYtkcRdCc</p>","","","","","","","","",""
"html-keyboard-response","118","177827","0.0-9.0-0.30","60b87f3ca1dbf6bb340c9bb0","64e77d7b61f440b60e28659d","64ecad83544e1d4e75f21a6f","null","null","<p style=""font-size: 60px; font-family: BACS"">GumLlrGl</p>","","","","","","","","",""
"html-keyboard-response","119","178829","0.0-9.0-0.31","60b87f3ca1dbf6bb340c9bb0","64e77d7b61f440b60e28659d","64ecad83544e1d4e75f21a6f","null","null","<p style=""font-size: 60px; font-family: BACS"">AlQaQkGua</p>","","","","","","","","",""
"html-keyboard-response","120","179830","0.0-9.0-0.32","60b87f3ca1dbf6bb340c9bb0","64e77d7b61f440b60e28659d","64ecad83544e1d4e75f21a6f","null","null","<p style=""font-size: 60px; font-family: BACS"">ZkGmYLcO</p>","","","","","","","","",""
"html-keyboard-response","121","180831","0.0-9.0-0.33","60b87f3ca1dbf6bb340c9bb0","64e77d7b61f440b60e28659d","64ecad83544e1d4e75f21a6f","null","null","<p style=""font-size: 60px; font-family: BACS"">RYtkcPEdK</p>","","","","","","","","",""
"html-keyboard-response","122","181832","0.0-9.0-0.34","60b87f3ca1dbf6bb340c9bb0","64e77d7b61f440b60e28659d","64ecad83544e1d4e75f21a6f","null","null","<p style=""font-size: 60px; font-family: BACS"">JrGvLcO</p>","","","","","","","","",""
"html-keyboard-response","123","182833","0.0-9.0-0.35","60b87f3ca1dbf6bb340c9bb0","64e77d7b61f440b60e28659d","64ecad83544e1d4e75f21a6f","null","null","<p style=""font-size: 60px; font-family: BACS"">uauOGUa</p>","","","","","","","","",""
"html-keyboard-response","124","183834","0.0-9.0-0.36","60b87f3ca1dbf6bb340c9bb0","64e77d7b61f440b60e28659d","64ecad83544e1d4e75f21a6f","null","null","<p style=""font-size: 60px; font-family: BACS"">DRPkYTAm</p>","","","","","","","","",""
"html-keyboard-response","125","184835","0.0-9.0-0.37","60b87f3ca1dbf6bb340c9bb0","64e77d7b61f440b60e28659d","64ecad83544e1d4e75f21a6f","null","null","<p style=""font-size: 60px; font-family: BACS"">kabJbLcO</p>","","","","","","","","",""
"html-keyboard-response","126","185837","0.0-9.0-0.38","60b87f3ca1dbf6bb340c9bb0","64e77d7b61f440b60e28659d","64ecad83544e1d4e75f21a6f","null","null","<p style=""font-size: 60px; font-family: BACS"">KMDYthBK</p>","","","","","","","","",""
"html-keyboard-response","127","186839","0.0-9.0-0.39","60b87f3ca1dbf6bb340c9bb0","64e77d7b61f440b60e28659d","64ecad83544e1d4e75f21a6f","null","null","<p style=""font-size: 60px; font-family: BACS"">mcOJrGl</p>","","","","","","","","",""
"html-keyboard-response","128","187840","0.0-9.0-0.40","60b87f3ca1dbf6bb340c9bb0","64e77d7b61f440b60e28659d","64ecad83544e1d4e75f21a6f","null","null","<p style=""font-size: 60px; font-family: BACS"">DhMtPEdK</p>","","","","","","","","",""
"html-keyboard-response","129","188841","0.0-9.0-0.41","60b87f3ca1dbf6bb340c9bb0","64e77d7b61f440b60e28659d","64ecad83544e1d4e75f21a6f","null","null","<p style=""font-size: 60px; font-family: BACS"">YdudGUa</p>","","","","","","","","",""
"html-keyboard-response","130","189842","0.0-9.0-0.42","60b87f3ca1dbf6bb340c9bb0","64e77d7b61f440b60e28659d","64ecad83544e1d4e75f21a6f","null","null","<p style=""font-size: 60px; font-family: BACS"">EhbtPEdK</p>","","","","","","","","",""
"html-keyboard-response","131","190844","0.0-9.0-0.43","60b87f3ca1dbf6bb340c9bb0","64e77d7b61f440b60e28659d","64ecad83544e1d4e75f21a6f","null","null","<p style=""font-size: 60px; font-family: BACS"">KMDYtCEM</p>","","","","","","","","",""
"html-keyboard-response","132","191846","0.0-9.0-0.44","60b87f3ca1dbf6bb340c9bb0","64e77d7b61f440b60e28659d","64ecad83544e1d4e75f21a6f","null","null","<p style=""font-size: 60px; font-family: BACS"">cROMtTAm</p>","","","","","","","","",""
"html-keyboard-response","133","192848","0.0-9.0-0.45","60b87f3ca1dbf6bb340c9bb0","64e77d7b61f440b60e28659d","64ecad83544e1d4e75f21a6f","null","null","<p style=""font-size: 60px; font-family: BACS"">YdudkGua</p>","","","","","","","","",""
"html-keyboard-response","134","193849","0.0-9.0-0.46","60b87f3ca1dbf6bb340c9bb0","64e77d7b61f440b60e28659d","64ecad83544e1d4e75f21a6f","null","null","<p style=""font-size: 60px; font-family: BACS"">GumLlmvG</p>","","","","","","","","",""
"html-keyboard-response","135","194850","0.0-9.0-0.47","60b87f3ca1dbf6bb340c9bb0","64e77d7b61f440b60e28659d","64ecad83544e1d4e75f21a6f","null","null","<p style=""font-size: 60px; font-family: BACS"">aOLZUkGua</p>","","","","","","","","",""
"html-keyboard-response","136","195852","0.0-9.0-0.48","60b87f3ca1dbf6bb340c9bb0","64e77d7b61f440b60e28659d","64ecad83544e1d4e75f21a6f","null","null","<p style=""font-size: 60px; font-family: BACS"">DRPkYhBK</p>","","","","","","","","",""
"html-keyboard-response","137","196853","0.0-9.0-0.49","60b87f3ca1dbf6bb340c9bb0","64e77d7b61f440b60e28659d","64ecad83544e1d4e75f21a6f","null","null","<p style=""font-size: 60px; font-family: BACS"">bcbMRdCc</p>","","","","","","","","",""
"html-keyboard-response","138","197855","0.0-9.0-0.50","60b87f3ca1dbf6bb340c9bb0","64e77d7b61f440b60e28659d","64ecad83544e1d4e75f21a6f","null","null","<p style=""font-size: 60px; font-family: BACS"">YdudLcO</p>","","","","","","","","",""
"html-keyboard-response","139","198856","0.0-9.0-0.51","60b87f3ca1dbf6bb340c9bb0","64e77d7b61f440b60e28659d","64ecad83544e1d4e75f21a6f","null","null","<p style=""font-size: 60px; font-family: BACS"">RYtkcTAm</p>","","","","","","","","",""
"html-keyboard-response","140","199858","0.0-9.0-0.52","60b87f3ca1dbf6bb340c9bb0","64e77d7b61f440b60e28659d","64ecad83544e1d4e75f21a6f","null","null","<p style=""font-size: 60px; font-family: BACS"">OkGYkGua</p>","","","","","","","","",""
"html-keyboard-response","141","200859","0.0-9.0-0.53","60b87f3ca1dbf6bb340c9bb0","64e77d7b61f440b60e28659d","64ecad83544e1d4e75f21a6f","null","null","<p style=""font-size: 60px; font-family: BACS"">YdudmvG</p>","","","","","","","","",""
"html-keyboard-response","142","201860","0.0-9.0-0.54","60b87f3ca1dbf6bb340c9bb0","64e77d7b61f440b60e28659d","64ecad83544e1d4e75f21a6f","null","null","<p style=""font-size: 60px; font-family: BACS"">tcYbdCEM</p>","","","","","","","","",""
"html-keyboard-response","143","202862","0.0-9.0-0.55","60b87f3ca1dbf6bb340c9bb0","64e77d7b61f440b60e28659d","64ecad83544e1d4e75f21a6f","null","null","<p style=""font-size: 60px; font-family: BACS"">ZkGmYmvG</p>","","","","","","","","",""
"html-keyboard-response","144","203863","0.0-9.0-0.56","60b87f3ca1dbf6bb340c9bb0","64e77d7b61f440b60e28659d","64ecad83544e1d4e75f21a6f","null","null","<p style=""font-size: 60px; font-family: BACS"">DRPkYCEM</p>","","","","","","","","",""
"html-keyboard-response","145","204864","0.0-9.0-0.57","60b87f3ca1dbf6bb340c9bb0","64e77d7b61f440b60e28659d","64ecad83544e1d4e75f21a6f","null","null","<p style=""font-size: 60px; font-family: BACS"">ZkGmYGUa</p>","","","","","","","","",""
"html-keyboard-response","146","205866","0.0-9.0-0.58","60b87f3ca1dbf6bb340c9bb0","64e77d7b61f440b60e28659d","64ecad83544e1d4e75f21a6f","null","null","<p style=""font-size: 60px; font-family: BACS"">BOCRMCEM</p>","","","","","","","","",""
"html-keyboard-response","147","206867","0.0-9.0-0.59","60b87f3ca1dbf6bb340c9bb0","64e77d7b61f440b60e28659d","64ecad83544e1d4e75f21a6f","null","null","<p style=""font-size: 60px; font-family: BACS"">tcYbdRdCc</p>","","","","","","","","",""
"html-keyboard-response","148","207867","0.0-9.0-0.60","60b87f3ca1dbf6bb340c9bb0","64e77d7b61f440b60e28659d","64ecad83544e1d4e75f21a6f","null","null","<p style=""font-size: 60px; font-family: BACS"">KMDYtTAm</p>","","","","","","","","",""
"html-keyboard-response","149","208869","0.0-9.0-0.61","60b87f3ca1dbf6bb340c9bb0","64e77d7b61f440b60e28659d","64ecad83544e1d4e75f21a6f","null","null","<p style=""font-size: 60px; font-family: BACS"">AlQaQLcO</p>","","","","","","","","",""
"html-keyboard-response","150","209870","0.0-9.0-0.62","60b87f3ca1dbf6bb340c9bb0","64e77d7b61f440b60e28659d","64ecad83544e1d4e75f21a6f","null","null","<p style=""font-size: 60px; font-family: BACS"">DRPkYPEdK</p>","","","","","","","","",""
"html-keyboard-response","151","210872","0.0-9.0-0.63","60b87f3ca1dbf6bb340c9bb0","64e77d7b61f440b60e28659d","64ecad83544e1d4e75f21a6f","null","null","<p style=""font-size: 60px; font-family: BACS"">aOLZUGUa</p>","","","","","","","","",""
"html-keyboard-response","152","211873","0.0-9.0-0.64","60b87f3ca1dbf6bb340c9bb0","64e77d7b61f440b60e28659d","64ecad83544e1d4e75f21a6f","null","null","<p style=""font-size: 60px; font-family: BACS"">EhbtTAm</p>","","","","","","","","",""
"html-keyboard-response","153","212873","0.0-9.0-0.65","60b87f3ca1dbf6bb340c9bb0","64e77d7b61f440b60e28659d","64ecad83544e1d4e75f21a6f","null","null","<p style=""font-size: 60px; font-family: BACS"">bcbMhBK</p>","","","","","","","","",""
"html-keyboard-response","154","213875","0.0-9.0-0.66","60b87f3ca1dbf6bb340c9bb0","64e77d7b61f440b60e28659d","64ecad83544e1d4e75f21a6f","null","null","<p style=""font-size: 60px; font-family: BACS"">JrGvkGua</p>","","","","","","","","",""
"html-keyboard-response","155","214876","0.0-9.0-0.67","60b87f3ca1dbf6bb340c9bb0","64e77d7b61f440b60e28659d","64ecad83544e1d4e75f21a6f","null","null","<p style=""font-size: 60px; font-family: BACS"">BOCRMTAm</p>","","","","","","","","",""
"html-keyboard-response","156","215878","0.0-9.0-0.68","60b87f3ca1dbf6bb340c9bb0","64e77d7b61f440b60e28659d","64ecad83544e1d4e75f21a6f","null","null","<p style=""font-size: 60px; font-family: BACS"">cROMthBK</p>","","","","","","","","",""
"html-keyboard-response","157","216880","0.0-9.0-0.69","60b87f3ca1dbf6bb340c9bb0","64e77d7b61f440b60e28659d","64ecad83544e1d4e75f21a6f","null","null","<p style=""font-size: 60px; font-family: BACS"">mcOJLcO</p>","","","","","","","","",""
"html-keyboard-response","158","217881","0.0-9.0-0.70","60b87f3ca1dbf6bb340c9bb0","64e77d7b61f440b60e28659d","64ecad83544e1d4e75f21a6f","null","null","<p style=""font-size: 60px; font-family: BACS"">uauOmvG</p>","","","","","","","","",""
"html-keyboard-response","159","218882","0.0-9.0-0.71","60b87f3ca1dbf6bb340c9bb0","64e77d7b61f440b60e28659d","64ecad83544e1d4e75f21a6f","null","null","<p style=""font-size: 60px; font-family: BACS"">kCRmRdCc</p>","","","","","","","","",""
"html-keyboard-response","160","219885","0.0-9.0-0.72","60b87f3ca1dbf6bb340c9bb0","64e77d7b61f440b60e28659d","64ecad83544e1d4e75f21a6f","null","null","<p style=""font-size: 60px; font-family: BACS"">BOCRMPEdK</p>","","","","","","","","",""
"html-keyboard-response","161","220887","0.0-9.0-0.73","60b87f3ca1dbf6bb340c9bb0","64e77d7b61f440b60e28659d","64ecad83544e1d4e75f21a6f","null","null","<p style=""font-size: 60px; font-family: BACS"">kCRmhBK</p>","","","","","","","","",""
"html-keyboard-response","162","221888","0.0-9.0-0.74","60b87f3ca1dbf6bb340c9bb0","64e77d7b61f440b60e28659d","64ecad83544e1d4e75f21a6f","null","null","<p style=""font-size: 60px; font-family: BACS"">EhbtRdCc</p>","","","","","","","","",""
"html-keyboard-response","163","222889","0.0-9.0-0.75","60b87f3ca1dbf6bb340c9bb0","64e77d7b61f440b60e28659d","64ecad83544e1d4e75f21a6f","null","null","<p style=""font-size: 60px; font-family: BACS"">JrGvGUa</p>","","","","","","","","",""
"html-keyboard-response","164","223889","0.0-9.0-0.76","60b87f3ca1dbf6bb340c9bb0","64e77d7b61f440b60e28659d","64ecad83544e1d4e75f21a6f","null","null","<p style=""font-size: 60px; font-family: BACS"">cROMtPEdK</p>","","","","","","","","",""
"html-keyboard-response","165","224890","0.0-9.0-0.77","60b87f3ca1dbf6bb340c9bb0","64e77d7b61f440b60e28659d","64ecad83544e1d4e75f21a6f","null","null","<p style=""font-size: 60px; font-family: BACS"">OkGYGUa</p>","","","","","","","","",""
"html-keyboard-response","166","225891","0.0-9.0-0.78","60b87f3ca1dbf6bb340c9bb0","64e77d7b61f440b60e28659d","64ecad83544e1d4e75f21a6f","null","null","<p style=""font-size: 60px; font-family: BACS"">kCRmCEM</p>","","","","","","","","",""
"html-keyboard-response","167","226892","0.0-9.0-0.79","60b87f3ca1dbf6bb340c9bb0","64e77d7b61f440b60e28659d","64ecad83544e1d4e75f21a6f","null","null","<p style=""font-size: 60px; font-family: BACS"">JrGvmvG</p>","","","","","","","","",""
"html-keyboard-response","168","229488","0.0-10.0","60b87f3ca1dbf6bb340c9bb0","64e77d7b61f440b60e28659d","64ecad83544e1d4e75f21a6f","2596"," ","<p>Great, you've seen the second block of words. You may now take a short break.</p>
      <p>Press the spacebar when you're ready to continue.</p>","","","","","","","","",""
"html-keyboard-response","169","230490","0.0-11.0-0.0","60b87f3ca1dbf6bb340c9bb0","64e77d7b61f440b60e28659d","64ecad83544e1d4e75f21a6f","null","null","<p style=""font-size: 60px; font-family: BACS"">kabJbLcO</p>","","","","","","","","",""
"html-keyboard-response","170","231491","0.0-11.0-0.1","60b87f3ca1dbf6bb340c9bb0","64e77d7b61f440b60e28659d","64ecad83544e1d4e75f21a6f","null","null","<p style=""font-size: 60px; font-family: BACS"">ZkGmYrGl</p>","","","","","","","","",""
"html-keyboard-response","171","232492","0.0-11.0-0.2","60b87f3ca1dbf6bb340c9bb0","64e77d7b61f440b60e28659d","64ecad83544e1d4e75f21a6f","null","null","<p style=""font-size: 60px; font-family: BACS"">RYtkcRdCc</p>","","","","","","","","",""
"html-keyboard-response","172","233493","0.0-11.0-0.3","60b87f3ca1dbf6bb340c9bb0","64e77d7b61f440b60e28659d","64ecad83544e1d4e75f21a6f","null","null","<p style=""font-size: 60px; font-family: BACS"">cROMthBK</p>","","","","","","","","",""
"html-keyboard-response","173","234493","0.0-11.0-0.4","60b87f3ca1dbf6bb340c9bb0","64e77d7b61f440b60e28659d","64ecad83544e1d4e75f21a6f","null","null","<p style=""font-size: 60px; font-family: BACS"">aOLZUkGua</p>","","","","","","","","",""
"html-keyboard-response","174","235495","0.0-11.0-0.5","60b87f3ca1dbf6bb340c9bb0","64e77d7b61f440b60e28659d","64ecad83544e1d4e75f21a6f","null","null","<p style=""font-size: 60px; font-family: BACS"">EhbthBK</p>","","","","","","","","",""
"html-keyboard-response","175","236496","0.0-11.0-0.6","60b87f3ca1dbf6bb340c9bb0","64e77d7b61f440b60e28659d","64ecad83544e1d4e75f21a6f","null","null","<p style=""font-size: 60px; font-family: BACS"">kabJbrGl</p>","","","","","","","","",""
"html-keyboard-response","176","237497","0.0-11.0-0.7","60b87f3ca1dbf6bb340c9bb0","64e77d7b61f440b60e28659d","64ecad83544e1d4e75f21a6f","null","null","<p style=""font-size: 60px; font-family: BACS"">OkGYLcO</p>","","","","","","","","",""
"html-keyboard-response","177","238499","0.0-11.0-0.8","60b87f3ca1dbf6bb340c9bb0","64e77d7b61f440b60e28659d","64ecad83544e1d4e75f21a6f","null","null","<p style=""font-size: 60px; font-family: BACS"">ZkGmYmvG</p>","","","","","","","","",""
"html-keyboard-response","178","239500","0.0-11.0-0.9","60b87f3ca1dbf6bb340c9bb0","64e77d7b61f440b60e28659d","64ecad83544e1d4e75f21a6f","null","null","<p style=""font-size: 60px; font-family: BACS"">kCRmPEdK</p>","","","","","","","","",""
"html-keyboard-response","179","240501","0.0-11.0-0.10","60b87f3ca1dbf6bb340c9bb0","64e77d7b61f440b60e28659d","64ecad83544e1d4e75f21a6f","null","null","<p style=""font-size: 60px; font-family: BACS"">aOLZUrGl</p>","","","","","","","","",""
"html-keyboard-response","180","241502","0.0-11.0-0.11","60b87f3ca1dbf6bb340c9bb0","64e77d7b61f440b60e28659d","64ecad83544e1d4e75f21a6f","null","null","<p style=""font-size: 60px; font-family: BACS"">bcbMhBK</p>","","","","","","","","",""
"html-keyboard-response","181","242504","0.0-11.0-0.12","60b87f3ca1dbf6bb340c9bb0","64e77d7b61f440b60e28659d","64ecad83544e1d4e75f21a6f","null","null","<p style=""font-size: 60px; font-family: BACS"">uauOGUa</p>","","","","","","","","",""
"html-keyboard-response","182","243505","0.0-11.0-0.13","60b87f3ca1dbf6bb340c9bb0","64e77d7b61f440b60e28659d","64ecad83544e1d4e75f21a6f","null","null","<p style=""font-size: 60px; font-family: BACS"">BOCRMRdCc</p>","","","","","","","","",""
"html-keyboard-response","183","244506","0.0-11.0-0.14","60b87f3ca1dbf6bb340c9bb0","64e77d7b61f440b60e28659d","64ecad83544e1d4e75f21a6f","null","null","<p style=""font-size: 60px; font-family: BACS"">mcOJkGua</p>","","","","","","","","",""
"html-keyboard-response","184","245508","0.0-11.0-0.15","60b87f3ca1dbf6bb340c9bb0","64e77d7b61f440b60e28659d","64ecad83544e1d4e75f21a6f","null","null","<p style=""font-size: 60px; font-family: BACS"">DhMtTAm</p>","","","","","","","","",""
"html-keyboard-response","185","246509","0.0-11.0-0.16","60b87f3ca1dbf6bb340c9bb0","64e77d7b61f440b60e28659d","64ecad83544e1d4e75f21a6f","null","null","<p style=""font-size: 60px; font-family: BACS"">AlQaQkGua</p>","","","","","","","","",""
"html-keyboard-response","186","247511","0.0-11.0-0.17","60b87f3ca1dbf6bb340c9bb0","64e77d7b61f440b60e28659d","64ecad83544e1d4e75f21a6f","null","null","<p style=""font-size: 60px; font-family: BACS"">mcOJrGl</p>","","","","","","","","",""
"html-keyboard-response","187","248512","0.0-11.0-0.18","60b87f3ca1dbf6bb340c9bb0","64e77d7b61f440b60e28659d","64ecad83544e1d4e75f21a6f","null","null","<p style=""font-size: 60px; font-family: BACS"">OkGYkGua</p>","","","","","","","","",""
"html-keyboard-response","188","249514","0.0-11.0-0.19","60b87f3ca1dbf6bb340c9bb0","64e77d7b61f440b60e28659d","64ecad83544e1d4e75f21a6f","null","null","<p style=""font-size: 60px; font-family: BACS"">uauOrGl</p>","","","","","","","","",""
"html-keyboard-response","189","250515","0.0-11.0-0.20","60b87f3ca1dbf6bb340c9bb0","64e77d7b61f440b60e28659d","64ecad83544e1d4e75f21a6f","null","null","<p style=""font-size: 60px; font-family: BACS"">tcYbdPEdK</p>","","","","","","","","",""
"html-keyboard-response","190","251517","0.0-11.0-0.21","60b87f3ca1dbf6bb340c9bb0","64e77d7b61f440b60e28659d","64ecad83544e1d4e75f21a6f","null","null","<p style=""font-size: 60px; font-family: BACS"">EhbtRdCc</p>","","","","","","","","",""
"html-keyboard-response","191","252517","0.0-11.0-0.22","60b87f3ca1dbf6bb340c9bb0","64e77d7b61f440b60e28659d","64ecad83544e1d4e75f21a6f","null","null","<p style=""font-size: 60px; font-family: BACS"">AlQaQrGl</p>","","","","","","","","",""
"html-keyboard-response","192","253518","0.0-11.0-0.23","60b87f3ca1dbf6bb340c9bb0","64e77d7b61f440b60e28659d","64ecad83544e1d4e75f21a6f","null","null","<p style=""font-size: 60px; font-family: BACS"">GumLlkGua</p>","","","","","","","","",""
"html-keyboard-response","193","254520","0.0-11.0-0.24","60b87f3ca1dbf6bb340c9bb0","64e77d7b61f440b60e28659d","64ecad83544e1d4e75f21a6f","null","null","<p style=""font-size: 60px; font-family: BACS"">DRPkYTAm</p>","","","","","","","","",""
"html-keyboard-response","194","255522","0.0-11.0-0.25","60b87f3ca1dbf6bb340c9bb0","64e77d7b61f440b60e28659d","64ecad83544e1d4e75f21a6f","null","null","<p style=""font-size: 60px; font-family: BACS"">RYtkchBK</p>","","","","","","","","",""
"html-keyboard-response","195","256523","0.0-11.0-0.26","60b87f3ca1dbf6bb340c9bb0","64e77d7b61f440b60e28659d","64ecad83544e1d4e75f21a6f","null","null","<p style=""font-size: 60px; font-family: BACS"">mcOJmvG</p>","","","","","","","","",""
"html-keyboard-response","196","257524","0.0-11.0-0.27","60b87f3ca1dbf6bb340c9bb0","64e77d7b61f440b60e28659d","64ecad83544e1d4e75f21a6f","null","null","<p style=""font-size: 60px; font-family: BACS"">kCRmhBK</p>","","","","","","","","",""
"html-keyboard-response","197","258525","0.0-11.0-0.28","60b87f3ca1dbf6bb340c9bb0","64e77d7b61f440b60e28659d","64ecad83544e1d4e75f21a6f","null","null","<p style=""font-size: 60px; font-family: BACS"">DhMtPEdK</p>","","","","","","","","",""
"html-keyboard-response","198","259527","0.0-11.0-0.29","60b87f3ca1dbf6bb340c9bb0","64e77d7b61f440b60e28659d","64ecad83544e1d4e75f21a6f","null","null","<p style=""font-size: 60px; font-family: BACS"">RYtkcTAm</p>","","","","","","","","",""
"html-keyboard-response","199","260529","0.0-11.0-0.30","60b87f3ca1dbf6bb340c9bb0","64e77d7b61f440b60e28659d","64ecad83544e1d4e75f21a6f","null","null","<p style=""font-size: 60px; font-family: BACS"">JrGvkGua</p>","","","","","","","","",""
"html-keyboard-response","200","261529","0.0-11.0-0.31","60b87f3ca1dbf6bb340c9bb0","64e77d7b61f440b60e28659d","64ecad83544e1d4e75f21a6f","null","null","<p style=""font-size: 60px; font-family: BACS"">AlQaQGUa</p>","","","","","","","","",""
"html-keyboard-response","201","262531","0.0-11.0-0.32","60b87f3ca1dbf6bb340c9bb0","64e77d7b61f440b60e28659d","64ecad83544e1d4e75f21a6f","null","null","<p style=""font-size: 60px; font-family: BACS"">uauOmvG</p>","","","","","","","","",""
"html-keyboard-response","202","263533","0.0-11.0-0.33","60b87f3ca1dbf6bb340c9bb0","64e77d7b61f440b60e28659d","64ecad83544e1d4e75f21a6f","null","null","<p style=""font-size: 60px; font-family: BACS"">EhbtTAm</p>","","","","","","","","",""
"html-keyboard-response","203","264535","0.0-11.0-0.34","60b87f3ca1dbf6bb340c9bb0","64e77d7b61f440b60e28659d","64ecad83544e1d4e75f21a6f","null","null","<p style=""font-size: 60px; font-family: BACS"">bcbMCEM</p>","","","","","","","","",""
"html-keyboard-response","204","265537","0.0-11.0-0.35","60b87f3ca1dbf6bb340c9bb0","64e77d7b61f440b60e28659d","64ecad83544e1d4e75f21a6f","null","null","<p style=""font-size: 60px; font-family: BACS"">BOCRMTAm</p>","","","","","","","","",""
"html-keyboard-response","205","266539","0.0-11.0-0.36","60b87f3ca1dbf6bb340c9bb0","64e77d7b61f440b60e28659d","64ecad83544e1d4e75f21a6f","null","null","<p style=""font-size: 60px; font-family: BACS"">OkGYGUa</p>","","","","","","","","",""
"html-keyboard-response","206","267539","0.0-11.0-0.37","60b87f3ca1dbf6bb340c9bb0","64e77d7b61f440b60e28659d","64ecad83544e1d4e75f21a6f","null","null","<p style=""font-size: 60px; font-family: BACS"">KMDYtTAm</p>","","","","","","","","",""
"html-keyboard-response","207","268540","0.0-11.0-0.38","60b87f3ca1dbf6bb340c9bb0","64e77d7b61f440b60e28659d","64ecad83544e1d4e75f21a6f","null","null","<p style=""font-size: 60px; font-family: BACS"">DRPkYPEdK</p>","","","","","","","","",""
"html-keyboard-response","208","269541","0.0-11.0-0.39","60b87f3ca1dbf6bb340c9bb0","64e77d7b61f440b60e28659d","64ecad83544e1d4e75f21a6f","null","null","<p style=""font-size: 60px; font-family: BACS"">JrGvGUa</p>","","","","","","","","",""
"html-keyboard-response","209","270542","0.0-11.0-0.40","60b87f3ca1dbf6bb340c9bb0","64e77d7b61f440b60e28659d","64ecad83544e1d4e75f21a6f","null","null","<p style=""font-size: 60px; font-family: BACS"">DRPkYhBK</p>","","","","","","","","",""
"html-keyboard-response","210","271544","0.0-11.0-0.41","60b87f3ca1dbf6bb340c9bb0","64e77d7b61f440b60e28659d","64ecad83544e1d4e75f21a6f","null","null","<p style=""font-size: 60px; font-family: BACS"">GumLlrGl</p>","","","","","","","","",""
"html-keyboard-response","211","272545","0.0-11.0-0.42","60b87f3ca1dbf6bb340c9bb0","64e77d7b61f440b60e28659d","64ecad83544e1d4e75f21a6f","null","null","<p style=""font-size: 60px; font-family: BACS"">YdudmvG</p>","","","","","","","","",""
"html-keyboard-response","212","273546","0.0-11.0-0.43","60b87f3ca1dbf6bb340c9bb0","64e77d7b61f440b60e28659d","64ecad83544e1d4e75f21a6f","null","null","<p style=""font-size: 60px; font-family: BACS"">BOCRMPEdK</p>","","","","","","","","",""
"html-keyboard-response","213","274548","0.0-11.0-0.44","60b87f3ca1dbf6bb340c9bb0","64e77d7b61f440b60e28659d","64ecad83544e1d4e75f21a6f","null","null","<p style=""font-size: 60px; font-family: BACS"">DhMtCEM</p>","","","","","","","","",""
"html-keyboard-response","214","275549","0.0-11.0-0.45","60b87f3ca1dbf6bb340c9bb0","64e77d7b61f440b60e28659d","64ecad83544e1d4e75f21a6f","null","null","<p style=""font-size: 60px; font-family: BACS"">bcbMTAm</p>","","","","","","","","",""
"html-keyboard-response","215","276551","0.0-11.0-0.46","60b87f3ca1dbf6bb340c9bb0","64e77d7b61f440b60e28659d","64ecad83544e1d4e75f21a6f","null","null","<p style=""font-size: 60px; font-family: BACS"">DRPkYCEM</p>","","","","","","","","",""
"html-keyboard-response","216","277552","0.0-11.0-0.47","60b87f3ca1dbf6bb340c9bb0","64e77d7b61f440b60e28659d","64ecad83544e1d4e75f21a6f","null","null","<p style=""font-size: 60px; font-family: BACS"">kabJbmvG</p>","","","","","","","","",""
"html-keyboard-response","217","278553","0.0-11.0-0.48","60b87f3ca1dbf6bb340c9bb0","64e77d7b61f440b60e28659d","64ecad83544e1d4e75f21a6f","null","null","<p style=""font-size: 60px; font-family: BACS"">YdudkGua</p>","","","","","","","","",""
"html-keyboard-response","218","279555","0.0-11.0-0.49","60b87f3ca1dbf6bb340c9bb0","64e77d7b61f440b60e28659d","64ecad83544e1d4e75f21a6f","null","null","<p style=""font-size: 60px; font-family: BACS"">mcOJLcO</p>","","","","","","","","",""
"html-keyboard-response","219","280556","0.0-11.0-0.50","60b87f3ca1dbf6bb340c9bb0","64e77d7b61f440b60e28659d","64ecad83544e1d4e75f21a6f","null","null","<p style=""font-size: 60px; font-family: BACS"">OkGYrGl</p>","","","","","","","","",""
"html-keyboard-response","220","281557","0.0-11.0-0.51","60b87f3ca1dbf6bb340c9bb0","64e77d7b61f440b60e28659d","64ecad83544e1d4e75f21a6f","null","null","<p style=""font-size: 60px; font-family: BACS"">cROMtPEdK</p>","","","","","","","","",""
"html-keyboard-response","221","282558","0.0-11.0-0.52","60b87f3ca1dbf6bb340c9bb0","64e77d7b61f440b60e28659d","64ecad83544e1d4e75f21a6f","null","null","<p style=""font-size: 60px; font-family: BACS"">JrGvLcO</p>","","","","","","","","",""
"html-keyboard-response","222","283560","0.0-11.0-0.53","60b87f3ca1dbf6bb340c9bb0","64e77d7b61f440b60e28659d","64ecad83544e1d4e75f21a6f","null","null","<p style=""font-size: 60px; font-family: BACS"">BOCRMCEM</p>","","","","","","","","",""
"html-keyboard-response","223","284561","0.0-11.0-0.54","60b87f3ca1dbf6bb340c9bb0","64e77d7b61f440b60e28659d","64ecad83544e1d4e75f21a6f","null","null","<p style=""font-size: 60px; font-family: BACS"">kabJbGUa</p>","","","","","","","","",""
"html-keyboard-response","224","285563","0.0-11.0-0.55","60b87f3ca1dbf6bb340c9bb0","64e77d7b61f440b60e28659d","64ecad83544e1d4e75f21a6f","null","null","<p style=""font-size: 60px; font-family: BACS"">cROMtTAm</p>","","","","","","","","",""
"html-keyboard-response","225","286564","0.0-11.0-0.56","60b87f3ca1dbf6bb340c9bb0","64e77d7b61f440b60e28659d","64ecad83544e1d4e75f21a6f","null","null","<p style=""font-size: 60px; font-family: BACS"">KMDYtCEM</p>","","","","","","","","",""
"html-keyboard-response","226","287565","0.0-11.0-0.57","60b87f3ca1dbf6bb340c9bb0","64e77d7b61f440b60e28659d","64ecad83544e1d4e75f21a6f","null","null","<p style=""font-size: 60px; font-family: BACS"">aOLZUGUa</p>","","","","","","","","",""
"html-keyboard-response","227","288568","0.0-11.0-0.58","60b87f3ca1dbf6bb340c9bb0","64e77d7b61f440b60e28659d","64ecad83544e1d4e75f21a6f","null","null","<p style=""font-size: 60px; font-family: BACS"">kCRmCEM</p>","","","","","","","","",""
"html-keyboard-response","228","289570","0.0-11.0-0.59","60b87f3ca1dbf6bb340c9bb0","64e77d7b61f440b60e28659d","64ecad83544e1d4e75f21a6f","null","null","<p style=""font-size: 60px; font-family: BACS"">AlQaQLcO</p>","","","","","","","","",""
"html-keyboard-response","229","290570","0.0-11.0-0.60","60b87f3ca1dbf6bb340c9bb0","64e77d7b61f440b60e28659d","64ecad83544e1d4e75f21a6f","null","null","<p style=""font-size: 60px; font-family: BACS"">cROMtCEM</p>","","","","","","","","",""
"html-keyboard-response","230","291571","0.0-11.0-0.61","60b87f3ca1dbf6bb340c9bb0","64e77d7b61f440b60e28659d","64ecad83544e1d4e75f21a6f","null","null","<p style=""font-size: 60px; font-family: BACS"">EhbtPEdK</p>","","","","","","","","",""
"html-keyboard-response","231","292572","0.0-11.0-0.62","60b87f3ca1dbf6bb340c9bb0","64e77d7b61f440b60e28659d","64ecad83544e1d4e75f21a6f","null","null","<p style=""font-size: 60px; font-family: BACS"">ZkGmYGUa</p>","","","","","","","","",""
"html-keyboard-response","232","293574","0.0-11.0-0.63","60b87f3ca1dbf6bb340c9bb0","64e77d7b61f440b60e28659d","64ecad83544e1d4e75f21a6f","null","null","<p style=""font-size: 60px; font-family: BACS"">GumLlmvG</p>","","","","","","","","",""
"html-keyboard-response","233","294576","0.0-11.0-0.64","60b87f3ca1dbf6bb340c9bb0","64e77d7b61f440b60e28659d","64ecad83544e1d4e75f21a6f","null","null","<p style=""font-size: 60px; font-family: BACS"">bcbMRdCc</p>","","","","","","","","",""
"html-keyboard-response","234","295577","0.0-11.0-0.65","60b87f3ca1dbf6bb340c9bb0","64e77d7b61f440b60e28659d","64ecad83544e1d4e75f21a6f","null","null","<p style=""font-size: 60px; font-family: BACS"">GumLlLcO</p>","","","","","","","","",""
"html-keyboard-response","235","296578","0.0-11.0-0.66","60b87f3ca1dbf6bb340c9bb0","64e77d7b61f440b60e28659d","64ecad83544e1d4e75f21a6f","null","null","<p style=""font-size: 60px; font-family: BACS"">tcYbdCEM</p>","","","","","","","","",""
"html-keyboard-response","236","297580","0.0-11.0-0.67","60b87f3ca1dbf6bb340c9bb0","64e77d7b61f440b60e28659d","64ecad83544e1d4e75f21a6f","null","null","<p style=""font-size: 60px; font-family: BACS"">kCRmRdCc</p>","","","","","","","","",""
"html-keyboard-response","237","298580","0.0-11.0-0.68","60b87f3ca1dbf6bb340c9bb0","64e77d7b61f440b60e28659d","64ecad83544e1d4e75f21a6f","null","null","<p style=""font-size: 60px; font-family: BACS"">uauOkGua</p>","","","","","","","","",""
"html-keyboard-response","238","299582","0.0-11.0-0.69","60b87f3ca1dbf6bb340c9bb0","64e77d7b61f440b60e28659d","64ecad83544e1d4e75f21a6f","null","null","<p style=""font-size: 60px; font-family: BACS"">YdudLcO</p>","","","","","","","","",""
"html-keyboard-response","239","300583","0.0-11.0-0.70","60b87f3ca1dbf6bb340c9bb0","64e77d7b61f440b60e28659d","64ecad83544e1d4e75f21a6f","null","null","<p style=""font-size: 60px; font-family: BACS"">tcYbdRdCc</p>","","","","","","","","",""
"html-keyboard-response","240","301584","0.0-11.0-0.71","60b87f3ca1dbf6bb340c9bb0","64e77d7b61f440b60e28659d","64ecad83544e1d4e75f21a6f","null","null","<p style=""font-size: 60px; font-family: BACS"">JrGvmvG</p>","","","","","","","","",""
"html-keyboard-response","241","302586","0.0-11.0-0.72","60b87f3ca1dbf6bb340c9bb0","64e77d7b61f440b60e28659d","64ecad83544e1d4e75f21a6f","null","null","<p style=""font-size: 60px; font-family: BACS"">tcYbdhBK</p>","","","","","","","","",""
"html-keyboard-response","242","303587","0.0-11.0-0.73","60b87f3ca1dbf6bb340c9bb0","64e77d7b61f440b60e28659d","64ecad83544e1d4e75f21a6f","null","null","<p style=""font-size: 60px; font-family: BACS"">KMDYtRdCc</p>","","","","","","","","",""
"html-keyboard-response","243","304588","0.0-11.0-0.74","60b87f3ca1dbf6bb340c9bb0","64e77d7b61f440b60e28659d","64ecad83544e1d4e75f21a6f","null","null","<p style=""font-size: 60px; font-family: BACS"">ZkGmYLcO</p>","","","","","","","","",""
"html-keyboard-response","244","305589","0.0-11.0-0.75","60b87f3ca1dbf6bb340c9bb0","64e77d7b61f440b60e28659d","64ecad83544e1d4e75f21a6f","null","null","<p style=""font-size: 60px; font-family: BACS"">KMDYthBK</p>","","","","","","","","",""
"html-keyboard-response","245","306591","0.0-11.0-0.76","60b87f3ca1dbf6bb340c9bb0","64e77d7b61f440b60e28659d","64ecad83544e1d4e75f21a6f","null","null","<p style=""font-size: 60px; font-family: BACS"">YdudGUa</p>","","","","","","","","",""
"html-keyboard-response","246","307592","0.0-11.0-0.77","60b87f3ca1dbf6bb340c9bb0","64e77d7b61f440b60e28659d","64ecad83544e1d4e75f21a6f","null","null","<p style=""font-size: 60px; font-family: BACS"">aOLZUmvG</p>","","","","","","","","",""
"html-keyboard-response","247","308594","0.0-11.0-0.78","60b87f3ca1dbf6bb340c9bb0","64e77d7b61f440b60e28659d","64ecad83544e1d4e75f21a6f","null","null","<p style=""font-size: 60px; font-family: BACS"">RYtkcPEdK</p>","","","","","","","","",""
"html-keyboard-response","248","309595","0.0-11.0-0.79","60b87f3ca1dbf6bb340c9bb0","64e77d7b61f440b60e28659d","64ecad83544e1d4e75f21a6f","null","null","<p style=""font-size: 60px; font-family: BACS"">DhMtRdCc</p>","","","","","","","","",""
"html-keyboard-response","249","311894","0.0-12.0","60b87f3ca1dbf6bb340c9bb0","64e77d7b61f440b60e28659d","64ecad83544e1d4e75f21a6f","2298"," ","<p>Great, you've seen the third block of words. You may now take a short break.</p>
      <p>Press the spacebar when you're ready to continue.</p>","","","","","","","","",""
"html-keyboard-response","250","312895","0.0-13.0-0.0","60b87f3ca1dbf6bb340c9bb0","64e77d7b61f440b60e28659d","64ecad83544e1d4e75f21a6f","null","null","<p style=""font-size: 60px; font-family: BACS"">DRPkYTAm</p>","","","","","","","","",""
"html-keyboard-response","251","313897","0.0-13.0-0.1","60b87f3ca1dbf6bb340c9bb0","64e77d7b61f440b60e28659d","64ecad83544e1d4e75f21a6f","null","null","<p style=""font-size: 60px; font-family: BACS"">AlQaQrGl</p>","","","","","","","","",""
"html-keyboard-response","252","314899","0.0-13.0-0.2","60b87f3ca1dbf6bb340c9bb0","64e77d7b61f440b60e28659d","64ecad83544e1d4e75f21a6f","null","null","<p style=""font-size: 60px; font-family: BACS"">kabJbGUa</p>","","","","","","","","",""
"html-keyboard-response","253","315900","0.0-13.0-0.3","60b87f3ca1dbf6bb340c9bb0","64e77d7b61f440b60e28659d","64ecad83544e1d4e75f21a6f","null","null","<p style=""font-size: 60px; font-family: BACS"">DhMtTAm</p>","","","","","","","","",""
"html-keyboard-response","254","316903","0.0-13.0-0.4","60b87f3ca1dbf6bb340c9bb0","64e77d7b61f440b60e28659d","64ecad83544e1d4e75f21a6f","null","null","<p style=""font-size: 60px; font-family: BACS"">JrGvGUa</p>","","","","","","","","",""
"html-keyboard-response","255","317905","0.0-13.0-0.5","60b87f3ca1dbf6bb340c9bb0","64e77d7b61f440b60e28659d","64ecad83544e1d4e75f21a6f","null","null","<p style=""font-size: 60px; font-family: BACS"">cROMtCEM</p>","","","","","","","","",""
"html-keyboard-response","256","318907","0.0-13.0-0.6","60b87f3ca1dbf6bb340c9bb0","64e77d7b61f440b60e28659d","64ecad83544e1d4e75f21a6f","null","null","<p style=""font-size: 60px; font-family: BACS"">aOLZUmvG</p>","","","","","","","","",""
"html-keyboard-response","257","319908","0.0-13.0-0.7","60b87f3ca1dbf6bb340c9bb0","64e77d7b61f440b60e28659d","64ecad83544e1d4e75f21a6f","null","null","<p style=""font-size: 60px; font-family: BACS"">bcbMhBK</p>","","","","","","","","",""
"html-keyboard-response","258","320909","0.0-13.0-0.8","60b87f3ca1dbf6bb340c9bb0","64e77d7b61f440b60e28659d","64ecad83544e1d4e75f21a6f","null","null","<p style=""font-size: 60px; font-family: BACS"">RYtkcRdCc</p>","","","","","","","","",""
"html-keyboard-response","259","321911","0.0-13.0-0.9","60b87f3ca1dbf6bb340c9bb0","64e77d7b61f440b60e28659d","64ecad83544e1d4e75f21a6f","null","null","<p style=""font-size: 60px; font-family: BACS"">GumLlmvG</p>","","","","","","","","",""
"html-keyboard-response","260","322913","0.0-13.0-0.10","60b87f3ca1dbf6bb340c9bb0","64e77d7b61f440b60e28659d","64ecad83544e1d4e75f21a6f","null","null","<p style=""font-size: 60px; font-family: BACS"">mcOJkGua</p>","","","","","","","","",""
"html-keyboard-response","261","323915","0.0-13.0-0.11","60b87f3ca1dbf6bb340c9bb0","64e77d7b61f440b60e28659d","64ecad83544e1d4e75f21a6f","null","null","<p style=""font-size: 60px; font-family: BACS"">KMDYtCEM</p>","","","","","","","","",""
"html-keyboard-response","262","324916","0.0-13.0-0.12","60b87f3ca1dbf6bb340c9bb0","64e77d7b61f440b60e28659d","64ecad83544e1d4e75f21a6f","null","null","<p style=""font-size: 60px; font-family: BACS"">bcbMTAm</p>","","","","","","","","",""
"html-keyboard-response","263","325917","0.0-13.0-0.13","60b87f3ca1dbf6bb340c9bb0","64e77d7b61f440b60e28659d","64ecad83544e1d4e75f21a6f","null","null","<p style=""font-size: 60px; font-family: BACS"">kCRmhBK</p>","","","","","","","","",""
"html-keyboard-response","264","326919","0.0-13.0-0.14","60b87f3ca1dbf6bb340c9bb0","64e77d7b61f440b60e28659d","64ecad83544e1d4e75f21a6f","null","null","<p style=""font-size: 60px; font-family: BACS"">GumLlkGua</p>","","","","","","","","",""
"html-keyboard-response","265","327921","0.0-13.0-0.15","60b87f3ca1dbf6bb340c9bb0","64e77d7b61f440b60e28659d","64ecad83544e1d4e75f21a6f","null","null","<p style=""font-size: 60px; font-family: BACS"">aOLZUGUa</p>","","","","","","","","",""
"html-keyboard-response","266","328921","0.0-13.0-0.16","60b87f3ca1dbf6bb340c9bb0","64e77d7b61f440b60e28659d","64ecad83544e1d4e75f21a6f","null","null","<p style=""font-size: 60px; font-family: BACS"">DhMtCEM</p>","","","","","","","","",""
"html-keyboard-response","267","329923","0.0-13.0-0.17","60b87f3ca1dbf6bb340c9bb0","64e77d7b61f440b60e28659d","64ecad83544e1d4e75f21a6f","null","null","<p style=""font-size: 60px; font-family: BACS"">RYtkcTAm</p>","","","","","","","","",""
"html-keyboard-response","268","330925","0.0-13.0-0.18","60b87f3ca1dbf6bb340c9bb0","64e77d7b61f440b60e28659d","64ecad83544e1d4e75f21a6f","null","null","<p style=""font-size: 60px; font-family: BACS"">kCRmRdCc</p>","","","","","","","","",""
"html-keyboard-response","269","331926","0.0-13.0-0.19","60b87f3ca1dbf6bb340c9bb0","64e77d7b61f440b60e28659d","64ecad83544e1d4e75f21a6f","null","null","<p style=""font-size: 60px; font-family: BACS"">EhbthBK</p>","","","","","","","","",""
"html-keyboard-response","270","332927","0.0-13.0-0.20","60b87f3ca1dbf6bb340c9bb0","64e77d7b61f440b60e28659d","64ecad83544e1d4e75f21a6f","null","null","<p style=""font-size: 60px; font-family: BACS"">BOCRMRdCc</p>","","","","","","","","",""
"html-keyboard-response","271","333929","0.0-13.0-0.21","60b87f3ca1dbf6bb340c9bb0","64e77d7b61f440b60e28659d","64ecad83544e1d4e75f21a6f","null","null","<p style=""font-size: 60px; font-family: BACS"">mcOJrGl</p>","","","","","","","","",""
"html-keyboard-response","272","334930","0.0-13.0-0.22","60b87f3ca1dbf6bb340c9bb0","64e77d7b61f440b60e28659d","64ecad83544e1d4e75f21a6f","null","null","<p style=""font-size: 60px; font-family: BACS"">DRPkYPEdK</p>","","","","","","","","",""
"html-keyboard-response","273","335932","0.0-13.0-0.23","60b87f3ca1dbf6bb340c9bb0","64e77d7b61f440b60e28659d","64ecad83544e1d4e75f21a6f","null","null","<p style=""font-size: 60px; font-family: BACS"">KMDYtRdCc</p>","","","","","","","","",""
"html-keyboard-response","274","336934","0.0-13.0-0.24","60b87f3ca1dbf6bb340c9bb0","64e77d7b61f440b60e28659d","64ecad83544e1d4e75f21a6f","null","null","<p style=""font-size: 60px; font-family: BACS"">kCRmPEdK</p>","","","","","","","","",""
"html-keyboard-response","275","337935","0.0-13.0-0.25","60b87f3ca1dbf6bb340c9bb0","64e77d7b61f440b60e28659d","64ecad83544e1d4e75f21a6f","null","null","<p style=""font-size: 60px; font-family: BACS"">GumLlrGl</p>","","","","","","","","",""
"html-keyboard-response","276","338937","0.0-13.0-0.26","60b87f3ca1dbf6bb340c9bb0","64e77d7b61f440b60e28659d","64ecad83544e1d4e75f21a6f","null","null","<p style=""font-size: 60px; font-family: BACS"">bcbMCEM</p>","","","","","","","","",""
"html-keyboard-response","277","339939","0.0-13.0-0.27","60b87f3ca1dbf6bb340c9bb0","64e77d7b61f440b60e28659d","64ecad83544e1d4e75f21a6f","null","null","<p style=""font-size: 60px; font-family: BACS"">mcOJLcO</p>","","","","","","","","",""
"html-keyboard-response","278","340940","0.0-13.0-0.28","60b87f3ca1dbf6bb340c9bb0","64e77d7b61f440b60e28659d","64ecad83544e1d4e75f21a6f","null","null","<p style=""font-size: 60px; font-family: BACS"">ZkGmYGUa</p>","","","","","","","","",""
"html-keyboard-response","279","341942","0.0-13.0-0.29","60b87f3ca1dbf6bb340c9bb0","64e77d7b61f440b60e28659d","64ecad83544e1d4e75f21a6f","null","null","<p style=""font-size: 60px; font-family: BACS"">kabJbrGl</p>","","","","","","","","",""
"html-keyboard-response","280","342944","0.0-13.0-0.30","60b87f3ca1dbf6bb340c9bb0","64e77d7b61f440b60e28659d","64ecad83544e1d4e75f21a6f","null","null","<p style=""font-size: 60px; font-family: BACS"">AlQaQkGua</p>","","","","","","","","",""
"html-keyboard-response","281","343945","0.0-13.0-0.31","60b87f3ca1dbf6bb340c9bb0","64e77d7b61f440b60e28659d","64ecad83544e1d4e75f21a6f","null","null","<p style=""font-size: 60px; font-family: BACS"">kabJbmvG</p>","","","","","","","","",""
"html-keyboard-response","282","344947","0.0-13.0-0.32","60b87f3ca1dbf6bb340c9bb0","64e77d7b61f440b60e28659d","64ecad83544e1d4e75f21a6f","null","null","<p style=""font-size: 60px; font-family: BACS"">aOLZUkGua</p>","","","","","","","","",""
"html-keyboard-response","283","345948","0.0-13.0-0.33","60b87f3ca1dbf6bb340c9bb0","64e77d7b61f440b60e28659d","64ecad83544e1d4e75f21a6f","null","null","<p style=""font-size: 60px; font-family: BACS"">BOCRMTAm</p>","","","","","","","","",""
"html-keyboard-response","284","346949","0.0-13.0-0.34","60b87f3ca1dbf6bb340c9bb0","64e77d7b61f440b60e28659d","64ecad83544e1d4e75f21a6f","null","null","<p style=""font-size: 60px; font-family: BACS"">ZkGmYLcO</p>","","","","","","","","",""
"html-keyboard-response","285","347951","0.0-13.0-0.35","60b87f3ca1dbf6bb340c9bb0","64e77d7b61f440b60e28659d","64ecad83544e1d4e75f21a6f","null","null","<p style=""font-size: 60px; font-family: BACS"">tcYbdhBK</p>","","","","","","","","",""
"html-keyboard-response","286","348952","0.0-13.0-0.36","60b87f3ca1dbf6bb340c9bb0","64e77d7b61f440b60e28659d","64ecad83544e1d4e75f21a6f","null","null","<p style=""font-size: 60px; font-family: BACS"">KMDYtTAm</p>","","","","","","","","",""
"html-keyboard-response","287","349953","0.0-13.0-0.37","60b87f3ca1dbf6bb340c9bb0","64e77d7b61f440b60e28659d","64ecad83544e1d4e75f21a6f","null","null","<p style=""font-size: 60px; font-family: BACS"">kCRmCEM</p>","","","","","","","","",""
"html-keyboard-response","288","350956","0.0-13.0-0.38","60b87f3ca1dbf6bb340c9bb0","64e77d7b61f440b60e28659d","64ecad83544e1d4e75f21a6f","null","null","<p style=""font-size: 60px; font-family: BACS"">cROMtTAm</p>","","","","","","","","",""
"html-keyboard-response","289","351957","0.0-13.0-0.39","60b87f3ca1dbf6bb340c9bb0","64e77d7b61f440b60e28659d","64ecad83544e1d4e75f21a6f","null","null","<p style=""font-size: 60px; font-family: BACS"">mcOJmvG</p>","","","","","","","","",""
"html-keyboard-response","290","352959","0.0-13.0-0.40","60b87f3ca1dbf6bb340c9bb0","64e77d7b61f440b60e28659d","64ecad83544e1d4e75f21a6f","null","null","<p style=""font-size: 60px; font-family: BACS"">DhMtRdCc</p>","","","","","","","","",""
"html-keyboard-response","291","353961","0.0-13.0-0.41","60b87f3ca1dbf6bb340c9bb0","64e77d7b61f440b60e28659d","64ecad83544e1d4e75f21a6f","null","null","<p style=""font-size: 60px; font-family: BACS"">YdudmvG</p>","","","","","","","","",""
"html-keyboard-response","292","354963","0.0-13.0-0.42","60b87f3ca1dbf6bb340c9bb0","64e77d7b61f440b60e28659d","64ecad83544e1d4e75f21a6f","null","null","<p style=""font-size: 60px; font-family: BACS"">bcbMRdCc</p>","","","","","","","","",""
"html-keyboard-response","293","355964","0.0-13.0-0.43","60b87f3ca1dbf6bb340c9bb0","64e77d7b61f440b60e28659d","64ecad83544e1d4e75f21a6f","null","null","<p style=""font-size: 60px; font-family: BACS"">AlQaQLcO</p>","","","","","","","","",""
"html-keyboard-response","294","356966","0.0-13.0-0.44","60b87f3ca1dbf6bb340c9bb0","64e77d7b61f440b60e28659d","64ecad83544e1d4e75f21a6f","null","null","<p style=""font-size: 60px; font-family: BACS"">JrGvkGua</p>","","","","","","","","",""
"html-keyboard-response","295","357967","0.0-13.0-0.45","60b87f3ca1dbf6bb340c9bb0","64e77d7b61f440b60e28659d","64ecad83544e1d4e75f21a6f","null","null","<p style=""font-size: 60px; font-family: BACS"">kabJbLcO</p>","","","","","","","","",""
"html-keyboard-response","296","358969","0.0-13.0-0.46","60b87f3ca1dbf6bb340c9bb0","64e77d7b61f440b60e28659d","64ecad83544e1d4e75f21a6f","null","null","<p style=""font-size: 60px; font-family: BACS"">DRPkYCEM</p>","","","","","","","","",""
"html-keyboard-response","297","359971","0.0-13.0-0.47","60b87f3ca1dbf6bb340c9bb0","64e77d7b61f440b60e28659d","64ecad83544e1d4e75f21a6f","null","null","<p style=""font-size: 60px; font-family: BACS"">tcYbdPEdK</p>","","","","","","","","",""
"html-keyboard-response","298","360973","0.0-13.0-0.48","60b87f3ca1dbf6bb340c9bb0","64e77d7b61f440b60e28659d","64ecad83544e1d4e75f21a6f","null","null","<p style=""font-size: 60px; font-family: BACS"">uauOmvG</p>","","","","","","","","",""
"html-keyboard-response","299","361974","0.0-13.0-0.49","60b87f3ca1dbf6bb340c9bb0","64e77d7b61f440b60e28659d","64ecad83544e1d4e75f21a6f","null","null","<p style=""font-size: 60px; font-family: BACS"">JrGvLcO</p>","","","","","","","","",""
"html-keyboard-response","300","362977","0.0-13.0-0.50","60b87f3ca1dbf6bb340c9bb0","64e77d7b61f440b60e28659d","64ecad83544e1d4e75f21a6f","null","null","<p style=""font-size: 60px; font-family: BACS"">cROMtPEdK</p>","","","","","","","","",""
"html-keyboard-response","301","363978","0.0-13.0-0.51","60b87f3ca1dbf6bb340c9bb0","64e77d7b61f440b60e28659d","64ecad83544e1d4e75f21a6f","null","null","<p style=""font-size: 60px; font-family: BACS"">DRPkYhBK</p>","","","","","","","","",""
"html-keyboard-response","302","364980","0.0-13.0-0.52","60b87f3ca1dbf6bb340c9bb0","64e77d7b61f440b60e28659d","64ecad83544e1d4e75f21a6f","null","null","<p style=""font-size: 60px; font-family: BACS"">JrGvmvG</p>","","","","","","","","",""
"html-keyboard-response","303","365981","0.0-13.0-0.53","60b87f3ca1dbf6bb340c9bb0","64e77d7b61f440b60e28659d","64ecad83544e1d4e75f21a6f","null","null","<p style=""font-size: 60px; font-family: BACS"">tcYbdRdCc</p>","","","","","","","","",""
"html-keyboard-response","304","366982","0.0-13.0-0.54","60b87f3ca1dbf6bb340c9bb0","64e77d7b61f440b60e28659d","64ecad83544e1d4e75f21a6f","null","null","<p style=""font-size: 60px; font-family: BACS"">ZkGmYrGl</p>","","","","","","","","",""
"html-keyboard-response","305","367984","0.0-13.0-0.55","60b87f3ca1dbf6bb340c9bb0","64e77d7b61f440b60e28659d","64ecad83544e1d4e75f21a6f","null","null","<p style=""font-size: 60px; font-family: BACS"">DhMtPEdK</p>","","","","","","","","",""
"html-keyboard-response","306","368986","0.0-13.0-0.56","60b87f3ca1dbf6bb340c9bb0","64e77d7b61f440b60e28659d","64ecad83544e1d4e75f21a6f","null","null","<p style=""font-size: 60px; font-family: BACS"">YdudkGua</p>","","","","","","","","",""
"html-keyboard-response","307","369988","0.0-13.0-0.57","60b87f3ca1dbf6bb340c9bb0","64e77d7b61f440b60e28659d","64ecad83544e1d4e75f21a6f","null","null","<p style=""font-size: 60px; font-family: BACS"">RYtkcPEdK</p>","","","","","","","","",""
"html-keyboard-response","308","370989","0.0-13.0-0.58","60b87f3ca1dbf6bb340c9bb0","64e77d7b61f440b60e28659d","64ecad83544e1d4e75f21a6f","null","null","<p style=""font-size: 60px; font-family: BACS"">OkGYGUa</p>","","","","","","","","",""
"html-keyboard-response","309","371990","0.0-13.0-0.59","60b87f3ca1dbf6bb340c9bb0","64e77d7b61f440b60e28659d","64ecad83544e1d4e75f21a6f","null","null","<p style=""font-size: 60px; font-family: BACS"">BOCRMPEdK</p>","","","","","","","","",""
"html-keyboard-response","310","372991","0.0-13.0-0.60","60b87f3ca1dbf6bb340c9bb0","64e77d7b61f440b60e28659d","64ecad83544e1d4e75f21a6f","null","null","<p style=""font-size: 60px; font-family: BACS"">uauOrGl</p>","","","","","","","","",""
"html-keyboard-response","311","373992","0.0-13.0-0.61","60b87f3ca1dbf6bb340c9bb0","64e77d7b61f440b60e28659d","64ecad83544e1d4e75f21a6f","null","null","<p style=""font-size: 60px; font-family: BACS"">cROMthBK</p>","","","","","","","","",""
"html-keyboard-response","312","374993","0.0-13.0-0.62","60b87f3ca1dbf6bb340c9bb0","64e77d7b61f440b60e28659d","64ecad83544e1d4e75f21a6f","null","null","<p style=""font-size: 60px; font-family: BACS"">uauOGUa</p>","","","","","","","","",""
"html-keyboard-response","313","375995","0.0-13.0-0.63","60b87f3ca1dbf6bb340c9bb0","64e77d7b61f440b60e28659d","64ecad83544e1d4e75f21a6f","null","null","<p style=""font-size: 60px; font-family: BACS"">OkGYkGua</p>","","","","","","","","",""
"html-keyboard-response","314","376996","0.0-13.0-0.64","60b87f3ca1dbf6bb340c9bb0","64e77d7b61f440b60e28659d","64ecad83544e1d4e75f21a6f","null","null","<p style=""font-size: 60px; font-family: BACS"">EhbtRdCc</p>","","","","","","","","",""
"html-keyboard-response","315","377997","0.0-13.0-0.65","60b87f3ca1dbf6bb340c9bb0","64e77d7b61f440b60e28659d","64ecad83544e1d4e75f21a6f","null","null","<p style=""font-size: 60px; font-family: BACS"">OkGYrGl</p>","","","","","","","","",""
"html-keyboard-response","316","378999","0.0-13.0-0.66","60b87f3ca1dbf6bb340c9bb0","64e77d7b61f440b60e28659d","64ecad83544e1d4e75f21a6f","null","null","<p style=""font-size: 60px; font-family: BACS"">ZkGmYmvG</p>","","","","","","","","",""
"html-keyboard-response","317","379999","0.0-13.0-0.67","60b87f3ca1dbf6bb340c9bb0","64e77d7b61f440b60e28659d","64ecad83544e1d4e75f21a6f","null","null","<p style=""font-size: 60px; font-family: BACS"">uauOkGua</p>","","","","","","","","",""
"html-keyboard-response","318","381000","0.0-13.0-0.68","60b87f3ca1dbf6bb340c9bb0","64e77d7b61f440b60e28659d","64ecad83544e1d4e75f21a6f","null","null","<p style=""font-size: 60px; font-family: BACS"">RYtkchBK</p>","","","","","","","","",""
"html-keyboard-response","319","382002","0.0-13.0-0.69","60b87f3ca1dbf6bb340c9bb0","64e77d7b61f440b60e28659d","64ecad83544e1d4e75f21a6f","null","null","<p style=""font-size: 60px; font-family: BACS"">EhbtPEdK</p>","","","","","","","","",""
"html-keyboard-response","320","383004","0.0-13.0-0.70","60b87f3ca1dbf6bb340c9bb0","64e77d7b61f440b60e28659d","64ecad83544e1d4e75f21a6f","null","null","<p style=""font-size: 60px; font-family: BACS"">OkGYLcO</p>","","","","","","","","",""
"html-keyboard-response","321","384006","0.0-13.0-0.71","60b87f3ca1dbf6bb340c9bb0","64e77d7b61f440b60e28659d","64ecad83544e1d4e75f21a6f","null","null","<p style=""font-size: 60px; font-family: BACS"">AlQaQGUa</p>","","","","","","","","",""
"html-keyboard-response","322","385007","0.0-13.0-0.72","60b87f3ca1dbf6bb340c9bb0","64e77d7b61f440b60e28659d","64ecad83544e1d4e75f21a6f","null","null","<p style=""font-size: 60px; font-family: BACS"">GumLlLcO</p>","","","","","","","","",""
"html-keyboard-response","323","386007","0.0-13.0-0.73","60b87f3ca1dbf6bb340c9bb0","64e77d7b61f440b60e28659d","64ecad83544e1d4e75f21a6f","null","null","<p style=""font-size: 60px; font-family: BACS"">tcYbdCEM</p>","","","","","","","","",""
"html-keyboard-response","324","387008","0.0-13.0-0.74","60b87f3ca1dbf6bb340c9bb0","64e77d7b61f440b60e28659d","64ecad83544e1d4e75f21a6f","null","null","<p style=""font-size: 60px; font-family: BACS"">YdudGUa</p>","","","","","","","","",""
"html-keyboard-response","325","388010","0.0-13.0-0.75","60b87f3ca1dbf6bb340c9bb0","64e77d7b61f440b60e28659d","64ecad83544e1d4e75f21a6f","null","null","<p style=""font-size: 60px; font-family: BACS"">aOLZUrGl</p>","","","","","","","","",""
"html-keyboard-response","326","389012","0.0-13.0-0.76","60b87f3ca1dbf6bb340c9bb0","64e77d7b61f440b60e28659d","64ecad83544e1d4e75f21a6f","null","null","<p style=""font-size: 60px; font-family: BACS"">BOCRMCEM</p>","","","","","","","","",""
"html-keyboard-response","327","390013","0.0-13.0-0.77","60b87f3ca1dbf6bb340c9bb0","64e77d7b61f440b60e28659d","64ecad83544e1d4e75f21a6f","null","null","<p style=""font-size: 60px; font-family: BACS"">EhbtTAm</p>","","","","","","","","",""
"html-keyboard-response","328","391014","0.0-13.0-0.78","60b87f3ca1dbf6bb340c9bb0","64e77d7b61f440b60e28659d","64ecad83544e1d4e75f21a6f","null","null","<p style=""font-size: 60px; font-family: BACS"">YdudLcO</p>","","","","","","","","",""
"html-keyboard-response","329","392016","0.0-13.0-0.79","60b87f3ca1dbf6bb340c9bb0","64e77d7b61f440b60e28659d","64ecad83544e1d4e75f21a6f","null","null","<p style=""font-size: 60px; font-family: BACS"">KMDYthBK</p>","","","","","","","","",""
"html-keyboard-response","330","394834","0.0-14.0","60b87f3ca1dbf6bb340c9bb0","64e77d7b61f440b60e28659d","64ecad83544e1d4e75f21a6f","2817"," ","<p>Great, you've seen the fourth block of words. You may now take a short break.</p>
      <p>Press the spacebar when you're ready to continue.</p>","","","","","","","","",""
"html-keyboard-response","331","395835","0.0-15.0-0.0","60b87f3ca1dbf6bb340c9bb0","64e77d7b61f440b60e28659d","64ecad83544e1d4e75f21a6f","null","null","<p style=""font-size: 60px; font-family: BACS"">cROMthBK</p>","","","","","","","","",""
"html-keyboard-response","332","396835","0.0-15.0-0.1","60b87f3ca1dbf6bb340c9bb0","64e77d7b61f440b60e28659d","64ecad83544e1d4e75f21a6f","null","null","<p style=""font-size: 60px; font-family: BACS"">cROMthBK</p>","","","","","","","","",""
"html-keyboard-response","333","397837","0.0-15.0-0.2","60b87f3ca1dbf6bb340c9bb0","64e77d7b61f440b60e28659d","64ecad83544e1d4e75f21a6f","null","null","<p style=""font-size: 60px; font-family: BACS"">cROMthBK</p>","","","","","","","","",""
"html-keyboard-response","334","398838","0.0-15.0-0.3","60b87f3ca1dbf6bb340c9bb0","64e77d7b61f440b60e28659d","64ecad83544e1d4e75f21a6f","null","null","<p style=""font-size: 60px; font-family: BACS"">cROMthBK</p>","","","","","","","","",""
"html-keyboard-response","335","399840","0.0-15.0-0.4","60b87f3ca1dbf6bb340c9bb0","64e77d7b61f440b60e28659d","64ecad83544e1d4e75f21a6f","null","null","<p style=""font-size: 60px; font-family: BACS"">cROMthBK</p>","","","","","","","","",""
"html-keyboard-response","336","400842","0.0-15.0-0.5","60b87f3ca1dbf6bb340c9bb0","64e77d7b61f440b60e28659d","64ecad83544e1d4e75f21a6f","null","null","<p style=""font-size: 60px; font-family: BACS"">cROMthBK</p>","","","","","","","","",""
"html-keyboard-response","337","401844","0.0-15.0-0.6","60b87f3ca1dbf6bb340c9bb0","64e77d7b61f440b60e28659d","64ecad83544e1d4e75f21a6f","null","null","<p style=""font-size: 60px; font-family: BACS"">cROMthBK</p>","","","","","","","","",""
"html-keyboard-response","338","402845","0.0-15.0-0.7","60b87f3ca1dbf6bb340c9bb0","64e77d7b61f440b60e28659d","64ecad83544e1d4e75f21a6f","null","null","<p style=""font-size: 60px; font-family: BACS"">cROMthBK</p>","","","","","","","","",""
"html-keyboard-response","339","403847","0.0-15.0-0.8","60b87f3ca1dbf6bb340c9bb0","64e77d7b61f440b60e28659d","64ecad83544e1d4e75f21a6f","null","null","<p style=""font-size: 60px; font-family: BACS"">cROMthBK</p>","","","","","","","","",""
"html-keyboard-response","340","404849","0.0-15.0-0.9","60b87f3ca1dbf6bb340c9bb0","64e77d7b61f440b60e28659d","64ecad83544e1d4e75f21a6f","null","null","<p style=""font-size: 60px; font-family: BACS"">cROMthBK</p>","","","","","","","","",""
"html-keyboard-response","341","405850","0.0-15.0-0.10","60b87f3ca1dbf6bb340c9bb0","64e77d7b61f440b60e28659d","64ecad83544e1d4e75f21a6f","null","null","<p style=""font-size: 60px; font-family: BACS"">cROMthBK</p>","","","","","","","","",""
"html-keyboard-response","342","406851","0.0-15.0-0.11","60b87f3ca1dbf6bb340c9bb0","64e77d7b61f440b60e28659d","64ecad83544e1d4e75f21a6f","null","null","<p style=""font-size: 60px; font-family: BACS"">cROMthBK</p>","","","","","","","","",""
"html-keyboard-response","343","407853","0.0-15.0-0.12","60b87f3ca1dbf6bb340c9bb0","64e77d7b61f440b60e28659d","64ecad83544e1d4e75f21a6f","null","null","<p style=""font-size: 60px; font-family: BACS"">cROMthBK</p>","","","","","","","","",""
"html-keyboard-response","344","408855","0.0-15.0-0.13","60b87f3ca1dbf6bb340c9bb0","64e77d7b61f440b60e28659d","64ecad83544e1d4e75f21a6f","null","null","<p style=""font-size: 60px; font-family: BACS"">cROMthBK</p>","","","","","","","","",""
"html-keyboard-response","345","409856","0.0-15.0-0.14","60b87f3ca1dbf6bb340c9bb0","64e77d7b61f440b60e28659d","64ecad83544e1d4e75f21a6f","null","null","<p style=""font-size: 60px; font-family: BACS"">cROMthBK</p>","","","","","","","","",""
"html-keyboard-response","346","410858","0.0-15.0-0.15","60b87f3ca1dbf6bb340c9bb0","64e77d7b61f440b60e28659d","64ecad83544e1d4e75f21a6f","null","null","<p style=""font-size: 60px; font-family: BACS"">cROMthBK</p>","","","","","","","","",""
"html-keyboard-response","347","411859","0.0-15.0-0.16","60b87f3ca1dbf6bb340c9bb0","64e77d7b61f440b60e28659d","64ecad83544e1d4e75f21a6f","null","null","<p style=""font-size: 60px; font-family: BACS"">cROMthBK</p>","","","","","","","","",""
"html-keyboard-response","348","412860","0.0-15.0-0.17","60b87f3ca1dbf6bb340c9bb0","64e77d7b61f440b60e28659d","64ecad83544e1d4e75f21a6f","null","null","<p style=""font-size: 60px; font-family: BACS"">cROMthBK</p>","","","","","","","","",""
"html-keyboard-response","349","413862","0.0-15.0-0.18","60b87f3ca1dbf6bb340c9bb0","64e77d7b61f440b60e28659d","64ecad83544e1d4e75f21a6f","null","null","<p style=""font-size: 60px; font-family: BACS"">cROMthBK</p>","","","","","","","","",""
"html-keyboard-response","350","414864","0.0-15.0-0.19","60b87f3ca1dbf6bb340c9bb0","64e77d7b61f440b60e28659d","64ecad83544e1d4e75f21a6f","null","null","<p style=""font-size: 60px; font-family: BACS"">cROMthBK</p>","","","","","","","","",""
"html-keyboard-response","351","415865","0.0-15.0-0.20","60b87f3ca1dbf6bb340c9bb0","64e77d7b61f440b60e28659d","64ecad83544e1d4e75f21a6f","null","null","<p style=""font-size: 60px; font-family: BACS"">cROMthBK</p>","","","","","","","","",""
"html-keyboard-response","352","416867","0.0-15.0-0.21","60b87f3ca1dbf6bb340c9bb0","64e77d7b61f440b60e28659d","64ecad83544e1d4e75f21a6f","null","null","<p style=""font-size: 60px; font-family: BACS"">cROMthBK</p>","","","","","","","","",""
"html-keyboard-response","353","417868","0.0-15.0-0.22","60b87f3ca1dbf6bb340c9bb0","64e77d7b61f440b60e28659d","64ecad83544e1d4e75f21a6f","null","null","<p style=""font-size: 60px; font-family: BACS"">cROMthBK</p>","","","","","","","","",""
"html-keyboard-response","354","418870","0.0-15.0-0.23","60b87f3ca1dbf6bb340c9bb0","64e77d7b61f440b60e28659d","64ecad83544e1d4e75f21a6f","null","null","<p style=""font-size: 60px; font-family: BACS"">cROMthBK</p>","","","","","","","","",""
"html-keyboard-response","355","419871","0.0-15.0-0.24","60b87f3ca1dbf6bb340c9bb0","64e77d7b61f440b60e28659d","64ecad83544e1d4e75f21a6f","null","null","<p style=""font-size: 60px; font-family: BACS"">cROMthBK</p>","","","","","","","","",""
"html-keyboard-response","356","420872","0.0-15.0-0.25","60b87f3ca1dbf6bb340c9bb0","64e77d7b61f440b60e28659d","64ecad83544e1d4e75f21a6f","null","null","<p style=""font-size: 60px; font-family: BACS"">cROMthBK</p>","","","","","","","","",""
"html-keyboard-response","357","421873","0.0-15.0-0.26","60b87f3ca1dbf6bb340c9bb0","64e77d7b61f440b60e28659d","64ecad83544e1d4e75f21a6f","null","null","<p style=""font-size: 60px; font-family: BACS"">cROMthBK</p>","","","","","","","","",""
"html-keyboard-response","358","422875","0.0-15.0-0.27","60b87f3ca1dbf6bb340c9bb0","64e77d7b61f440b60e28659d","64ecad83544e1d4e75f21a6f","null","null","<p style=""font-size: 60px; font-family: BACS"">cROMthBK</p>","","","","","","","","",""
"html-keyboard-response","359","423876","0.0-15.0-0.28","60b87f3ca1dbf6bb340c9bb0","64e77d7b61f440b60e28659d","64ecad83544e1d4e75f21a6f","null","null","<p style=""font-size: 60px; font-family: BACS"">cROMthBK</p>","","","","","","","","",""
"html-keyboard-response","360","424878","0.0-15.0-0.29","60b87f3ca1dbf6bb340c9bb0","64e77d7b61f440b60e28659d","64ecad83544e1d4e75f21a6f","null","null","<p style=""font-size: 60px; font-family: BACS"">cROMthBK</p>","","","","","","","","",""
"html-keyboard-response","361","425879","0.0-15.0-0.30","60b87f3ca1dbf6bb340c9bb0","64e77d7b61f440b60e28659d","64ecad83544e1d4e75f21a6f","null","null","<p style=""font-size: 60px; font-family: BACS"">cROMthBK</p>","","","","","","","","",""
"html-keyboard-response","362","426881","0.0-15.0-0.31","60b87f3ca1dbf6bb340c9bb0","64e77d7b61f440b60e28659d","64ecad83544e1d4e75f21a6f","null","null","<p style=""font-size: 60px; font-family: BACS"">cROMthBK</p>","","","","","","","","",""
"html-keyboard-response","363","427882","0.0-15.0-0.32","60b87f3ca1dbf6bb340c9bb0","64e77d7b61f440b60e28659d","64ecad83544e1d4e75f21a6f","null","null","<p style=""font-size: 60px; font-family: BACS"">cROMthBK</p>","","","","","","","","",""
"html-keyboard-response","364","428883","0.0-15.0-0.33","60b87f3ca1dbf6bb340c9bb0","64e77d7b61f440b60e28659d","64ecad83544e1d4e75f21a6f","null","null","<p style=""font-size: 60px; font-family: BACS"">cROMthBK</p>","","","","","","","","",""
"html-keyboard-response","365","429885","0.0-15.0-0.34","60b87f3ca1dbf6bb340c9bb0","64e77d7b61f440b60e28659d","64ecad83544e1d4e75f21a6f","null","null","<p style=""font-size: 60px; font-family: BACS"">cROMthBK</p>","","","","","","","","",""
"html-keyboard-response","366","430886","0.0-15.0-0.35","60b87f3ca1dbf6bb340c9bb0","64e77d7b61f440b60e28659d","64ecad83544e1d4e75f21a6f","null","null","<p style=""font-size: 60px; font-family: BACS"">cROMthBK</p>","","","","","","","","",""
"html-keyboard-response","367","431888","0.0-15.0-0.36","60b87f3ca1dbf6bb340c9bb0","64e77d7b61f440b60e28659d","64ecad83544e1d4e75f21a6f","null","null","<p style=""font-size: 60px; font-family: BACS"">cROMthBK</p>","","","","","","","","",""
"html-keyboard-response","368","432889","0.0-15.0-0.37","60b87f3ca1dbf6bb340c9bb0","64e77d7b61f440b60e28659d","64ecad83544e1d4e75f21a6f","null","null","<p style=""font-size: 60px; font-family: BACS"">cROMthBK</p>","","","","","","","","",""
"html-keyboard-response","369","433890","0.0-15.0-0.38","60b87f3ca1dbf6bb340c9bb0","64e77d7b61f440b60e28659d","64ecad83544e1d4e75f21a6f","null","null","<p style=""font-size: 60px; font-family: BACS"">cROMthBK</p>","","","","","","","","",""
"html-keyboard-response","370","434892","0.0-15.0-0.39","60b87f3ca1dbf6bb340c9bb0","64e77d7b61f440b60e28659d","64ecad83544e1d4e75f21a6f","null","null","<p style=""font-size: 60px; font-family: BACS"">cROMthBK</p>","","","","","","","","",""
"html-keyboard-response","371","435893","0.0-15.0-0.40","60b87f3ca1dbf6bb340c9bb0","64e77d7b61f440b60e28659d","64ecad83544e1d4e75f21a6f","null","null","<p style=""font-size: 60px; font-family: BACS"">cROMthBK</p>","","","","","","","","",""
"html-keyboard-response","372","436898","0.0-15.0-0.41","60b87f3ca1dbf6bb340c9bb0","64e77d7b61f440b60e28659d","64ecad83544e1d4e75f21a6f","null","null","<p style=""font-size: 60px; font-family: BACS"">cROMthBK</p>","","","","","","","","",""
"html-keyboard-response","373","437900","0.0-15.0-0.42","60b87f3ca1dbf6bb340c9bb0","64e77d7b61f440b60e28659d","64ecad83544e1d4e75f21a6f","null","null","<p style=""font-size: 60px; font-family: BACS"">cROMthBK</p>","","","","","","","","",""
"html-keyboard-response","374","438901","0.0-15.0-0.43","60b87f3ca1dbf6bb340c9bb0","64e77d7b61f440b60e28659d","64ecad83544e1d4e75f21a6f","null","null","<p style=""font-size: 60px; font-family: BACS"">cROMthBK</p>","","","","","","","","",""
"html-keyboard-response","375","439903","0.0-15.0-0.44","60b87f3ca1dbf6bb340c9bb0","64e77d7b61f440b60e28659d","64ecad83544e1d4e75f21a6f","null","null","<p style=""font-size: 60px; font-family: BACS"">cROMthBK</p>","","","","","","","","",""
"html-keyboard-response","376","440905","0.0-15.0-0.45","60b87f3ca1dbf6bb340c9bb0","64e77d7b61f440b60e28659d","64ecad83544e1d4e75f21a6f","null","null","<p style=""font-size: 60px; font-family: BACS"">cROMthBK</p>","","","","","","","","",""
"html-keyboard-response","377","441907","0.0-15.0-0.46","60b87f3ca1dbf6bb340c9bb0","64e77d7b61f440b60e28659d","64ecad83544e1d4e75f21a6f","null","null","<p style=""font-size: 60px; font-family: BACS"">cROMthBK</p>","","","","","","","","",""
"html-keyboard-response","378","442907","0.0-15.0-0.47","60b87f3ca1dbf6bb340c9bb0","64e77d7b61f440b60e28659d","64ecad83544e1d4e75f21a6f","null","null","<p style=""font-size: 60px; font-family: BACS"">cROMthBK</p>","","","","","","","","",""
"html-keyboard-response","379","443910","0.0-15.0-0.48","60b87f3ca1dbf6bb340c9bb0","64e77d7b61f440b60e28659d","64ecad83544e1d4e75f21a6f","null","null","<p style=""font-size: 60px; font-family: BACS"">cROMthBK</p>","","","","","","","","",""
"html-keyboard-response","380","444911","0.0-15.0-0.49","60b87f3ca1dbf6bb340c9bb0","64e77d7b61f440b60e28659d","64ecad83544e1d4e75f21a6f","null","null","<p style=""font-size: 60px; font-family: BACS"">cROMthBK</p>","","","","","","","","",""
"html-keyboard-response","381","445913","0.0-15.0-0.50","60b87f3ca1dbf6bb340c9bb0","64e77d7b61f440b60e28659d","64ecad83544e1d4e75f21a6f","null","null","<p style=""font-size: 60px; font-family: BACS"">cROMthBK</p>","","","","","","","","",""
"html-keyboard-response","382","446914","0.0-15.0-0.51","60b87f3ca1dbf6bb340c9bb0","64e77d7b61f440b60e28659d","64ecad83544e1d4e75f21a6f","null","null","<p style=""font-size: 60px; font-family: BACS"">cROMthBK</p>","","","","","","","","",""
"html-keyboard-response","383","447915","0.0-15.0-0.52","60b87f3ca1dbf6bb340c9bb0","64e77d7b61f440b60e28659d","64ecad83544e1d4e75f21a6f","null","null","<p style=""font-size: 60px; font-family: BACS"">cROMthBK</p>","","","","","","","","",""
"html-keyboard-response","384","448917","0.0-15.0-0.53","60b87f3ca1dbf6bb340c9bb0","64e77d7b61f440b60e28659d","64ecad83544e1d4e75f21a6f","null","null","<p style=""font-size: 60px; font-family: BACS"">cROMthBK</p>","","","","","","","","",""
"html-keyboard-response","385","449918","0.0-15.0-0.54","60b87f3ca1dbf6bb340c9bb0","64e77d7b61f440b60e28659d","64ecad83544e1d4e75f21a6f","null","null","<p style=""font-size: 60px; font-family: BACS"">cROMthBK</p>","","","","","","","","",""
"html-keyboard-response","386","450920","0.0-15.0-0.55","60b87f3ca1dbf6bb340c9bb0","64e77d7b61f440b60e28659d","64ecad83544e1d4e75f21a6f","null","null","<p style=""font-size: 60px; font-family: BACS"">cROMthBK</p>","","","","","","","","",""
"html-keyboard-response","387","451921","0.0-15.0-0.56","60b87f3ca1dbf6bb340c9bb0","64e77d7b61f440b60e28659d","64ecad83544e1d4e75f21a6f","null","null","<p style=""font-size: 60px; font-family: BACS"">cROMthBK</p>","","","","","","","","",""
"html-keyboard-response","388","452923","0.0-15.0-0.57","60b87f3ca1dbf6bb340c9bb0","64e77d7b61f440b60e28659d","64ecad83544e1d4e75f21a6f","null","null","<p style=""font-size: 60px; font-family: BACS"">cROMthBK</p>","","","","","","","","",""
"html-keyboard-response","389","453925","0.0-15.0-0.58","60b87f3ca1dbf6bb340c9bb0","64e77d7b61f440b60e28659d","64ecad83544e1d4e75f21a6f","null","null","<p style=""font-size: 60px; font-family: BACS"">cROMthBK</p>","","","","","","","","",""
"html-keyboard-response","390","454926","0.0-15.0-0.59","60b87f3ca1dbf6bb340c9bb0","64e77d7b61f440b60e28659d","64ecad83544e1d4e75f21a6f","null","null","<p style=""font-size: 60px; font-family: BACS"">cROMthBK</p>","","","","","","","","",""
"html-keyboard-response","391","455927","0.0-15.0-0.60","60b87f3ca1dbf6bb340c9bb0","64e77d7b61f440b60e28659d","64ecad83544e1d4e75f21a6f","null","null","<p style=""font-size: 60px; font-family: BACS"">cROMthBK</p>","","","","","","","","",""
"html-keyboard-response","392","456928","0.0-15.0-0.61","60b87f3ca1dbf6bb340c9bb0","64e77d7b61f440b60e28659d","64ecad83544e1d4e75f21a6f","null","null","<p style=""font-size: 60px; font-family: BACS"">cROMthBK</p>","","","","","","","","",""
"html-keyboard-response","393","457930","0.0-15.0-0.62","60b87f3ca1dbf6bb340c9bb0","64e77d7b61f440b60e28659d","64ecad83544e1d4e75f21a6f","null","null","<p style=""font-size: 60px; font-family: BACS"">cROMthBK</p>","","","","","","","","",""
"html-keyboard-response","394","458932","0.0-15.0-0.63","60b87f3ca1dbf6bb340c9bb0","64e77d7b61f440b60e28659d","64ecad83544e1d4e75f21a6f","null","null","<p style=""font-size: 60px; font-family: BACS"">cROMthBK</p>","","","","","","","","",""
"html-keyboard-response","395","459934","0.0-15.0-0.64","60b87f3ca1dbf6bb340c9bb0","64e77d7b61f440b60e28659d","64ecad83544e1d4e75f21a6f","null","null","<p style=""font-size: 60px; font-family: BACS"">cROMthBK</p>","","","","","","","","",""
"html-keyboard-response","396","460936","0.0-15.0-0.65","60b87f3ca1dbf6bb340c9bb0","64e77d7b61f440b60e28659d","64ecad83544e1d4e75f21a6f","null","null","<p style=""font-size: 60px; font-family: BACS"">cROMthBK</p>","","","","","","","","",""
"html-keyboard-response","397","461938","0.0-15.0-0.66","60b87f3ca1dbf6bb340c9bb0","64e77d7b61f440b60e28659d","64ecad83544e1d4e75f21a6f","null","null","<p style=""font-size: 60px; font-family: BACS"">cROMthBK</p>","","","","","","","","",""
"html-keyboard-response","398","462940","0.0-15.0-0.67","60b87f3ca1dbf6bb340c9bb0","64e77d7b61f440b60e28659d","64ecad83544e1d4e75f21a6f","null","null","<p style=""font-size: 60px; font-family: BACS"">cROMthBK</p>","","","","","","","","",""
"html-keyboard-response","399","463947","0.0-15.0-0.68","60b87f3ca1dbf6bb340c9bb0","64e77d7b61f440b60e28659d","64ecad83544e1d4e75f21a6f","null","null","<p style=""font-size: 60px; font-family: BACS"">cROMthBK</p>","","","","","","","","",""
"html-keyboard-response","400","464947","0.0-15.0-0.69","60b87f3ca1dbf6bb340c9bb0","64e77d7b61f440b60e28659d","64ecad83544e1d4e75f21a6f","null","null","<p style=""font-size: 60px; font-family: BACS"">cROMthBK</p>","","","","","","","","",""
