"trial_type","trial_index","time_elapsed","internal_node_id","subject_id","study_id","session_id","rt","response","stimulus","success","item","task","correct_response","testing_condition","correct","target","confound","name"
"pavlovia","0","1842","0.0-0.0","60e9ea97d19e613e60a994da","650c16f0f2faf8d7a0d14c09","651c1cb24ce33ee711075ac1","","","","","","","","","","","",""
"survey-html-form","1","25233","0.0-1.0","60e9ea97d19e613e60a994da","650c16f0f2faf8d7a0d14c09","651c1cb24ce33ee711075ac1","23389","{""ID"":""60e9ea97d19e613e60a994da""}","","","","","","","","","",""
"html-keyboard-response","2","95371","0.0-2.0","60e9ea97d19e613e60a994da","650c16f0f2faf8d7a0d14c09","651c1cb24ce33ee711075ac1","70136"," ","<p style=""font-size: 15px;"">Before beginning, we ask that you read the consent information and confirm your agreement to participate in the experiment.</p>
      <p style=""font-size: 15px;""> We ask that you remember that this is a research project and that your participation is entirely voluntary. You can stop your participation at any time, without needing to provide any explanation. The study we're asking you to participate in aims at examining how readers process written words. You will be engaged in a session of apprximately 20 minutes, followed by a brief questionnaire. You will have the opportunity to take a few breaks during the experiment. You will be paid £4 for your participation, corresponding to a rate of £8/hour. While this experiment looks at cognitive faculties, this experiment doesn't constitute clinical proof of eventual pathologies.</p>
      <p style=""font-size: 15px;"">All of the information collected thanks to yours and others' participation will be held in a secure password-protected server, and will not be shared with anyone not authorised to view it. Your personal information will be kept with an arbitrary participant ID. Thanks to this data anonymity process, any researcher analysing the data won't be able to track the information back to a specific participant. Therefore, this process will make identifying you impossibile, even when results from the study will be published in scientific reviews, presented at congresses, or at any other public forum. More generally, the collected data will be treated in accordance with the laws on privacy and conformity to the Legislative Degree n. 196 ""Code regarding the protection of personal data"" of the 30th of June 2003 and to the European Regulation 2016/670 (General Data Protection Regulation - GDPR). The Data Protection Officer is Avv. Valentina Carollo, who can be contacted at the following email addresses: <a href=""mailto:dpo@sissa.it"">dpo@sissa.it</a> or <a href=""mailto:rpd@sissa.it"">rpd@sissa.it</a> - PEC: <a href=""mailto:protocollo@pec.sissa.it"">protocollo@pec.sissa.it</a>.</p>
      <p style=""font-size: 15px;""> Before expressing your consent to participate, we would like to remind you again that in case you need explanations on any aspect of the experimental procedure, the researcher is at your disposition (<a href=""mailto:aliebelt@sissa.it"">aliebelt@sissa.it</a>, <a href=""mailto:davide.crepaldi@sissa.it"">davide.crepaldi@sissa.it</a>).</p>
      <p style=""font-size: 15px;"">If you would like to download the informed consent form, you can do so here: <a href=""BASL-Informed_Consent.pdf"" download>informed consent form</a>.</p>
      <p style=""font-size: 15px;"">We ask that you press the spacebar to proceed to the consent section.</p>","","","","","","","","",""
"survey-html-form","3","108321","0.0-3.0","60e9ea97d19e613e60a994da","650c16f0f2faf8d7a0d14c09","651c1cb24ce33ee711075ac1","12949","{""consent1"":""YES"",""consent2"":""YES"",""consent3"":""YES"",""consent4"":""YES"",""consent5"":""YES"",""consent6"":""YES""}","","","","","","","","","",""
"fullscreen","4","118809","0.0-4.0","60e9ea97d19e613e60a994da","650c16f0f2faf8d7a0d14c09","651c1cb24ce33ee711075ac1","","","","true","","","","","","","",""
"html-keyboard-response","5","147678","0.0-5.0","60e9ea97d19e613e60a994da","650c16f0f2faf8d7a0d14c09","651c1cb24ce33ee711075ac1","28868"," ","<p>Welcome, and thank you very much for your time!</p>
      <p>In this experiment, you'll be a language expert who's been asked to take a look at words that Earth has received in its first communication with aliens. Your task, in this first part of the experiment, is to pay close attention to the words you'll be shown; later, world leaders will ask you questions on what you saw. The words will be shown to you quite quickly; it seems that the aliens were in a hurry :-)</p>
      <p>Press the spacebar to continue.<p>","","","","","","","","",""
"html-keyboard-response","6","147738","0.0-6.0","60e9ea97d19e613e60a994da","650c16f0f2faf8d7a0d14c09","651c1cb24ce33ee711075ac1","null","null","<p style=""font-size: 120px; font-family: BACS""> </p>","","","","","","","","",""
"html-keyboard-response","7","168310","0.0-7.0","60e9ea97d19e613e60a994da","650c16f0f2faf8d7a0d14c09","651c1cb24ce33ee711075ac1","20572"," ","<p>Here is an example of the words you'll see:</p>
      <img src='esempio.png' height='400px'>
      <p>When you're ready to begin, press the spacebar.</p></div>","","","","","","","","",""
"html-keyboard-response","8","169336","0.0-8.0-0.0","60e9ea97d19e613e60a994da","650c16f0f2faf8d7a0d14c09","651c1cb24ce33ee711075ac1","null","null","<p style=""font-size: 60px; font-family: BACS"">OAmGrLYGA</p>","","","","","","","","",""
"html-keyboard-response","9","170344","0.0-8.0-0.1","60e9ea97d19e613e60a994da","650c16f0f2faf8d7a0d14c09","651c1cb24ce33ee711075ac1","null","null","<p style=""font-size: 60px; font-family: BACS"">ArQuZAUu</p>","","","","","","","","",""
"html-keyboard-response","10","171349","0.0-8.0-0.2","60e9ea97d19e613e60a994da","650c16f0f2faf8d7a0d14c09","651c1cb24ce33ee711075ac1","null","null","<p style=""font-size: 60px; font-family: BACS"">mARMOdOP</p>","","","","","","","","",""
"html-keyboard-response","11","172356","0.0-8.0-0.3","60e9ea97d19e613e60a994da","650c16f0f2faf8d7a0d14c09","651c1cb24ce33ee711075ac1","null","null","<p style=""font-size: 60px; font-family: BACS"">vAarUdvY</p>","","","","","","","","",""
"html-keyboard-response","12","173358","0.0-8.0-0.4","60e9ea97d19e613e60a994da","650c16f0f2faf8d7a0d14c09","651c1cb24ce33ee711075ac1","null","null","<p style=""font-size: 60px; font-family: BACS"">AmaclLYGA</p>","","","","","","","","",""
"html-keyboard-response","13","174360","0.0-8.0-0.5","60e9ea97d19e613e60a994da","650c16f0f2faf8d7a0d14c09","651c1cb24ce33ee711075ac1","null","null","<p style=""font-size: 60px; font-family: BACS"">lZcuZAUu</p>","","","","","","","","",""
"html-keyboard-response","14","175363","0.0-8.0-0.6","60e9ea97d19e613e60a994da","650c16f0f2faf8d7a0d14c09","651c1cb24ce33ee711075ac1","null","null","<p style=""font-size: 60px; font-family: BACS"">EhbtKEdl</p>","","","","","","","","",""
"html-keyboard-response","15","176371","0.0-8.0-0.7","60e9ea97d19e613e60a994da","650c16f0f2faf8d7a0d14c09","651c1cb24ce33ee711075ac1","null","null","<p style=""font-size: 60px; font-family: BACS"">OAmAdCmYA</p>","","","","","","","","",""
"html-keyboard-response","16","177387","0.0-8.0-0.8","60e9ea97d19e613e60a994da","650c16f0f2faf8d7a0d14c09","651c1cb24ce33ee711075ac1","null","null","<p style=""font-size: 60px; font-family: BACS"">ArQuLYGA</p>","","","","","","","","",""
"html-keyboard-response","17","178388","0.0-8.0-0.9","60e9ea97d19e613e60a994da","650c16f0f2faf8d7a0d14c09","651c1cb24ce33ee711075ac1","null","null","<p style=""font-size: 60px; font-family: BACS"">mARMCmYA</p>","","","","","","","","",""
"html-keyboard-response","18","179394","0.0-8.0-0.10","60e9ea97d19e613e60a994da","650c16f0f2faf8d7a0d14c09","651c1cb24ce33ee711075ac1","null","null","<p style=""font-size: 60px; font-family: BACS"">MDKPOdOP</p>","","","","","","","","",""
"html-keyboard-response","19","180403","0.0-8.0-0.11","60e9ea97d19e613e60a994da","650c16f0f2faf8d7a0d14c09","651c1cb24ce33ee711075ac1","null","null","<p style=""font-size: 60px; font-family: BACS"">bGuOZAUu</p>","","","","","","","","",""
"html-keyboard-response","20","181419","0.0-8.0-0.12","60e9ea97d19e613e60a994da","650c16f0f2faf8d7a0d14c09","651c1cb24ce33ee711075ac1","null","null","<p style=""font-size: 60px; font-family: BACS"">TdmAbAMO</p>","","","","","","","","",""
"html-keyboard-response","21","182420","0.0-8.0-0.13","60e9ea97d19e613e60a994da","650c16f0f2faf8d7a0d14c09","651c1cb24ce33ee711075ac1","null","null","<p style=""font-size: 60px; font-family: BACS"">EPERdCmYA</p>","","","","","","","","",""
"html-keyboard-response","22","183436","0.0-8.0-0.14","60e9ea97d19e613e60a994da","650c16f0f2faf8d7a0d14c09","651c1cb24ce33ee711075ac1","null","null","<p style=""font-size: 60px; font-family: BACS"">mARMcthB</p>","","","","","","","","",""
"html-keyboard-response","23","184440","0.0-8.0-0.15","60e9ea97d19e613e60a994da","650c16f0f2faf8d7a0d14c09","651c1cb24ce33ee711075ac1","null","null","<p style=""font-size: 60px; font-family: BACS"">MDKPbAMO</p>","","","","","","","","",""
"html-keyboard-response","24","185452","0.0-8.0-0.16","60e9ea97d19e613e60a994da","650c16f0f2faf8d7a0d14c09","651c1cb24ce33ee711075ac1","null","null","<p style=""font-size: 60px; font-family: BACS"">krUQYaum</p>","","","","","","","","",""
"html-keyboard-response","25","186468","0.0-8.0-0.17","60e9ea97d19e613e60a994da","650c16f0f2faf8d7a0d14c09","651c1cb24ce33ee711075ac1","null","null","<p style=""font-size: 60px; font-family: BACS"">OAmAdOdOP</p>","","","","","","","","",""
"html-keyboard-response","26","187485","0.0-8.0-0.18","60e9ea97d19e613e60a994da","650c16f0f2faf8d7a0d14c09","651c1cb24ce33ee711075ac1","null","null","<p style=""font-size: 60px; font-family: BACS"">EhbtcthB</p>","","","","","","","","",""
"html-keyboard-response","27","188501","0.0-8.0-0.19","60e9ea97d19e613e60a994da","650c16f0f2faf8d7a0d14c09","651c1cb24ce33ee711075ac1","null","null","<p style=""font-size: 60px; font-family: BACS"">bGuOUdvY</p>","","","","","","","","",""
"html-keyboard-response","28","189502","0.0-8.0-0.20","60e9ea97d19e613e60a994da","650c16f0f2faf8d7a0d14c09","651c1cb24ce33ee711075ac1","null","null","<p style=""font-size: 60px; font-family: BACS"">EPMDkcthB</p>","","","","","","","","",""
"html-keyboard-response","29","190503","0.0-8.0-0.21","60e9ea97d19e613e60a994da","650c16f0f2faf8d7a0d14c09","651c1cb24ce33ee711075ac1","null","null","<p style=""font-size: 60px; font-family: BACS"">bGuOYUYa</p>","","","","","","","","",""
"html-keyboard-response","30","191517","0.0-8.0-0.22","60e9ea97d19e613e60a994da","650c16f0f2faf8d7a0d14c09","651c1cb24ce33ee711075ac1","null","null","<p style=""font-size: 60px; font-family: BACS"">OEPkCmYA</p>","","","","","","","","",""
"html-keyboard-response","31","192518","0.0-8.0-0.23","60e9ea97d19e613e60a994da","650c16f0f2faf8d7a0d14c09","651c1cb24ce33ee711075ac1","null","null","<p style=""font-size: 60px; font-family: BACS"">BECkbAMO</p>","","","","","","","","",""
"html-keyboard-response","32","193524","0.0-8.0-0.24","60e9ea97d19e613e60a994da","650c16f0f2faf8d7a0d14c09","651c1cb24ce33ee711075ac1","null","null","<p style=""font-size: 60px; font-family: BACS"">vAarYUYa</p>","","","","","","","","",""
"html-keyboard-response","33","194525","0.0-8.0-0.25","60e9ea97d19e613e60a994da","650c16f0f2faf8d7a0d14c09","651c1cb24ce33ee711075ac1","null","null","<p style=""font-size: 60px; font-family: BACS"">bGuOLYGA</p>","","","","","","","","",""
"html-keyboard-response","34","195533","0.0-8.0-0.26","60e9ea97d19e613e60a994da","650c16f0f2faf8d7a0d14c09","651c1cb24ce33ee711075ac1","null","null","<p style=""font-size: 60px; font-family: BACS"">BECkCmYA</p>","","","","","","","","",""
"html-keyboard-response","35","196534","0.0-8.0-0.27","60e9ea97d19e613e60a994da","650c16f0f2faf8d7a0d14c09","651c1cb24ce33ee711075ac1","null","null","<p style=""font-size: 60px; font-family: BACS"">OEPkKEdl</p>","","","","","","","","",""
"html-keyboard-response","36","197549","0.0-8.0-0.28","60e9ea97d19e613e60a994da","650c16f0f2faf8d7a0d14c09","651c1cb24ce33ee711075ac1","null","null","<p style=""font-size: 60px; font-family: BACS"">kcCRtOdOP</p>","","","","","","","","",""
"html-keyboard-response","37","198555","0.0-8.0-0.29","60e9ea97d19e613e60a994da","650c16f0f2faf8d7a0d14c09","651c1cb24ce33ee711075ac1","null","null","<p style=""font-size: 60px; font-family: BACS"">EPMDkKEdl</p>","","","","","","","","",""
"html-keyboard-response","38","199556","0.0-8.0-0.30","60e9ea97d19e613e60a994da","650c16f0f2faf8d7a0d14c09","651c1cb24ce33ee711075ac1","null","null","<p style=""font-size: 60px; font-family: BACS"">damYbUdvY</p>","","","","","","","","",""
"html-keyboard-response","39","200564","0.0-8.0-0.31","60e9ea97d19e613e60a994da","650c16f0f2faf8d7a0d14c09","651c1cb24ce33ee711075ac1","null","null","<p style=""font-size: 60px; font-family: BACS"">vAarYaum</p>","","","","","","","","",""
"html-keyboard-response","40","201571","0.0-8.0-0.32","60e9ea97d19e613e60a994da","650c16f0f2faf8d7a0d14c09","651c1cb24ce33ee711075ac1","null","null","<p style=""font-size: 60px; font-family: BACS"">EPERdKEdl</p>","","","","","","","","",""
"html-keyboard-response","41","202581","0.0-8.0-0.33","60e9ea97d19e613e60a994da","650c16f0f2faf8d7a0d14c09","651c1cb24ce33ee711075ac1","null","null","<p style=""font-size: 60px; font-family: BACS"">kcCRtcthB</p>","","","","","","","","",""
"html-keyboard-response","42","203596","0.0-8.0-0.34","60e9ea97d19e613e60a994da","650c16f0f2faf8d7a0d14c09","651c1cb24ce33ee711075ac1","null","null","<p style=""font-size: 60px; font-family: BACS"">OEPkbAMO</p>","","","","","","","","",""
"html-keyboard-response","43","204598","0.0-8.0-0.35","60e9ea97d19e613e60a994da","650c16f0f2faf8d7a0d14c09","651c1cb24ce33ee711075ac1","null","null","<p style=""font-size: 60px; font-family: BACS"">LdQvZAUu</p>","","","","","","","","",""
"html-keyboard-response","44","205612","0.0-8.0-0.36","60e9ea97d19e613e60a994da","650c16f0f2faf8d7a0d14c09","651c1cb24ce33ee711075ac1","null","null","<p style=""font-size: 60px; font-family: BACS"">EPMDkCmYA</p>","","","","","","","","",""
"html-keyboard-response","45","206614","0.0-8.0-0.37","60e9ea97d19e613e60a994da","650c16f0f2faf8d7a0d14c09","651c1cb24ce33ee711075ac1","null","null","<p style=""font-size: 60px; font-family: BACS"">OAmAdbAMO</p>","","","","","","","","",""
"html-keyboard-response","46","207629","0.0-8.0-0.38","60e9ea97d19e613e60a994da","650c16f0f2faf8d7a0d14c09","651c1cb24ce33ee711075ac1","null","null","<p style=""font-size: 60px; font-family: BACS"">lZcuYaum</p>","","","","","","","","",""
"html-keyboard-response","47","208645","0.0-8.0-0.39","60e9ea97d19e613e60a994da","650c16f0f2faf8d7a0d14c09","651c1cb24ce33ee711075ac1","null","null","<p style=""font-size: 60px; font-family: BACS"">OAmGrYUYa</p>","","","","","","","","",""
"html-keyboard-response","48","209646","0.0-8.0-0.40","60e9ea97d19e613e60a994da","650c16f0f2faf8d7a0d14c09","651c1cb24ce33ee711075ac1","null","null","<p style=""font-size: 60px; font-family: BACS"">mARMKEdl</p>","","","","","","","","",""
"html-keyboard-response","49","210662","0.0-8.0-0.41","60e9ea97d19e613e60a994da","650c16f0f2faf8d7a0d14c09","651c1cb24ce33ee711075ac1","null","null","<p style=""font-size: 60px; font-family: BACS"">TdmACmYA</p>","","","","","","","","",""
"html-keyboard-response","50","211678","0.0-8.0-0.42","60e9ea97d19e613e60a994da","650c16f0f2faf8d7a0d14c09","651c1cb24ce33ee711075ac1","null","null","<p style=""font-size: 60px; font-family: BACS"">LdQvLYGA</p>","","","","","","","","",""
"html-keyboard-response","51","212679","0.0-8.0-0.43","60e9ea97d19e613e60a994da","650c16f0f2faf8d7a0d14c09","651c1cb24ce33ee711075ac1","null","null","<p style=""font-size: 60px; font-family: BACS"">BECkOdOP</p>","","","","","","","","",""
"html-keyboard-response","52","213694","0.0-8.0-0.44","60e9ea97d19e613e60a994da","650c16f0f2faf8d7a0d14c09","651c1cb24ce33ee711075ac1","null","null","<p style=""font-size: 60px; font-family: BACS"">ArQuYaum</p>","","","","","","","","",""
"html-keyboard-response","53","214711","0.0-8.0-0.45","60e9ea97d19e613e60a994da","650c16f0f2faf8d7a0d14c09","651c1cb24ce33ee711075ac1","null","null","<p style=""font-size: 60px; font-family: BACS"">lZcuYUYa</p>","","","","","","","","",""
"html-keyboard-response","54","215726","0.0-8.0-0.46","60e9ea97d19e613e60a994da","650c16f0f2faf8d7a0d14c09","651c1cb24ce33ee711075ac1","null","null","<p style=""font-size: 60px; font-family: BACS"">EPMDkbAMO</p>","","","","","","","","",""
"html-keyboard-response","55","216728","0.0-8.0-0.47","60e9ea97d19e613e60a994da","650c16f0f2faf8d7a0d14c09","651c1cb24ce33ee711075ac1","null","null","<p style=""font-size: 60px; font-family: BACS"">AmaclZAUu</p>","","","","","","","","",""
"html-keyboard-response","56","217743","0.0-8.0-0.48","60e9ea97d19e613e60a994da","650c16f0f2faf8d7a0d14c09","651c1cb24ce33ee711075ac1","null","null","<p style=""font-size: 60px; font-family: BACS"">BECkcthB</p>","","","","","","","","",""
"html-keyboard-response","57","218744","0.0-8.0-0.49","60e9ea97d19e613e60a994da","650c16f0f2faf8d7a0d14c09","651c1cb24ce33ee711075ac1","null","null","<p style=""font-size: 60px; font-family: BACS"">krUQLYGA</p>","","","","","","","","",""
"html-keyboard-response","58","219759","0.0-8.0-0.50","60e9ea97d19e613e60a994da","650c16f0f2faf8d7a0d14c09","651c1cb24ce33ee711075ac1","null","null","<p style=""font-size: 60px; font-family: BACS"">LdQvYUYa</p>","","","","","","","","",""
"html-keyboard-response","59","220760","0.0-8.0-0.51","60e9ea97d19e613e60a994da","650c16f0f2faf8d7a0d14c09","651c1cb24ce33ee711075ac1","null","null","<p style=""font-size: 60px; font-family: BACS"">TdmAOdOP</p>","","","","","","","","",""
"html-keyboard-response","60","221776","0.0-8.0-0.52","60e9ea97d19e613e60a994da","650c16f0f2faf8d7a0d14c09","651c1cb24ce33ee711075ac1","null","null","<p style=""font-size: 60px; font-family: BACS"">OAmAdKEdl</p>","","","","","","","","",""
"html-keyboard-response","61","222792","0.0-8.0-0.53","60e9ea97d19e613e60a994da","650c16f0f2faf8d7a0d14c09","651c1cb24ce33ee711075ac1","null","null","<p style=""font-size: 60px; font-family: BACS"">EPERdbAMO</p>","","","","","","","","",""
"html-keyboard-response","62","223809","0.0-8.0-0.54","60e9ea97d19e613e60a994da","650c16f0f2faf8d7a0d14c09","651c1cb24ce33ee711075ac1","null","null","<p style=""font-size: 60px; font-family: BACS"">OAmGrYaum</p>","","","","","","","","",""
"html-keyboard-response","63","224809","0.0-8.0-0.55","60e9ea97d19e613e60a994da","650c16f0f2faf8d7a0d14c09","651c1cb24ce33ee711075ac1","null","null","<p style=""font-size: 60px; font-family: BACS"">EhbtbAMO</p>","","","","","","","","",""
"html-keyboard-response","64","225811","0.0-8.0-0.56","60e9ea97d19e613e60a994da","650c16f0f2faf8d7a0d14c09","651c1cb24ce33ee711075ac1","null","null","<p style=""font-size: 60px; font-family: BACS"">LdQvUdvY</p>","","","","","","","","",""
"html-keyboard-response","65","226824","0.0-8.0-0.57","60e9ea97d19e613e60a994da","650c16f0f2faf8d7a0d14c09","651c1cb24ce33ee711075ac1","null","null","<p style=""font-size: 60px; font-family: BACS"">vAarLYGA</p>","","","","","","","","",""
"html-keyboard-response","66","227841","0.0-8.0-0.58","60e9ea97d19e613e60a994da","650c16f0f2faf8d7a0d14c09","651c1cb24ce33ee711075ac1","null","null","<p style=""font-size: 60px; font-family: BACS"">krUQYUYa</p>","","","","","","","","",""
"html-keyboard-response","67","228857","0.0-8.0-0.59","60e9ea97d19e613e60a994da","650c16f0f2faf8d7a0d14c09","651c1cb24ce33ee711075ac1","null","null","<p style=""font-size: 60px; font-family: BACS"">MDKPcthB</p>","","","","","","","","",""
"html-keyboard-response","68","229858","0.0-8.0-0.60","60e9ea97d19e613e60a994da","650c16f0f2faf8d7a0d14c09","651c1cb24ce33ee711075ac1","null","null","<p style=""font-size: 60px; font-family: BACS"">QLrOJYaum</p>","","","","","","","","",""
"html-keyboard-response","69","230873","0.0-8.0-0.61","60e9ea97d19e613e60a994da","650c16f0f2faf8d7a0d14c09","651c1cb24ce33ee711075ac1","null","null","<p style=""font-size: 60px; font-family: BACS"">EPERdOdOP</p>","","","","","","","","",""
"html-keyboard-response","70","231890","0.0-8.0-0.62","60e9ea97d19e613e60a994da","650c16f0f2faf8d7a0d14c09","651c1cb24ce33ee711075ac1","null","null","<p style=""font-size: 60px; font-family: BACS"">damYbYaum</p>","","","","","","","","",""
"html-keyboard-response","71","232890","0.0-8.0-0.63","60e9ea97d19e613e60a994da","650c16f0f2faf8d7a0d14c09","651c1cb24ce33ee711075ac1","null","null","<p style=""font-size: 60px; font-family: BACS"">lZcuUdvY</p>","","","","","","","","",""
"html-keyboard-response","72","233906","0.0-8.0-0.64","60e9ea97d19e613e60a994da","650c16f0f2faf8d7a0d14c09","651c1cb24ce33ee711075ac1","null","null","<p style=""font-size: 60px; font-family: BACS"">AmaclYaum</p>","","","","","","","","",""
"html-keyboard-response","73","234907","0.0-8.0-0.65","60e9ea97d19e613e60a994da","650c16f0f2faf8d7a0d14c09","651c1cb24ce33ee711075ac1","null","null","<p style=""font-size: 60px; font-family: BACS"">EhbtOdOP</p>","","","","","","","","",""
"html-keyboard-response","74","235922","0.0-8.0-0.66","60e9ea97d19e613e60a994da","650c16f0f2faf8d7a0d14c09","651c1cb24ce33ee711075ac1","null","null","<p style=""font-size: 60px; font-family: BACS"">damYbZAUu</p>","","","","","","","","",""
"html-keyboard-response","75","236924","0.0-8.0-0.67","60e9ea97d19e613e60a994da","650c16f0f2faf8d7a0d14c09","651c1cb24ce33ee711075ac1","null","null","<p style=""font-size: 60px; font-family: BACS"">AmaclUdvY</p>","","","","","","","","",""
"html-keyboard-response","76","237938","0.0-8.0-0.68","60e9ea97d19e613e60a994da","650c16f0f2faf8d7a0d14c09","651c1cb24ce33ee711075ac1","null","null","<p style=""font-size: 60px; font-family: BACS"">ArQuYUYa</p>","","","","","","","","",""
"html-keyboard-response","77","238939","0.0-8.0-0.69","60e9ea97d19e613e60a994da","650c16f0f2faf8d7a0d14c09","651c1cb24ce33ee711075ac1","null","null","<p style=""font-size: 60px; font-family: BACS"">QLrOJLYGA</p>","","","","","","","","",""
"html-keyboard-response","78","239954","0.0-8.0-0.70","60e9ea97d19e613e60a994da","650c16f0f2faf8d7a0d14c09","651c1cb24ce33ee711075ac1","null","null","<p style=""font-size: 60px; font-family: BACS"">OAmGrZAUu</p>","","","","","","","","",""
"html-keyboard-response","79","240970","0.0-8.0-0.71","60e9ea97d19e613e60a994da","650c16f0f2faf8d7a0d14c09","651c1cb24ce33ee711075ac1","null","null","<p style=""font-size: 60px; font-family: BACS"">damYbYUYa</p>","","","","","","","","",""
"html-keyboard-response","80","241971","0.0-8.0-0.72","60e9ea97d19e613e60a994da","650c16f0f2faf8d7a0d14c09","651c1cb24ce33ee711075ac1","null","null","<p style=""font-size: 60px; font-family: BACS"">kcCRtCmYA</p>","","","","","","","","",""
"html-keyboard-response","81","242987","0.0-8.0-0.73","60e9ea97d19e613e60a994da","650c16f0f2faf8d7a0d14c09","651c1cb24ce33ee711075ac1","null","null","<p style=""font-size: 60px; font-family: BACS"">QLrOJUdvY</p>","","","","","","","","",""
"html-keyboard-response","82","244002","0.0-8.0-0.74","60e9ea97d19e613e60a994da","650c16f0f2faf8d7a0d14c09","651c1cb24ce33ee711075ac1","null","null","<p style=""font-size: 60px; font-family: BACS"">TdmActhB</p>","","","","","","","","",""
"html-keyboard-response","83","245004","0.0-8.0-0.75","60e9ea97d19e613e60a994da","650c16f0f2faf8d7a0d14c09","651c1cb24ce33ee711075ac1","null","null","<p style=""font-size: 60px; font-family: BACS"">MDKPKEdl</p>","","","","","","","","",""
"html-keyboard-response","84","246019","0.0-8.0-0.76","60e9ea97d19e613e60a994da","650c16f0f2faf8d7a0d14c09","651c1cb24ce33ee711075ac1","null","null","<p style=""font-size: 60px; font-family: BACS"">QLrOJZAUu</p>","","","","","","","","",""
"html-keyboard-response","85","247035","0.0-8.0-0.77","60e9ea97d19e613e60a994da","650c16f0f2faf8d7a0d14c09","651c1cb24ce33ee711075ac1","null","null","<p style=""font-size: 60px; font-family: BACS"">OEPkcthB</p>","","","","","","","","",""
"html-keyboard-response","86","248036","0.0-8.0-0.78","60e9ea97d19e613e60a994da","650c16f0f2faf8d7a0d14c09","651c1cb24ce33ee711075ac1","null","null","<p style=""font-size: 60px; font-family: BACS"">krUQUdvY</p>","","","","","","","","",""
"html-keyboard-response","87","249051","0.0-8.0-0.79","60e9ea97d19e613e60a994da","650c16f0f2faf8d7a0d14c09","651c1cb24ce33ee711075ac1","null","null","<p style=""font-size: 60px; font-family: BACS"">kcCRtKEdl</p>","","","","","","","","",""
"html-keyboard-response","88","285843","0.0-9.0","60e9ea97d19e613e60a994da","650c16f0f2faf8d7a0d14c09","651c1cb24ce33ee711075ac1","36791"," ","<p>Great, you've seen the first block of words. You may now take a short break.</p>
      <p>Press the spacebar when you're ready to continue.</p>","","","","","","","","",""
"html-keyboard-response","89","286858","0.0-10.0-0.0","60e9ea97d19e613e60a994da","650c16f0f2faf8d7a0d14c09","651c1cb24ce33ee711075ac1","null","null","<p style=""font-size: 60px; font-family: BACS"">BECkcthB</p>","","","","","","","","",""
"html-keyboard-response","90","287866","0.0-10.0-0.1","60e9ea97d19e613e60a994da","650c16f0f2faf8d7a0d14c09","651c1cb24ce33ee711075ac1","null","null","<p style=""font-size: 60px; font-family: BACS"">QLrOJYaum</p>","","","","","","","","",""
"html-keyboard-response","91","288875","0.0-10.0-0.2","60e9ea97d19e613e60a994da","650c16f0f2faf8d7a0d14c09","651c1cb24ce33ee711075ac1","null","null","<p style=""font-size: 60px; font-family: BACS"">bGuOZAUu</p>","","","","","","","","",""
"html-keyboard-response","92","289891","0.0-10.0-0.3","60e9ea97d19e613e60a994da","650c16f0f2faf8d7a0d14c09","651c1cb24ce33ee711075ac1","null","null","<p style=""font-size: 60px; font-family: BACS"">vAarLYGA</p>","","","","","","","","",""
"html-keyboard-response","93","290892","0.0-10.0-0.4","60e9ea97d19e613e60a994da","650c16f0f2faf8d7a0d14c09","651c1cb24ce33ee711075ac1","null","null","<p style=""font-size: 60px; font-family: BACS"">krUQYaum</p>","","","","","","","","",""
"html-keyboard-response","94","291907","0.0-10.0-0.5","60e9ea97d19e613e60a994da","650c16f0f2faf8d7a0d14c09","651c1cb24ce33ee711075ac1","null","null","<p style=""font-size: 60px; font-family: BACS"">mARMCmYA</p>","","","","","","","","",""
"html-keyboard-response","95","292924","0.0-10.0-0.6","60e9ea97d19e613e60a994da","650c16f0f2faf8d7a0d14c09","651c1cb24ce33ee711075ac1","null","null","<p style=""font-size: 60px; font-family: BACS"">lZcuZAUu</p>","","","","","","","","",""
"html-keyboard-response","96","293925","0.0-10.0-0.7","60e9ea97d19e613e60a994da","650c16f0f2faf8d7a0d14c09","651c1cb24ce33ee711075ac1","null","null","<p style=""font-size: 60px; font-family: BACS"">mARMKEdl</p>","","","","","","","","",""
"html-keyboard-response","97","294940","0.0-10.0-0.8","60e9ea97d19e613e60a994da","650c16f0f2faf8d7a0d14c09","651c1cb24ce33ee711075ac1","null","null","<p style=""font-size: 60px; font-family: BACS"">krUQLYGA</p>","","","","","","","","",""
"html-keyboard-response","98","295956","0.0-10.0-0.9","60e9ea97d19e613e60a994da","650c16f0f2faf8d7a0d14c09","651c1cb24ce33ee711075ac1","null","null","<p style=""font-size: 60px; font-family: BACS"">OAmGrYUYa</p>","","","","","","","","",""
"html-keyboard-response","99","296957","0.0-10.0-0.10","60e9ea97d19e613e60a994da","650c16f0f2faf8d7a0d14c09","651c1cb24ce33ee711075ac1","null","null","<p style=""font-size: 60px; font-family: BACS"">MDKPcthB</p>","","","","","","","","",""
"html-keyboard-response","100","297972","0.0-10.0-0.11","60e9ea97d19e613e60a994da","650c16f0f2faf8d7a0d14c09","651c1cb24ce33ee711075ac1","null","null","<p style=""font-size: 60px; font-family: BACS"">AmaclUdvY</p>","","","","","","","","",""
"html-keyboard-response","101","298973","0.0-10.0-0.12","60e9ea97d19e613e60a994da","650c16f0f2faf8d7a0d14c09","651c1cb24ce33ee711075ac1","null","null","<p style=""font-size: 60px; font-family: BACS"">damYbZAUu</p>","","","","","","","","",""
"html-keyboard-response","102","299988","0.0-10.0-0.13","60e9ea97d19e613e60a994da","650c16f0f2faf8d7a0d14c09","651c1cb24ce33ee711075ac1","null","null","<p style=""font-size: 60px; font-family: BACS"">OEPkbAMO</p>","","","","","","","","",""
"html-keyboard-response","103","300996","0.0-10.0-0.14","60e9ea97d19e613e60a994da","650c16f0f2faf8d7a0d14c09","651c1cb24ce33ee711075ac1","null","null","<p style=""font-size: 60px; font-family: BACS"">lZcuYUYa</p>","","","","","","","","",""
"html-keyboard-response","104","302006","0.0-10.0-0.15","60e9ea97d19e613e60a994da","650c16f0f2faf8d7a0d14c09","651c1cb24ce33ee711075ac1","null","null","<p style=""font-size: 60px; font-family: BACS"">ArQuZAUu</p>","","","","","","","","",""
"html-keyboard-response","105","303021","0.0-10.0-0.16","60e9ea97d19e613e60a994da","650c16f0f2faf8d7a0d14c09","651c1cb24ce33ee711075ac1","null","null","<p style=""font-size: 60px; font-family: BACS"">QLrOJUdvY</p>","","","","","","","","",""
"html-keyboard-response","106","304037","0.0-10.0-0.17","60e9ea97d19e613e60a994da","650c16f0f2faf8d7a0d14c09","651c1cb24ce33ee711075ac1","null","null","<p style=""font-size: 60px; font-family: BACS"">AmaclLYGA</p>","","","","","","","","",""
"html-keyboard-response","107","305054","0.0-10.0-0.18","60e9ea97d19e613e60a994da","650c16f0f2faf8d7a0d14c09","651c1cb24ce33ee711075ac1","null","null","<p style=""font-size: 60px; font-family: BACS"">OAmAdCmYA</p>","","","","","","","","",""
"html-keyboard-response","108","306055","0.0-10.0-0.19","60e9ea97d19e613e60a994da","650c16f0f2faf8d7a0d14c09","651c1cb24ce33ee711075ac1","null","null","<p style=""font-size: 60px; font-family: BACS"">MDKPbAMO</p>","","","","","","","","",""
"html-keyboard-response","109","307070","0.0-10.0-0.20","60e9ea97d19e613e60a994da","650c16f0f2faf8d7a0d14c09","651c1cb24ce33ee711075ac1","null","null","<p style=""font-size: 60px; font-family: BACS"">damYbYUYa</p>","","","","","","","","",""
"html-keyboard-response","110","308071","0.0-10.0-0.21","60e9ea97d19e613e60a994da","650c16f0f2faf8d7a0d14c09","651c1cb24ce33ee711075ac1","null","null","<p style=""font-size: 60px; font-family: BACS"">bGuOLYGA</p>","","","","","","","","",""
"html-keyboard-response","111","309086","0.0-10.0-0.22","60e9ea97d19e613e60a994da","650c16f0f2faf8d7a0d14c09","651c1cb24ce33ee711075ac1","null","null","<p style=""font-size: 60px; font-family: BACS"">ArQuYUYa</p>","","","","","","","","",""
"html-keyboard-response","112","310101","0.0-10.0-0.23","60e9ea97d19e613e60a994da","650c16f0f2faf8d7a0d14c09","651c1cb24ce33ee711075ac1","null","null","<p style=""font-size: 60px; font-family: BACS"">mARMOdOP</p>","","","","","","","","",""
"html-keyboard-response","113","311103","0.0-10.0-0.24","60e9ea97d19e613e60a994da","650c16f0f2faf8d7a0d14c09","651c1cb24ce33ee711075ac1","null","null","<p style=""font-size: 60px; font-family: BACS"">vAarUdvY</p>","","","","","","","","",""
"html-keyboard-response","114","312118","0.0-10.0-0.25","60e9ea97d19e613e60a994da","650c16f0f2faf8d7a0d14c09","651c1cb24ce33ee711075ac1","null","null","<p style=""font-size: 60px; font-family: BACS"">EPMDkbAMO</p>","","","","","","","","",""
"html-keyboard-response","115","313119","0.0-10.0-0.26","60e9ea97d19e613e60a994da","650c16f0f2faf8d7a0d14c09","651c1cb24ce33ee711075ac1","null","null","<p style=""font-size: 60px; font-family: BACS"">bGuOYUYa</p>","","","","","","","","",""
"html-keyboard-response","116","314135","0.0-10.0-0.27","60e9ea97d19e613e60a994da","650c16f0f2faf8d7a0d14c09","651c1cb24ce33ee711075ac1","null","null","<p style=""font-size: 60px; font-family: BACS"">EPMDkKEdl</p>","","","","","","","","",""
"html-keyboard-response","117","315140","0.0-10.0-0.28","60e9ea97d19e613e60a994da","650c16f0f2faf8d7a0d14c09","651c1cb24ce33ee711075ac1","null","null","<p style=""font-size: 60px; font-family: BACS"">BECkOdOP</p>","","","","","","","","",""
"html-keyboard-response","118","316151","0.0-10.0-0.29","60e9ea97d19e613e60a994da","650c16f0f2faf8d7a0d14c09","651c1cb24ce33ee711075ac1","null","null","<p style=""font-size: 60px; font-family: BACS"">vAarYUYa</p>","","","","","","","","",""
"html-keyboard-response","119","317152","0.0-10.0-0.30","60e9ea97d19e613e60a994da","650c16f0f2faf8d7a0d14c09","651c1cb24ce33ee711075ac1","null","null","<p style=""font-size: 60px; font-family: BACS"">ArQuLYGA</p>","","","","","","","","",""
"html-keyboard-response","120","318167","0.0-10.0-0.31","60e9ea97d19e613e60a994da","650c16f0f2faf8d7a0d14c09","651c1cb24ce33ee711075ac1","null","null","<p style=""font-size: 60px; font-family: BACS"">LdQvUdvY</p>","","","","","","","","",""
"html-keyboard-response","121","319168","0.0-10.0-0.32","60e9ea97d19e613e60a994da","650c16f0f2faf8d7a0d14c09","651c1cb24ce33ee711075ac1","null","null","<p style=""font-size: 60px; font-family: BACS"">EPERdCmYA</p>","","","","","","","","",""
"html-keyboard-response","122","320170","0.0-10.0-0.33","60e9ea97d19e613e60a994da","650c16f0f2faf8d7a0d14c09","651c1cb24ce33ee711075ac1","null","null","<p style=""font-size: 60px; font-family: BACS"">OAmAdOdOP</p>","","","","","","","","",""
"html-keyboard-response","123","321183","0.0-10.0-0.34","60e9ea97d19e613e60a994da","650c16f0f2faf8d7a0d14c09","651c1cb24ce33ee711075ac1","null","null","<p style=""font-size: 60px; font-family: BACS"">OEPkKEdl</p>","","","","","","","","",""
"html-keyboard-response","124","322185","0.0-10.0-0.35","60e9ea97d19e613e60a994da","650c16f0f2faf8d7a0d14c09","651c1cb24ce33ee711075ac1","null","null","<p style=""font-size: 60px; font-family: BACS"">MDKPOdOP</p>","","","","","","","","",""
"html-keyboard-response","125","323199","0.0-10.0-0.36","60e9ea97d19e613e60a994da","650c16f0f2faf8d7a0d14c09","651c1cb24ce33ee711075ac1","null","null","<p style=""font-size: 60px; font-family: BACS"">OEPkCmYA</p>","","","","","","","","",""
"html-keyboard-response","126","324214","0.0-10.0-0.37","60e9ea97d19e613e60a994da","650c16f0f2faf8d7a0d14c09","651c1cb24ce33ee711075ac1","null","null","<p style=""font-size: 60px; font-family: BACS"">mARMcthB</p>","","","","","","","","",""
"html-keyboard-response","127","325216","0.0-10.0-0.38","60e9ea97d19e613e60a994da","650c16f0f2faf8d7a0d14c09","651c1cb24ce33ee711075ac1","null","null","<p style=""font-size: 60px; font-family: BACS"">LdQvLYGA</p>","","","","","","","","",""
"html-keyboard-response","128","326231","0.0-10.0-0.39","60e9ea97d19e613e60a994da","650c16f0f2faf8d7a0d14c09","651c1cb24ce33ee711075ac1","null","null","<p style=""font-size: 60px; font-family: BACS"">lZcuYaum</p>","","","","","","","","",""
"html-keyboard-response","129","327233","0.0-10.0-0.40","60e9ea97d19e613e60a994da","650c16f0f2faf8d7a0d14c09","651c1cb24ce33ee711075ac1","null","null","<p style=""font-size: 60px; font-family: BACS"">OAmGrLYGA</p>","","","","","","","","",""
"html-keyboard-response","130","328248","0.0-10.0-0.41","60e9ea97d19e613e60a994da","650c16f0f2faf8d7a0d14c09","651c1cb24ce33ee711075ac1","null","null","<p style=""font-size: 60px; font-family: BACS"">BECkCmYA</p>","","","","","","","","",""
"html-keyboard-response","131","329265","0.0-10.0-0.42","60e9ea97d19e613e60a994da","650c16f0f2faf8d7a0d14c09","651c1cb24ce33ee711075ac1","null","null","<p style=""font-size: 60px; font-family: BACS"">kcCRtOdOP</p>","","","","","","","","",""
"html-keyboard-response","132","330273","0.0-10.0-0.43","60e9ea97d19e613e60a994da","650c16f0f2faf8d7a0d14c09","651c1cb24ce33ee711075ac1","null","null","<p style=""font-size: 60px; font-family: BACS"">AmaclZAUu</p>","","","","","","","","",""
"html-keyboard-response","133","331281","0.0-10.0-0.44","60e9ea97d19e613e60a994da","650c16f0f2faf8d7a0d14c09","651c1cb24ce33ee711075ac1","null","null","<p style=""font-size: 60px; font-family: BACS"">bGuOUdvY</p>","","","","","","","","",""
"html-keyboard-response","134","332297","0.0-10.0-0.45","60e9ea97d19e613e60a994da","650c16f0f2faf8d7a0d14c09","651c1cb24ce33ee711075ac1","null","null","<p style=""font-size: 60px; font-family: BACS"">damYbYaum</p>","","","","","","","","",""
"html-keyboard-response","135","333313","0.0-10.0-0.46","60e9ea97d19e613e60a994da","650c16f0f2faf8d7a0d14c09","651c1cb24ce33ee711075ac1","null","null","<p style=""font-size: 60px; font-family: BACS"">LdQvYUYa</p>","","","","","","","","",""
"html-keyboard-response","136","334314","0.0-10.0-0.47","60e9ea97d19e613e60a994da","650c16f0f2faf8d7a0d14c09","651c1cb24ce33ee711075ac1","null","null","<p style=""font-size: 60px; font-family: BACS"">kcCRtKEdl</p>","","","","","","","","",""
"html-keyboard-response","137","335329","0.0-10.0-0.48","60e9ea97d19e613e60a994da","650c16f0f2faf8d7a0d14c09","651c1cb24ce33ee711075ac1","null","null","<p style=""font-size: 60px; font-family: BACS"">TdmAOdOP</p>","","","","","","","","",""
"html-keyboard-response","138","336330","0.0-10.0-0.49","60e9ea97d19e613e60a994da","650c16f0f2faf8d7a0d14c09","651c1cb24ce33ee711075ac1","null","null","<p style=""font-size: 60px; font-family: BACS"">OEPkcthB</p>","","","","","","","","",""
"html-keyboard-response","139","337345","0.0-10.0-0.50","60e9ea97d19e613e60a994da","650c16f0f2faf8d7a0d14c09","651c1cb24ce33ee711075ac1","null","null","<p style=""font-size: 60px; font-family: BACS"">kcCRtCmYA</p>","","","","","","","","",""
"html-keyboard-response","140","338346","0.0-10.0-0.51","60e9ea97d19e613e60a994da","650c16f0f2faf8d7a0d14c09","651c1cb24ce33ee711075ac1","null","null","<p style=""font-size: 60px; font-family: BACS"">EhbtcthB</p>","","","","","","","","",""
"html-keyboard-response","141","339361","0.0-10.0-0.52","60e9ea97d19e613e60a994da","650c16f0f2faf8d7a0d14c09","651c1cb24ce33ee711075ac1","null","null","<p style=""font-size: 60px; font-family: BACS"">OAmAdKEdl</p>","","","","","","","","",""
"html-keyboard-response","142","340377","0.0-10.0-0.53","60e9ea97d19e613e60a994da","650c16f0f2faf8d7a0d14c09","651c1cb24ce33ee711075ac1","null","null","<p style=""font-size: 60px; font-family: BACS"">TdmAbAMO</p>","","","","","","","","",""
"html-keyboard-response","143","341379","0.0-10.0-0.54","60e9ea97d19e613e60a994da","650c16f0f2faf8d7a0d14c09","651c1cb24ce33ee711075ac1","null","null","<p style=""font-size: 60px; font-family: BACS"">MDKPKEdl</p>","","","","","","","","",""
"html-keyboard-response","144","342394","0.0-10.0-0.55","60e9ea97d19e613e60a994da","650c16f0f2faf8d7a0d14c09","651c1cb24ce33ee711075ac1","null","null","<p style=""font-size: 60px; font-family: BACS"">ArQuYaum</p>","","","","","","","","",""
"html-keyboard-response","145","343410","0.0-10.0-0.56","60e9ea97d19e613e60a994da","650c16f0f2faf8d7a0d14c09","651c1cb24ce33ee711075ac1","null","null","<p style=""font-size: 60px; font-family: BACS"">damYbUdvY</p>","","","","","","","","",""
"html-keyboard-response","146","344411","0.0-10.0-0.57","60e9ea97d19e613e60a994da","650c16f0f2faf8d7a0d14c09","651c1cb24ce33ee711075ac1","null","null","<p style=""font-size: 60px; font-family: BACS"">EhbtbAMO</p>","","","","","","","","",""
"html-keyboard-response","147","345415","0.0-10.0-0.58","60e9ea97d19e613e60a994da","650c16f0f2faf8d7a0d14c09","651c1cb24ce33ee711075ac1","null","null","<p style=""font-size: 60px; font-family: BACS"">QLrOJZAUu</p>","","","","","","","","",""
"html-keyboard-response","148","346426","0.0-10.0-0.59","60e9ea97d19e613e60a994da","650c16f0f2faf8d7a0d14c09","651c1cb24ce33ee711075ac1","null","null","<p style=""font-size: 60px; font-family: BACS"">TdmActhB</p>","","","","","","","","",""
"html-keyboard-response","149","347442","0.0-10.0-0.60","60e9ea97d19e613e60a994da","650c16f0f2faf8d7a0d14c09","651c1cb24ce33ee711075ac1","null","null","<p style=""font-size: 60px; font-family: BACS"">krUQYUYa</p>","","","","","","","","",""
"html-keyboard-response","150","348459","0.0-10.0-0.61","60e9ea97d19e613e60a994da","650c16f0f2faf8d7a0d14c09","651c1cb24ce33ee711075ac1","null","null","<p style=""font-size: 60px; font-family: BACS"">AmaclYaum</p>","","","","","","","","",""
"html-keyboard-response","151","349475","0.0-10.0-0.62","60e9ea97d19e613e60a994da","650c16f0f2faf8d7a0d14c09","651c1cb24ce33ee711075ac1","null","null","<p style=""font-size: 60px; font-family: BACS"">BECkbAMO</p>","","","","","","","","",""
"html-keyboard-response","152","350476","0.0-10.0-0.63","60e9ea97d19e613e60a994da","650c16f0f2faf8d7a0d14c09","651c1cb24ce33ee711075ac1","null","null","<p style=""font-size: 60px; font-family: BACS"">EPMDkcthB</p>","","","","","","","","",""
"html-keyboard-response","153","351492","0.0-10.0-0.64","60e9ea97d19e613e60a994da","650c16f0f2faf8d7a0d14c09","651c1cb24ce33ee711075ac1","null","null","<p style=""font-size: 60px; font-family: BACS"">OAmAdbAMO</p>","","","","","","","","",""
"html-keyboard-response","154","352492","0.0-10.0-0.65","60e9ea97d19e613e60a994da","650c16f0f2faf8d7a0d14c09","651c1cb24ce33ee711075ac1","null","null","<p style=""font-size: 60px; font-family: BACS"">TdmACmYA</p>","","","","","","","","",""
"html-keyboard-response","155","353508","0.0-10.0-0.66","60e9ea97d19e613e60a994da","650c16f0f2faf8d7a0d14c09","651c1cb24ce33ee711075ac1","null","null","<p style=""font-size: 60px; font-family: BACS"">EhbtKEdl</p>","","","","","","","","",""
"html-keyboard-response","156","354524","0.0-10.0-0.67","60e9ea97d19e613e60a994da","650c16f0f2faf8d7a0d14c09","651c1cb24ce33ee711075ac1","null","null","<p style=""font-size: 60px; font-family: BACS"">QLrOJLYGA</p>","","","","","","","","",""
"html-keyboard-response","157","355525","0.0-10.0-0.68","60e9ea97d19e613e60a994da","650c16f0f2faf8d7a0d14c09","651c1cb24ce33ee711075ac1","null","null","<p style=""font-size: 60px; font-family: BACS"">OAmGrYaum</p>","","","","","","","","",""
"html-keyboard-response","158","356540","0.0-10.0-0.69","60e9ea97d19e613e60a994da","650c16f0f2faf8d7a0d14c09","651c1cb24ce33ee711075ac1","null","null","<p style=""font-size: 60px; font-family: BACS"">EhbtOdOP</p>","","","","","","","","",""
"html-keyboard-response","159","357557","0.0-10.0-0.70","60e9ea97d19e613e60a994da","650c16f0f2faf8d7a0d14c09","651c1cb24ce33ee711075ac1","null","null","<p style=""font-size: 60px; font-family: BACS"">lZcuUdvY</p>","","","","","","","","",""
"html-keyboard-response","160","358557","0.0-10.0-0.71","60e9ea97d19e613e60a994da","650c16f0f2faf8d7a0d14c09","651c1cb24ce33ee711075ac1","null","null","<p style=""font-size: 60px; font-family: BACS"">EPERdbAMO</p>","","","","","","","","",""
"html-keyboard-response","161","359572","0.0-10.0-0.72","60e9ea97d19e613e60a994da","650c16f0f2faf8d7a0d14c09","651c1cb24ce33ee711075ac1","null","null","<p style=""font-size: 60px; font-family: BACS"">krUQUdvY</p>","","","","","","","","",""
"html-keyboard-response","162","360573","0.0-10.0-0.73","60e9ea97d19e613e60a994da","650c16f0f2faf8d7a0d14c09","651c1cb24ce33ee711075ac1","null","null","<p style=""font-size: 60px; font-family: BACS"">OAmGrZAUu</p>","","","","","","","","",""
"html-keyboard-response","163","361589","0.0-10.0-0.74","60e9ea97d19e613e60a994da","650c16f0f2faf8d7a0d14c09","651c1cb24ce33ee711075ac1","null","null","<p style=""font-size: 60px; font-family: BACS"">EPERdKEdl</p>","","","","","","","","",""
"html-keyboard-response","164","362605","0.0-10.0-0.75","60e9ea97d19e613e60a994da","650c16f0f2faf8d7a0d14c09","651c1cb24ce33ee711075ac1","null","null","<p style=""font-size: 60px; font-family: BACS"">LdQvZAUu</p>","","","","","","","","",""
"html-keyboard-response","165","363613","0.0-10.0-0.76","60e9ea97d19e613e60a994da","650c16f0f2faf8d7a0d14c09","651c1cb24ce33ee711075ac1","null","null","<p style=""font-size: 60px; font-family: BACS"">EPERdOdOP</p>","","","","","","","","",""
"html-keyboard-response","166","364622","0.0-10.0-0.77","60e9ea97d19e613e60a994da","650c16f0f2faf8d7a0d14c09","651c1cb24ce33ee711075ac1","null","null","<p style=""font-size: 60px; font-family: BACS"">vAarYaum</p>","","","","","","","","",""
"html-keyboard-response","167","365638","0.0-10.0-0.78","60e9ea97d19e613e60a994da","650c16f0f2faf8d7a0d14c09","651c1cb24ce33ee711075ac1","null","null","<p style=""font-size: 60px; font-family: BACS"">EPMDkCmYA</p>","","","","","","","","",""
"html-keyboard-response","168","366639","0.0-10.0-0.79","60e9ea97d19e613e60a994da","650c16f0f2faf8d7a0d14c09","651c1cb24ce33ee711075ac1","null","null","<p style=""font-size: 60px; font-family: BACS"">kcCRtcthB</p>","","","","","","","","",""
"html-keyboard-response","169","371827","0.0-11.0","60e9ea97d19e613e60a994da","650c16f0f2faf8d7a0d14c09","651c1cb24ce33ee711075ac1","5188"," ","<p>Great, you've seen the second block of words. You may now take a short break.</p>
      <p>Press the spacebar when you're ready to continue.</p>","","","","","","","","",""
"html-keyboard-response","170","372836","0.0-12.0-0.0","60e9ea97d19e613e60a994da","650c16f0f2faf8d7a0d14c09","651c1cb24ce33ee711075ac1","null","null","<p style=""font-size: 60px; font-family: BACS"">kcCRtOdOP</p>","","","","","","","","",""
"html-keyboard-response","171","373844","0.0-12.0-0.1","60e9ea97d19e613e60a994da","650c16f0f2faf8d7a0d14c09","651c1cb24ce33ee711075ac1","null","null","<p style=""font-size: 60px; font-family: BACS"">krUQLYGA</p>","","","","","","","","",""
"html-keyboard-response","172","374852","0.0-12.0-0.2","60e9ea97d19e613e60a994da","650c16f0f2faf8d7a0d14c09","651c1cb24ce33ee711075ac1","null","null","<p style=""font-size: 60px; font-family: BACS"">MDKPbAMO</p>","","","","","","","","",""
"html-keyboard-response","173","375867","0.0-12.0-0.3","60e9ea97d19e613e60a994da","650c16f0f2faf8d7a0d14c09","651c1cb24ce33ee711075ac1","null","null","<p style=""font-size: 60px; font-family: BACS"">damYbUdvY</p>","","","","","","","","",""
"html-keyboard-response","174","376869","0.0-12.0-0.4","60e9ea97d19e613e60a994da","650c16f0f2faf8d7a0d14c09","651c1cb24ce33ee711075ac1","null","null","<p style=""font-size: 60px; font-family: BACS"">vAarYUYa</p>","","","","","","","","",""
"html-keyboard-response","175","377877","0.0-12.0-0.5","60e9ea97d19e613e60a994da","650c16f0f2faf8d7a0d14c09","651c1cb24ce33ee711075ac1","null","null","<p style=""font-size: 60px; font-family: BACS"">damYbZAUu</p>","","","","","","","","",""
"html-keyboard-response","176","378885","0.0-12.0-0.6","60e9ea97d19e613e60a994da","650c16f0f2faf8d7a0d14c09","651c1cb24ce33ee711075ac1","null","null","<p style=""font-size: 60px; font-family: BACS"">MDKPKEdl</p>","","","","","","","","",""
"html-keyboard-response","177","379902","0.0-12.0-0.7","60e9ea97d19e613e60a994da","650c16f0f2faf8d7a0d14c09","651c1cb24ce33ee711075ac1","null","null","<p style=""font-size: 60px; font-family: BACS"">QLrOJLYGA</p>","","","","","","","","",""
"html-keyboard-response","178","380916","0.0-12.0-0.8","60e9ea97d19e613e60a994da","650c16f0f2faf8d7a0d14c09","651c1cb24ce33ee711075ac1","null","null","<p style=""font-size: 60px; font-family: BACS"">bGuOYUYa</p>","","","","","","","","",""
"html-keyboard-response","179","381918","0.0-12.0-0.9","60e9ea97d19e613e60a994da","650c16f0f2faf8d7a0d14c09","651c1cb24ce33ee711075ac1","null","null","<p style=""font-size: 60px; font-family: BACS"">EPMDkCmYA</p>","","","","","","","","",""
"html-keyboard-response","180","382933","0.0-12.0-0.10","60e9ea97d19e613e60a994da","650c16f0f2faf8d7a0d14c09","651c1cb24ce33ee711075ac1","null","null","<p style=""font-size: 60px; font-family: BACS"">BECkcthB</p>","","","","","","","","",""
"html-keyboard-response","181","383934","0.0-12.0-0.11","60e9ea97d19e613e60a994da","650c16f0f2faf8d7a0d14c09","651c1cb24ce33ee711075ac1","null","null","<p style=""font-size: 60px; font-family: BACS"">EhbtKEdl</p>","","","","","","","","",""
"html-keyboard-response","182","384948","0.0-12.0-0.12","60e9ea97d19e613e60a994da","650c16f0f2faf8d7a0d14c09","651c1cb24ce33ee711075ac1","null","null","<p style=""font-size: 60px; font-family: BACS"">OAmGrLYGA</p>","","","","","","","","",""
"html-keyboard-response","183","385965","0.0-12.0-0.13","60e9ea97d19e613e60a994da","650c16f0f2faf8d7a0d14c09","651c1cb24ce33ee711075ac1","null","null","<p style=""font-size: 60px; font-family: BACS"">mARMKEdl</p>","","","","","","","","",""
"html-keyboard-response","184","386967","0.0-12.0-0.14","60e9ea97d19e613e60a994da","650c16f0f2faf8d7a0d14c09","651c1cb24ce33ee711075ac1","null","null","<p style=""font-size: 60px; font-family: BACS"">ArQuYUYa</p>","","","","","","","","",""
"html-keyboard-response","185","387982","0.0-12.0-0.15","60e9ea97d19e613e60a994da","650c16f0f2faf8d7a0d14c09","651c1cb24ce33ee711075ac1","null","null","<p style=""font-size: 60px; font-family: BACS"">BECkOdOP</p>","","","","","","","","",""
"html-keyboard-response","186","388985","0.0-12.0-0.16","60e9ea97d19e613e60a994da","650c16f0f2faf8d7a0d14c09","651c1cb24ce33ee711075ac1","null","null","<p style=""font-size: 60px; font-family: BACS"">OAmGrZAUu</p>","","","","","","","","",""
"html-keyboard-response","187","389998","0.0-12.0-0.17","60e9ea97d19e613e60a994da","650c16f0f2faf8d7a0d14c09","651c1cb24ce33ee711075ac1","null","null","<p style=""font-size: 60px; font-family: BACS"">EhbtOdOP</p>","","","","","","","","",""
"html-keyboard-response","188","390999","0.0-12.0-0.18","60e9ea97d19e613e60a994da","650c16f0f2faf8d7a0d14c09","651c1cb24ce33ee711075ac1","null","null","<p style=""font-size: 60px; font-family: BACS"">OAmAdKEdl</p>","","","","","","","","",""
"html-keyboard-response","189","392014","0.0-12.0-0.19","60e9ea97d19e613e60a994da","650c16f0f2faf8d7a0d14c09","651c1cb24ce33ee711075ac1","null","null","<p style=""font-size: 60px; font-family: BACS"">damYbYUYa</p>","","","","","","","","",""
"html-keyboard-response","190","393015","0.0-12.0-0.20","60e9ea97d19e613e60a994da","650c16f0f2faf8d7a0d14c09","651c1cb24ce33ee711075ac1","null","null","<p style=""font-size: 60px; font-family: BACS"">bGuOUdvY</p>","","","","","","","","",""
"html-keyboard-response","191","394031","0.0-12.0-0.21","60e9ea97d19e613e60a994da","650c16f0f2faf8d7a0d14c09","651c1cb24ce33ee711075ac1","null","null","<p style=""font-size: 60px; font-family: BACS"">lZcuZAUu</p>","","","","","","","","",""
"html-keyboard-response","192","395047","0.0-12.0-0.22","60e9ea97d19e613e60a994da","650c16f0f2faf8d7a0d14c09","651c1cb24ce33ee711075ac1","null","null","<p style=""font-size: 60px; font-family: BACS"">mARMcthB</p>","","","","","","","","",""
"html-keyboard-response","193","396048","0.0-12.0-0.23","60e9ea97d19e613e60a994da","650c16f0f2faf8d7a0d14c09","651c1cb24ce33ee711075ac1","null","null","<p style=""font-size: 60px; font-family: BACS"">TdmAbAMO</p>","","","","","","","","",""
"html-keyboard-response","194","397063","0.0-12.0-0.24","60e9ea97d19e613e60a994da","650c16f0f2faf8d7a0d14c09","651c1cb24ce33ee711075ac1","null","null","<p style=""font-size: 60px; font-family: BACS"">LdQvZAUu</p>","","","","","","","","",""
"html-keyboard-response","195","398064","0.0-12.0-0.25","60e9ea97d19e613e60a994da","650c16f0f2faf8d7a0d14c09","651c1cb24ce33ee711075ac1","null","null","<p style=""font-size: 60px; font-family: BACS"">EPERdOdOP</p>","","","","","","","","",""
"html-keyboard-response","196","399079","0.0-12.0-0.26","60e9ea97d19e613e60a994da","650c16f0f2faf8d7a0d14c09","651c1cb24ce33ee711075ac1","null","null","<p style=""font-size: 60px; font-family: BACS"">vAarUdvY</p>","","","","","","","","",""
"html-keyboard-response","197","400080","0.0-12.0-0.27","60e9ea97d19e613e60a994da","650c16f0f2faf8d7a0d14c09","651c1cb24ce33ee711075ac1","null","null","<p style=""font-size: 60px; font-family: BACS"">EPMDkcthB</p>","","","","","","","","",""
"html-keyboard-response","198","401095","0.0-12.0-0.28","60e9ea97d19e613e60a994da","650c16f0f2faf8d7a0d14c09","651c1cb24ce33ee711075ac1","null","null","<p style=""font-size: 60px; font-family: BACS"">bGuOLYGA</p>","","","","","","","","",""
"html-keyboard-response","199","402096","0.0-12.0-0.29","60e9ea97d19e613e60a994da","650c16f0f2faf8d7a0d14c09","651c1cb24ce33ee711075ac1","null","null","<p style=""font-size: 60px; font-family: BACS"">krUQYaum</p>","","","","","","","","",""
"html-keyboard-response","200","403111","0.0-12.0-0.30","60e9ea97d19e613e60a994da","650c16f0f2faf8d7a0d14c09","651c1cb24ce33ee711075ac1","null","null","<p style=""font-size: 60px; font-family: BACS"">EPERdCmYA</p>","","","","","","","","",""
"html-keyboard-response","201","404128","0.0-12.0-0.31","60e9ea97d19e613e60a994da","650c16f0f2faf8d7a0d14c09","651c1cb24ce33ee711075ac1","null","null","<p style=""font-size: 60px; font-family: BACS"">OAmGrYUYa</p>","","","","","","","","",""
"html-keyboard-response","202","405144","0.0-12.0-0.32","60e9ea97d19e613e60a994da","650c16f0f2faf8d7a0d14c09","651c1cb24ce33ee711075ac1","null","null","<p style=""font-size: 60px; font-family: BACS"">MDKPOdOP</p>","","","","","","","","",""
"html-keyboard-response","203","406160","0.0-12.0-0.33","60e9ea97d19e613e60a994da","650c16f0f2faf8d7a0d14c09","651c1cb24ce33ee711075ac1","null","null","<p style=""font-size: 60px; font-family: BACS"">EPERdbAMO</p>","","","","","","","","",""
"html-keyboard-response","204","407177","0.0-12.0-0.34","60e9ea97d19e613e60a994da","650c16f0f2faf8d7a0d14c09","651c1cb24ce33ee711075ac1","null","null","<p style=""font-size: 60px; font-family: BACS"">TdmAOdOP</p>","","","","","","","","",""
"html-keyboard-response","205","408179","0.0-12.0-0.35","60e9ea97d19e613e60a994da","650c16f0f2faf8d7a0d14c09","651c1cb24ce33ee711075ac1","null","null","<p style=""font-size: 60px; font-family: BACS"">krUQUdvY</p>","","","","","","","","",""
"html-keyboard-response","206","409193","0.0-12.0-0.36","60e9ea97d19e613e60a994da","650c16f0f2faf8d7a0d14c09","651c1cb24ce33ee711075ac1","null","null","<p style=""font-size: 60px; font-family: BACS"">ArQuZAUu</p>","","","","","","","","",""
"html-keyboard-response","207","410199","0.0-12.0-0.37","60e9ea97d19e613e60a994da","650c16f0f2faf8d7a0d14c09","651c1cb24ce33ee711075ac1","null","null","<p style=""font-size: 60px; font-family: BACS"">vAarYaum</p>","","","","","","","","",""
"html-keyboard-response","208","411209","0.0-12.0-0.38","60e9ea97d19e613e60a994da","650c16f0f2faf8d7a0d14c09","651c1cb24ce33ee711075ac1","null","null","<p style=""font-size: 60px; font-family: BACS"">LdQvLYGA</p>","","","","","","","","",""
"html-keyboard-response","209","412218","0.0-12.0-0.39","60e9ea97d19e613e60a994da","650c16f0f2faf8d7a0d14c09","651c1cb24ce33ee711075ac1","null","null","<p style=""font-size: 60px; font-family: BACS"">QLrOJYaum</p>","","","","","","","","",""
"html-keyboard-response","210","413225","0.0-12.0-0.40","60e9ea97d19e613e60a994da","650c16f0f2faf8d7a0d14c09","651c1cb24ce33ee711075ac1","null","null","<p style=""font-size: 60px; font-family: BACS"">OEPkbAMO</p>","","","","","","","","",""
"html-keyboard-response","211","414226","0.0-12.0-0.41","60e9ea97d19e613e60a994da","650c16f0f2faf8d7a0d14c09","651c1cb24ce33ee711075ac1","null","null","<p style=""font-size: 60px; font-family: BACS"">BECkCmYA</p>","","","","","","","","",""
"html-keyboard-response","212","415240","0.0-12.0-0.42","60e9ea97d19e613e60a994da","650c16f0f2faf8d7a0d14c09","651c1cb24ce33ee711075ac1","null","null","<p style=""font-size: 60px; font-family: BACS"">ArQuLYGA</p>","","","","","","","","",""
"html-keyboard-response","213","416242","0.0-12.0-0.43","60e9ea97d19e613e60a994da","650c16f0f2faf8d7a0d14c09","651c1cb24ce33ee711075ac1","null","null","<p style=""font-size: 60px; font-family: BACS"">kcCRtCmYA</p>","","","","","","","","",""
"html-keyboard-response","214","417258","0.0-12.0-0.44","60e9ea97d19e613e60a994da","650c16f0f2faf8d7a0d14c09","651c1cb24ce33ee711075ac1","null","null","<p style=""font-size: 60px; font-family: BACS"">QLrOJZAUu</p>","","","","","","","","",""
"html-keyboard-response","215","418274","0.0-12.0-0.45","60e9ea97d19e613e60a994da","650c16f0f2faf8d7a0d14c09","651c1cb24ce33ee711075ac1","null","null","<p style=""font-size: 60px; font-family: BACS"">OAmGrYaum</p>","","","","","","","","",""
"html-keyboard-response","216","419289","0.0-12.0-0.46","60e9ea97d19e613e60a994da","650c16f0f2faf8d7a0d14c09","651c1cb24ce33ee711075ac1","null","null","<p style=""font-size: 60px; font-family: BACS"">TdmActhB</p>","","","","","","","","",""
"html-keyboard-response","217","420291","0.0-12.0-0.47","60e9ea97d19e613e60a994da","650c16f0f2faf8d7a0d14c09","651c1cb24ce33ee711075ac1","null","null","<p style=""font-size: 60px; font-family: BACS"">kcCRtKEdl</p>","","","","","","","","",""
"html-keyboard-response","218","421299","0.0-12.0-0.48","60e9ea97d19e613e60a994da","650c16f0f2faf8d7a0d14c09","651c1cb24ce33ee711075ac1","null","null","<p style=""font-size: 60px; font-family: BACS"">vAarLYGA</p>","","","","","","","","",""
"html-keyboard-response","219","422306","0.0-12.0-0.49","60e9ea97d19e613e60a994da","650c16f0f2faf8d7a0d14c09","651c1cb24ce33ee711075ac1","null","null","<p style=""font-size: 60px; font-family: BACS"">mARMOdOP</p>","","","","","","","","",""
"html-keyboard-response","220","423307","0.0-12.0-0.50","60e9ea97d19e613e60a994da","650c16f0f2faf8d7a0d14c09","651c1cb24ce33ee711075ac1","null","null","<p style=""font-size: 60px; font-family: BACS"">LdQvYUYa</p>","","","","","","","","",""
"html-keyboard-response","221","424322","0.0-12.0-0.51","60e9ea97d19e613e60a994da","650c16f0f2faf8d7a0d14c09","651c1cb24ce33ee711075ac1","null","null","<p style=""font-size: 60px; font-family: BACS"">EPMDkKEdl</p>","","","","","","","","",""
"html-keyboard-response","222","425339","0.0-12.0-0.52","60e9ea97d19e613e60a994da","650c16f0f2faf8d7a0d14c09","651c1cb24ce33ee711075ac1","null","null","<p style=""font-size: 60px; font-family: BACS"">AmaclZAUu</p>","","","","","","","","",""
"html-keyboard-response","223","426340","0.0-12.0-0.53","60e9ea97d19e613e60a994da","650c16f0f2faf8d7a0d14c09","651c1cb24ce33ee711075ac1","null","null","<p style=""font-size: 60px; font-family: BACS"">LdQvUdvY</p>","","","","","","","","",""
"html-keyboard-response","224","427355","0.0-12.0-0.54","60e9ea97d19e613e60a994da","650c16f0f2faf8d7a0d14c09","651c1cb24ce33ee711075ac1","null","null","<p style=""font-size: 60px; font-family: BACS"">kcCRtcthB</p>","","","","","","","","",""
"html-keyboard-response","225","428356","0.0-12.0-0.55","60e9ea97d19e613e60a994da","650c16f0f2faf8d7a0d14c09","651c1cb24ce33ee711075ac1","null","null","<p style=""font-size: 60px; font-family: BACS"">TdmACmYA</p>","","","","","","","","",""
"html-keyboard-response","226","429371","0.0-12.0-0.56","60e9ea97d19e613e60a994da","650c16f0f2faf8d7a0d14c09","651c1cb24ce33ee711075ac1","null","null","<p style=""font-size: 60px; font-family: BACS"">QLrOJUdvY</p>","","","","","","","","",""
"html-keyboard-response","227","430387","0.0-12.0-0.57","60e9ea97d19e613e60a994da","650c16f0f2faf8d7a0d14c09","651c1cb24ce33ee711075ac1","null","null","<p style=""font-size: 60px; font-family: BACS"">ArQuYaum</p>","","","","","","","","",""
"html-keyboard-response","228","431388","0.0-12.0-0.58","60e9ea97d19e613e60a994da","650c16f0f2faf8d7a0d14c09","651c1cb24ce33ee711075ac1","null","null","<p style=""font-size: 60px; font-family: BACS"">krUQYUYa</p>","","","","","","","","",""
"html-keyboard-response","229","432403","0.0-12.0-0.59","60e9ea97d19e613e60a994da","650c16f0f2faf8d7a0d14c09","651c1cb24ce33ee711075ac1","null","null","<p style=""font-size: 60px; font-family: BACS"">OEPkcthB</p>","","","","","","","","",""
"html-keyboard-response","230","433404","0.0-12.0-0.60","60e9ea97d19e613e60a994da","650c16f0f2faf8d7a0d14c09","651c1cb24ce33ee711075ac1","null","null","<p style=""font-size: 60px; font-family: BACS"">AmaclYaum</p>","","","","","","","","",""
"html-keyboard-response","231","434420","0.0-12.0-0.61","60e9ea97d19e613e60a994da","650c16f0f2faf8d7a0d14c09","651c1cb24ce33ee711075ac1","null","null","<p style=""font-size: 60px; font-family: BACS"">BECkbAMO</p>","","","","","","","","",""
"html-keyboard-response","232","435421","0.0-12.0-0.62","60e9ea97d19e613e60a994da","650c16f0f2faf8d7a0d14c09","651c1cb24ce33ee711075ac1","null","null","<p style=""font-size: 60px; font-family: BACS"">OEPkCmYA</p>","","","","","","","","",""
"html-keyboard-response","233","436436","0.0-12.0-0.63","60e9ea97d19e613e60a994da","650c16f0f2faf8d7a0d14c09","651c1cb24ce33ee711075ac1","null","null","<p style=""font-size: 60px; font-family: BACS"">EPERdKEdl</p>","","","","","","","","",""
"html-keyboard-response","234","437437","0.0-12.0-0.64","60e9ea97d19e613e60a994da","650c16f0f2faf8d7a0d14c09","651c1cb24ce33ee711075ac1","null","null","<p style=""font-size: 60px; font-family: BACS"">damYbYaum</p>","","","","","","","","",""
"html-keyboard-response","235","438452","0.0-12.0-0.65","60e9ea97d19e613e60a994da","650c16f0f2faf8d7a0d14c09","651c1cb24ce33ee711075ac1","null","null","<p style=""font-size: 60px; font-family: BACS"">lZcuUdvY</p>","","","","","","","","",""
"html-keyboard-response","236","439467","0.0-12.0-0.66","60e9ea97d19e613e60a994da","650c16f0f2faf8d7a0d14c09","651c1cb24ce33ee711075ac1","null","null","<p style=""font-size: 60px; font-family: BACS"">OAmAdbAMO</p>","","","","","","","","",""
"html-keyboard-response","237","440469","0.0-12.0-0.67","60e9ea97d19e613e60a994da","650c16f0f2faf8d7a0d14c09","651c1cb24ce33ee711075ac1","null","null","<p style=""font-size: 60px; font-family: BACS"">EhbtcthB</p>","","","","","","","","",""
"html-keyboard-response","238","441485","0.0-12.0-0.68","60e9ea97d19e613e60a994da","650c16f0f2faf8d7a0d14c09","651c1cb24ce33ee711075ac1","null","null","<p style=""font-size: 60px; font-family: BACS"">lZcuYUYa</p>","","","","","","","","",""
"html-keyboard-response","239","442486","0.0-12.0-0.69","60e9ea97d19e613e60a994da","650c16f0f2faf8d7a0d14c09","651c1cb24ce33ee711075ac1","null","null","<p style=""font-size: 60px; font-family: BACS"">EhbtbAMO</p>","","","","","","","","",""
"html-keyboard-response","240","443501","0.0-12.0-0.70","60e9ea97d19e613e60a994da","650c16f0f2faf8d7a0d14c09","651c1cb24ce33ee711075ac1","null","null","<p style=""font-size: 60px; font-family: BACS"">mARMCmYA</p>","","","","","","","","",""
"html-keyboard-response","241","444517","0.0-12.0-0.71","60e9ea97d19e613e60a994da","650c16f0f2faf8d7a0d14c09","651c1cb24ce33ee711075ac1","null","null","<p style=""font-size: 60px; font-family: BACS"">AmaclUdvY</p>","","","","","","","","",""
"html-keyboard-response","242","445521","0.0-12.0-0.72","60e9ea97d19e613e60a994da","650c16f0f2faf8d7a0d14c09","651c1cb24ce33ee711075ac1","null","null","<p style=""font-size: 60px; font-family: BACS"">OEPkKEdl</p>","","","","","","","","",""
"html-keyboard-response","243","446533","0.0-12.0-0.73","60e9ea97d19e613e60a994da","650c16f0f2faf8d7a0d14c09","651c1cb24ce33ee711075ac1","null","null","<p style=""font-size: 60px; font-family: BACS"">OAmAdCmYA</p>","","","","","","","","",""
"html-keyboard-response","244","447549","0.0-12.0-0.74","60e9ea97d19e613e60a994da","650c16f0f2faf8d7a0d14c09","651c1cb24ce33ee711075ac1","null","null","<p style=""font-size: 60px; font-family: BACS"">MDKPcthB</p>","","","","","","","","",""
"html-keyboard-response","245","448551","0.0-12.0-0.75","60e9ea97d19e613e60a994da","650c16f0f2faf8d7a0d14c09","651c1cb24ce33ee711075ac1","null","null","<p style=""font-size: 60px; font-family: BACS"">bGuOZAUu</p>","","","","","","","","",""
"html-keyboard-response","246","449566","0.0-12.0-0.76","60e9ea97d19e613e60a994da","650c16f0f2faf8d7a0d14c09","651c1cb24ce33ee711075ac1","null","null","<p style=""font-size: 60px; font-family: BACS"">lZcuYaum</p>","","","","","","","","",""
"html-keyboard-response","247","450567","0.0-12.0-0.77","60e9ea97d19e613e60a994da","650c16f0f2faf8d7a0d14c09","651c1cb24ce33ee711075ac1","null","null","<p style=""font-size: 60px; font-family: BACS"">EPMDkbAMO</p>","","","","","","","","",""
"html-keyboard-response","248","451570","0.0-12.0-0.78","60e9ea97d19e613e60a994da","650c16f0f2faf8d7a0d14c09","651c1cb24ce33ee711075ac1","null","null","<p style=""font-size: 60px; font-family: BACS"">AmaclLYGA</p>","","","","","","","","",""
"html-keyboard-response","249","452582","0.0-12.0-0.79","60e9ea97d19e613e60a994da","650c16f0f2faf8d7a0d14c09","651c1cb24ce33ee711075ac1","null","null","<p style=""font-size: 60px; font-family: BACS"">OAmAdOdOP</p>","","","","","","","","",""
"html-keyboard-response","250","520644","0.0-13.0","60e9ea97d19e613e60a994da","650c16f0f2faf8d7a0d14c09","651c1cb24ce33ee711075ac1","68062"," ","<p>Great, you've seen the third block of words. You may now take a short break.</p>
      <p>Press the spacebar when you're ready to continue.</p>","","","","","","","","",""
"html-keyboard-response","251","521647","0.0-14.0-0.0","60e9ea97d19e613e60a994da","650c16f0f2faf8d7a0d14c09","651c1cb24ce33ee711075ac1","null","null","<p style=""font-size: 60px; font-family: BACS"">bGuOLYGA</p>","","","","","","","","",""
"html-keyboard-response","252","522663","0.0-14.0-0.1","60e9ea97d19e613e60a994da","650c16f0f2faf8d7a0d14c09","651c1cb24ce33ee711075ac1","null","null","<p style=""font-size: 60px; font-family: BACS"">EPERdOdOP</p>","","","","","","","","",""
"html-keyboard-response","253","523678","0.0-14.0-0.2","60e9ea97d19e613e60a994da","650c16f0f2faf8d7a0d14c09","651c1cb24ce33ee711075ac1","null","null","<p style=""font-size: 60px; font-family: BACS"">vAarYaum</p>","","","","","","","","",""
"html-keyboard-response","254","524680","0.0-14.0-0.3","60e9ea97d19e613e60a994da","650c16f0f2faf8d7a0d14c09","651c1cb24ce33ee711075ac1","null","null","<p style=""font-size: 60px; font-family: BACS"">LdQvLYGA</p>","","","","","","","","",""
"html-keyboard-response","255","525695","0.0-14.0-0.4","60e9ea97d19e613e60a994da","650c16f0f2faf8d7a0d14c09","651c1cb24ce33ee711075ac1","null","null","<p style=""font-size: 60px; font-family: BACS"">QLrOJUdvY</p>","","","","","","","","",""
"html-keyboard-response","256","526711","0.0-14.0-0.5","60e9ea97d19e613e60a994da","650c16f0f2faf8d7a0d14c09","651c1cb24ce33ee711075ac1","null","null","<p style=""font-size: 60px; font-family: BACS"">MDKPOdOP</p>","","","","","","","","",""
"html-keyboard-response","257","527712","0.0-14.0-0.6","60e9ea97d19e613e60a994da","650c16f0f2faf8d7a0d14c09","651c1cb24ce33ee711075ac1","null","null","<p style=""font-size: 60px; font-family: BACS"">mARMCmYA</p>","","","","","","","","",""
"html-keyboard-response","258","528728","0.0-14.0-0.7","60e9ea97d19e613e60a994da","650c16f0f2faf8d7a0d14c09","651c1cb24ce33ee711075ac1","null","null","<p style=""font-size: 60px; font-family: BACS"">OAmGrYUYa</p>","","","","","","","","",""
"html-keyboard-response","259","529743","0.0-14.0-0.8","60e9ea97d19e613e60a994da","650c16f0f2faf8d7a0d14c09","651c1cb24ce33ee711075ac1","null","null","<p style=""font-size: 60px; font-family: BACS"">MDKPbAMO</p>","","","","","","","","",""
"html-keyboard-response","260","530759","0.0-14.0-0.9","60e9ea97d19e613e60a994da","650c16f0f2faf8d7a0d14c09","651c1cb24ce33ee711075ac1","null","null","<p style=""font-size: 60px; font-family: BACS"">AmaclLYGA</p>","","","","","","","","",""
"html-keyboard-response","261","531761","0.0-14.0-0.10","60e9ea97d19e613e60a994da","650c16f0f2faf8d7a0d14c09","651c1cb24ce33ee711075ac1","null","null","<p style=""font-size: 60px; font-family: BACS"">LdQvZAUu</p>","","","","","","","","",""
"html-keyboard-response","262","532776","0.0-14.0-0.11","60e9ea97d19e613e60a994da","650c16f0f2faf8d7a0d14c09","651c1cb24ce33ee711075ac1","null","null","<p style=""font-size: 60px; font-family: BACS"">lZcuYaum</p>","","","","","","","","",""
"html-keyboard-response","263","533778","0.0-14.0-0.12","60e9ea97d19e613e60a994da","650c16f0f2faf8d7a0d14c09","651c1cb24ce33ee711075ac1","null","null","<p style=""font-size: 60px; font-family: BACS"">bGuOYUYa</p>","","","","","","","","",""
"html-keyboard-response","264","534791","0.0-14.0-0.13","60e9ea97d19e613e60a994da","650c16f0f2faf8d7a0d14c09","651c1cb24ce33ee711075ac1","null","null","<p style=""font-size: 60px; font-family: BACS"">TdmAOdOP</p>","","","","","","","","",""
"html-keyboard-response","265","535793","0.0-14.0-0.14","60e9ea97d19e613e60a994da","650c16f0f2faf8d7a0d14c09","651c1cb24ce33ee711075ac1","null","null","<p style=""font-size: 60px; font-family: BACS"">OEPkKEdl</p>","","","","","","","","",""
"html-keyboard-response","266","536808","0.0-14.0-0.15","60e9ea97d19e613e60a994da","650c16f0f2faf8d7a0d14c09","651c1cb24ce33ee711075ac1","null","null","<p style=""font-size: 60px; font-family: BACS"">LdQvYUYa</p>","","","","","","","","",""
"html-keyboard-response","267","537810","0.0-14.0-0.16","60e9ea97d19e613e60a994da","650c16f0f2faf8d7a0d14c09","651c1cb24ce33ee711075ac1","null","null","<p style=""font-size: 60px; font-family: BACS"">MDKPcthB</p>","","","","","","","","",""
"html-keyboard-response","268","538824","0.0-14.0-0.17","60e9ea97d19e613e60a994da","650c16f0f2faf8d7a0d14c09","651c1cb24ce33ee711075ac1","null","null","<p style=""font-size: 60px; font-family: BACS"">EPERdCmYA</p>","","","","","","","","",""
"html-keyboard-response","269","539826","0.0-14.0-0.18","60e9ea97d19e613e60a994da","650c16f0f2faf8d7a0d14c09","651c1cb24ce33ee711075ac1","null","null","<p style=""font-size: 60px; font-family: BACS"">QLrOJLYGA</p>","","","","","","","","",""
"html-keyboard-response","270","540840","0.0-14.0-0.19","60e9ea97d19e613e60a994da","650c16f0f2faf8d7a0d14c09","651c1cb24ce33ee711075ac1","null","null","<p style=""font-size: 60px; font-family: BACS"">EhbtOdOP</p>","","","","","","","","",""
"html-keyboard-response","271","541842","0.0-14.0-0.20","60e9ea97d19e613e60a994da","650c16f0f2faf8d7a0d14c09","651c1cb24ce33ee711075ac1","null","null","<p style=""font-size: 60px; font-family: BACS"">vAarLYGA</p>","","","","","","","","",""
"html-keyboard-response","272","542856","0.0-14.0-0.21","60e9ea97d19e613e60a994da","650c16f0f2faf8d7a0d14c09","651c1cb24ce33ee711075ac1","null","null","<p style=""font-size: 60px; font-family: BACS"">EhbtcthB</p>","","","","","","","","",""
"html-keyboard-response","273","543858","0.0-14.0-0.22","60e9ea97d19e613e60a994da","650c16f0f2faf8d7a0d14c09","651c1cb24ce33ee711075ac1","null","null","<p style=""font-size: 60px; font-family: BACS"">AmaclUdvY</p>","","","","","","","","",""
"html-keyboard-response","274","544873","0.0-14.0-0.23","60e9ea97d19e613e60a994da","650c16f0f2faf8d7a0d14c09","651c1cb24ce33ee711075ac1","null","null","<p style=""font-size: 60px; font-family: BACS"">damYbYaum</p>","","","","","","","","",""
"html-keyboard-response","275","545874","0.0-14.0-0.24","60e9ea97d19e613e60a994da","650c16f0f2faf8d7a0d14c09","651c1cb24ce33ee711075ac1","null","null","<p style=""font-size: 60px; font-family: BACS"">BECkcthB</p>","","","","","","","","",""
"html-keyboard-response","276","546890","0.0-14.0-0.25","60e9ea97d19e613e60a994da","650c16f0f2faf8d7a0d14c09","651c1cb24ce33ee711075ac1","null","null","<p style=""font-size: 60px; font-family: BACS"">krUQLYGA</p>","","","","","","","","",""
"html-keyboard-response","277","547890","0.0-14.0-0.26","60e9ea97d19e613e60a994da","650c16f0f2faf8d7a0d14c09","651c1cb24ce33ee711075ac1","null","null","<p style=""font-size: 60px; font-family: BACS"">BECkbAMO</p>","","","","","","","","",""
"html-keyboard-response","278","548906","0.0-14.0-0.27","60e9ea97d19e613e60a994da","650c16f0f2faf8d7a0d14c09","651c1cb24ce33ee711075ac1","null","null","<p style=""font-size: 60px; font-family: BACS"">vAarUdvY</p>","","","","","","","","",""
"html-keyboard-response","279","549922","0.0-14.0-0.28","60e9ea97d19e613e60a994da","650c16f0f2faf8d7a0d14c09","651c1cb24ce33ee711075ac1","null","null","<p style=""font-size: 60px; font-family: BACS"">BECkOdOP</p>","","","","","","","","",""
"html-keyboard-response","280","550923","0.0-14.0-0.29","60e9ea97d19e613e60a994da","650c16f0f2faf8d7a0d14c09","651c1cb24ce33ee711075ac1","null","null","<p style=""font-size: 60px; font-family: BACS"">EPMDkKEdl</p>","","","","","","","","",""
"html-keyboard-response","281","551938","0.0-14.0-0.30","60e9ea97d19e613e60a994da","650c16f0f2faf8d7a0d14c09","651c1cb24ce33ee711075ac1","null","null","<p style=""font-size: 60px; font-family: BACS"">TdmAbAMO</p>","","","","","","","","",""
"html-keyboard-response","282","552955","0.0-14.0-0.31","60e9ea97d19e613e60a994da","650c16f0f2faf8d7a0d14c09","651c1cb24ce33ee711075ac1","null","null","<p style=""font-size: 60px; font-family: BACS"">vAarYUYa</p>","","","","","","","","",""
"html-keyboard-response","283","553955","0.0-14.0-0.32","60e9ea97d19e613e60a994da","650c16f0f2faf8d7a0d14c09","651c1cb24ce33ee711075ac1","null","null","<p style=""font-size: 60px; font-family: BACS"">kcCRtKEdl</p>","","","","","","","","",""
"html-keyboard-response","284","554971","0.0-14.0-0.33","60e9ea97d19e613e60a994da","650c16f0f2faf8d7a0d14c09","651c1cb24ce33ee711075ac1","null","null","<p style=""font-size: 60px; font-family: BACS"">damYbYUYa</p>","","","","","","","","",""
"html-keyboard-response","285","555972","0.0-14.0-0.34","60e9ea97d19e613e60a994da","650c16f0f2faf8d7a0d14c09","651c1cb24ce33ee711075ac1","null","null","<p style=""font-size: 60px; font-family: BACS"">TdmActhB</p>","","","","","","","","",""
"html-keyboard-response","286","556987","0.0-14.0-0.35","60e9ea97d19e613e60a994da","650c16f0f2faf8d7a0d14c09","651c1cb24ce33ee711075ac1","null","null","<p style=""font-size: 60px; font-family: BACS"">MDKPKEdl</p>","","","","","","","","",""
"html-keyboard-response","287","557994","0.0-14.0-0.36","60e9ea97d19e613e60a994da","650c16f0f2faf8d7a0d14c09","651c1cb24ce33ee711075ac1","null","null","<p style=""font-size: 60px; font-family: BACS"">ArQuLYGA</p>","","","","","","","","",""
"html-keyboard-response","288","559003","0.0-14.0-0.37","60e9ea97d19e613e60a994da","650c16f0f2faf8d7a0d14c09","651c1cb24ce33ee711075ac1","null","null","<p style=""font-size: 60px; font-family: BACS"">OAmAdKEdl</p>","","","","","","","","",""
"html-keyboard-response","289","560019","0.0-14.0-0.38","60e9ea97d19e613e60a994da","650c16f0f2faf8d7a0d14c09","651c1cb24ce33ee711075ac1","null","null","<p style=""font-size: 60px; font-family: BACS"">AmaclYaum</p>","","","","","","","","",""
"html-keyboard-response","290","561020","0.0-14.0-0.39","60e9ea97d19e613e60a994da","650c16f0f2faf8d7a0d14c09","651c1cb24ce33ee711075ac1","null","null","<p style=""font-size: 60px; font-family: BACS"">OAmGrZAUu</p>","","","","","","","","",""
"html-keyboard-response","291","562036","0.0-14.0-0.40","60e9ea97d19e613e60a994da","650c16f0f2faf8d7a0d14c09","651c1cb24ce33ee711075ac1","null","null","<p style=""font-size: 60px; font-family: BACS"">lZcuUdvY</p>","","","","","","","","",""
"html-keyboard-response","292","563052","0.0-14.0-0.41","60e9ea97d19e613e60a994da","650c16f0f2faf8d7a0d14c09","651c1cb24ce33ee711075ac1","null","null","<p style=""font-size: 60px; font-family: BACS"">kcCRtcthB</p>","","","","","","","","",""
"html-keyboard-response","293","564053","0.0-14.0-0.42","60e9ea97d19e613e60a994da","650c16f0f2faf8d7a0d14c09","651c1cb24ce33ee711075ac1","null","null","<p style=""font-size: 60px; font-family: BACS"">lZcuYUYa</p>","","","","","","","","",""
"html-keyboard-response","294","565068","0.0-14.0-0.43","60e9ea97d19e613e60a994da","650c16f0f2faf8d7a0d14c09","651c1cb24ce33ee711075ac1","null","null","<p style=""font-size: 60px; font-family: BACS"">mARMcthB</p>","","","","","","","","",""
"html-keyboard-response","295","566083","0.0-14.0-0.44","60e9ea97d19e613e60a994da","650c16f0f2faf8d7a0d14c09","651c1cb24ce33ee711075ac1","null","null","<p style=""font-size: 60px; font-family: BACS"">krUQUdvY</p>","","","","","","","","",""
"html-keyboard-response","296","567084","0.0-14.0-0.45","60e9ea97d19e613e60a994da","650c16f0f2faf8d7a0d14c09","651c1cb24ce33ee711075ac1","null","null","<p style=""font-size: 60px; font-family: BACS"">EPMDkcthB</p>","","","","","","","","",""
"html-keyboard-response","297","568101","0.0-14.0-0.46","60e9ea97d19e613e60a994da","650c16f0f2faf8d7a0d14c09","651c1cb24ce33ee711075ac1","null","null","<p style=""font-size: 60px; font-family: BACS"">OEPkbAMO</p>","","","","","","","","",""
"html-keyboard-response","298","569102","0.0-14.0-0.47","60e9ea97d19e613e60a994da","650c16f0f2faf8d7a0d14c09","651c1cb24ce33ee711075ac1","null","null","<p style=""font-size: 60px; font-family: BACS"">bGuOUdvY</p>","","","","","","","","",""
"html-keyboard-response","299","570117","0.0-14.0-0.48","60e9ea97d19e613e60a994da","650c16f0f2faf8d7a0d14c09","651c1cb24ce33ee711075ac1","null","null","<p style=""font-size: 60px; font-family: BACS"">EhbtKEdl</p>","","","","","","","","",""
"html-keyboard-response","300","571132","0.0-14.0-0.49","60e9ea97d19e613e60a994da","650c16f0f2faf8d7a0d14c09","651c1cb24ce33ee711075ac1","null","null","<p style=""font-size: 60px; font-family: BACS"">OAmAdOdOP</p>","","","","","","","","",""
"html-keyboard-response","301","572135","0.0-14.0-0.50","60e9ea97d19e613e60a994da","650c16f0f2faf8d7a0d14c09","651c1cb24ce33ee711075ac1","null","null","<p style=""font-size: 60px; font-family: BACS"">EPERdKEdl</p>","","","","","","","","",""
"html-keyboard-response","302","573149","0.0-14.0-0.51","60e9ea97d19e613e60a994da","650c16f0f2faf8d7a0d14c09","651c1cb24ce33ee711075ac1","null","null","<p style=""font-size: 60px; font-family: BACS"">kcCRtOdOP</p>","","","","","","","","",""
"html-keyboard-response","303","574150","0.0-14.0-0.52","60e9ea97d19e613e60a994da","650c16f0f2faf8d7a0d14c09","651c1cb24ce33ee711075ac1","null","null","<p style=""font-size: 60px; font-family: BACS"">BECkCmYA</p>","","","","","","","","",""
"html-keyboard-response","304","575165","0.0-14.0-0.53","60e9ea97d19e613e60a994da","650c16f0f2faf8d7a0d14c09","651c1cb24ce33ee711075ac1","null","null","<p style=""font-size: 60px; font-family: BACS"">EPMDkbAMO</p>","","","","","","","","",""
"html-keyboard-response","305","576166","0.0-14.0-0.54","60e9ea97d19e613e60a994da","650c16f0f2faf8d7a0d14c09","651c1cb24ce33ee711075ac1","null","null","<p style=""font-size: 60px; font-family: BACS"">LdQvUdvY</p>","","","","","","","","",""
"html-keyboard-response","306","577182","0.0-14.0-0.55","60e9ea97d19e613e60a994da","650c16f0f2faf8d7a0d14c09","651c1cb24ce33ee711075ac1","null","null","<p style=""font-size: 60px; font-family: BACS"">OAmGrYaum</p>","","","","","","","","",""
"html-keyboard-response","307","578197","0.0-14.0-0.56","60e9ea97d19e613e60a994da","650c16f0f2faf8d7a0d14c09","651c1cb24ce33ee711075ac1","null","null","<p style=""font-size: 60px; font-family: BACS"">damYbZAUu</p>","","","","","","","","",""
"html-keyboard-response","308","579199","0.0-14.0-0.57","60e9ea97d19e613e60a994da","650c16f0f2faf8d7a0d14c09","651c1cb24ce33ee711075ac1","null","null","<p style=""font-size: 60px; font-family: BACS"">krUQYUYa</p>","","","","","","","","",""
"html-keyboard-response","309","580214","0.0-14.0-0.58","60e9ea97d19e613e60a994da","650c16f0f2faf8d7a0d14c09","651c1cb24ce33ee711075ac1","null","null","<p style=""font-size: 60px; font-family: BACS"">mARMOdOP</p>","","","","","","","","",""
"html-keyboard-response","310","581216","0.0-14.0-0.59","60e9ea97d19e613e60a994da","650c16f0f2faf8d7a0d14c09","651c1cb24ce33ee711075ac1","null","null","<p style=""font-size: 60px; font-family: BACS"">QLrOJYaum</p>","","","","","","","","",""
"html-keyboard-response","311","582231","0.0-14.0-0.60","60e9ea97d19e613e60a994da","650c16f0f2faf8d7a0d14c09","651c1cb24ce33ee711075ac1","null","null","<p style=""font-size: 60px; font-family: BACS"">OEPkCmYA</p>","","","","","","","","",""
"html-keyboard-response","312","583247","0.0-14.0-0.61","60e9ea97d19e613e60a994da","650c16f0f2faf8d7a0d14c09","651c1cb24ce33ee711075ac1","null","null","<p style=""font-size: 60px; font-family: BACS"">krUQYaum</p>","","","","","","","","",""
"html-keyboard-response","313","584248","0.0-14.0-0.62","60e9ea97d19e613e60a994da","650c16f0f2faf8d7a0d14c09","651c1cb24ce33ee711075ac1","null","null","<p style=""font-size: 60px; font-family: BACS"">EPERdbAMO</p>","","","","","","","","",""
"html-keyboard-response","314","585264","0.0-14.0-0.63","60e9ea97d19e613e60a994da","650c16f0f2faf8d7a0d14c09","651c1cb24ce33ee711075ac1","null","null","<p style=""font-size: 60px; font-family: BACS"">OEPkcthB</p>","","","","","","","","",""
"html-keyboard-response","315","586265","0.0-14.0-0.64","60e9ea97d19e613e60a994da","650c16f0f2faf8d7a0d14c09","651c1cb24ce33ee711075ac1","null","null","<p style=""font-size: 60px; font-family: BACS"">mARMKEdl</p>","","","","","","","","",""
"html-keyboard-response","316","587280","0.0-14.0-0.65","60e9ea97d19e613e60a994da","650c16f0f2faf8d7a0d14c09","651c1cb24ce33ee711075ac1","null","null","<p style=""font-size: 60px; font-family: BACS"">lZcuZAUu</p>","","","","","","","","",""
"html-keyboard-response","317","588281","0.0-14.0-0.66","60e9ea97d19e613e60a994da","650c16f0f2faf8d7a0d14c09","651c1cb24ce33ee711075ac1","null","null","<p style=""font-size: 60px; font-family: BACS"">kcCRtCmYA</p>","","","","","","","","",""
"html-keyboard-response","318","589296","0.0-14.0-0.67","60e9ea97d19e613e60a994da","650c16f0f2faf8d7a0d14c09","651c1cb24ce33ee711075ac1","null","null","<p style=""font-size: 60px; font-family: BACS"">OAmAdbAMO</p>","","","","","","","","",""
"html-keyboard-response","319","590305","0.0-14.0-0.68","60e9ea97d19e613e60a994da","650c16f0f2faf8d7a0d14c09","651c1cb24ce33ee711075ac1","null","null","<p style=""font-size: 60px; font-family: BACS"">EPMDkCmYA</p>","","","","","","","","",""
"html-keyboard-response","320","591312","0.0-14.0-0.69","60e9ea97d19e613e60a994da","650c16f0f2faf8d7a0d14c09","651c1cb24ce33ee711075ac1","null","null","<p style=""font-size: 60px; font-family: BACS"">ArQuYaum</p>","","","","","","","","",""
"html-keyboard-response","321","592313","0.0-14.0-0.70","60e9ea97d19e613e60a994da","650c16f0f2faf8d7a0d14c09","651c1cb24ce33ee711075ac1","null","null","<p style=""font-size: 60px; font-family: BACS"">OAmAdCmYA</p>","","","","","","","","",""
"html-keyboard-response","322","593327","0.0-14.0-0.71","60e9ea97d19e613e60a994da","650c16f0f2faf8d7a0d14c09","651c1cb24ce33ee711075ac1","null","null","<p style=""font-size: 60px; font-family: BACS"">AmaclZAUu</p>","","","","","","","","",""
"html-keyboard-response","323","594329","0.0-14.0-0.72","60e9ea97d19e613e60a994da","650c16f0f2faf8d7a0d14c09","651c1cb24ce33ee711075ac1","null","null","<p style=""font-size: 60px; font-family: BACS"">TdmACmYA</p>","","","","","","","","",""
"html-keyboard-response","324","595344","0.0-14.0-0.73","60e9ea97d19e613e60a994da","650c16f0f2faf8d7a0d14c09","651c1cb24ce33ee711075ac1","null","null","<p style=""font-size: 60px; font-family: BACS"">EhbtbAMO</p>","","","","","","","","",""
"html-keyboard-response","325","596360","0.0-14.0-0.74","60e9ea97d19e613e60a994da","650c16f0f2faf8d7a0d14c09","651c1cb24ce33ee711075ac1","null","null","<p style=""font-size: 60px; font-family: BACS"">QLrOJZAUu</p>","","","","","","","","",""
"html-keyboard-response","326","597376","0.0-14.0-0.75","60e9ea97d19e613e60a994da","650c16f0f2faf8d7a0d14c09","651c1cb24ce33ee711075ac1","null","null","<p style=""font-size: 60px; font-family: BACS"">OAmGrLYGA</p>","","","","","","","","",""
"html-keyboard-response","327","598377","0.0-14.0-0.76","60e9ea97d19e613e60a994da","650c16f0f2faf8d7a0d14c09","651c1cb24ce33ee711075ac1","null","null","<p style=""font-size: 60px; font-family: BACS"">bGuOZAUu</p>","","","","","","","","",""
"html-keyboard-response","328","599393","0.0-14.0-0.77","60e9ea97d19e613e60a994da","650c16f0f2faf8d7a0d14c09","651c1cb24ce33ee711075ac1","null","null","<p style=""font-size: 60px; font-family: BACS"">ArQuYUYa</p>","","","","","","","","",""
"html-keyboard-response","329","600394","0.0-14.0-0.78","60e9ea97d19e613e60a994da","650c16f0f2faf8d7a0d14c09","651c1cb24ce33ee711075ac1","null","null","<p style=""font-size: 60px; font-family: BACS"">damYbUdvY</p>","","","","","","","","",""
"html-keyboard-response","330","601409","0.0-14.0-0.79","60e9ea97d19e613e60a994da","650c16f0f2faf8d7a0d14c09","651c1cb24ce33ee711075ac1","null","null","<p style=""font-size: 60px; font-family: BACS"">ArQuZAUu</p>","","","","","","","","",""
"html-keyboard-response","331","711831","0.0-15.0","60e9ea97d19e613e60a994da","650c16f0f2faf8d7a0d14c09","651c1cb24ce33ee711075ac1","110429"," ","<p>Great, you've seen the fourth block of words. You may now take a short break.</p>
      <p>Press the spacebar when you're ready to continue.</p>","","","","","","","","",""
"html-keyboard-response","332","712839","0.0-16.0-0.0","60e9ea97d19e613e60a994da","650c16f0f2faf8d7a0d14c09","651c1cb24ce33ee711075ac1","null","null","<p style=""font-size: 60px; font-family: BACS"">kcCRtKEdl</p>","","","","","","","","",""
"html-keyboard-response","333","713852","0.0-16.0-0.1","60e9ea97d19e613e60a994da","650c16f0f2faf8d7a0d14c09","651c1cb24ce33ee711075ac1","null","null","<p style=""font-size: 60px; font-family: BACS"">kcCRtKEdl</p>","","","","","","","","",""
"html-keyboard-response","334","714857","0.0-16.0-0.2","60e9ea97d19e613e60a994da","650c16f0f2faf8d7a0d14c09","651c1cb24ce33ee711075ac1","null","null","<p style=""font-size: 60px; font-family: BACS"">kcCRtKEdl</p>","","","","","","","","",""
"html-keyboard-response","335","715872","0.0-16.0-0.3","60e9ea97d19e613e60a994da","650c16f0f2faf8d7a0d14c09","651c1cb24ce33ee711075ac1","null","null","<p style=""font-size: 60px; font-family: BACS"">kcCRtKEdl</p>","","","","","","","","",""
"html-keyboard-response","336","716888","0.0-16.0-0.4","60e9ea97d19e613e60a994da","650c16f0f2faf8d7a0d14c09","651c1cb24ce33ee711075ac1","null","null","<p style=""font-size: 60px; font-family: BACS"">kcCRtKEdl</p>","","","","","","","","",""
"html-keyboard-response","337","717889","0.0-16.0-0.5","60e9ea97d19e613e60a994da","650c16f0f2faf8d7a0d14c09","651c1cb24ce33ee711075ac1","null","null","<p style=""font-size: 60px; font-family: BACS"">kcCRtKEdl</p>","","","","","","","","",""
"html-keyboard-response","338","718904","0.0-16.0-0.6","60e9ea97d19e613e60a994da","650c16f0f2faf8d7a0d14c09","651c1cb24ce33ee711075ac1","null","null","<p style=""font-size: 60px; font-family: BACS"">kcCRtKEdl</p>","","","","","","","","",""
"html-keyboard-response","339","719920","0.0-16.0-0.7","60e9ea97d19e613e60a994da","650c16f0f2faf8d7a0d14c09","651c1cb24ce33ee711075ac1","null","null","<p style=""font-size: 60px; font-family: BACS"">kcCRtKEdl</p>","","","","","","","","",""
"html-keyboard-response","340","720922","0.0-16.0-0.8","60e9ea97d19e613e60a994da","650c16f0f2faf8d7a0d14c09","651c1cb24ce33ee711075ac1","null","null","<p style=""font-size: 60px; font-family: BACS"">kcCRtKEdl</p>","","","","","","","","",""
"html-keyboard-response","341","721937","0.0-16.0-0.9","60e9ea97d19e613e60a994da","650c16f0f2faf8d7a0d14c09","651c1cb24ce33ee711075ac1","null","null","<p style=""font-size: 60px; font-family: BACS"">kcCRtKEdl</p>","","","","","","","","",""
"html-keyboard-response","342","722953","0.0-16.0-0.10","60e9ea97d19e613e60a994da","650c16f0f2faf8d7a0d14c09","651c1cb24ce33ee711075ac1","null","null","<p style=""font-size: 60px; font-family: BACS"">kcCRtKEdl</p>","","","","","","","","",""
"html-keyboard-response","343","723969","0.0-16.0-0.11","60e9ea97d19e613e60a994da","650c16f0f2faf8d7a0d14c09","651c1cb24ce33ee711075ac1","null","null","<p style=""font-size: 60px; font-family: BACS"">kcCRtKEdl</p>","","","","","","","","",""
"html-keyboard-response","344","724970","0.0-16.0-0.12","60e9ea97d19e613e60a994da","650c16f0f2faf8d7a0d14c09","651c1cb24ce33ee711075ac1","null","null","<p style=""font-size: 60px; font-family: BACS"">kcCRtKEdl</p>","","","","","","","","",""
"html-keyboard-response","345","725986","0.0-16.0-0.13","60e9ea97d19e613e60a994da","650c16f0f2faf8d7a0d14c09","651c1cb24ce33ee711075ac1","null","null","<p style=""font-size: 60px; font-family: BACS"">kcCRtKEdl</p>","","","","","","","","",""
"html-keyboard-response","346","727001","0.0-16.0-0.14","60e9ea97d19e613e60a994da","650c16f0f2faf8d7a0d14c09","651c1cb24ce33ee711075ac1","null","null","<p style=""font-size: 60px; font-family: BACS"">kcCRtKEdl</p>","","","","","","","","",""
"html-keyboard-response","347","728003","0.0-16.0-0.15","60e9ea97d19e613e60a994da","650c16f0f2faf8d7a0d14c09","651c1cb24ce33ee711075ac1","null","null","<p style=""font-size: 60px; font-family: BACS"">kcCRtKEdl</p>","","","","","","","","",""
"html-keyboard-response","348","729009","0.0-16.0-0.16","60e9ea97d19e613e60a994da","650c16f0f2faf8d7a0d14c09","651c1cb24ce33ee711075ac1","null","null","<p style=""font-size: 60px; font-family: BACS"">kcCRtKEdl</p>","","","","","","","","",""
"html-keyboard-response","349","730018","0.0-16.0-0.17","60e9ea97d19e613e60a994da","650c16f0f2faf8d7a0d14c09","651c1cb24ce33ee711075ac1","null","null","<p style=""font-size: 60px; font-family: BACS"">kcCRtKEdl</p>","","","","","","","","",""
"html-keyboard-response","350","731019","0.0-16.0-0.18","60e9ea97d19e613e60a994da","650c16f0f2faf8d7a0d14c09","651c1cb24ce33ee711075ac1","null","null","<p style=""font-size: 60px; font-family: BACS"">kcCRtKEdl</p>","","","","","","","","",""
"html-keyboard-response","351","732034","0.0-16.0-0.19","60e9ea97d19e613e60a994da","650c16f0f2faf8d7a0d14c09","651c1cb24ce33ee711075ac1","null","null","<p style=""font-size: 60px; font-family: BACS"">kcCRtKEdl</p>","","","","","","","","",""
"html-keyboard-response","352","733035","0.0-16.0-0.20","60e9ea97d19e613e60a994da","650c16f0f2faf8d7a0d14c09","651c1cb24ce33ee711075ac1","null","null","<p style=""font-size: 60px; font-family: BACS"">kcCRtKEdl</p>","","","","","","","","",""
"html-keyboard-response","353","734039","0.0-16.0-0.21","60e9ea97d19e613e60a994da","650c16f0f2faf8d7a0d14c09","651c1cb24ce33ee711075ac1","null","null","<p style=""font-size: 60px; font-family: BACS"">kcCRtKEdl</p>","","","","","","","","",""
"html-keyboard-response","354","735050","0.0-16.0-0.22","60e9ea97d19e613e60a994da","650c16f0f2faf8d7a0d14c09","651c1cb24ce33ee711075ac1","null","null","<p style=""font-size: 60px; font-family: BACS"">kcCRtKEdl</p>","","","","","","","","",""
"html-keyboard-response","355","736066","0.0-16.0-0.23","60e9ea97d19e613e60a994da","650c16f0f2faf8d7a0d14c09","651c1cb24ce33ee711075ac1","null","null","<p style=""font-size: 60px; font-family: BACS"">kcCRtKEdl</p>","","","","","","","","",""
"html-keyboard-response","356","737067","0.0-16.0-0.24","60e9ea97d19e613e60a994da","650c16f0f2faf8d7a0d14c09","651c1cb24ce33ee711075ac1","null","null","<p style=""font-size: 60px; font-family: BACS"">kcCRtKEdl</p>","","","","","","","","",""
"html-keyboard-response","357","738082","0.0-16.0-0.25","60e9ea97d19e613e60a994da","650c16f0f2faf8d7a0d14c09","651c1cb24ce33ee711075ac1","null","null","<p style=""font-size: 60px; font-family: BACS"">kcCRtKEdl</p>","","","","","","","","",""
"html-keyboard-response","358","739083","0.0-16.0-0.26","60e9ea97d19e613e60a994da","650c16f0f2faf8d7a0d14c09","651c1cb24ce33ee711075ac1","null","null","<p style=""font-size: 60px; font-family: BACS"">kcCRtKEdl</p>","","","","","","","","",""
"html-keyboard-response","359","740099","0.0-16.0-0.27","60e9ea97d19e613e60a994da","650c16f0f2faf8d7a0d14c09","651c1cb24ce33ee711075ac1","null","null","<p style=""font-size: 60px; font-family: BACS"">kcCRtKEdl</p>","","","","","","","","",""
"html-keyboard-response","360","741100","0.0-16.0-0.28","60e9ea97d19e613e60a994da","650c16f0f2faf8d7a0d14c09","651c1cb24ce33ee711075ac1","null","null","<p style=""font-size: 60px; font-family: BACS"">kcCRtKEdl</p>","","","","","","","","",""
"html-keyboard-response","361","742113","0.0-16.0-0.29","60e9ea97d19e613e60a994da","650c16f0f2faf8d7a0d14c09","651c1cb24ce33ee711075ac1","null","null","<p style=""font-size: 60px; font-family: BACS"">kcCRtKEdl</p>","","","","","","","","",""
"html-keyboard-response","362","743115","0.0-16.0-0.30","60e9ea97d19e613e60a994da","650c16f0f2faf8d7a0d14c09","651c1cb24ce33ee711075ac1","null","null","<p style=""font-size: 60px; font-family: BACS"">kcCRtKEdl</p>","","","","","","","","",""
"html-keyboard-response","363","744131","0.0-16.0-0.31","60e9ea97d19e613e60a994da","650c16f0f2faf8d7a0d14c09","651c1cb24ce33ee711075ac1","null","null","<p style=""font-size: 60px; font-family: BACS"">kcCRtKEdl</p>","","","","","","","","",""
"html-keyboard-response","364","745146","0.0-16.0-0.32","60e9ea97d19e613e60a994da","650c16f0f2faf8d7a0d14c09","651c1cb24ce33ee711075ac1","null","null","<p style=""font-size: 60px; font-family: BACS"">kcCRtKEdl</p>","","","","","","","","",""
"html-keyboard-response","365","746148","0.0-16.0-0.33","60e9ea97d19e613e60a994da","650c16f0f2faf8d7a0d14c09","651c1cb24ce33ee711075ac1","null","null","<p style=""font-size: 60px; font-family: BACS"">kcCRtKEdl</p>","","","","","","","","",""
"html-keyboard-response","366","747163","0.0-16.0-0.34","60e9ea97d19e613e60a994da","650c16f0f2faf8d7a0d14c09","651c1cb24ce33ee711075ac1","null","null","<p style=""font-size: 60px; font-family: BACS"">kcCRtKEdl</p>","","","","","","","","",""
"html-keyboard-response","367","748164","0.0-16.0-0.35","60e9ea97d19e613e60a994da","650c16f0f2faf8d7a0d14c09","651c1cb24ce33ee711075ac1","null","null","<p style=""font-size: 60px; font-family: BACS"">kcCRtKEdl</p>","","","","","","","","",""
"html-keyboard-response","368","749179","0.0-16.0-0.36","60e9ea97d19e613e60a994da","650c16f0f2faf8d7a0d14c09","651c1cb24ce33ee711075ac1","null","null","<p style=""font-size: 60px; font-family: BACS"">kcCRtKEdl</p>","","","","","","","","",""
"html-keyboard-response","369","750195","0.0-16.0-0.37","60e9ea97d19e613e60a994da","650c16f0f2faf8d7a0d14c09","651c1cb24ce33ee711075ac1","null","null","<p style=""font-size: 60px; font-family: BACS"">kcCRtKEdl</p>","","","","","","","","",""
"html-keyboard-response","370","751196","0.0-16.0-0.38","60e9ea97d19e613e60a994da","650c16f0f2faf8d7a0d14c09","651c1cb24ce33ee711075ac1","null","null","<p style=""font-size: 60px; font-family: BACS"">kcCRtKEdl</p>","","","","","","","","",""
"html-keyboard-response","371","752212","0.0-16.0-0.39","60e9ea97d19e613e60a994da","650c16f0f2faf8d7a0d14c09","651c1cb24ce33ee711075ac1","null","null","<p style=""font-size: 60px; font-family: BACS"">kcCRtKEdl</p>","","","","","","","","",""
"html-keyboard-response","372","753213","0.0-16.0-0.40","60e9ea97d19e613e60a994da","650c16f0f2faf8d7a0d14c09","651c1cb24ce33ee711075ac1","null","null","<p style=""font-size: 60px; font-family: BACS"">kcCRtKEdl</p>","","","","","","","","",""
"html-keyboard-response","373","754228","0.0-16.0-0.41","60e9ea97d19e613e60a994da","650c16f0f2faf8d7a0d14c09","651c1cb24ce33ee711075ac1","null","null","<p style=""font-size: 60px; font-family: BACS"">kcCRtKEdl</p>","","","","","","","","",""
"html-keyboard-response","374","755245","0.0-16.0-0.42","60e9ea97d19e613e60a994da","650c16f0f2faf8d7a0d14c09","651c1cb24ce33ee711075ac1","null","null","<p style=""font-size: 60px; font-family: BACS"">kcCRtKEdl</p>","","","","","","","","",""
"html-keyboard-response","375","756246","0.0-16.0-0.43","60e9ea97d19e613e60a994da","650c16f0f2faf8d7a0d14c09","651c1cb24ce33ee711075ac1","null","null","<p style=""font-size: 60px; font-family: BACS"">kcCRtKEdl</p>","","","","","","","","",""
"html-keyboard-response","376","757260","0.0-16.0-0.44","60e9ea97d19e613e60a994da","650c16f0f2faf8d7a0d14c09","651c1cb24ce33ee711075ac1","null","null","<p style=""font-size: 60px; font-family: BACS"">kcCRtKEdl</p>","","","","","","","","",""
"html-keyboard-response","377","758261","0.0-16.0-0.45","60e9ea97d19e613e60a994da","650c16f0f2faf8d7a0d14c09","651c1cb24ce33ee711075ac1","null","null","<p style=""font-size: 60px; font-family: BACS"">kcCRtKEdl</p>","","","","","","","","",""
"html-keyboard-response","378","759277","0.0-16.0-0.46","60e9ea97d19e613e60a994da","650c16f0f2faf8d7a0d14c09","651c1cb24ce33ee711075ac1","null","null","<p style=""font-size: 60px; font-family: BACS"">kcCRtKEdl</p>","","","","","","","","",""
"html-keyboard-response","379","760292","0.0-16.0-0.47","60e9ea97d19e613e60a994da","650c16f0f2faf8d7a0d14c09","651c1cb24ce33ee711075ac1","null","null","<p style=""font-size: 60px; font-family: BACS"">kcCRtKEdl</p>","","","","","","","","",""
"html-keyboard-response","380","761294","0.0-16.0-0.48","60e9ea97d19e613e60a994da","650c16f0f2faf8d7a0d14c09","651c1cb24ce33ee711075ac1","null","null","<p style=""font-size: 60px; font-family: BACS"">kcCRtKEdl</p>","","","","","","","","",""
"html-keyboard-response","381","762297","0.0-16.0-0.49","60e9ea97d19e613e60a994da","650c16f0f2faf8d7a0d14c09","651c1cb24ce33ee711075ac1","null","null","<p style=""font-size: 60px; font-family: BACS"">kcCRtKEdl</p>","","","","","","","","",""
"html-keyboard-response","382","763309","0.0-16.0-0.50","60e9ea97d19e613e60a994da","650c16f0f2faf8d7a0d14c09","651c1cb24ce33ee711075ac1","null","null","<p style=""font-size: 60px; font-family: BACS"">kcCRtKEdl</p>","","","","","","","","",""
"html-keyboard-response","383","764310","0.0-16.0-0.51","60e9ea97d19e613e60a994da","650c16f0f2faf8d7a0d14c09","651c1cb24ce33ee711075ac1","null","null","<p style=""font-size: 60px; font-family: BACS"">kcCRtKEdl</p>","","","","","","","","",""
"html-keyboard-response","384","765325","0.0-16.0-0.52","60e9ea97d19e613e60a994da","650c16f0f2faf8d7a0d14c09","651c1cb24ce33ee711075ac1","null","null","<p style=""font-size: 60px; font-family: BACS"">kcCRtKEdl</p>","","","","","","","","",""
"html-keyboard-response","385","766342","0.0-16.0-0.53","60e9ea97d19e613e60a994da","650c16f0f2faf8d7a0d14c09","651c1cb24ce33ee711075ac1","null","null","<p style=""font-size: 60px; font-family: BACS"">kcCRtKEdl</p>","","","","","","","","",""
"html-keyboard-response","386","767343","0.0-16.0-0.54","60e9ea97d19e613e60a994da","650c16f0f2faf8d7a0d14c09","651c1cb24ce33ee711075ac1","null","null","<p style=""font-size: 60px; font-family: BACS"">kcCRtKEdl</p>","","","","","","","","",""
"html-keyboard-response","387","768358","0.0-16.0-0.55","60e9ea97d19e613e60a994da","650c16f0f2faf8d7a0d14c09","651c1cb24ce33ee711075ac1","null","null","<p style=""font-size: 60px; font-family: BACS"">kcCRtKEdl</p>","","","","","","","","",""
"html-keyboard-response","388","769374","0.0-16.0-0.56","60e9ea97d19e613e60a994da","650c16f0f2faf8d7a0d14c09","651c1cb24ce33ee711075ac1","null","null","<p style=""font-size: 60px; font-family: BACS"">kcCRtKEdl</p>","","","","","","","","",""
"html-keyboard-response","389","770391","0.0-16.0-0.57","60e9ea97d19e613e60a994da","650c16f0f2faf8d7a0d14c09","651c1cb24ce33ee711075ac1","null","null","<p style=""font-size: 60px; font-family: BACS"">kcCRtKEdl</p>","","","","","","","","",""
"html-keyboard-response","390","771392","0.0-16.0-0.58","60e9ea97d19e613e60a994da","650c16f0f2faf8d7a0d14c09","651c1cb24ce33ee711075ac1","null","null","<p style=""font-size: 60px; font-family: BACS"">kcCRtKEdl</p>","","","","","","","","",""
"html-keyboard-response","391","772413","0.0-16.0-0.59","60e9ea97d19e613e60a994da","650c16f0f2faf8d7a0d14c09","651c1cb24ce33ee711075ac1","null","null","<p style=""font-size: 60px; font-family: BACS"">kcCRtKEdl</p>","","","","","","","","",""
"html-keyboard-response","392","773415","0.0-16.0-0.60","60e9ea97d19e613e60a994da","650c16f0f2faf8d7a0d14c09","651c1cb24ce33ee711075ac1","null","null","<p style=""font-size: 60px; font-family: BACS"">kcCRtKEdl</p>","","","","","","","","",""
"html-keyboard-response","393","774431","0.0-16.0-0.61","60e9ea97d19e613e60a994da","650c16f0f2faf8d7a0d14c09","651c1cb24ce33ee711075ac1","null","null","<p style=""font-size: 60px; font-family: BACS"">kcCRtKEdl</p>","","","","","","","","",""
"html-keyboard-response","394","775447","0.0-16.0-0.62","60e9ea97d19e613e60a994da","650c16f0f2faf8d7a0d14c09","651c1cb24ce33ee711075ac1","null","null","<p style=""font-size: 60px; font-family: BACS"">kcCRtKEdl</p>","","","","","","","","",""
"html-keyboard-response","395","776448","0.0-16.0-0.63","60e9ea97d19e613e60a994da","650c16f0f2faf8d7a0d14c09","651c1cb24ce33ee711075ac1","null","null","<p style=""font-size: 60px; font-family: BACS"">kcCRtKEdl</p>","","","","","","","","",""
"html-keyboard-response","396","777463","0.0-16.0-0.64","60e9ea97d19e613e60a994da","650c16f0f2faf8d7a0d14c09","651c1cb24ce33ee711075ac1","null","null","<p style=""font-size: 60px; font-family: BACS"">kcCRtKEdl</p>","","","","","","","","",""
"html-keyboard-response","397","778464","0.0-16.0-0.65","60e9ea97d19e613e60a994da","650c16f0f2faf8d7a0d14c09","651c1cb24ce33ee711075ac1","null","null","<p style=""font-size: 60px; font-family: BACS"">kcCRtKEdl</p>","","","","","","","","",""
