"trial_type","trial_index","time_elapsed","internal_node_id","subject_id","study_id","session_id","rt","response","stimulus","success","item","task","correct_response","testing_condition","correct","target","confound","name","view_history"
"pavlovia","0","868","0.0-0.0","5f784f5b98f4963cdf902340","650c16f0f2faf8d7a0d14c09","651c1e8d439ec71e9de1f152","","","","","","","","","","","","",""
"survey-html-form","1","7871","0.0-1.0","5f784f5b98f4963cdf902340","650c16f0f2faf8d7a0d14c09","651c1e8d439ec71e9de1f152","7001","{""ID"":""5f784f5b98f4963cdf902340""}","","","","","","","","","","",""
"html-keyboard-response","2","18953","0.0-2.0","5f784f5b98f4963cdf902340","650c16f0f2faf8d7a0d14c09","651c1e8d439ec71e9de1f152","11080"," ","<p style=""font-size: 15px;"">Before beginning, we ask that you read the consent information and confirm your agreement to participate in the experiment.</p>
      <p style=""font-size: 15px;""> We ask that you remember that this is a research project and that your participation is entirely voluntary. You can stop your participation at any time, without needing to provide any explanation. The study we're asking you to participate in aims at examining how readers process written words. You will be engaged in a session of apprximately 20 minutes, followed by a brief questionnaire. You will have the opportunity to take a few breaks during the experiment. You will be paid £4 for your participation, corresponding to a rate of £8/hour. While this experiment looks at cognitive faculties, this experiment doesn't constitute clinical proof of eventual pathologies.</p>
      <p style=""font-size: 15px;"">All of the information collected thanks to yours and others' participation will be held in a secure password-protected server, and will not be shared with anyone not authorised to view it. Your personal information will be kept with an arbitrary participant ID. Thanks to this data anonymity process, any researcher analysing the data won't be able to track the information back to a specific participant. Therefore, this process will make identifying you impossibile, even when results from the study will be published in scientific reviews, presented at congresses, or at any other public forum. More generally, the collected data will be treated in accordance with the laws on privacy and conformity to the Legislative Degree n. 196 ""Code regarding the protection of personal data"" of the 30th of June 2003 and to the European Regulation 2016/670 (General Data Protection Regulation - GDPR). The Data Protection Officer is Avv. Valentina Carollo, who can be contacted at the following email addresses: <a href=""mailto:dpo@sissa.it"">dpo@sissa.it</a> or <a href=""mailto:rpd@sissa.it"">rpd@sissa.it</a> - PEC: <a href=""mailto:protocollo@pec.sissa.it"">protocollo@pec.sissa.it</a>.</p>
      <p style=""font-size: 15px;""> Before expressing your consent to participate, we would like to remind you again that in case you need explanations on any aspect of the experimental procedure, the researcher is at your disposition (<a href=""mailto:aliebelt@sissa.it"">aliebelt@sissa.it</a>, <a href=""mailto:davide.crepaldi@sissa.it"">davide.crepaldi@sissa.it</a>).</p>
      <p style=""font-size: 15px;"">If you would like to download the informed consent form, you can do so here: <a href=""BASL-Informed_Consent.pdf"" download>informed consent form</a>.</p>
      <p style=""font-size: 15px;"">We ask that you press the spacebar to proceed to the consent section.</p>","","","","","","","","","",""
"survey-html-form","3","43684","0.0-3.0","5f784f5b98f4963cdf902340","650c16f0f2faf8d7a0d14c09","651c1e8d439ec71e9de1f152","24730","{""consent1"":""YES"",""consent2"":""YES"",""consent3"":""YES"",""consent4"":""YES"",""consent5"":""YES"",""consent6"":""YES""}","","","","","","","","","","",""
"fullscreen","4","50005","0.0-4.0","5f784f5b98f4963cdf902340","650c16f0f2faf8d7a0d14c09","651c1e8d439ec71e9de1f152","","","","true","","","","","","","","",""
"html-keyboard-response","5","70462","0.0-5.0","5f784f5b98f4963cdf902340","650c16f0f2faf8d7a0d14c09","651c1e8d439ec71e9de1f152","20456"," ","<p>Welcome, and thank you very much for your time!</p>
      <p>In this experiment, you'll be a language expert who's been asked to take a look at words that Earth has received in its first communication with aliens. Your task, in this first part of the experiment, is to pay close attention to the words you'll be shown; later, world leaders will ask you questions on what you saw. The words will be shown to you quite quickly; it seems that the aliens were in a hurry :-)</p>
      <p>Press the spacebar to continue.<p>","","","","","","","","","",""
"html-keyboard-response","6","70520","0.0-6.0","5f784f5b98f4963cdf902340","650c16f0f2faf8d7a0d14c09","651c1e8d439ec71e9de1f152","null","null","<p style=""font-size: 120px; font-family: BACS""> </p>","","","","","","","","","",""
"html-keyboard-response","7","74986","0.0-7.0","5f784f5b98f4963cdf902340","650c16f0f2faf8d7a0d14c09","651c1e8d439ec71e9de1f152","4465"," ","<p>Here is an example of the words you'll see:</p>
      <img src='esempio.png' height='400px'>
      <p>When you're ready to begin, press the spacebar.</p></div>","","","","","","","","","",""
"html-keyboard-response","8","75990","0.0-8.0-0.0","5f784f5b98f4963cdf902340","650c16f0f2faf8d7a0d14c09","651c1e8d439ec71e9de1f152","null","null","<p style=""font-size: 60px; font-family: BACS"">RhPmYDTk</p>","","","","","","","","","",""
"html-keyboard-response","9","77006","0.0-8.0-0.1","5f784f5b98f4963cdf902340","650c16f0f2faf8d7a0d14c09","651c1e8d439ec71e9de1f152","null","null","<p style=""font-size: 60px; font-family: BACS"">vclYkam</p>","","","","","","","","","",""
"html-keyboard-response","10","78021","0.0-8.0-0.2","5f784f5b98f4963cdf902340","650c16f0f2faf8d7a0d14c09","651c1e8d439ec71e9de1f152","null","null","<p style=""font-size: 60px; font-family: BACS"">vblrQONk</p>","","","","","","","","","",""
"html-keyboard-response","11","79034","0.0-8.0-0.3","5f784f5b98f4963cdf902340","650c16f0f2faf8d7a0d14c09","651c1e8d439ec71e9de1f152","null","null","<p style=""font-size: 60px; font-family: BACS"">ObZbALcO</p>","","","","","","","","","",""
"html-keyboard-response","12","80050","0.0-8.0-0.4","5f784f5b98f4963cdf902340","650c16f0f2faf8d7a0d14c09","651c1e8d439ec71e9de1f152","null","null","<p style=""font-size: 60px; font-family: BACS"">bmdABMAB</p>","","","","","","","","","",""
"html-keyboard-response","13","81061","0.0-8.0-0.5","5f784f5b98f4963cdf902340","650c16f0f2faf8d7a0d14c09","651c1e8d439ec71e9de1f152","null","null","<p style=""font-size: 60px; font-family: BACS"">OEPkYcM</p>","","","","","","","","","",""
"html-keyboard-response","14","82073","0.0-8.0-0.6","5f784f5b98f4963cdf902340","650c16f0f2faf8d7a0d14c09","651c1e8d439ec71e9de1f152","null","null","<p style=""font-size: 60px; font-family: BACS"">JrGvmkc</p>","","","","","","","","","",""
"html-keyboard-response","15","83084","0.0-8.0-0.7","5f784f5b98f4963cdf902340","650c16f0f2faf8d7a0d14c09","651c1e8d439ec71e9de1f152","null","null","<p style=""font-size: 60px; font-family: BACS"">uvaULcO</p>","","","","","","","","","",""
"html-keyboard-response","16","84091","0.0-8.0-0.8","5f784f5b98f4963cdf902340","650c16f0f2faf8d7a0d14c09","651c1e8d439ec71e9de1f152","null","null","<p style=""font-size: 60px; font-family: BACS"">NvuGrmkc</p>","","","","","","","","","",""
"html-keyboard-response","17","85101","0.0-8.0-0.9","5f784f5b98f4963cdf902340","650c16f0f2faf8d7a0d14c09","651c1e8d439ec71e9de1f152","null","null","<p style=""font-size: 60px; font-family: BACS"">TDKhYcM</p>","","","","","","","","","",""
"html-keyboard-response","18","86112","0.0-8.0-0.10","5f784f5b98f4963cdf902340","650c16f0f2faf8d7a0d14c09","651c1e8d439ec71e9de1f152","null","null","<p style=""font-size: 60px; font-family: BACS"">NQZvGrbk</p>","","","","","","","","","",""
"html-keyboard-response","19","87125","0.0-8.0-0.11","5f784f5b98f4963cdf902340","650c16f0f2faf8d7a0d14c09","651c1e8d439ec71e9de1f152","null","null","<p style=""font-size: 60px; font-family: BACS"">cDOEBtcB</p>","","","","","","","","","",""
"html-keyboard-response","20","88130","0.0-8.0-0.12","5f784f5b98f4963cdf902340","650c16f0f2faf8d7a0d14c09","651c1e8d439ec71e9de1f152","null","null","<p style=""font-size: 60px; font-family: BACS"">vclYmkc</p>","","","","","","","","","",""
"html-keyboard-response","21","89131","0.0-8.0-0.13","5f784f5b98f4963cdf902340","650c16f0f2faf8d7a0d14c09","651c1e8d439ec71e9de1f152","null","null","<p style=""font-size: 60px; font-family: BACS"">RhPmMAB</p>","","","","","","","","","",""
"html-keyboard-response","22","90132","0.0-8.0-0.14","5f784f5b98f4963cdf902340","650c16f0f2faf8d7a0d14c09","651c1e8d439ec71e9de1f152","null","null","<p style=""font-size: 60px; font-family: BACS"">ODBDAYcM</p>","","","","","","","","","",""
"html-keyboard-response","23","91138","0.0-8.0-0.15","5f784f5b98f4963cdf902340","650c16f0f2faf8d7a0d14c09","651c1e8d439ec71e9de1f152","null","null","<p style=""font-size: 60px; font-family: BACS"">vclYGrbk</p>","","","","","","","","","",""
"html-keyboard-response","24","92147","0.0-8.0-0.16","5f784f5b98f4963cdf902340","650c16f0f2faf8d7a0d14c09","651c1e8d439ec71e9de1f152","null","null","<p style=""font-size: 60px; font-family: BACS"">mbZlkam</p>","","","","","","","","","",""
"html-keyboard-response","25","93164","0.0-8.0-0.17","5f784f5b98f4963cdf902340","650c16f0f2faf8d7a0d14c09","651c1e8d439ec71e9de1f152","null","null","<p style=""font-size: 60px; font-family: BACS"">NQZvLcO</p>","","","","","","","","","",""
"html-keyboard-response","26","94177","0.0-8.0-0.18","5f784f5b98f4963cdf902340","650c16f0f2faf8d7a0d14c09","651c1e8d439ec71e9de1f152","null","null","<p style=""font-size: 60px; font-family: BACS"">JrGvkam</p>","","","","","","","","","",""
"html-keyboard-response","27","95193","0.0-8.0-0.19","5f784f5b98f4963cdf902340","650c16f0f2faf8d7a0d14c09","651c1e8d439ec71e9de1f152","null","null","<p style=""font-size: 60px; font-family: BACS"">OEPkMAB</p>","","","","","","","","","",""
"html-keyboard-response","28","96208","0.0-8.0-0.20","5f784f5b98f4963cdf902340","650c16f0f2faf8d7a0d14c09","651c1e8d439ec71e9de1f152","null","null","<p style=""font-size: 60px; font-family: BACS"">PMPtkOMC</p>","","","","","","","","","",""
"html-keyboard-response","29","97218","0.0-8.0-0.21","5f784f5b98f4963cdf902340","650c16f0f2faf8d7a0d14c09","651c1e8d439ec71e9de1f152","null","null","<p style=""font-size: 60px; font-family: BACS"">tcYbdYcM</p>","","","","","","","","","",""
"html-keyboard-response","30","98232","0.0-8.0-0.22","5f784f5b98f4963cdf902340","650c16f0f2faf8d7a0d14c09","651c1e8d439ec71e9de1f152","null","null","<p style=""font-size: 60px; font-family: BACS"">mbZlLcO</p>","","","","","","","","","",""
"html-keyboard-response","31","99245","0.0-8.0-0.23","5f784f5b98f4963cdf902340","650c16f0f2faf8d7a0d14c09","651c1e8d439ec71e9de1f152","null","null","<p style=""font-size: 60px; font-family: BACS"">ObZbAGrbk</p>","","","","","","","","","",""
"html-keyboard-response","32","100257","0.0-8.0-0.24","5f784f5b98f4963cdf902340","650c16f0f2faf8d7a0d14c09","651c1e8d439ec71e9de1f152","null","null","<p style=""font-size: 60px; font-family: BACS"">NvuGrQONk</p>","","","","","","","","","",""
"html-keyboard-response","33","101270","0.0-8.0-0.25","5f784f5b98f4963cdf902340","650c16f0f2faf8d7a0d14c09","651c1e8d439ec71e9de1f152","null","null","<p style=""font-size: 60px; font-family: BACS"">ODBDAtcB</p>","","","","","","","","","",""
"html-keyboard-response","34","102286","0.0-8.0-0.26","5f784f5b98f4963cdf902340","650c16f0f2faf8d7a0d14c09","651c1e8d439ec71e9de1f152","null","null","<p style=""font-size: 60px; font-family: BACS"">BPAlOMC</p>","","","","","","","","","",""
"html-keyboard-response","35","103302","0.0-8.0-0.27","5f784f5b98f4963cdf902340","650c16f0f2faf8d7a0d14c09","651c1e8d439ec71e9de1f152","null","null","<p style=""font-size: 60px; font-family: BACS"">uvaUkam</p>","","","","","","","","","",""
"html-keyboard-response","36","104316","0.0-8.0-0.28","5f784f5b98f4963cdf902340","650c16f0f2faf8d7a0d14c09","651c1e8d439ec71e9de1f152","null","null","<p style=""font-size: 60px; font-family: BACS"">dJNrQONk</p>","","","","","","","","","",""
"html-keyboard-response","37","105322","0.0-8.0-0.29","5f784f5b98f4963cdf902340","650c16f0f2faf8d7a0d14c09","651c1e8d439ec71e9de1f152","null","null","<p style=""font-size: 60px; font-family: BACS"">ObZbAkam</p>","","","","","","","","","",""
"html-keyboard-response","38","106336","0.0-8.0-0.30","5f784f5b98f4963cdf902340","650c16f0f2faf8d7a0d14c09","651c1e8d439ec71e9de1f152","null","null","<p style=""font-size: 60px; font-family: BACS"">vblrmkc</p>","","","","","","","","","",""
"html-keyboard-response","39","107343","0.0-8.0-0.31","5f784f5b98f4963cdf902340","650c16f0f2faf8d7a0d14c09","651c1e8d439ec71e9de1f152","null","null","<p style=""font-size: 60px; font-family: BACS"">tcYbdtcB</p>","","","","","","","","","",""
"html-keyboard-response","40","108354","0.0-8.0-0.32","5f784f5b98f4963cdf902340","650c16f0f2faf8d7a0d14c09","651c1e8d439ec71e9de1f152","null","null","<p style=""font-size: 60px; font-family: BACS"">cDOEBOMC</p>","","","","","","","","","",""
"html-keyboard-response","41","109363","0.0-8.0-0.33","5f784f5b98f4963cdf902340","650c16f0f2faf8d7a0d14c09","651c1e8d439ec71e9de1f152","null","null","<p style=""font-size: 60px; font-family: BACS"">dJNrGrbk</p>","","","","","","","","","",""
"html-keyboard-response","42","110376","0.0-8.0-0.34","5f784f5b98f4963cdf902340","650c16f0f2faf8d7a0d14c09","651c1e8d439ec71e9de1f152","null","null","<p style=""font-size: 60px; font-family: BACS"">cDOEBYDTk</p>","","","","","","","","","",""
"html-keyboard-response","43","111386","0.0-8.0-0.35","5f784f5b98f4963cdf902340","650c16f0f2faf8d7a0d14c09","651c1e8d439ec71e9de1f152","null","null","<p style=""font-size: 60px; font-family: BACS"">PMPtkMAB</p>","","","","","","","","","",""
"html-keyboard-response","44","112401","0.0-8.0-0.36","5f784f5b98f4963cdf902340","650c16f0f2faf8d7a0d14c09","651c1e8d439ec71e9de1f152","null","null","<p style=""font-size: 60px; font-family: BACS"">ObZbAQONk</p>","","","","","","","","","",""
"html-keyboard-response","45","113414","0.0-8.0-0.37","5f784f5b98f4963cdf902340","650c16f0f2faf8d7a0d14c09","651c1e8d439ec71e9de1f152","null","null","<p style=""font-size: 60px; font-family: BACS"">ODBDAMAB</p>","","","","","","","","","",""
"html-keyboard-response","46","114421","0.0-8.0-0.38","5f784f5b98f4963cdf902340","650c16f0f2faf8d7a0d14c09","651c1e8d439ec71e9de1f152","null","null","<p style=""font-size: 60px; font-family: BACS"">cAZuGrbk</p>","","","","","","","","","",""
"html-keyboard-response","47","115425","0.0-8.0-0.39","5f784f5b98f4963cdf902340","650c16f0f2faf8d7a0d14c09","651c1e8d439ec71e9de1f152","null","null","<p style=""font-size: 60px; font-family: BACS"">vclYQONk</p>","","","","","","","","","",""
"html-keyboard-response","48","116434","0.0-8.0-0.40","5f784f5b98f4963cdf902340","650c16f0f2faf8d7a0d14c09","651c1e8d439ec71e9de1f152","null","null","<p style=""font-size: 60px; font-family: BACS"">TDKhtcB</p>","","","","","","","","","",""
"html-keyboard-response","49","117440","0.0-8.0-0.41","5f784f5b98f4963cdf902340","650c16f0f2faf8d7a0d14c09","651c1e8d439ec71e9de1f152","null","null","<p style=""font-size: 60px; font-family: BACS"">cDOEBMAB</p>","","","","","","","","","",""
"html-keyboard-response","50","118441","0.0-8.0-0.42","5f784f5b98f4963cdf902340","650c16f0f2faf8d7a0d14c09","651c1e8d439ec71e9de1f152","null","null","<p style=""font-size: 60px; font-family: BACS"">dJNrLcO</p>","","","","","","","","","",""
"html-keyboard-response","51","119448","0.0-8.0-0.43","5f784f5b98f4963cdf902340","650c16f0f2faf8d7a0d14c09","651c1e8d439ec71e9de1f152","null","null","<p style=""font-size: 60px; font-family: BACS"">mbZlQONk</p>","","","","","","","","","",""
"html-keyboard-response","52","120461","0.0-8.0-0.44","5f784f5b98f4963cdf902340","650c16f0f2faf8d7a0d14c09","651c1e8d439ec71e9de1f152","null","null","<p style=""font-size: 60px; font-family: BACS"">OEPkOMC</p>","","","","","","","","","",""
"html-keyboard-response","53","121472","0.0-8.0-0.45","5f784f5b98f4963cdf902340","650c16f0f2faf8d7a0d14c09","651c1e8d439ec71e9de1f152","null","null","<p style=""font-size: 60px; font-family: BACS"">JrGvQONk</p>","","","","","","","","","",""
"html-keyboard-response","54","122481","0.0-8.0-0.46","5f784f5b98f4963cdf902340","650c16f0f2faf8d7a0d14c09","651c1e8d439ec71e9de1f152","null","null","<p style=""font-size: 60px; font-family: BACS"">TDKhMAB</p>","","","","","","","","","",""
"html-keyboard-response","55","123494","0.0-8.0-0.47","5f784f5b98f4963cdf902340","650c16f0f2faf8d7a0d14c09","651c1e8d439ec71e9de1f152","null","null","<p style=""font-size: 60px; font-family: BACS"">BPAlYDTk</p>","","","","","","","","","",""
"html-keyboard-response","56","124502","0.0-8.0-0.48","5f784f5b98f4963cdf902340","650c16f0f2faf8d7a0d14c09","651c1e8d439ec71e9de1f152","null","null","<p style=""font-size: 60px; font-family: BACS"">bmdABYcM</p>","","","","","","","","","",""
"html-keyboard-response","57","125518","0.0-8.0-0.49","5f784f5b98f4963cdf902340","650c16f0f2faf8d7a0d14c09","651c1e8d439ec71e9de1f152","null","null","<p style=""font-size: 60px; font-family: BACS"">dKRDMAB</p>","","","","","","","","","",""
"html-keyboard-response","58","126523","0.0-8.0-0.50","5f784f5b98f4963cdf902340","650c16f0f2faf8d7a0d14c09","651c1e8d439ec71e9de1f152","null","null","<p style=""font-size: 60px; font-family: BACS"">PMPtkYcM</p>","","","","","","","","","",""
"html-keyboard-response","59","127536","0.0-8.0-0.51","5f784f5b98f4963cdf902340","650c16f0f2faf8d7a0d14c09","651c1e8d439ec71e9de1f152","null","null","<p style=""font-size: 60px; font-family: BACS"">cAZuLcO</p>","","","","","","","","","",""
"html-keyboard-response","60","128537","0.0-8.0-0.52","5f784f5b98f4963cdf902340","650c16f0f2faf8d7a0d14c09","651c1e8d439ec71e9de1f152","null","null","<p style=""font-size: 60px; font-family: BACS"">OEPkYDTk</p>","","","","","","","","","",""
"html-keyboard-response","61","129539","0.0-8.0-0.53","5f784f5b98f4963cdf902340","650c16f0f2faf8d7a0d14c09","651c1e8d439ec71e9de1f152","null","null","<p style=""font-size: 60px; font-family: BACS"">mbZlmkc</p>","","","","","","","","","",""
"html-keyboard-response","62","130552","0.0-8.0-0.54","5f784f5b98f4963cdf902340","650c16f0f2faf8d7a0d14c09","651c1e8d439ec71e9de1f152","null","null","<p style=""font-size: 60px; font-family: BACS"">uvaUGrbk</p>","","","","","","","","","",""
"html-keyboard-response","63","131553","0.0-8.0-0.55","5f784f5b98f4963cdf902340","650c16f0f2faf8d7a0d14c09","651c1e8d439ec71e9de1f152","null","null","<p style=""font-size: 60px; font-family: BACS"">dKRDtcB</p>","","","","","","","","","",""
"html-keyboard-response","64","132555","0.0-8.0-0.56","5f784f5b98f4963cdf902340","650c16f0f2faf8d7a0d14c09","651c1e8d439ec71e9de1f152","null","null","<p style=""font-size: 60px; font-family: BACS"">cAZumkc</p>","","","","","","","","","",""
"html-keyboard-response","65","133556","0.0-8.0-0.57","5f784f5b98f4963cdf902340","650c16f0f2faf8d7a0d14c09","651c1e8d439ec71e9de1f152","null","null","<p style=""font-size: 60px; font-family: BACS"">dKRDYDTk</p>","","","","","","","","","",""
"html-keyboard-response","66","134573","0.0-8.0-0.58","5f784f5b98f4963cdf902340","650c16f0f2faf8d7a0d14c09","651c1e8d439ec71e9de1f152","null","null","<p style=""font-size: 60px; font-family: BACS"">BPAltcB</p>","","","","","","","","","",""
"html-keyboard-response","67","135575","0.0-8.0-0.59","5f784f5b98f4963cdf902340","650c16f0f2faf8d7a0d14c09","651c1e8d439ec71e9de1f152","null","null","<p style=""font-size: 60px; font-family: BACS"">TDKhOMC</p>","","","","","","","","","",""
"html-keyboard-response","68","136586","0.0-8.0-0.60","5f784f5b98f4963cdf902340","650c16f0f2faf8d7a0d14c09","651c1e8d439ec71e9de1f152","null","null","<p style=""font-size: 60px; font-family: BACS"">tcYbdYDTk</p>","","","","","","","","","",""
"html-keyboard-response","69","137589","0.0-8.0-0.61","5f784f5b98f4963cdf902340","650c16f0f2faf8d7a0d14c09","651c1e8d439ec71e9de1f152","null","null","<p style=""font-size: 60px; font-family: BACS"">RhPmtcB</p>","","","","","","","","","",""
"html-keyboard-response","70","138598","0.0-8.0-0.62","5f784f5b98f4963cdf902340","650c16f0f2faf8d7a0d14c09","651c1e8d439ec71e9de1f152","null","null","<p style=""font-size: 60px; font-family: BACS"">cAZukam</p>","","","","","","","","","",""
"html-keyboard-response","71","139599","0.0-8.0-0.63","5f784f5b98f4963cdf902340","650c16f0f2faf8d7a0d14c09","651c1e8d439ec71e9de1f152","null","null","<p style=""font-size: 60px; font-family: BACS"">JrGvLcO</p>","","","","","","","","","",""
"html-keyboard-response","72","140613","0.0-8.0-0.64","5f784f5b98f4963cdf902340","650c16f0f2faf8d7a0d14c09","651c1e8d439ec71e9de1f152","null","null","<p style=""font-size: 60px; font-family: BACS"">vblrkam</p>","","","","","","","","","",""
"html-keyboard-response","73","141614","0.0-8.0-0.65","5f784f5b98f4963cdf902340","650c16f0f2faf8d7a0d14c09","651c1e8d439ec71e9de1f152","null","null","<p style=""font-size: 60px; font-family: BACS"">BPAlYcM</p>","","","","","","","","","",""
"html-keyboard-response","74","142619","0.0-8.0-0.66","5f784f5b98f4963cdf902340","650c16f0f2faf8d7a0d14c09","651c1e8d439ec71e9de1f152","null","null","<p style=""font-size: 60px; font-family: BACS"">NQZvkam</p>","","","","","","","","","",""
"html-keyboard-response","75","143627","0.0-8.0-0.67","5f784f5b98f4963cdf902340","650c16f0f2faf8d7a0d14c09","651c1e8d439ec71e9de1f152","null","null","<p style=""font-size: 60px; font-family: BACS"">bmdABYDTk</p>","","","","","","","","","",""
"html-keyboard-response","76","144639","0.0-8.0-0.68","5f784f5b98f4963cdf902340","650c16f0f2faf8d7a0d14c09","651c1e8d439ec71e9de1f152","null","null","<p style=""font-size: 60px; font-family: BACS"">vblrGrbk</p>","","","","","","","","","",""
"html-keyboard-response","77","145641","0.0-8.0-0.69","5f784f5b98f4963cdf902340","650c16f0f2faf8d7a0d14c09","651c1e8d439ec71e9de1f152","null","null","<p style=""font-size: 60px; font-family: BACS"">dKRDOMC</p>","","","","","","","","","",""
"html-keyboard-response","78","146649","0.0-8.0-0.70","5f784f5b98f4963cdf902340","650c16f0f2faf8d7a0d14c09","651c1e8d439ec71e9de1f152","null","null","<p style=""font-size: 60px; font-family: BACS"">NvuGrLcO</p>","","","","","","","","","",""
"html-keyboard-response","79","147651","0.0-8.0-0.71","5f784f5b98f4963cdf902340","650c16f0f2faf8d7a0d14c09","651c1e8d439ec71e9de1f152","null","null","<p style=""font-size: 60px; font-family: BACS"">bmdABtcB</p>","","","","","","","","","",""
"html-keyboard-response","80","148653","0.0-8.0-0.72","5f784f5b98f4963cdf902340","650c16f0f2faf8d7a0d14c09","651c1e8d439ec71e9de1f152","null","null","<p style=""font-size: 60px; font-family: BACS"">NQZvQONk</p>","","","","","","","","","",""
"html-keyboard-response","81","149668","0.0-8.0-0.73","5f784f5b98f4963cdf902340","650c16f0f2faf8d7a0d14c09","651c1e8d439ec71e9de1f152","null","null","<p style=""font-size: 60px; font-family: BACS"">NvuGrGrbk</p>","","","","","","","","","",""
"html-keyboard-response","82","150669","0.0-8.0-0.74","5f784f5b98f4963cdf902340","650c16f0f2faf8d7a0d14c09","651c1e8d439ec71e9de1f152","null","null","<p style=""font-size: 60px; font-family: BACS"">dJNrmkc</p>","","","","","","","","","",""
"html-keyboard-response","83","151672","0.0-8.0-0.75","5f784f5b98f4963cdf902340","650c16f0f2faf8d7a0d14c09","651c1e8d439ec71e9de1f152","null","null","<p style=""font-size: 60px; font-family: BACS"">RhPmYcM</p>","","","","","","","","","",""
"html-keyboard-response","84","152683","0.0-8.0-0.76","5f784f5b98f4963cdf902340","650c16f0f2faf8d7a0d14c09","651c1e8d439ec71e9de1f152","null","null","<p style=""font-size: 60px; font-family: BACS"">tcYbdOMC</p>","","","","","","","","","",""
"html-keyboard-response","85","153692","0.0-8.0-0.77","5f784f5b98f4963cdf902340","650c16f0f2faf8d7a0d14c09","651c1e8d439ec71e9de1f152","null","null","<p style=""font-size: 60px; font-family: BACS"">PMPtkYDTk</p>","","","","","","","","","",""
"html-keyboard-response","86","154694","0.0-8.0-0.78","5f784f5b98f4963cdf902340","650c16f0f2faf8d7a0d14c09","651c1e8d439ec71e9de1f152","null","null","<p style=""font-size: 60px; font-family: BACS"">ODBDAOMC</p>","","","","","","","","","",""
"html-keyboard-response","87","155707","0.0-8.0-0.79","5f784f5b98f4963cdf902340","650c16f0f2faf8d7a0d14c09","651c1e8d439ec71e9de1f152","null","null","<p style=""font-size: 60px; font-family: BACS"">uvaUmkc</p>","","","","","","","","","",""
"html-keyboard-response","88","160015","0.0-9.0","5f784f5b98f4963cdf902340","650c16f0f2faf8d7a0d14c09","651c1e8d439ec71e9de1f152","4307"," ","<p>Great, you've seen the first block of words. You may now take a short break.</p>
      <p>Press the spacebar when you're ready to continue.</p>","","","","","","","","","",""
"html-keyboard-response","89","161016","0.0-10.0-0.0","5f784f5b98f4963cdf902340","650c16f0f2faf8d7a0d14c09","651c1e8d439ec71e9de1f152","null","null","<p style=""font-size: 60px; font-family: BACS"">TDKhMAB</p>","","","","","","","","","",""
"html-keyboard-response","90","162024","0.0-10.0-0.1","5f784f5b98f4963cdf902340","650c16f0f2faf8d7a0d14c09","651c1e8d439ec71e9de1f152","null","null","<p style=""font-size: 60px; font-family: BACS"">ODBDAtcB</p>","","","","","","","","","",""
"html-keyboard-response","91","163025","0.0-10.0-0.2","5f784f5b98f4963cdf902340","650c16f0f2faf8d7a0d14c09","651c1e8d439ec71e9de1f152","null","null","<p style=""font-size: 60px; font-family: BACS"">ObZbAkam</p>","","","","","","","","","",""
"html-keyboard-response","92","164035","0.0-10.0-0.3","5f784f5b98f4963cdf902340","650c16f0f2faf8d7a0d14c09","651c1e8d439ec71e9de1f152","null","null","<p style=""font-size: 60px; font-family: BACS"">dKRDOMC</p>","","","","","","","","","",""
"html-keyboard-response","93","165046","0.0-10.0-0.4","5f784f5b98f4963cdf902340","650c16f0f2faf8d7a0d14c09","651c1e8d439ec71e9de1f152","null","null","<p style=""font-size: 60px; font-family: BACS"">BPAltcB</p>","","","","","","","","","",""
"html-keyboard-response","94","166060","0.0-10.0-0.5","5f784f5b98f4963cdf902340","650c16f0f2faf8d7a0d14c09","651c1e8d439ec71e9de1f152","null","null","<p style=""font-size: 60px; font-family: BACS"">uvaUkam</p>","","","","","","","","","",""
"html-keyboard-response","95","167073","0.0-10.0-0.6","5f784f5b98f4963cdf902340","650c16f0f2faf8d7a0d14c09","651c1e8d439ec71e9de1f152","null","null","<p style=""font-size: 60px; font-family: BACS"">RhPmYDTk</p>","","","","","","","","","",""
"html-keyboard-response","96","168074","0.0-10.0-0.7","5f784f5b98f4963cdf902340","650c16f0f2faf8d7a0d14c09","651c1e8d439ec71e9de1f152","null","null","<p style=""font-size: 60px; font-family: BACS"">NQZvLcO</p>","","","","","","","","","",""
"html-keyboard-response","97","169086","0.0-10.0-0.8","5f784f5b98f4963cdf902340","650c16f0f2faf8d7a0d14c09","651c1e8d439ec71e9de1f152","null","null","<p style=""font-size: 60px; font-family: BACS"">TDKhtcB</p>","","","","","","","","","",""
"html-keyboard-response","98","170100","0.0-10.0-0.9","5f784f5b98f4963cdf902340","650c16f0f2faf8d7a0d14c09","651c1e8d439ec71e9de1f152","null","null","<p style=""font-size: 60px; font-family: BACS"">NQZvGrbk</p>","","","","","","","","","",""
"html-keyboard-response","99","171115","0.0-10.0-0.10","5f784f5b98f4963cdf902340","650c16f0f2faf8d7a0d14c09","651c1e8d439ec71e9de1f152","null","null","<p style=""font-size: 60px; font-family: BACS"">NvuGrmkc</p>","","","","","","","","","",""
"html-keyboard-response","100","172118","0.0-10.0-0.11","5f784f5b98f4963cdf902340","650c16f0f2faf8d7a0d14c09","651c1e8d439ec71e9de1f152","null","null","<p style=""font-size: 60px; font-family: BACS"">JrGvkam</p>","","","","","","","","","",""
"html-keyboard-response","101","173119","0.0-10.0-0.12","5f784f5b98f4963cdf902340","650c16f0f2faf8d7a0d14c09","651c1e8d439ec71e9de1f152","null","null","<p style=""font-size: 60px; font-family: BACS"">BPAlYDTk</p>","","","","","","","","","",""
"html-keyboard-response","102","174120","0.0-10.0-0.13","5f784f5b98f4963cdf902340","650c16f0f2faf8d7a0d14c09","651c1e8d439ec71e9de1f152","null","null","<p style=""font-size: 60px; font-family: BACS"">dKRDtcB</p>","","","","","","","","","",""
"html-keyboard-response","103","175122","0.0-10.0-0.14","5f784f5b98f4963cdf902340","650c16f0f2faf8d7a0d14c09","651c1e8d439ec71e9de1f152","null","null","<p style=""font-size: 60px; font-family: BACS"">TDKhYcM</p>","","","","","","","","","",""
"html-keyboard-response","104","176135","0.0-10.0-0.15","5f784f5b98f4963cdf902340","650c16f0f2faf8d7a0d14c09","651c1e8d439ec71e9de1f152","null","null","<p style=""font-size: 60px; font-family: BACS"">cAZuGrbk</p>","","","","","","","","","",""
"html-keyboard-response","105","177135","0.0-10.0-0.16","5f784f5b98f4963cdf902340","650c16f0f2faf8d7a0d14c09","651c1e8d439ec71e9de1f152","null","null","<p style=""font-size: 60px; font-family: BACS"">mbZlLcO</p>","","","","","","","","","",""
"html-keyboard-response","106","178144","0.0-10.0-0.17","5f784f5b98f4963cdf902340","650c16f0f2faf8d7a0d14c09","651c1e8d439ec71e9de1f152","null","null","<p style=""font-size: 60px; font-family: BACS"">ODBDAYcM</p>","","","","","","","","","",""
"html-keyboard-response","107","179145","0.0-10.0-0.18","5f784f5b98f4963cdf902340","650c16f0f2faf8d7a0d14c09","651c1e8d439ec71e9de1f152","null","null","<p style=""font-size: 60px; font-family: BACS"">dKRDMAB</p>","","","","","","","","","",""
"html-keyboard-response","108","180150","0.0-10.0-0.19","5f784f5b98f4963cdf902340","650c16f0f2faf8d7a0d14c09","651c1e8d439ec71e9de1f152","null","null","<p style=""font-size: 60px; font-family: BACS"">JrGvQONk</p>","","","","","","","","","",""
"html-keyboard-response","109","181151","0.0-10.0-0.20","5f784f5b98f4963cdf902340","650c16f0f2faf8d7a0d14c09","651c1e8d439ec71e9de1f152","null","null","<p style=""font-size: 60px; font-family: BACS"">cDOEBOMC</p>","","","","","","","","","",""
"html-keyboard-response","110","182153","0.0-10.0-0.21","5f784f5b98f4963cdf902340","650c16f0f2faf8d7a0d14c09","651c1e8d439ec71e9de1f152","null","null","<p style=""font-size: 60px; font-family: BACS"">OEPkYDTk</p>","","","","","","","","","",""
"html-keyboard-response","111","183164","0.0-10.0-0.22","5f784f5b98f4963cdf902340","650c16f0f2faf8d7a0d14c09","651c1e8d439ec71e9de1f152","null","null","<p style=""font-size: 60px; font-family: BACS"">vclYkam</p>","","","","","","","","","",""
"html-keyboard-response","112","184178","0.0-10.0-0.23","5f784f5b98f4963cdf902340","650c16f0f2faf8d7a0d14c09","651c1e8d439ec71e9de1f152","null","null","<p style=""font-size: 60px; font-family: BACS"">bmdABYcM</p>","","","","","","","","","",""
"html-keyboard-response","113","185191","0.0-10.0-0.24","5f784f5b98f4963cdf902340","650c16f0f2faf8d7a0d14c09","651c1e8d439ec71e9de1f152","null","null","<p style=""font-size: 60px; font-family: BACS"">PMPtkYDTk</p>","","","","","","","","","",""
"html-keyboard-response","114","186202","0.0-10.0-0.25","5f784f5b98f4963cdf902340","650c16f0f2faf8d7a0d14c09","651c1e8d439ec71e9de1f152","null","null","<p style=""font-size: 60px; font-family: BACS"">JrGvmkc</p>","","","","","","","","","",""
"html-keyboard-response","115","187218","0.0-10.0-0.26","5f784f5b98f4963cdf902340","650c16f0f2faf8d7a0d14c09","651c1e8d439ec71e9de1f152","null","null","<p style=""font-size: 60px; font-family: BACS"">bmdABtcB</p>","","","","","","","","","",""
"html-keyboard-response","116","188233","0.0-10.0-0.27","5f784f5b98f4963cdf902340","650c16f0f2faf8d7a0d14c09","651c1e8d439ec71e9de1f152","null","null","<p style=""font-size: 60px; font-family: BACS"">ODBDAOMC</p>","","","","","","","","","",""
"html-keyboard-response","117","189246","0.0-10.0-0.28","5f784f5b98f4963cdf902340","650c16f0f2faf8d7a0d14c09","651c1e8d439ec71e9de1f152","null","null","<p style=""font-size: 60px; font-family: BACS"">ObZbALcO</p>","","","","","","","","","",""
"html-keyboard-response","118","190258","0.0-10.0-0.29","5f784f5b98f4963cdf902340","650c16f0f2faf8d7a0d14c09","651c1e8d439ec71e9de1f152","null","null","<p style=""font-size: 60px; font-family: BACS"">OEPkYcM</p>","","","","","","","","","",""
"html-keyboard-response","119","191272","0.0-10.0-0.30","5f784f5b98f4963cdf902340","650c16f0f2faf8d7a0d14c09","651c1e8d439ec71e9de1f152","null","null","<p style=""font-size: 60px; font-family: BACS"">JrGvLcO</p>","","","","","","","","","",""
"html-keyboard-response","120","192282","0.0-10.0-0.31","5f784f5b98f4963cdf902340","650c16f0f2faf8d7a0d14c09","651c1e8d439ec71e9de1f152","null","null","<p style=""font-size: 60px; font-family: BACS"">cDOEBYDTk</p>","","","","","","","","","",""
"html-keyboard-response","121","193293","0.0-10.0-0.32","5f784f5b98f4963cdf902340","650c16f0f2faf8d7a0d14c09","651c1e8d439ec71e9de1f152","null","null","<p style=""font-size: 60px; font-family: BACS"">TDKhOMC</p>","","","","","","","","","",""
"html-keyboard-response","122","194294","0.0-10.0-0.33","5f784f5b98f4963cdf902340","650c16f0f2faf8d7a0d14c09","651c1e8d439ec71e9de1f152","null","null","<p style=""font-size: 60px; font-family: BACS"">ObZbAQONk</p>","","","","","","","","","",""
"html-keyboard-response","123","195302","0.0-10.0-0.34","5f784f5b98f4963cdf902340","650c16f0f2faf8d7a0d14c09","651c1e8d439ec71e9de1f152","null","null","<p style=""font-size: 60px; font-family: BACS"">tcYbdOMC</p>","","","","","","","","","",""
"html-keyboard-response","124","196309","0.0-10.0-0.35","5f784f5b98f4963cdf902340","650c16f0f2faf8d7a0d14c09","651c1e8d439ec71e9de1f152","null","null","<p style=""font-size: 60px; font-family: BACS"">RhPmMAB</p>","","","","","","","","","",""
"html-keyboard-response","125","197324","0.0-10.0-0.36","5f784f5b98f4963cdf902340","650c16f0f2faf8d7a0d14c09","651c1e8d439ec71e9de1f152","null","null","<p style=""font-size: 60px; font-family: BACS"">mbZlkam</p>","","","","","","","","","",""
"html-keyboard-response","126","198335","0.0-10.0-0.37","5f784f5b98f4963cdf902340","650c16f0f2faf8d7a0d14c09","651c1e8d439ec71e9de1f152","null","null","<p style=""font-size: 60px; font-family: BACS"">tcYbdYcM</p>","","","","","","","","","",""
"html-keyboard-response","127","199346","0.0-10.0-0.38","5f784f5b98f4963cdf902340","650c16f0f2faf8d7a0d14c09","651c1e8d439ec71e9de1f152","null","null","<p style=""font-size: 60px; font-family: BACS"">cDOEBMAB</p>","","","","","","","","","",""
"html-keyboard-response","128","200357","0.0-10.0-0.39","5f784f5b98f4963cdf902340","650c16f0f2faf8d7a0d14c09","651c1e8d439ec71e9de1f152","null","null","<p style=""font-size: 60px; font-family: BACS"">vblrQONk</p>","","","","","","","","","",""
"html-keyboard-response","129","201372","0.0-10.0-0.40","5f784f5b98f4963cdf902340","650c16f0f2faf8d7a0d14c09","651c1e8d439ec71e9de1f152","null","null","<p style=""font-size: 60px; font-family: BACS"">bmdABYDTk</p>","","","","","","","","","",""
"html-keyboard-response","130","202386","0.0-10.0-0.41","5f784f5b98f4963cdf902340","650c16f0f2faf8d7a0d14c09","651c1e8d439ec71e9de1f152","null","null","<p style=""font-size: 60px; font-family: BACS"">mbZlQONk</p>","","","","","","","","","",""
"html-keyboard-response","131","203398","0.0-10.0-0.42","5f784f5b98f4963cdf902340","650c16f0f2faf8d7a0d14c09","651c1e8d439ec71e9de1f152","null","null","<p style=""font-size: 60px; font-family: BACS"">vclYmkc</p>","","","","","","","","","",""
"html-keyboard-response","132","204411","0.0-10.0-0.43","5f784f5b98f4963cdf902340","650c16f0f2faf8d7a0d14c09","651c1e8d439ec71e9de1f152","null","null","<p style=""font-size: 60px; font-family: BACS"">NQZvkam</p>","","","","","","","","","",""
"html-keyboard-response","133","205423","0.0-10.0-0.44","5f784f5b98f4963cdf902340","650c16f0f2faf8d7a0d14c09","651c1e8d439ec71e9de1f152","null","null","<p style=""font-size: 60px; font-family: BACS"">bmdABMAB</p>","","","","","","","","","",""
"html-keyboard-response","134","206434","0.0-10.0-0.45","5f784f5b98f4963cdf902340","650c16f0f2faf8d7a0d14c09","651c1e8d439ec71e9de1f152","null","null","<p style=""font-size: 60px; font-family: BACS"">dJNrGrbk</p>","","","","","","","","","",""
"html-keyboard-response","135","207443","0.0-10.0-0.46","5f784f5b98f4963cdf902340","650c16f0f2faf8d7a0d14c09","651c1e8d439ec71e9de1f152","null","null","<p style=""font-size: 60px; font-family: BACS"">RhPmYcM</p>","","","","","","","","","",""
"html-keyboard-response","136","208450","0.0-10.0-0.47","5f784f5b98f4963cdf902340","650c16f0f2faf8d7a0d14c09","651c1e8d439ec71e9de1f152","null","null","<p style=""font-size: 60px; font-family: BACS"">BPAlOMC</p>","","","","","","","","","",""
"html-keyboard-response","137","209457","0.0-10.0-0.48","5f784f5b98f4963cdf902340","650c16f0f2faf8d7a0d14c09","651c1e8d439ec71e9de1f152","null","null","<p style=""font-size: 60px; font-family: BACS"">vclYQONk</p>","","","","","","","","","",""
"html-keyboard-response","138","210458","0.0-10.0-0.49","5f784f5b98f4963cdf902340","650c16f0f2faf8d7a0d14c09","651c1e8d439ec71e9de1f152","null","null","<p style=""font-size: 60px; font-family: BACS"">tcYbdYDTk</p>","","","","","","","","","",""
"html-keyboard-response","139","211473","0.0-10.0-0.50","5f784f5b98f4963cdf902340","650c16f0f2faf8d7a0d14c09","651c1e8d439ec71e9de1f152","null","null","<p style=""font-size: 60px; font-family: BACS"">BPAlYcM</p>","","","","","","","","","",""
"html-keyboard-response","140","212480","0.0-10.0-0.51","5f784f5b98f4963cdf902340","650c16f0f2faf8d7a0d14c09","651c1e8d439ec71e9de1f152","null","null","<p style=""font-size: 60px; font-family: BACS"">OEPkOMC</p>","","","","","","","","","",""
"html-keyboard-response","141","213491","0.0-10.0-0.52","5f784f5b98f4963cdf902340","650c16f0f2faf8d7a0d14c09","651c1e8d439ec71e9de1f152","null","null","<p style=""font-size: 60px; font-family: BACS"">PMPtkYcM</p>","","","","","","","","","",""
"html-keyboard-response","142","214492","0.0-10.0-0.53","5f784f5b98f4963cdf902340","650c16f0f2faf8d7a0d14c09","651c1e8d439ec71e9de1f152","null","null","<p style=""font-size: 60px; font-family: BACS"">OEPkMAB</p>","","","","","","","","","",""
"html-keyboard-response","143","215499","0.0-10.0-0.54","5f784f5b98f4963cdf902340","650c16f0f2faf8d7a0d14c09","651c1e8d439ec71e9de1f152","null","null","<p style=""font-size: 60px; font-family: BACS"">NvuGrQONk</p>","","","","","","","","","",""
"html-keyboard-response","144","216501","0.0-10.0-0.55","5f784f5b98f4963cdf902340","650c16f0f2faf8d7a0d14c09","651c1e8d439ec71e9de1f152","null","null","<p style=""font-size: 60px; font-family: BACS"">vblrmkc</p>","","","","","","","","","",""
"html-keyboard-response","145","217513","0.0-10.0-0.56","5f784f5b98f4963cdf902340","650c16f0f2faf8d7a0d14c09","651c1e8d439ec71e9de1f152","null","null","<p style=""font-size: 60px; font-family: BACS"">NvuGrGrbk</p>","","","","","","","","","",""
"html-keyboard-response","146","218523","0.0-10.0-0.57","5f784f5b98f4963cdf902340","650c16f0f2faf8d7a0d14c09","651c1e8d439ec71e9de1f152","null","null","<p style=""font-size: 60px; font-family: BACS"">NQZvQONk</p>","","","","","","","","","",""
"html-keyboard-response","147","219523","0.0-10.0-0.58","5f784f5b98f4963cdf902340","650c16f0f2faf8d7a0d14c09","651c1e8d439ec71e9de1f152","null","null","<p style=""font-size: 60px; font-family: BACS"">cDOEBtcB</p>","","","","","","","","","",""
"html-keyboard-response","148","220531","0.0-10.0-0.59","5f784f5b98f4963cdf902340","650c16f0f2faf8d7a0d14c09","651c1e8d439ec71e9de1f152","null","null","<p style=""font-size: 60px; font-family: BACS"">vblrkam</p>","","","","","","","","","",""
"html-keyboard-response","149","221541","0.0-10.0-0.60","5f784f5b98f4963cdf902340","650c16f0f2faf8d7a0d14c09","651c1e8d439ec71e9de1f152","null","null","<p style=""font-size: 60px; font-family: BACS"">RhPmtcB</p>","","","","","","","","","",""
"html-keyboard-response","150","222554","0.0-10.0-0.61","5f784f5b98f4963cdf902340","650c16f0f2faf8d7a0d14c09","651c1e8d439ec71e9de1f152","null","null","<p style=""font-size: 60px; font-family: BACS"">dJNrQONk</p>","","","","","","","","","",""
"html-keyboard-response","151","223565","0.0-10.0-0.62","5f784f5b98f4963cdf902340","650c16f0f2faf8d7a0d14c09","651c1e8d439ec71e9de1f152","null","null","<p style=""font-size: 60px; font-family: BACS"">PMPtkOMC</p>","","","","","","","","","",""
"html-keyboard-response","152","224566","0.0-10.0-0.63","5f784f5b98f4963cdf902340","650c16f0f2faf8d7a0d14c09","651c1e8d439ec71e9de1f152","null","null","<p style=""font-size: 60px; font-family: BACS"">uvaUGrbk</p>","","","","","","","","","",""
"html-keyboard-response","153","225580","0.0-10.0-0.64","5f784f5b98f4963cdf902340","650c16f0f2faf8d7a0d14c09","651c1e8d439ec71e9de1f152","null","null","<p style=""font-size: 60px; font-family: BACS"">dJNrmkc</p>","","","","","","","","","",""
"html-keyboard-response","154","226593","0.0-10.0-0.65","5f784f5b98f4963cdf902340","650c16f0f2faf8d7a0d14c09","651c1e8d439ec71e9de1f152","null","null","<p style=""font-size: 60px; font-family: BACS"">NvuGrLcO</p>","","","","","","","","","",""
"html-keyboard-response","155","227603","0.0-10.0-0.66","5f784f5b98f4963cdf902340","650c16f0f2faf8d7a0d14c09","651c1e8d439ec71e9de1f152","null","null","<p style=""font-size: 60px; font-family: BACS"">dKRDYDTk</p>","","","","","","","","","",""
"html-keyboard-response","156","228618","0.0-10.0-0.67","5f784f5b98f4963cdf902340","650c16f0f2faf8d7a0d14c09","651c1e8d439ec71e9de1f152","null","null","<p style=""font-size: 60px; font-family: BACS"">mbZlmkc</p>","","","","","","","","","",""
"html-keyboard-response","157","229630","0.0-10.0-0.68","5f784f5b98f4963cdf902340","650c16f0f2faf8d7a0d14c09","651c1e8d439ec71e9de1f152","null","null","<p style=""font-size: 60px; font-family: BACS"">vblrGrbk</p>","","","","","","","","","",""
"html-keyboard-response","158","230644","0.0-10.0-0.69","5f784f5b98f4963cdf902340","650c16f0f2faf8d7a0d14c09","651c1e8d439ec71e9de1f152","null","null","<p style=""font-size: 60px; font-family: BACS"">tcYbdtcB</p>","","","","","","","","","",""
"html-keyboard-response","159","231651","0.0-10.0-0.70","5f784f5b98f4963cdf902340","650c16f0f2faf8d7a0d14c09","651c1e8d439ec71e9de1f152","null","null","<p style=""font-size: 60px; font-family: BACS"">uvaULcO</p>","","","","","","","","","",""
"html-keyboard-response","160","232652","0.0-10.0-0.71","5f784f5b98f4963cdf902340","650c16f0f2faf8d7a0d14c09","651c1e8d439ec71e9de1f152","null","null","<p style=""font-size: 60px; font-family: BACS"">ObZbAGrbk</p>","","","","","","","","","",""
"html-keyboard-response","161","233657","0.0-10.0-0.72","5f784f5b98f4963cdf902340","650c16f0f2faf8d7a0d14c09","651c1e8d439ec71e9de1f152","null","null","<p style=""font-size: 60px; font-family: BACS"">cAZukam</p>","","","","","","","","","",""
"html-keyboard-response","162","234672","0.0-10.0-0.73","5f784f5b98f4963cdf902340","650c16f0f2faf8d7a0d14c09","651c1e8d439ec71e9de1f152","null","null","<p style=""font-size: 60px; font-family: BACS"">uvaUmkc</p>","","","","","","","","","",""
"html-keyboard-response","163","235682","0.0-10.0-0.74","5f784f5b98f4963cdf902340","650c16f0f2faf8d7a0d14c09","651c1e8d439ec71e9de1f152","null","null","<p style=""font-size: 60px; font-family: BACS"">vclYGrbk</p>","","","","","","","","","",""
"html-keyboard-response","164","236683","0.0-10.0-0.75","5f784f5b98f4963cdf902340","650c16f0f2faf8d7a0d14c09","651c1e8d439ec71e9de1f152","null","null","<p style=""font-size: 60px; font-family: BACS"">cAZumkc</p>","","","","","","","","","",""
"html-keyboard-response","165","237693","0.0-10.0-0.76","5f784f5b98f4963cdf902340","650c16f0f2faf8d7a0d14c09","651c1e8d439ec71e9de1f152","null","null","<p style=""font-size: 60px; font-family: BACS"">PMPtkMAB</p>","","","","","","","","","",""
"html-keyboard-response","166","238707","0.0-10.0-0.77","5f784f5b98f4963cdf902340","650c16f0f2faf8d7a0d14c09","651c1e8d439ec71e9de1f152","null","null","<p style=""font-size: 60px; font-family: BACS"">dJNrLcO</p>","","","","","","","","","",""
"html-keyboard-response","167","239723","0.0-10.0-0.78","5f784f5b98f4963cdf902340","650c16f0f2faf8d7a0d14c09","651c1e8d439ec71e9de1f152","null","null","<p style=""font-size: 60px; font-family: BACS"">ODBDAMAB</p>","","","","","","","","","",""
"html-keyboard-response","168","240724","0.0-10.0-0.79","5f784f5b98f4963cdf902340","650c16f0f2faf8d7a0d14c09","651c1e8d439ec71e9de1f152","null","null","<p style=""font-size: 60px; font-family: BACS"">cAZuLcO</p>","","","","","","","","","",""
"html-keyboard-response","169","243724","0.0-11.0","5f784f5b98f4963cdf902340","650c16f0f2faf8d7a0d14c09","651c1e8d439ec71e9de1f152","2999"," ","<p>Great, you've seen the second block of words. You may now take a short break.</p>
      <p>Press the spacebar when you're ready to continue.</p>","","","","","","","","","",""
"html-keyboard-response","170","244729","0.0-12.0-0.0","5f784f5b98f4963cdf902340","650c16f0f2faf8d7a0d14c09","651c1e8d439ec71e9de1f152","null","null","<p style=""font-size: 60px; font-family: BACS"">PMPtkOMC</p>","","","","","","","","","",""
"html-keyboard-response","171","245743","0.0-12.0-0.1","5f784f5b98f4963cdf902340","650c16f0f2faf8d7a0d14c09","651c1e8d439ec71e9de1f152","null","null","<p style=""font-size: 60px; font-family: BACS"">ODBDAMAB</p>","","","","","","","","","",""
"html-keyboard-response","172","246758","0.0-12.0-0.2","5f784f5b98f4963cdf902340","650c16f0f2faf8d7a0d14c09","651c1e8d439ec71e9de1f152","null","null","<p style=""font-size: 60px; font-family: BACS"">uvaUkam</p>","","","","","","","","","",""
"html-keyboard-response","173","247773","0.0-12.0-0.3","5f784f5b98f4963cdf902340","650c16f0f2faf8d7a0d14c09","651c1e8d439ec71e9de1f152","null","null","<p style=""font-size: 60px; font-family: BACS"">vblrQONk</p>","","","","","","","","","",""
"html-keyboard-response","174","248782","0.0-12.0-0.4","5f784f5b98f4963cdf902340","650c16f0f2faf8d7a0d14c09","651c1e8d439ec71e9de1f152","null","null","<p style=""font-size: 60px; font-family: BACS"">bmdABYcM</p>","","","","","","","","","",""
"html-keyboard-response","175","249795","0.0-12.0-0.5","5f784f5b98f4963cdf902340","650c16f0f2faf8d7a0d14c09","651c1e8d439ec71e9de1f152","null","null","<p style=""font-size: 60px; font-family: BACS"">uvaULcO</p>","","","","","","","","","",""
"html-keyboard-response","176","250796","0.0-12.0-0.6","5f784f5b98f4963cdf902340","650c16f0f2faf8d7a0d14c09","651c1e8d439ec71e9de1f152","null","null","<p style=""font-size: 60px; font-family: BACS"">BPAltcB</p>","","","","","","","","","",""
"html-keyboard-response","177","251808","0.0-12.0-0.7","5f784f5b98f4963cdf902340","650c16f0f2faf8d7a0d14c09","651c1e8d439ec71e9de1f152","null","null","<p style=""font-size: 60px; font-family: BACS"">tcYbdYcM</p>","","","","","","","","","",""
"html-keyboard-response","178","252819","0.0-12.0-0.8","5f784f5b98f4963cdf902340","650c16f0f2faf8d7a0d14c09","651c1e8d439ec71e9de1f152","null","null","<p style=""font-size: 60px; font-family: BACS"">bmdABYDTk</p>","","","","","","","","","",""
"html-keyboard-response","179","253829","0.0-12.0-0.9","5f784f5b98f4963cdf902340","650c16f0f2faf8d7a0d14c09","651c1e8d439ec71e9de1f152","null","null","<p style=""font-size: 60px; font-family: BACS"">NvuGrLcO</p>","","","","","","","","","",""
"html-keyboard-response","180","254838","0.0-12.0-0.10","5f784f5b98f4963cdf902340","650c16f0f2faf8d7a0d14c09","651c1e8d439ec71e9de1f152","null","null","<p style=""font-size: 60px; font-family: BACS"">cAZumkc</p>","","","","","","","","","",""
"html-keyboard-response","181","255850","0.0-12.0-0.11","5f784f5b98f4963cdf902340","650c16f0f2faf8d7a0d14c09","651c1e8d439ec71e9de1f152","null","null","<p style=""font-size: 60px; font-family: BACS"">NQZvLcO</p>","","","","","","","","","",""
"html-keyboard-response","182","256865","0.0-12.0-0.12","5f784f5b98f4963cdf902340","650c16f0f2faf8d7a0d14c09","651c1e8d439ec71e9de1f152","null","null","<p style=""font-size: 60px; font-family: BACS"">vblrGrbk</p>","","","","","","","","","",""
"html-keyboard-response","183","257876","0.0-12.0-0.13","5f784f5b98f4963cdf902340","650c16f0f2faf8d7a0d14c09","651c1e8d439ec71e9de1f152","null","null","<p style=""font-size: 60px; font-family: BACS"">vclYkam</p>","","","","","","","","","",""
"html-keyboard-response","184","258885","0.0-12.0-0.14","5f784f5b98f4963cdf902340","650c16f0f2faf8d7a0d14c09","651c1e8d439ec71e9de1f152","null","null","<p style=""font-size: 60px; font-family: BACS"">NvuGrGrbk</p>","","","","","","","","","",""
"html-keyboard-response","185","259891","0.0-12.0-0.15","5f784f5b98f4963cdf902340","650c16f0f2faf8d7a0d14c09","651c1e8d439ec71e9de1f152","null","null","<p style=""font-size: 60px; font-family: BACS"">TDKhOMC</p>","","","","","","","","","",""
"html-keyboard-response","186","260892","0.0-12.0-0.16","5f784f5b98f4963cdf902340","650c16f0f2faf8d7a0d14c09","651c1e8d439ec71e9de1f152","null","null","<p style=""font-size: 60px; font-family: BACS"">OEPkYcM</p>","","","","","","","","","",""
"html-keyboard-response","187","261898","0.0-12.0-0.17","5f784f5b98f4963cdf902340","650c16f0f2faf8d7a0d14c09","651c1e8d439ec71e9de1f152","null","null","<p style=""font-size: 60px; font-family: BACS"">dKRDtcB</p>","","","","","","","","","",""
"html-keyboard-response","188","262914","0.0-12.0-0.18","5f784f5b98f4963cdf902340","650c16f0f2faf8d7a0d14c09","651c1e8d439ec71e9de1f152","null","null","<p style=""font-size: 60px; font-family: BACS"">ObZbAkam</p>","","","","","","","","","",""
"html-keyboard-response","189","263916","0.0-12.0-0.19","5f784f5b98f4963cdf902340","650c16f0f2faf8d7a0d14c09","651c1e8d439ec71e9de1f152","null","null","<p style=""font-size: 60px; font-family: BACS"">RhPmYDTk</p>","","","","","","","","","",""
"html-keyboard-response","190","264920","0.0-12.0-0.20","5f784f5b98f4963cdf902340","650c16f0f2faf8d7a0d14c09","651c1e8d439ec71e9de1f152","null","null","<p style=""font-size: 60px; font-family: BACS"">JrGvQONk</p>","","","","","","","","","",""
"html-keyboard-response","191","265921","0.0-12.0-0.21","5f784f5b98f4963cdf902340","650c16f0f2faf8d7a0d14c09","651c1e8d439ec71e9de1f152","null","null","<p style=""font-size: 60px; font-family: BACS"">dKRDYDTk</p>","","","","","","","","","",""
"html-keyboard-response","192","266927","0.0-12.0-0.22","5f784f5b98f4963cdf902340","650c16f0f2faf8d7a0d14c09","651c1e8d439ec71e9de1f152","null","null","<p style=""font-size: 60px; font-family: BACS"">mbZlQONk</p>","","","","","","","","","",""
"html-keyboard-response","193","267928","0.0-12.0-0.23","5f784f5b98f4963cdf902340","650c16f0f2faf8d7a0d14c09","651c1e8d439ec71e9de1f152","null","null","<p style=""font-size: 60px; font-family: BACS"">BPAlOMC</p>","","","","","","","","","",""
"html-keyboard-response","194","268936","0.0-12.0-0.24","5f784f5b98f4963cdf902340","650c16f0f2faf8d7a0d14c09","651c1e8d439ec71e9de1f152","null","null","<p style=""font-size: 60px; font-family: BACS"">ODBDAYcM</p>","","","","","","","","","",""
"html-keyboard-response","195","269937","0.0-12.0-0.25","5f784f5b98f4963cdf902340","650c16f0f2faf8d7a0d14c09","651c1e8d439ec71e9de1f152","null","null","<p style=""font-size: 60px; font-family: BACS"">ObZbAGrbk</p>","","","","","","","","","",""
"html-keyboard-response","196","270943","0.0-12.0-0.26","5f784f5b98f4963cdf902340","650c16f0f2faf8d7a0d14c09","651c1e8d439ec71e9de1f152","null","null","<p style=""font-size: 60px; font-family: BACS"">PMPtkMAB</p>","","","","","","","","","",""
"html-keyboard-response","197","271957","0.0-12.0-0.27","5f784f5b98f4963cdf902340","650c16f0f2faf8d7a0d14c09","651c1e8d439ec71e9de1f152","null","null","<p style=""font-size: 60px; font-family: BACS"">BPAlYcM</p>","","","","","","","","","",""
"html-keyboard-response","198","272958","0.0-12.0-0.28","5f784f5b98f4963cdf902340","650c16f0f2faf8d7a0d14c09","651c1e8d439ec71e9de1f152","null","null","<p style=""font-size: 60px; font-family: BACS"">OEPkOMC</p>","","","","","","","","","",""
"html-keyboard-response","199","273963","0.0-12.0-0.29","5f784f5b98f4963cdf902340","650c16f0f2faf8d7a0d14c09","651c1e8d439ec71e9de1f152","null","null","<p style=""font-size: 60px; font-family: BACS"">RhPmYcM</p>","","","","","","","","","",""
"html-keyboard-response","200","274973","0.0-12.0-0.30","5f784f5b98f4963cdf902340","650c16f0f2faf8d7a0d14c09","651c1e8d439ec71e9de1f152","null","null","<p style=""font-size: 60px; font-family: BACS"">vblrkam</p>","","","","","","","","","",""
"html-keyboard-response","201","275987","0.0-12.0-0.31","5f784f5b98f4963cdf902340","650c16f0f2faf8d7a0d14c09","651c1e8d439ec71e9de1f152","null","null","<p style=""font-size: 60px; font-family: BACS"">TDKhYcM</p>","","","","","","","","","",""
"html-keyboard-response","202","277003","0.0-12.0-0.32","5f784f5b98f4963cdf902340","650c16f0f2faf8d7a0d14c09","651c1e8d439ec71e9de1f152","null","null","<p style=""font-size: 60px; font-family: BACS"">JrGvmkc</p>","","","","","","","","","",""
"html-keyboard-response","203","278015","0.0-12.0-0.33","5f784f5b98f4963cdf902340","650c16f0f2faf8d7a0d14c09","651c1e8d439ec71e9de1f152","null","null","<p style=""font-size: 60px; font-family: BACS"">ObZbAQONk</p>","","","","","","","","","",""
"html-keyboard-response","204","279024","0.0-12.0-0.34","5f784f5b98f4963cdf902340","650c16f0f2faf8d7a0d14c09","651c1e8d439ec71e9de1f152","null","null","<p style=""font-size: 60px; font-family: BACS"">JrGvkam</p>","","","","","","","","","",""
"html-keyboard-response","205","280034","0.0-12.0-0.35","5f784f5b98f4963cdf902340","650c16f0f2faf8d7a0d14c09","651c1e8d439ec71e9de1f152","null","null","<p style=""font-size: 60px; font-family: BACS"">cDOEBOMC</p>","","","","","","","","","",""
"html-keyboard-response","206","281040","0.0-12.0-0.36","5f784f5b98f4963cdf902340","650c16f0f2faf8d7a0d14c09","651c1e8d439ec71e9de1f152","null","null","<p style=""font-size: 60px; font-family: BACS"">uvaUGrbk</p>","","","","","","","","","",""
"html-keyboard-response","207","282043","0.0-12.0-0.37","5f784f5b98f4963cdf902340","650c16f0f2faf8d7a0d14c09","651c1e8d439ec71e9de1f152","null","null","<p style=""font-size: 60px; font-family: BACS"">mbZlmkc</p>","","","","","","","","","",""
"html-keyboard-response","208","283059","0.0-12.0-0.38","5f784f5b98f4963cdf902340","650c16f0f2faf8d7a0d14c09","651c1e8d439ec71e9de1f152","null","null","<p style=""font-size: 60px; font-family: BACS"">bmdABMAB</p>","","","","","","","","","",""
"html-keyboard-response","209","284059","0.0-12.0-0.39","5f784f5b98f4963cdf902340","650c16f0f2faf8d7a0d14c09","651c1e8d439ec71e9de1f152","null","null","<p style=""font-size: 60px; font-family: BACS"">cAZuLcO</p>","","","","","","","","","",""
"html-keyboard-response","210","285066","0.0-12.0-0.40","5f784f5b98f4963cdf902340","650c16f0f2faf8d7a0d14c09","651c1e8d439ec71e9de1f152","null","null","<p style=""font-size: 60px; font-family: BACS"">vclYmkc</p>","","","","","","","","","",""
"html-keyboard-response","211","286074","0.0-12.0-0.41","5f784f5b98f4963cdf902340","650c16f0f2faf8d7a0d14c09","651c1e8d439ec71e9de1f152","null","null","<p style=""font-size: 60px; font-family: BACS"">dJNrLcO</p>","","","","","","","","","",""
"html-keyboard-response","212","287075","0.0-12.0-0.42","5f784f5b98f4963cdf902340","650c16f0f2faf8d7a0d14c09","651c1e8d439ec71e9de1f152","null","null","<p style=""font-size: 60px; font-family: BACS"">RhPmtcB</p>","","","","","","","","","",""
"html-keyboard-response","213","288082","0.0-12.0-0.43","5f784f5b98f4963cdf902340","650c16f0f2faf8d7a0d14c09","651c1e8d439ec71e9de1f152","null","null","<p style=""font-size: 60px; font-family: BACS"">OEPkMAB</p>","","","","","","","","","",""
"html-keyboard-response","214","289098","0.0-12.0-0.44","5f784f5b98f4963cdf902340","650c16f0f2faf8d7a0d14c09","651c1e8d439ec71e9de1f152","null","null","<p style=""font-size: 60px; font-family: BACS"">tcYbdYDTk</p>","","","","","","","","","",""
"html-keyboard-response","215","290114","0.0-12.0-0.45","5f784f5b98f4963cdf902340","650c16f0f2faf8d7a0d14c09","651c1e8d439ec71e9de1f152","null","null","<p style=""font-size: 60px; font-family: BACS"">ODBDAOMC</p>","","","","","","","","","",""
"html-keyboard-response","216","291116","0.0-12.0-0.46","5f784f5b98f4963cdf902340","650c16f0f2faf8d7a0d14c09","651c1e8d439ec71e9de1f152","null","null","<p style=""font-size: 60px; font-family: BACS"">NvuGrmkc</p>","","","","","","","","","",""
"html-keyboard-response","217","292118","0.0-12.0-0.47","5f784f5b98f4963cdf902340","650c16f0f2faf8d7a0d14c09","651c1e8d439ec71e9de1f152","null","null","<p style=""font-size: 60px; font-family: BACS"">mbZlLcO</p>","","","","","","","","","",""
"html-keyboard-response","218","293132","0.0-12.0-0.48","5f784f5b98f4963cdf902340","650c16f0f2faf8d7a0d14c09","651c1e8d439ec71e9de1f152","null","null","<p style=""font-size: 60px; font-family: BACS"">cDOEBtcB</p>","","","","","","","","","",""
"html-keyboard-response","219","294135","0.0-12.0-0.49","5f784f5b98f4963cdf902340","650c16f0f2faf8d7a0d14c09","651c1e8d439ec71e9de1f152","null","null","<p style=""font-size: 60px; font-family: BACS"">dKRDMAB</p>","","","","","","","","","",""
"html-keyboard-response","220","295144","0.0-12.0-0.50","5f784f5b98f4963cdf902340","650c16f0f2faf8d7a0d14c09","651c1e8d439ec71e9de1f152","null","null","<p style=""font-size: 60px; font-family: BACS"">ObZbALcO</p>","","","","","","","","","",""
"html-keyboard-response","221","296153","0.0-12.0-0.51","5f784f5b98f4963cdf902340","650c16f0f2faf8d7a0d14c09","651c1e8d439ec71e9de1f152","null","null","<p style=""font-size: 60px; font-family: BACS"">dJNrQONk</p>","","","","","","","","","",""
"html-keyboard-response","222","297166","0.0-12.0-0.52","5f784f5b98f4963cdf902340","650c16f0f2faf8d7a0d14c09","651c1e8d439ec71e9de1f152","null","null","<p style=""font-size: 60px; font-family: BACS"">tcYbdtcB</p>","","","","","","","","","",""
"html-keyboard-response","223","298167","0.0-12.0-0.53","5f784f5b98f4963cdf902340","650c16f0f2faf8d7a0d14c09","651c1e8d439ec71e9de1f152","null","null","<p style=""font-size: 60px; font-family: BACS"">cAZukam</p>","","","","","","","","","",""
"html-keyboard-response","224","299182","0.0-12.0-0.54","5f784f5b98f4963cdf902340","650c16f0f2faf8d7a0d14c09","651c1e8d439ec71e9de1f152","null","null","<p style=""font-size: 60px; font-family: BACS"">vclYGrbk</p>","","","","","","","","","",""
"html-keyboard-response","225","300196","0.0-12.0-0.55","5f784f5b98f4963cdf902340","650c16f0f2faf8d7a0d14c09","651c1e8d439ec71e9de1f152","null","null","<p style=""font-size: 60px; font-family: BACS"">BPAlYDTk</p>","","","","","","","","","",""
"html-keyboard-response","226","301208","0.0-12.0-0.56","5f784f5b98f4963cdf902340","650c16f0f2faf8d7a0d14c09","651c1e8d439ec71e9de1f152","null","null","<p style=""font-size: 60px; font-family: BACS"">dJNrmkc</p>","","","","","","","","","",""
"html-keyboard-response","227","302210","0.0-12.0-0.57","5f784f5b98f4963cdf902340","650c16f0f2faf8d7a0d14c09","651c1e8d439ec71e9de1f152","null","null","<p style=""font-size: 60px; font-family: BACS"">mbZlkam</p>","","","","","","","","","",""
"html-keyboard-response","228","303220","0.0-12.0-0.58","5f784f5b98f4963cdf902340","650c16f0f2faf8d7a0d14c09","651c1e8d439ec71e9de1f152","null","null","<p style=""font-size: 60px; font-family: BACS"">dKRDOMC</p>","","","","","","","","","",""
"html-keyboard-response","229","304235","0.0-12.0-0.59","5f784f5b98f4963cdf902340","650c16f0f2faf8d7a0d14c09","651c1e8d439ec71e9de1f152","null","null","<p style=""font-size: 60px; font-family: BACS"">vclYQONk</p>","","","","","","","","","",""
"html-keyboard-response","230","305244","0.0-12.0-0.60","5f784f5b98f4963cdf902340","650c16f0f2faf8d7a0d14c09","651c1e8d439ec71e9de1f152","null","null","<p style=""font-size: 60px; font-family: BACS"">dJNrGrbk</p>","","","","","","","","","",""
"html-keyboard-response","231","306258","0.0-12.0-0.61","5f784f5b98f4963cdf902340","650c16f0f2faf8d7a0d14c09","651c1e8d439ec71e9de1f152","null","null","<p style=""font-size: 60px; font-family: BACS"">bmdABtcB</p>","","","","","","","","","",""
"html-keyboard-response","232","307272","0.0-12.0-0.62","5f784f5b98f4963cdf902340","650c16f0f2faf8d7a0d14c09","651c1e8d439ec71e9de1f152","null","null","<p style=""font-size: 60px; font-family: BACS"">vblrmkc</p>","","","","","","","","","",""
"html-keyboard-response","233","308283","0.0-12.0-0.63","5f784f5b98f4963cdf902340","650c16f0f2faf8d7a0d14c09","651c1e8d439ec71e9de1f152","null","null","<p style=""font-size: 60px; font-family: BACS"">ODBDAtcB</p>","","","","","","","","","",""
"html-keyboard-response","234","309291","0.0-12.0-0.64","5f784f5b98f4963cdf902340","650c16f0f2faf8d7a0d14c09","651c1e8d439ec71e9de1f152","null","null","<p style=""font-size: 60px; font-family: BACS"">RhPmMAB</p>","","","","","","","","","",""
"html-keyboard-response","235","310305","0.0-12.0-0.65","5f784f5b98f4963cdf902340","650c16f0f2faf8d7a0d14c09","651c1e8d439ec71e9de1f152","null","null","<p style=""font-size: 60px; font-family: BACS"">PMPtkYDTk</p>","","","","","","","","","",""
"html-keyboard-response","236","311315","0.0-12.0-0.66","5f784f5b98f4963cdf902340","650c16f0f2faf8d7a0d14c09","651c1e8d439ec71e9de1f152","null","null","<p style=""font-size: 60px; font-family: BACS"">TDKhtcB</p>","","","","","","","","","",""
"html-keyboard-response","237","312325","0.0-12.0-0.67","5f784f5b98f4963cdf902340","650c16f0f2faf8d7a0d14c09","651c1e8d439ec71e9de1f152","null","null","<p style=""font-size: 60px; font-family: BACS"">cDOEBMAB</p>","","","","","","","","","",""
"html-keyboard-response","238","313336","0.0-12.0-0.68","5f784f5b98f4963cdf902340","650c16f0f2faf8d7a0d14c09","651c1e8d439ec71e9de1f152","null","null","<p style=""font-size: 60px; font-family: BACS"">NQZvkam</p>","","","","","","","","","",""
"html-keyboard-response","239","314347","0.0-12.0-0.69","5f784f5b98f4963cdf902340","650c16f0f2faf8d7a0d14c09","651c1e8d439ec71e9de1f152","null","null","<p style=""font-size: 60px; font-family: BACS"">NvuGrQONk</p>","","","","","","","","","",""
"html-keyboard-response","240","315356","0.0-12.0-0.70","5f784f5b98f4963cdf902340","650c16f0f2faf8d7a0d14c09","651c1e8d439ec71e9de1f152","null","null","<p style=""font-size: 60px; font-family: BACS"">uvaUmkc</p>","","","","","","","","","",""
"html-keyboard-response","241","316358","0.0-12.0-0.71","5f784f5b98f4963cdf902340","650c16f0f2faf8d7a0d14c09","651c1e8d439ec71e9de1f152","null","null","<p style=""font-size: 60px; font-family: BACS"">PMPtkYcM</p>","","","","","","","","","",""
"html-keyboard-response","242","317363","0.0-12.0-0.72","5f784f5b98f4963cdf902340","650c16f0f2faf8d7a0d14c09","651c1e8d439ec71e9de1f152","null","null","<p style=""font-size: 60px; font-family: BACS"">JrGvLcO</p>","","","","","","","","","",""
"html-keyboard-response","243","318375","0.0-12.0-0.73","5f784f5b98f4963cdf902340","650c16f0f2faf8d7a0d14c09","651c1e8d439ec71e9de1f152","null","null","<p style=""font-size: 60px; font-family: BACS"">OEPkYDTk</p>","","","","","","","","","",""
"html-keyboard-response","244","319389","0.0-12.0-0.74","5f784f5b98f4963cdf902340","650c16f0f2faf8d7a0d14c09","651c1e8d439ec71e9de1f152","null","null","<p style=""font-size: 60px; font-family: BACS"">NQZvGrbk</p>","","","","","","","","","",""
"html-keyboard-response","245","320395","0.0-12.0-0.75","5f784f5b98f4963cdf902340","650c16f0f2faf8d7a0d14c09","651c1e8d439ec71e9de1f152","null","null","<p style=""font-size: 60px; font-family: BACS"">tcYbdOMC</p>","","","","","","","","","",""
"html-keyboard-response","246","321408","0.0-12.0-0.76","5f784f5b98f4963cdf902340","650c16f0f2faf8d7a0d14c09","651c1e8d439ec71e9de1f152","null","null","<p style=""font-size: 60px; font-family: BACS"">TDKhMAB</p>","","","","","","","","","",""
"html-keyboard-response","247","322421","0.0-12.0-0.77","5f784f5b98f4963cdf902340","650c16f0f2faf8d7a0d14c09","651c1e8d439ec71e9de1f152","null","null","<p style=""font-size: 60px; font-family: BACS"">cAZuGrbk</p>","","","","","","","","","",""
"html-keyboard-response","248","323423","0.0-12.0-0.78","5f784f5b98f4963cdf902340","650c16f0f2faf8d7a0d14c09","651c1e8d439ec71e9de1f152","null","null","<p style=""font-size: 60px; font-family: BACS"">cDOEBYDTk</p>","","","","","","","","","",""
"html-keyboard-response","249","324435","0.0-12.0-0.79","5f784f5b98f4963cdf902340","650c16f0f2faf8d7a0d14c09","651c1e8d439ec71e9de1f152","null","null","<p style=""font-size: 60px; font-family: BACS"">NQZvQONk</p>","","","","","","","","","",""
"html-keyboard-response","250","328486","0.0-13.0","5f784f5b98f4963cdf902340","650c16f0f2faf8d7a0d14c09","651c1e8d439ec71e9de1f152","4051"," ","<p>Great, you've seen the third block of words. You may now take a short break.</p>
      <p>Press the spacebar when you're ready to continue.</p>","","","","","","","","","",""
"html-keyboard-response","251","329488","0.0-14.0-0.0","5f784f5b98f4963cdf902340","650c16f0f2faf8d7a0d14c09","651c1e8d439ec71e9de1f152","null","null","<p style=""font-size: 60px; font-family: BACS"">RhPmYDTk</p>","","","","","","","","","",""
"html-keyboard-response","252","330502","0.0-14.0-0.1","5f784f5b98f4963cdf902340","650c16f0f2faf8d7a0d14c09","651c1e8d439ec71e9de1f152","null","null","<p style=""font-size: 60px; font-family: BACS"">JrGvkam</p>","","","","","","","","","",""
"html-keyboard-response","253","331508","0.0-14.0-0.2","5f784f5b98f4963cdf902340","650c16f0f2faf8d7a0d14c09","651c1e8d439ec71e9de1f152","null","null","<p style=""font-size: 60px; font-family: BACS"">NvuGrQONk</p>","","","","","","","","","",""
"html-keyboard-response","254","332518","0.0-14.0-0.3","5f784f5b98f4963cdf902340","650c16f0f2faf8d7a0d14c09","651c1e8d439ec71e9de1f152","null","null","<p style=""font-size: 60px; font-family: BACS"">cAZuGrbk</p>","","","","","","","","","",""
"html-keyboard-response","255","333529","0.0-14.0-0.4","5f784f5b98f4963cdf902340","650c16f0f2faf8d7a0d14c09","651c1e8d439ec71e9de1f152","null","null","<p style=""font-size: 60px; font-family: BACS"">mbZlLcO</p>","","","","","","","","","",""
"html-keyboard-response","256","334543","0.0-14.0-0.5","5f784f5b98f4963cdf902340","650c16f0f2faf8d7a0d14c09","651c1e8d439ec71e9de1f152","null","null","<p style=""font-size: 60px; font-family: BACS"">dKRDYDTk</p>","","","","","","","","","",""
"html-keyboard-response","257","335552","0.0-14.0-0.6","5f784f5b98f4963cdf902340","650c16f0f2faf8d7a0d14c09","651c1e8d439ec71e9de1f152","null","null","<p style=""font-size: 60px; font-family: BACS"">RhPmMAB</p>","","","","","","","","","",""
"html-keyboard-response","258","336565","0.0-14.0-0.7","5f784f5b98f4963cdf902340","650c16f0f2faf8d7a0d14c09","651c1e8d439ec71e9de1f152","null","null","<p style=""font-size: 60px; font-family: BACS"">PMPtkYDTk</p>","","","","","","","","","",""
"html-keyboard-response","259","337573","0.0-14.0-0.8","5f784f5b98f4963cdf902340","650c16f0f2faf8d7a0d14c09","651c1e8d439ec71e9de1f152","null","null","<p style=""font-size: 60px; font-family: BACS"">tcYbdOMC</p>","","","","","","","","","",""
"html-keyboard-response","260","338574","0.0-14.0-0.9","5f784f5b98f4963cdf902340","650c16f0f2faf8d7a0d14c09","651c1e8d439ec71e9de1f152","null","null","<p style=""font-size: 60px; font-family: BACS"">BPAlYDTk</p>","","","","","","","","","",""
"html-keyboard-response","261","339584","0.0-14.0-0.10","5f784f5b98f4963cdf902340","650c16f0f2faf8d7a0d14c09","651c1e8d439ec71e9de1f152","null","null","<p style=""font-size: 60px; font-family: BACS"">NQZvkam</p>","","","","","","","","","",""
"html-keyboard-response","262","340588","0.0-14.0-0.11","5f784f5b98f4963cdf902340","650c16f0f2faf8d7a0d14c09","651c1e8d439ec71e9de1f152","null","null","<p style=""font-size: 60px; font-family: BACS"">cDOEBOMC</p>","","","","","","","","","",""
"html-keyboard-response","263","341601","0.0-14.0-0.12","5f784f5b98f4963cdf902340","650c16f0f2faf8d7a0d14c09","651c1e8d439ec71e9de1f152","null","null","<p style=""font-size: 60px; font-family: BACS"">mbZlQONk</p>","","","","","","","","","",""
"html-keyboard-response","264","342602","0.0-14.0-0.13","5f784f5b98f4963cdf902340","650c16f0f2faf8d7a0d14c09","651c1e8d439ec71e9de1f152","null","null","<p style=""font-size: 60px; font-family: BACS"">NvuGrLcO</p>","","","","","","","","","",""
"html-keyboard-response","265","343617","0.0-14.0-0.14","5f784f5b98f4963cdf902340","650c16f0f2faf8d7a0d14c09","651c1e8d439ec71e9de1f152","null","null","<p style=""font-size: 60px; font-family: BACS"">ODBDAYcM</p>","","","","","","","","","",""
"html-keyboard-response","266","344628","0.0-14.0-0.15","5f784f5b98f4963cdf902340","650c16f0f2faf8d7a0d14c09","651c1e8d439ec71e9de1f152","null","null","<p style=""font-size: 60px; font-family: BACS"">tcYbdYDTk</p>","","","","","","","","","",""
"html-keyboard-response","267","345629","0.0-14.0-0.16","5f784f5b98f4963cdf902340","650c16f0f2faf8d7a0d14c09","651c1e8d439ec71e9de1f152","null","null","<p style=""font-size: 60px; font-family: BACS"">vclYmkc</p>","","","","","","","","","",""
"html-keyboard-response","268","346642","0.0-14.0-0.17","5f784f5b98f4963cdf902340","650c16f0f2faf8d7a0d14c09","651c1e8d439ec71e9de1f152","null","null","<p style=""font-size: 60px; font-family: BACS"">TDKhMAB</p>","","","","","","","","","",""
"html-keyboard-response","269","347648","0.0-14.0-0.18","5f784f5b98f4963cdf902340","650c16f0f2faf8d7a0d14c09","651c1e8d439ec71e9de1f152","null","null","<p style=""font-size: 60px; font-family: BACS"">bmdABYDTk</p>","","","","","","","","","",""
"html-keyboard-response","270","348657","0.0-14.0-0.19","5f784f5b98f4963cdf902340","650c16f0f2faf8d7a0d14c09","651c1e8d439ec71e9de1f152","null","null","<p style=""font-size: 60px; font-family: BACS"">OEPkYcM</p>","","","","","","","","","",""
"html-keyboard-response","271","349669","0.0-14.0-0.20","5f784f5b98f4963cdf902340","650c16f0f2faf8d7a0d14c09","651c1e8d439ec71e9de1f152","null","null","<p style=""font-size: 60px; font-family: BACS"">vblrmkc</p>","","","","","","","","","",""
"html-keyboard-response","272","350672","0.0-14.0-0.21","5f784f5b98f4963cdf902340","650c16f0f2faf8d7a0d14c09","651c1e8d439ec71e9de1f152","null","null","<p style=""font-size: 60px; font-family: BACS"">bmdABtcB</p>","","","","","","","","","",""
"html-keyboard-response","273","351686","0.0-14.0-0.22","5f784f5b98f4963cdf902340","650c16f0f2faf8d7a0d14c09","651c1e8d439ec71e9de1f152","null","null","<p style=""font-size: 60px; font-family: BACS"">uvaUGrbk</p>","","","","","","","","","",""
"html-keyboard-response","274","352689","0.0-14.0-0.23","5f784f5b98f4963cdf902340","650c16f0f2faf8d7a0d14c09","651c1e8d439ec71e9de1f152","null","null","<p style=""font-size: 60px; font-family: BACS"">RhPmYcM</p>","","","","","","","","","",""
"html-keyboard-response","275","353698","0.0-14.0-0.24","5f784f5b98f4963cdf902340","650c16f0f2faf8d7a0d14c09","651c1e8d439ec71e9de1f152","null","null","<p style=""font-size: 60px; font-family: BACS"">cAZumkc</p>","","","","","","","","","",""
"html-keyboard-response","276","354711","0.0-14.0-0.25","5f784f5b98f4963cdf902340","650c16f0f2faf8d7a0d14c09","651c1e8d439ec71e9de1f152","null","null","<p style=""font-size: 60px; font-family: BACS"">dKRDOMC</p>","","","","","","","","","",""
"html-keyboard-response","277","355721","0.0-14.0-0.26","5f784f5b98f4963cdf902340","650c16f0f2faf8d7a0d14c09","651c1e8d439ec71e9de1f152","null","null","<p style=""font-size: 60px; font-family: BACS"">vclYGrbk</p>","","","","","","","","","",""
"html-keyboard-response","278","356735","0.0-14.0-0.27","5f784f5b98f4963cdf902340","650c16f0f2faf8d7a0d14c09","651c1e8d439ec71e9de1f152","null","null","<p style=""font-size: 60px; font-family: BACS"">TDKhYcM</p>","","","","","","","","","",""
"html-keyboard-response","279","357748","0.0-14.0-0.28","5f784f5b98f4963cdf902340","650c16f0f2faf8d7a0d14c09","651c1e8d439ec71e9de1f152","null","null","<p style=""font-size: 60px; font-family: BACS"">NvuGrGrbk</p>","","","","","","","","","",""
"html-keyboard-response","280","358749","0.0-14.0-0.29","5f784f5b98f4963cdf902340","650c16f0f2faf8d7a0d14c09","651c1e8d439ec71e9de1f152","null","null","<p style=""font-size: 60px; font-family: BACS"">dKRDMAB</p>","","","","","","","","","",""
"html-keyboard-response","281","359762","0.0-14.0-0.30","5f784f5b98f4963cdf902340","650c16f0f2faf8d7a0d14c09","651c1e8d439ec71e9de1f152","null","null","<p style=""font-size: 60px; font-family: BACS"">TDKhtcB</p>","","","","","","","","","",""
"html-keyboard-response","282","360768","0.0-14.0-0.31","5f784f5b98f4963cdf902340","650c16f0f2faf8d7a0d14c09","651c1e8d439ec71e9de1f152","null","null","<p style=""font-size: 60px; font-family: BACS"">BPAlYcM</p>","","","","","","","","","",""
"html-keyboard-response","283","361770","0.0-14.0-0.32","5f784f5b98f4963cdf902340","650c16f0f2faf8d7a0d14c09","651c1e8d439ec71e9de1f152","null","null","<p style=""font-size: 60px; font-family: BACS"">dJNrQONk</p>","","","","","","","","","",""
"html-keyboard-response","284","362771","0.0-14.0-0.33","5f784f5b98f4963cdf902340","650c16f0f2faf8d7a0d14c09","651c1e8d439ec71e9de1f152","null","null","<p style=""font-size: 60px; font-family: BACS"">ODBDAOMC</p>","","","","","","","","","",""
"html-keyboard-response","285","363777","0.0-14.0-0.34","5f784f5b98f4963cdf902340","650c16f0f2faf8d7a0d14c09","651c1e8d439ec71e9de1f152","null","null","<p style=""font-size: 60px; font-family: BACS"">RhPmtcB</p>","","","","","","","","","",""
"html-keyboard-response","286","364791","0.0-14.0-0.35","5f784f5b98f4963cdf902340","650c16f0f2faf8d7a0d14c09","651c1e8d439ec71e9de1f152","null","null","<p style=""font-size: 60px; font-family: BACS"">vblrGrbk</p>","","","","","","","","","",""
"html-keyboard-response","287","365792","0.0-14.0-0.36","5f784f5b98f4963cdf902340","650c16f0f2faf8d7a0d14c09","651c1e8d439ec71e9de1f152","null","null","<p style=""font-size: 60px; font-family: BACS"">OEPkOMC</p>","","","","","","","","","",""
"html-keyboard-response","288","366802","0.0-14.0-0.37","5f784f5b98f4963cdf902340","650c16f0f2faf8d7a0d14c09","651c1e8d439ec71e9de1f152","null","null","<p style=""font-size: 60px; font-family: BACS"">vblrQONk</p>","","","","","","","","","",""
"html-keyboard-response","289","367814","0.0-14.0-0.38","5f784f5b98f4963cdf902340","650c16f0f2faf8d7a0d14c09","651c1e8d439ec71e9de1f152","null","null","<p style=""font-size: 60px; font-family: BACS"">uvaULcO</p>","","","","","","","","","",""
"html-keyboard-response","290","368815","0.0-14.0-0.39","5f784f5b98f4963cdf902340","650c16f0f2faf8d7a0d14c09","651c1e8d439ec71e9de1f152","null","null","<p style=""font-size: 60px; font-family: BACS"">OEPkMAB</p>","","","","","","","","","",""
"html-keyboard-response","291","369821","0.0-14.0-0.40","5f784f5b98f4963cdf902340","650c16f0f2faf8d7a0d14c09","651c1e8d439ec71e9de1f152","null","null","<p style=""font-size: 60px; font-family: BACS"">JrGvQONk</p>","","","","","","","","","",""
"html-keyboard-response","292","370831","0.0-14.0-0.41","5f784f5b98f4963cdf902340","650c16f0f2faf8d7a0d14c09","651c1e8d439ec71e9de1f152","null","null","<p style=""font-size: 60px; font-family: BACS"">ObZbALcO</p>","","","","","","","","","",""
"html-keyboard-response","293","371846","0.0-14.0-0.42","5f784f5b98f4963cdf902340","650c16f0f2faf8d7a0d14c09","651c1e8d439ec71e9de1f152","null","null","<p style=""font-size: 60px; font-family: BACS"">PMPtkMAB</p>","","","","","","","","","",""
"html-keyboard-response","294","372860","0.0-14.0-0.43","5f784f5b98f4963cdf902340","650c16f0f2faf8d7a0d14c09","651c1e8d439ec71e9de1f152","null","null","<p style=""font-size: 60px; font-family: BACS"">cDOEBYDTk</p>","","","","","","","","","",""
"html-keyboard-response","295","373870","0.0-14.0-0.44","5f784f5b98f4963cdf902340","650c16f0f2faf8d7a0d14c09","651c1e8d439ec71e9de1f152","null","null","<p style=""font-size: 60px; font-family: BACS"">NvuGrmkc</p>","","","","","","","","","",""
"html-keyboard-response","296","374880","0.0-14.0-0.45","5f784f5b98f4963cdf902340","650c16f0f2faf8d7a0d14c09","651c1e8d439ec71e9de1f152","null","null","<p style=""font-size: 60px; font-family: BACS"">vclYQONk</p>","","","","","","","","","",""
"html-keyboard-response","297","375886","0.0-14.0-0.46","5f784f5b98f4963cdf902340","650c16f0f2faf8d7a0d14c09","651c1e8d439ec71e9de1f152","null","null","<p style=""font-size: 60px; font-family: BACS"">ODBDAMAB</p>","","","","","","","","","",""
"html-keyboard-response","298","376895","0.0-14.0-0.47","5f784f5b98f4963cdf902340","650c16f0f2faf8d7a0d14c09","651c1e8d439ec71e9de1f152","null","null","<p style=""font-size: 60px; font-family: BACS"">PMPtkYcM</p>","","","","","","","","","",""
"html-keyboard-response","299","377902","0.0-14.0-0.48","5f784f5b98f4963cdf902340","650c16f0f2faf8d7a0d14c09","651c1e8d439ec71e9de1f152","null","null","<p style=""font-size: 60px; font-family: BACS"">cAZuLcO</p>","","","","","","","","","",""
"html-keyboard-response","300","378910","0.0-14.0-0.49","5f784f5b98f4963cdf902340","650c16f0f2faf8d7a0d14c09","651c1e8d439ec71e9de1f152","null","null","<p style=""font-size: 60px; font-family: BACS"">OEPkYDTk</p>","","","","","","","","","",""
"html-keyboard-response","301","379923","0.0-14.0-0.50","5f784f5b98f4963cdf902340","650c16f0f2faf8d7a0d14c09","651c1e8d439ec71e9de1f152","null","null","<p style=""font-size: 60px; font-family: BACS"">ObZbAkam</p>","","","","","","","","","",""
"html-keyboard-response","302","380935","0.0-14.0-0.51","5f784f5b98f4963cdf902340","650c16f0f2faf8d7a0d14c09","651c1e8d439ec71e9de1f152","null","null","<p style=""font-size: 60px; font-family: BACS"">dJNrmkc</p>","","","","","","","","","",""
"html-keyboard-response","303","381936","0.0-14.0-0.52","5f784f5b98f4963cdf902340","650c16f0f2faf8d7a0d14c09","651c1e8d439ec71e9de1f152","null","null","<p style=""font-size: 60px; font-family: BACS"">mbZlkam</p>","","","","","","","","","",""
"html-keyboard-response","304","382941","0.0-14.0-0.53","5f784f5b98f4963cdf902340","650c16f0f2faf8d7a0d14c09","651c1e8d439ec71e9de1f152","null","null","<p style=""font-size: 60px; font-family: BACS"">ObZbAQONk</p>","","","","","","","","","",""
"html-keyboard-response","305","383958","0.0-14.0-0.54","5f784f5b98f4963cdf902340","650c16f0f2faf8d7a0d14c09","651c1e8d439ec71e9de1f152","null","null","<p style=""font-size: 60px; font-family: BACS"">mbZlmkc</p>","","","","","","","","","",""
"html-keyboard-response","306","384965","0.0-14.0-0.55","5f784f5b98f4963cdf902340","650c16f0f2faf8d7a0d14c09","651c1e8d439ec71e9de1f152","null","null","<p style=""font-size: 60px; font-family: BACS"">ObZbAGrbk</p>","","","","","","","","","",""
"html-keyboard-response","307","385968","0.0-14.0-0.56","5f784f5b98f4963cdf902340","650c16f0f2faf8d7a0d14c09","651c1e8d439ec71e9de1f152","null","null","<p style=""font-size: 60px; font-family: BACS"">cAZukam</p>","","","","","","","","","",""
"html-keyboard-response","308","386977","0.0-14.0-0.57","5f784f5b98f4963cdf902340","650c16f0f2faf8d7a0d14c09","651c1e8d439ec71e9de1f152","null","null","<p style=""font-size: 60px; font-family: BACS"">NQZvGrbk</p>","","","","","","","","","",""
"html-keyboard-response","309","387977","0.0-14.0-0.58","5f784f5b98f4963cdf902340","650c16f0f2faf8d7a0d14c09","651c1e8d439ec71e9de1f152","null","null","<p style=""font-size: 60px; font-family: BACS"">tcYbdtcB</p>","","","","","","","","","",""
"html-keyboard-response","310","388989","0.0-14.0-0.59","5f784f5b98f4963cdf902340","650c16f0f2faf8d7a0d14c09","651c1e8d439ec71e9de1f152","null","null","<p style=""font-size: 60px; font-family: BACS"">JrGvLcO</p>","","","","","","","","","",""
"html-keyboard-response","311","389990","0.0-14.0-0.60","5f784f5b98f4963cdf902340","650c16f0f2faf8d7a0d14c09","651c1e8d439ec71e9de1f152","null","null","<p style=""font-size: 60px; font-family: BACS"">NQZvQONk</p>","","","","","","","","","",""
"html-keyboard-response","312","390991","0.0-14.0-0.61","5f784f5b98f4963cdf902340","650c16f0f2faf8d7a0d14c09","651c1e8d439ec71e9de1f152","null","null","<p style=""font-size: 60px; font-family: BACS"">dJNrLcO</p>","","","","","","","","","",""
"html-keyboard-response","313","391991","0.0-14.0-0.62","5f784f5b98f4963cdf902340","650c16f0f2faf8d7a0d14c09","651c1e8d439ec71e9de1f152","null","null","<p style=""font-size: 60px; font-family: BACS"">tcYbdYcM</p>","","","","","","","","","",""
"html-keyboard-response","314","393003","0.0-14.0-0.63","5f784f5b98f4963cdf902340","650c16f0f2faf8d7a0d14c09","651c1e8d439ec71e9de1f152","null","null","<p style=""font-size: 60px; font-family: BACS"">BPAltcB</p>","","","","","","","","","",""
"html-keyboard-response","315","394007","0.0-14.0-0.64","5f784f5b98f4963cdf902340","650c16f0f2faf8d7a0d14c09","651c1e8d439ec71e9de1f152","null","null","<p style=""font-size: 60px; font-family: BACS"">uvaUkam</p>","","","","","","","","","",""
"html-keyboard-response","316","395015","0.0-14.0-0.65","5f784f5b98f4963cdf902340","650c16f0f2faf8d7a0d14c09","651c1e8d439ec71e9de1f152","null","null","<p style=""font-size: 60px; font-family: BACS"">BPAlOMC</p>","","","","","","","","","",""
"html-keyboard-response","317","396017","0.0-14.0-0.66","5f784f5b98f4963cdf902340","650c16f0f2faf8d7a0d14c09","651c1e8d439ec71e9de1f152","null","null","<p style=""font-size: 60px; font-family: BACS"">uvaUmkc</p>","","","","","","","","","",""
"html-keyboard-response","318","397022","0.0-14.0-0.67","5f784f5b98f4963cdf902340","650c16f0f2faf8d7a0d14c09","651c1e8d439ec71e9de1f152","null","null","<p style=""font-size: 60px; font-family: BACS"">dKRDtcB</p>","","","","","","","","","",""
"html-keyboard-response","319","398028","0.0-14.0-0.68","5f784f5b98f4963cdf902340","650c16f0f2faf8d7a0d14c09","651c1e8d439ec71e9de1f152","null","null","<p style=""font-size: 60px; font-family: BACS"">JrGvmkc</p>","","","","","","","","","",""
"html-keyboard-response","320","399039","0.0-14.0-0.69","5f784f5b98f4963cdf902340","650c16f0f2faf8d7a0d14c09","651c1e8d439ec71e9de1f152","null","null","<p style=""font-size: 60px; font-family: BACS"">PMPtkOMC</p>","","","","","","","","","",""
"html-keyboard-response","321","400040","0.0-14.0-0.70","5f784f5b98f4963cdf902340","650c16f0f2faf8d7a0d14c09","651c1e8d439ec71e9de1f152","null","null","<p style=""font-size: 60px; font-family: BACS"">dJNrGrbk</p>","","","","","","","","","",""
"html-keyboard-response","322","401054","0.0-14.0-0.71","5f784f5b98f4963cdf902340","650c16f0f2faf8d7a0d14c09","651c1e8d439ec71e9de1f152","null","null","<p style=""font-size: 60px; font-family: BACS"">TDKhOMC</p>","","","","","","","","","",""
"html-keyboard-response","323","402055","0.0-14.0-0.72","5f784f5b98f4963cdf902340","650c16f0f2faf8d7a0d14c09","651c1e8d439ec71e9de1f152","null","null","<p style=""font-size: 60px; font-family: BACS"">bmdABMAB</p>","","","","","","","","","",""
"html-keyboard-response","324","403066","0.0-14.0-0.73","5f784f5b98f4963cdf902340","650c16f0f2faf8d7a0d14c09","651c1e8d439ec71e9de1f152","null","null","<p style=""font-size: 60px; font-family: BACS"">ODBDAtcB</p>","","","","","","","","","",""
"html-keyboard-response","325","404067","0.0-14.0-0.74","5f784f5b98f4963cdf902340","650c16f0f2faf8d7a0d14c09","651c1e8d439ec71e9de1f152","null","null","<p style=""font-size: 60px; font-family: BACS"">NQZvLcO</p>","","","","","","","","","",""
"html-keyboard-response","326","405080","0.0-14.0-0.75","5f784f5b98f4963cdf902340","650c16f0f2faf8d7a0d14c09","651c1e8d439ec71e9de1f152","null","null","<p style=""font-size: 60px; font-family: BACS"">vclYkam</p>","","","","","","","","","",""
"html-keyboard-response","327","406095","0.0-14.0-0.76","5f784f5b98f4963cdf902340","650c16f0f2faf8d7a0d14c09","651c1e8d439ec71e9de1f152","null","null","<p style=""font-size: 60px; font-family: BACS"">cDOEBMAB</p>","","","","","","","","","",""
"html-keyboard-response","328","407109","0.0-14.0-0.77","5f784f5b98f4963cdf902340","650c16f0f2faf8d7a0d14c09","651c1e8d439ec71e9de1f152","null","null","<p style=""font-size: 60px; font-family: BACS"">vblrkam</p>","","","","","","","","","",""
"html-keyboard-response","329","408120","0.0-14.0-0.78","5f784f5b98f4963cdf902340","650c16f0f2faf8d7a0d14c09","651c1e8d439ec71e9de1f152","null","null","<p style=""font-size: 60px; font-family: BACS"">bmdABYcM</p>","","","","","","","","","",""
"html-keyboard-response","330","409122","0.0-14.0-0.79","5f784f5b98f4963cdf902340","650c16f0f2faf8d7a0d14c09","651c1e8d439ec71e9de1f152","null","null","<p style=""font-size: 60px; font-family: BACS"">cDOEBtcB</p>","","","","","","","","","",""
"html-keyboard-response","331","418731","0.0-15.0","5f784f5b98f4963cdf902340","650c16f0f2faf8d7a0d14c09","651c1e8d439ec71e9de1f152","9608"," ","<p>Great, you've seen the fourth block of words. You may now take a short break.</p>
      <p>Press the spacebar when you're ready to continue.</p>","","","","","","","","","",""
"html-keyboard-response","332","419742","0.0-16.0-0.0","5f784f5b98f4963cdf902340","650c16f0f2faf8d7a0d14c09","651c1e8d439ec71e9de1f152","null","null","<p style=""font-size: 60px; font-family: BACS"">uvaUmkc</p>","","","","","","","","","",""
"html-keyboard-response","333","420757","0.0-16.0-0.1","5f784f5b98f4963cdf902340","650c16f0f2faf8d7a0d14c09","651c1e8d439ec71e9de1f152","null","null","<p style=""font-size: 60px; font-family: BACS"">uvaUmkc</p>","","","","","","","","","",""
"html-keyboard-response","334","421770","0.0-16.0-0.2","5f784f5b98f4963cdf902340","650c16f0f2faf8d7a0d14c09","651c1e8d439ec71e9de1f152","null","null","<p style=""font-size: 60px; font-family: BACS"">uvaUmkc</p>","","","","","","","","","",""
"html-keyboard-response","335","422771","0.0-16.0-0.3","5f784f5b98f4963cdf902340","650c16f0f2faf8d7a0d14c09","651c1e8d439ec71e9de1f152","null","null","<p style=""font-size: 60px; font-family: BACS"">uvaUmkc</p>","","","","","","","","","",""
"html-keyboard-response","336","423782","0.0-16.0-0.4","5f784f5b98f4963cdf902340","650c16f0f2faf8d7a0d14c09","651c1e8d439ec71e9de1f152","null","null","<p style=""font-size: 60px; font-family: BACS"">uvaUmkc</p>","","","","","","","","","",""
"html-keyboard-response","337","424796","0.0-16.0-0.5","5f784f5b98f4963cdf902340","650c16f0f2faf8d7a0d14c09","651c1e8d439ec71e9de1f152","null","null","<p style=""font-size: 60px; font-family: BACS"">uvaUmkc</p>","","","","","","","","","",""
"html-keyboard-response","338","425808","0.0-16.0-0.6","5f784f5b98f4963cdf902340","650c16f0f2faf8d7a0d14c09","651c1e8d439ec71e9de1f152","null","null","<p style=""font-size: 60px; font-family: BACS"">uvaUmkc</p>","","","","","","","","","",""
"html-keyboard-response","339","426822","0.0-16.0-0.7","5f784f5b98f4963cdf902340","650c16f0f2faf8d7a0d14c09","651c1e8d439ec71e9de1f152","null","null","<p style=""font-size: 60px; font-family: BACS"">uvaUmkc</p>","","","","","","","","","",""
"html-keyboard-response","340","427828","0.0-16.0-0.8","5f784f5b98f4963cdf902340","650c16f0f2faf8d7a0d14c09","651c1e8d439ec71e9de1f152","null","null","<p style=""font-size: 60px; font-family: BACS"">uvaUmkc</p>","","","","","","","","","",""
"html-keyboard-response","341","428828","0.0-16.0-0.9","5f784f5b98f4963cdf902340","650c16f0f2faf8d7a0d14c09","651c1e8d439ec71e9de1f152","null","null","<p style=""font-size: 60px; font-family: BACS"">uvaUmkc</p>","","","","","","","","","",""
"html-keyboard-response","342","429836","0.0-16.0-0.10","5f784f5b98f4963cdf902340","650c16f0f2faf8d7a0d14c09","651c1e8d439ec71e9de1f152","null","null","<p style=""font-size: 60px; font-family: BACS"">uvaUmkc</p>","","","","","","","","","",""
"html-keyboard-response","343","430850","0.0-16.0-0.11","5f784f5b98f4963cdf902340","650c16f0f2faf8d7a0d14c09","651c1e8d439ec71e9de1f152","null","null","<p style=""font-size: 60px; font-family: BACS"">uvaUmkc</p>","","","","","","","","","",""
"html-keyboard-response","344","431862","0.0-16.0-0.12","5f784f5b98f4963cdf902340","650c16f0f2faf8d7a0d14c09","651c1e8d439ec71e9de1f152","null","null","<p style=""font-size: 60px; font-family: BACS"">uvaUmkc</p>","","","","","","","","","",""
"html-keyboard-response","345","432877","0.0-16.0-0.13","5f784f5b98f4963cdf902340","650c16f0f2faf8d7a0d14c09","651c1e8d439ec71e9de1f152","null","null","<p style=""font-size: 60px; font-family: BACS"">uvaUmkc</p>","","","","","","","","","",""
"html-keyboard-response","346","433878","0.0-16.0-0.14","5f784f5b98f4963cdf902340","650c16f0f2faf8d7a0d14c09","651c1e8d439ec71e9de1f152","null","null","<p style=""font-size: 60px; font-family: BACS"">uvaUmkc</p>","","","","","","","","","",""
"html-keyboard-response","347","434882","0.0-16.0-0.15","5f784f5b98f4963cdf902340","650c16f0f2faf8d7a0d14c09","651c1e8d439ec71e9de1f152","null","null","<p style=""font-size: 60px; font-family: BACS"">uvaUmkc</p>","","","","","","","","","",""
"html-keyboard-response","348","435897","0.0-16.0-0.16","5f784f5b98f4963cdf902340","650c16f0f2faf8d7a0d14c09","651c1e8d439ec71e9de1f152","null","null","<p style=""font-size: 60px; font-family: BACS"">uvaUmkc</p>","","","","","","","","","",""
"html-keyboard-response","349","436911","0.0-16.0-0.17","5f784f5b98f4963cdf902340","650c16f0f2faf8d7a0d14c09","651c1e8d439ec71e9de1f152","null","null","<p style=""font-size: 60px; font-family: BACS"">uvaUmkc</p>","","","","","","","","","",""
"html-keyboard-response","350","437912","0.0-16.0-0.18","5f784f5b98f4963cdf902340","650c16f0f2faf8d7a0d14c09","651c1e8d439ec71e9de1f152","null","null","<p style=""font-size: 60px; font-family: BACS"">uvaUmkc</p>","","","","","","","","","",""
"html-keyboard-response","351","438918","0.0-16.0-0.19","5f784f5b98f4963cdf902340","650c16f0f2faf8d7a0d14c09","651c1e8d439ec71e9de1f152","null","null","<p style=""font-size: 60px; font-family: BACS"">uvaUmkc</p>","","","","","","","","","",""
"html-keyboard-response","352","439932","0.0-16.0-0.20","5f784f5b98f4963cdf902340","650c16f0f2faf8d7a0d14c09","651c1e8d439ec71e9de1f152","null","null","<p style=""font-size: 60px; font-family: BACS"">uvaUmkc</p>","","","","","","","","","",""
"html-keyboard-response","353","440940","0.0-16.0-0.21","5f784f5b98f4963cdf902340","650c16f0f2faf8d7a0d14c09","651c1e8d439ec71e9de1f152","null","null","<p style=""font-size: 60px; font-family: BACS"">uvaUmkc</p>","","","","","","","","","",""
"html-keyboard-response","354","441955","0.0-16.0-0.22","5f784f5b98f4963cdf902340","650c16f0f2faf8d7a0d14c09","651c1e8d439ec71e9de1f152","null","null","<p style=""font-size: 60px; font-family: BACS"">uvaUmkc</p>","","","","","","","","","",""
"html-keyboard-response","355","442957","0.0-16.0-0.23","5f784f5b98f4963cdf902340","650c16f0f2faf8d7a0d14c09","651c1e8d439ec71e9de1f152","null","null","<p style=""font-size: 60px; font-family: BACS"">uvaUmkc</p>","","","","","","","","","",""
"html-keyboard-response","356","443957","0.0-16.0-0.24","5f784f5b98f4963cdf902340","650c16f0f2faf8d7a0d14c09","651c1e8d439ec71e9de1f152","null","null","<p style=""font-size: 60px; font-family: BACS"">uvaUmkc</p>","","","","","","","","","",""
"html-keyboard-response","357","444960","0.0-16.0-0.25","5f784f5b98f4963cdf902340","650c16f0f2faf8d7a0d14c09","651c1e8d439ec71e9de1f152","null","null","<p style=""font-size: 60px; font-family: BACS"">uvaUmkc</p>","","","","","","","","","",""
"html-keyboard-response","358","445973","0.0-16.0-0.26","5f784f5b98f4963cdf902340","650c16f0f2faf8d7a0d14c09","651c1e8d439ec71e9de1f152","null","null","<p style=""font-size: 60px; font-family: BACS"">uvaUmkc</p>","","","","","","","","","",""
"html-keyboard-response","359","446976","0.0-16.0-0.27","5f784f5b98f4963cdf902340","650c16f0f2faf8d7a0d14c09","651c1e8d439ec71e9de1f152","null","null","<p style=""font-size: 60px; font-family: BACS"">uvaUmkc</p>","","","","","","","","","",""
"html-keyboard-response","360","447983","0.0-16.0-0.28","5f784f5b98f4963cdf902340","650c16f0f2faf8d7a0d14c09","651c1e8d439ec71e9de1f152","null","null","<p style=""font-size: 60px; font-family: BACS"">uvaUmkc</p>","","","","","","","","","",""
"html-keyboard-response","361","448992","0.0-16.0-0.29","5f784f5b98f4963cdf902340","650c16f0f2faf8d7a0d14c09","651c1e8d439ec71e9de1f152","null","null","<p style=""font-size: 60px; font-family: BACS"">uvaUmkc</p>","","","","","","","","","",""
"html-keyboard-response","362","449993","0.0-16.0-0.30","5f784f5b98f4963cdf902340","650c16f0f2faf8d7a0d14c09","651c1e8d439ec71e9de1f152","null","null","<p style=""font-size: 60px; font-family: BACS"">uvaUmkc</p>","","","","","","","","","",""
"html-keyboard-response","363","450994","0.0-16.0-0.31","5f784f5b98f4963cdf902340","650c16f0f2faf8d7a0d14c09","651c1e8d439ec71e9de1f152","null","null","<p style=""font-size: 60px; font-family: BACS"">uvaUmkc</p>","","","","","","","","","",""
"html-keyboard-response","364","451995","0.0-16.0-0.32","5f784f5b98f4963cdf902340","650c16f0f2faf8d7a0d14c09","651c1e8d439ec71e9de1f152","null","null","<p style=""font-size: 60px; font-family: BACS"">uvaUmkc</p>","","","","","","","","","",""
"html-keyboard-response","365","453004","0.0-16.0-0.33","5f784f5b98f4963cdf902340","650c16f0f2faf8d7a0d14c09","651c1e8d439ec71e9de1f152","null","null","<p style=""font-size: 60px; font-family: BACS"">uvaUmkc</p>","","","","","","","","","",""
"html-keyboard-response","366","454018","0.0-16.0-0.34","5f784f5b98f4963cdf902340","650c16f0f2faf8d7a0d14c09","651c1e8d439ec71e9de1f152","null","null","<p style=""font-size: 60px; font-family: BACS"">uvaUmkc</p>","","","","","","","","","",""
"html-keyboard-response","367","455032","0.0-16.0-0.35","5f784f5b98f4963cdf902340","650c16f0f2faf8d7a0d14c09","651c1e8d439ec71e9de1f152","null","null","<p style=""font-size: 60px; font-family: BACS"">uvaUmkc</p>","","","","","","","","","",""
"html-keyboard-response","368","456045","0.0-16.0-0.36","5f784f5b98f4963cdf902340","650c16f0f2faf8d7a0d14c09","651c1e8d439ec71e9de1f152","null","null","<p style=""font-size: 60px; font-family: BACS"">uvaUmkc</p>","","","","","","","","","",""
"html-keyboard-response","369","457058","0.0-16.0-0.37","5f784f5b98f4963cdf902340","650c16f0f2faf8d7a0d14c09","651c1e8d439ec71e9de1f152","null","null","<p style=""font-size: 60px; font-family: BACS"">uvaUmkc</p>","","","","","","","","","",""
"html-keyboard-response","370","458073","0.0-16.0-0.38","5f784f5b98f4963cdf902340","650c16f0f2faf8d7a0d14c09","651c1e8d439ec71e9de1f152","null","null","<p style=""font-size: 60px; font-family: BACS"">uvaUmkc</p>","","","","","","","","","",""
"html-keyboard-response","371","459088","0.0-16.0-0.39","5f784f5b98f4963cdf902340","650c16f0f2faf8d7a0d14c09","651c1e8d439ec71e9de1f152","null","null","<p style=""font-size: 60px; font-family: BACS"">uvaUmkc</p>","","","","","","","","","",""
"html-keyboard-response","372","460103","0.0-16.0-0.40","5f784f5b98f4963cdf902340","650c16f0f2faf8d7a0d14c09","651c1e8d439ec71e9de1f152","null","null","<p style=""font-size: 60px; font-family: BACS"">uvaUmkc</p>","","","","","","","","","",""
"html-keyboard-response","373","461104","0.0-16.0-0.41","5f784f5b98f4963cdf902340","650c16f0f2faf8d7a0d14c09","651c1e8d439ec71e9de1f152","null","null","<p style=""font-size: 60px; font-family: BACS"">uvaUmkc</p>","","","","","","","","","",""
"html-keyboard-response","374","462118","0.0-16.0-0.42","5f784f5b98f4963cdf902340","650c16f0f2faf8d7a0d14c09","651c1e8d439ec71e9de1f152","null","null","<p style=""font-size: 60px; font-family: BACS"">uvaUmkc</p>","","","","","","","","","",""
"html-keyboard-response","375","463131","0.0-16.0-0.43","5f784f5b98f4963cdf902340","650c16f0f2faf8d7a0d14c09","651c1e8d439ec71e9de1f152","null","null","<p style=""font-size: 60px; font-family: BACS"">uvaUmkc</p>","","","","","","","","","",""
"html-keyboard-response","376","464133","0.0-16.0-0.44","5f784f5b98f4963cdf902340","650c16f0f2faf8d7a0d14c09","651c1e8d439ec71e9de1f152","null","null","<p style=""font-size: 60px; font-family: BACS"">uvaUmkc</p>","","","","","","","","","",""
"html-keyboard-response","377","465142","0.0-16.0-0.45","5f784f5b98f4963cdf902340","650c16f0f2faf8d7a0d14c09","651c1e8d439ec71e9de1f152","null","null","<p style=""font-size: 60px; font-family: BACS"">uvaUmkc</p>","","","","","","","","","",""
"html-keyboard-response","378","466143","0.0-16.0-0.46","5f784f5b98f4963cdf902340","650c16f0f2faf8d7a0d14c09","651c1e8d439ec71e9de1f152","null","null","<p style=""font-size: 60px; font-family: BACS"">uvaUmkc</p>","","","","","","","","","",""
"html-keyboard-response","379","467148","0.0-16.0-0.47","5f784f5b98f4963cdf902340","650c16f0f2faf8d7a0d14c09","651c1e8d439ec71e9de1f152","null","null","<p style=""font-size: 60px; font-family: BACS"">uvaUmkc</p>","","","","","","","","","",""
"html-keyboard-response","380","468156","0.0-16.0-0.48","5f784f5b98f4963cdf902340","650c16f0f2faf8d7a0d14c09","651c1e8d439ec71e9de1f152","null","null","<p style=""font-size: 60px; font-family: BACS"">uvaUmkc</p>","","","","","","","","","",""
"html-keyboard-response","381","469165","0.0-16.0-0.49","5f784f5b98f4963cdf902340","650c16f0f2faf8d7a0d14c09","651c1e8d439ec71e9de1f152","null","null","<p style=""font-size: 60px; font-family: BACS"">uvaUmkc</p>","","","","","","","","","",""
"html-keyboard-response","382","470167","0.0-16.0-0.50","5f784f5b98f4963cdf902340","650c16f0f2faf8d7a0d14c09","651c1e8d439ec71e9de1f152","null","null","<p style=""font-size: 60px; font-family: BACS"">uvaUmkc</p>","","","","","","","","","",""
"html-keyboard-response","383","471178","0.0-16.0-0.51","5f784f5b98f4963cdf902340","650c16f0f2faf8d7a0d14c09","651c1e8d439ec71e9de1f152","null","null","<p style=""font-size: 60px; font-family: BACS"">uvaUmkc</p>","","","","","","","","","",""
"html-keyboard-response","384","472191","0.0-16.0-0.52","5f784f5b98f4963cdf902340","650c16f0f2faf8d7a0d14c09","651c1e8d439ec71e9de1f152","null","null","<p style=""font-size: 60px; font-family: BACS"">uvaUmkc</p>","","","","","","","","","",""
"html-keyboard-response","385","473207","0.0-16.0-0.53","5f784f5b98f4963cdf902340","650c16f0f2faf8d7a0d14c09","651c1e8d439ec71e9de1f152","null","null","<p style=""font-size: 60px; font-family: BACS"">uvaUmkc</p>","","","","","","","","","",""
"html-keyboard-response","386","474218","0.0-16.0-0.54","5f784f5b98f4963cdf902340","650c16f0f2faf8d7a0d14c09","651c1e8d439ec71e9de1f152","null","null","<p style=""font-size: 60px; font-family: BACS"">uvaUmkc</p>","","","","","","","","","",""
"html-keyboard-response","387","475219","0.0-16.0-0.55","5f784f5b98f4963cdf902340","650c16f0f2faf8d7a0d14c09","651c1e8d439ec71e9de1f152","null","null","<p style=""font-size: 60px; font-family: BACS"">uvaUmkc</p>","","","","","","","","","",""
"html-keyboard-response","388","476222","0.0-16.0-0.56","5f784f5b98f4963cdf902340","650c16f0f2faf8d7a0d14c09","651c1e8d439ec71e9de1f152","null","null","<p style=""font-size: 60px; font-family: BACS"">uvaUmkc</p>","","","","","","","","","",""
"html-keyboard-response","389","477234","0.0-16.0-0.57","5f784f5b98f4963cdf902340","650c16f0f2faf8d7a0d14c09","651c1e8d439ec71e9de1f152","null","null","<p style=""font-size: 60px; font-family: BACS"">uvaUmkc</p>","","","","","","","","","",""
"html-keyboard-response","390","478237","0.0-16.0-0.58","5f784f5b98f4963cdf902340","650c16f0f2faf8d7a0d14c09","651c1e8d439ec71e9de1f152","null","null","<p style=""font-size: 60px; font-family: BACS"">uvaUmkc</p>","","","","","","","","","",""
"html-keyboard-response","391","479249","0.0-16.0-0.59","5f784f5b98f4963cdf902340","650c16f0f2faf8d7a0d14c09","651c1e8d439ec71e9de1f152","null","null","<p style=""font-size: 60px; font-family: BACS"">uvaUmkc</p>","","","","","","","","","",""
"html-keyboard-response","392","480265","0.0-16.0-0.60","5f784f5b98f4963cdf902340","650c16f0f2faf8d7a0d14c09","651c1e8d439ec71e9de1f152","null","null","<p style=""font-size: 60px; font-family: BACS"">uvaUmkc</p>","","","","","","","","","",""
"html-keyboard-response","393","481266","0.0-16.0-0.61","5f784f5b98f4963cdf902340","650c16f0f2faf8d7a0d14c09","651c1e8d439ec71e9de1f152","null","null","<p style=""font-size: 60px; font-family: BACS"">uvaUmkc</p>","","","","","","","","","",""
"html-keyboard-response","394","482276","0.0-16.0-0.62","5f784f5b98f4963cdf902340","650c16f0f2faf8d7a0d14c09","651c1e8d439ec71e9de1f152","null","null","<p style=""font-size: 60px; font-family: BACS"">uvaUmkc</p>","","","","","","","","","",""
