"trial_type","trial_index","time_elapsed","internal_node_id","subject_id","study_id","session_id","rt","response","stimulus","success","item","task","correct_response","testing_condition","correct","target","confound","name","view_history"
"pavlovia","0","2386","0.0-0.0","615da9ee365ab7d547b98979","650c16f0f2faf8d7a0d14c09","651c1ba378491dadcb55d092","","","","","","","","","","","","",""
"survey-html-form","1","40713","0.0-1.0","615da9ee365ab7d547b98979","650c16f0f2faf8d7a0d14c09","651c1ba378491dadcb55d092","38324","{""ID"":""615da9ee365ab7d547b98979""}","","","","","","","","","","",""
"html-keyboard-response","2","175431","0.0-2.0","615da9ee365ab7d547b98979","650c16f0f2faf8d7a0d14c09","651c1ba378491dadcb55d092","134716"," ","<p style=""font-size: 15px;"">Before beginning, we ask that you read the consent information and confirm your agreement to participate in the experiment.</p>
      <p style=""font-size: 15px;""> We ask that you remember that this is a research project and that your participation is entirely voluntary. You can stop your participation at any time, without needing to provide any explanation. The study we're asking you to participate in aims at examining how readers process written words. You will be engaged in a session of apprximately 20 minutes, followed by a brief questionnaire. You will have the opportunity to take a few breaks during the experiment. You will be paid £4 for your participation, corresponding to a rate of £8/hour. While this experiment looks at cognitive faculties, this experiment doesn't constitute clinical proof of eventual pathologies.</p>
      <p style=""font-size: 15px;"">All of the information collected thanks to yours and others' participation will be held in a secure password-protected server, and will not be shared with anyone not authorised to view it. Your personal information will be kept with an arbitrary participant ID. Thanks to this data anonymity process, any researcher analysing the data won't be able to track the information back to a specific participant. Therefore, this process will make identifying you impossibile, even when results from the study will be published in scientific reviews, presented at congresses, or at any other public forum. More generally, the collected data will be treated in accordance with the laws on privacy and conformity to the Legislative Degree n. 196 ""Code regarding the protection of personal data"" of the 30th of June 2003 and to the European Regulation 2016/670 (General Data Protection Regulation - GDPR). The Data Protection Officer is Avv. Valentina Carollo, who can be contacted at the following email addresses: <a href=""mailto:dpo@sissa.it"">dpo@sissa.it</a> or <a href=""mailto:rpd@sissa.it"">rpd@sissa.it</a> - PEC: <a href=""mailto:protocollo@pec.sissa.it"">protocollo@pec.sissa.it</a>.</p>
      <p style=""font-size: 15px;""> Before expressing your consent to participate, we would like to remind you again that in case you need explanations on any aspect of the experimental procedure, the researcher is at your disposition (<a href=""mailto:aliebelt@sissa.it"">aliebelt@sissa.it</a>, <a href=""mailto:davide.crepaldi@sissa.it"">davide.crepaldi@sissa.it</a>).</p>
      <p style=""font-size: 15px;"">If you would like to download the informed consent form, you can do so here: <a href=""BASL-Informed_Consent.pdf"" download>informed consent form</a>.</p>
      <p style=""font-size: 15px;"">We ask that you press the spacebar to proceed to the consent section.</p>","","","","","","","","","",""
"survey-html-form","3","228915","0.0-3.0","615da9ee365ab7d547b98979","650c16f0f2faf8d7a0d14c09","651c1ba378491dadcb55d092","53483","{""consent1"":""YES"",""consent2"":""YES"",""consent3"":""YES"",""consent4"":""YES"",""consent5"":""YES"",""consent6"":""YES""}","","","","","","","","","","",""
"fullscreen","4","233587","0.0-4.0","615da9ee365ab7d547b98979","650c16f0f2faf8d7a0d14c09","651c1ba378491dadcb55d092","","","","true","","","","","","","","",""
"html-keyboard-response","5","567027","0.0-5.0","615da9ee365ab7d547b98979","650c16f0f2faf8d7a0d14c09","651c1ba378491dadcb55d092","333438"," ","<p>Welcome, and thank you very much for your time!</p>
      <p>In this experiment, you'll be a language expert who's been asked to take a look at words that Earth has received in its first communication with aliens. Your task, in this first part of the experiment, is to pay close attention to the words you'll be shown; later, world leaders will ask you questions on what you saw. The words will be shown to you quite quickly; it seems that the aliens were in a hurry :-)</p>
      <p>Press the spacebar to continue.<p>","","","","","","","","","",""
"html-keyboard-response","6","567078","0.0-6.0","615da9ee365ab7d547b98979","650c16f0f2faf8d7a0d14c09","651c1ba378491dadcb55d092","null","null","<p style=""font-size: 120px; font-family: BACS""> </p>","","","","","","","","","",""
"html-keyboard-response","7","584355","0.0-7.0","615da9ee365ab7d547b98979","650c16f0f2faf8d7a0d14c09","651c1ba378491dadcb55d092","17277"," ","<p>Here is an example of the words you'll see:</p>
      <img src='esempio.png' height='400px'>
      <p>When you're ready to begin, press the spacebar.</p></div>","","","","","","","","","",""
"html-keyboard-response","8","585358","0.0-8.0-0.0","615da9ee365ab7d547b98979","650c16f0f2faf8d7a0d14c09","651c1ba378491dadcb55d092","null","null","<p style=""font-size: 60px; font-family: BACS"">mkmJNQru</p>","","","","","","","","","",""
"html-keyboard-response","9","586360","0.0-8.0-0.1","615da9ee365ab7d547b98979","650c16f0f2faf8d7a0d14c09","651c1ba378491dadcb55d092","null","null","<p style=""font-size: 60px; font-family: BACS"">damYbArv</p>","","","","","","","","","",""
"html-keyboard-response","10","587362","0.0-8.0-0.2","615da9ee365ab7d547b98979","650c16f0f2faf8d7a0d14c09","651c1ba378491dadcb55d092","null","null","<p style=""font-size: 60px; font-family: BACS"">vJabQru</p>","","","","","","","","","",""
"html-keyboard-response","11","588363","0.0-8.0-0.3","615da9ee365ab7d547b98979","650c16f0f2faf8d7a0d14c09","651c1ba378491dadcb55d092","null","null","<p style=""font-size: 60px; font-family: BACS"">rvAJArv</p>","","","","","","","","","",""
"html-keyboard-response","12","589364","0.0-8.0-0.4","615da9ee365ab7d547b98979","650c16f0f2faf8d7a0d14c09","651c1ba378491dadcb55d092","null","null","<p style=""font-size: 60px; font-family: BACS"">dRbDblRE</p>","","","","","","","","","",""
"html-keyboard-response","13","590365","0.0-8.0-0.5","615da9ee365ab7d547b98979","650c16f0f2faf8d7a0d14c09","651c1ba378491dadcb55d092","null","null","<p style=""font-size: 60px; font-family: BACS"">kCRmDlDT</p>","","","","","","","","","",""
"html-keyboard-response","14","591367","0.0-8.0-0.6","615da9ee365ab7d547b98979","650c16f0f2faf8d7a0d14c09","651c1ba378491dadcb55d092","null","null","<p style=""font-size: 60px; font-family: BACS"">mkmJNUbG</p>","","","","","","","","","",""
"html-keyboard-response","15","592369","0.0-8.0-0.7","615da9ee365ab7d547b98979","650c16f0f2faf8d7a0d14c09","651c1ba378491dadcb55d092","null","null","<p style=""font-size: 60px; font-family: BACS"">lRckADlDT</p>","","","","","","","","","",""
"html-keyboard-response","16","593370","0.0-8.0-0.8","615da9ee365ab7d547b98979","650c16f0f2faf8d7a0d14c09","651c1ba378491dadcb55d092","null","null","<p style=""font-size: 60px; font-family: BACS"">dRbDbTAm</p>","","","","","","","","","",""
"html-keyboard-response","17","594373","0.0-8.0-0.9","615da9ee365ab7d547b98979","650c16f0f2faf8d7a0d14c09","651c1ba378491dadcb55d092","null","null","<p style=""font-size: 60px; font-family: BACS"">ubALmAOUl</p>","","","","","","","","","",""
"html-keyboard-response","18","595374","0.0-8.0-0.10","615da9ee365ab7d547b98979","650c16f0f2faf8d7a0d14c09","651c1ba378491dadcb55d092","null","null","<p style=""font-size: 60px; font-family: BACS"">hmKPMkPM</p>","","","","","","","","","",""
"html-keyboard-response","19","596375","0.0-8.0-0.11","615da9ee365ab7d547b98979","650c16f0f2faf8d7a0d14c09","651c1ba378491dadcb55d092","null","null","<p style=""font-size: 60px; font-family: BACS"">adYrcUbG</p>","","","","","","","","","",""
"html-keyboard-response","20","597376","0.0-8.0-0.12","615da9ee365ab7d547b98979","650c16f0f2faf8d7a0d14c09","651c1ba378491dadcb55d092","null","null","<p style=""font-size: 60px; font-family: BACS"">bcbMDlDT</p>","","","","","","","","","",""
"html-keyboard-response","21","598377","0.0-8.0-0.13","615da9ee365ab7d547b98979","650c16f0f2faf8d7a0d14c09","651c1ba378491dadcb55d092","null","null","<p style=""font-size: 60px; font-family: BACS"">LcNUJGrbk</p>","","","","","","","","","",""
"html-keyboard-response","22","599379","0.0-8.0-0.14","615da9ee365ab7d547b98979","650c16f0f2faf8d7a0d14c09","651c1ba378491dadcb55d092","null","null","<p style=""font-size: 60px; font-family: BACS"">bcbMlRE</p>","","","","","","","","","",""
"html-keyboard-response","23","600380","0.0-8.0-0.15","615da9ee365ab7d547b98979","650c16f0f2faf8d7a0d14c09","651c1ba378491dadcb55d092","null","null","<p style=""font-size: 60px; font-family: BACS"">dRbDbcPK</p>","","","","","","","","","",""
"html-keyboard-response","24","601381","0.0-8.0-0.16","615da9ee365ab7d547b98979","650c16f0f2faf8d7a0d14c09","651c1ba378491dadcb55d092","null","null","<p style=""font-size: 60px; font-family: BACS"">cBROBkPM</p>","","","","","","","","","",""
"html-keyboard-response","25","602383","0.0-8.0-0.17","615da9ee365ab7d547b98979","650c16f0f2faf8d7a0d14c09","651c1ba378491dadcb55d092","null","null","<p style=""font-size: 60px; font-family: BACS"">lRckATAm</p>","","","","","","","","","",""
"html-keyboard-response","26","603384","0.0-8.0-0.18","615da9ee365ab7d547b98979","650c16f0f2faf8d7a0d14c09","651c1ba378491dadcb55d092","null","null","<p style=""font-size: 60px; font-family: BACS"">damYbUbG</p>","","","","","","","","","",""
"html-keyboard-response","27","604385","0.0-8.0-0.19","615da9ee365ab7d547b98979","650c16f0f2faf8d7a0d14c09","651c1ba378491dadcb55d092","null","null","<p style=""font-size: 60px; font-family: BACS"">lRckAlRE</p>","","","","","","","","","",""
"html-keyboard-response","28","605386","0.0-8.0-0.20","615da9ee365ab7d547b98979","650c16f0f2faf8d7a0d14c09","651c1ba378491dadcb55d092","null","null","<p style=""font-size: 60px; font-family: BACS"">mkmJNGrbk</p>","","","","","","","","","",""
"html-keyboard-response","29","606387","0.0-8.0-0.21","615da9ee365ab7d547b98979","650c16f0f2faf8d7a0d14c09","651c1ba378491dadcb55d092","null","null","<p style=""font-size: 60px; font-family: BACS"">vJabArv</p>","","","","","","","","","",""
"html-keyboard-response","30","607388","0.0-8.0-0.22","615da9ee365ab7d547b98979","650c16f0f2faf8d7a0d14c09","651c1ba378491dadcb55d092","null","null","<p style=""font-size: 60px; font-family: BACS"">ubALmUbG</p>","","","","","","","","","",""
"html-keyboard-response","31","608390","0.0-8.0-0.23","615da9ee365ab7d547b98979","650c16f0f2faf8d7a0d14c09","651c1ba378491dadcb55d092","null","null","<p style=""font-size: 60px; font-family: BACS"">dRbDbkPM</p>","","","","","","","","","",""
"html-keyboard-response","32","609391","0.0-8.0-0.24","615da9ee365ab7d547b98979","650c16f0f2faf8d7a0d14c09","651c1ba378491dadcb55d092","null","null","<p style=""font-size: 60px; font-family: BACS"">TdmAcPK</p>","","","","","","","","","",""
"html-keyboard-response","33","610392","0.0-8.0-0.25","615da9ee365ab7d547b98979","650c16f0f2faf8d7a0d14c09","651c1ba378491dadcb55d092","null","null","<p style=""font-size: 60px; font-family: BACS"">JuamlUbG</p>","","","","","","","","","",""
"html-keyboard-response","34","611394","0.0-8.0-0.26","615da9ee365ab7d547b98979","650c16f0f2faf8d7a0d14c09","651c1ba378491dadcb55d092","null","null","<p style=""font-size: 60px; font-family: BACS"">cBROBlRE</p>","","","","","","","","","",""
"html-keyboard-response","35","612394","0.0-8.0-0.27","615da9ee365ab7d547b98979","650c16f0f2faf8d7a0d14c09","651c1ba378491dadcb55d092","null","null","<p style=""font-size: 60px; font-family: BACS"">rvAJGrbk</p>","","","","","","","","","",""
"html-keyboard-response","36","613395","0.0-8.0-0.28","615da9ee365ab7d547b98979","650c16f0f2faf8d7a0d14c09","651c1ba378491dadcb55d092","null","null","<p style=""font-size: 60px; font-family: BACS"">LcNUJAOUl</p>","","","","","","","","","",""
"html-keyboard-response","37","614397","0.0-8.0-0.29","615da9ee365ab7d547b98979","650c16f0f2faf8d7a0d14c09","651c1ba378491dadcb55d092","null","null","<p style=""font-size: 60px; font-family: BACS"">bcbMkPM</p>","","","","","","","","","",""
"html-keyboard-response","38","615398","0.0-8.0-0.30","615da9ee365ab7d547b98979","650c16f0f2faf8d7a0d14c09","651c1ba378491dadcb55d092","null","null","<p style=""font-size: 60px; font-family: BACS"">TdmATAm</p>","","","","","","","","","",""
"html-keyboard-response","39","616399","0.0-8.0-0.31","615da9ee365ab7d547b98979","650c16f0f2faf8d7a0d14c09","651c1ba378491dadcb55d092","null","null","<p style=""font-size: 60px; font-family: BACS"">LdQvAOUl</p>","","","","","","","","","",""
"html-keyboard-response","40","617400","0.0-8.0-0.32","615da9ee365ab7d547b98979","650c16f0f2faf8d7a0d14c09","651c1ba378491dadcb55d092","null","null","<p style=""font-size: 60px; font-family: BACS"">adYrcArv</p>","","","","","","","","","",""
"html-keyboard-response","41","618401","0.0-8.0-0.33","615da9ee365ab7d547b98979","650c16f0f2faf8d7a0d14c09","651c1ba378491dadcb55d092","null","null","<p style=""font-size: 60px; font-family: BACS"">kCRmcPK</p>","","","","","","","","","",""
"html-keyboard-response","42","619403","0.0-8.0-0.34","615da9ee365ab7d547b98979","650c16f0f2faf8d7a0d14c09","651c1ba378491dadcb55d092","null","null","<p style=""font-size: 60px; font-family: BACS"">rvAJUbG</p>","","","","","","","","","",""
"html-keyboard-response","43","620404","0.0-8.0-0.35","615da9ee365ab7d547b98979","650c16f0f2faf8d7a0d14c09","651c1ba378491dadcb55d092","null","null","<p style=""font-size: 60px; font-family: BACS"">adYrcAOUl</p>","","","","","","","","","",""
"html-keyboard-response","44","621405","0.0-8.0-0.36","615da9ee365ab7d547b98979","650c16f0f2faf8d7a0d14c09","651c1ba378491dadcb55d092","null","null","<p style=""font-size: 60px; font-family: BACS"">ubALmQru</p>","","","","","","","","","",""
"html-keyboard-response","45","622406","0.0-8.0-0.37","615da9ee365ab7d547b98979","650c16f0f2faf8d7a0d14c09","651c1ba378491dadcb55d092","null","null","<p style=""font-size: 60px; font-family: BACS"">YlCPBTAm</p>","","","","","","","","","",""
"html-keyboard-response","46","623408","0.0-8.0-0.38","615da9ee365ab7d547b98979","650c16f0f2faf8d7a0d14c09","651c1ba378491dadcb55d092","null","null","<p style=""font-size: 60px; font-family: BACS"">LdQvGrbk</p>","","","","","","","","","",""
"html-keyboard-response","47","624409","0.0-8.0-0.39","615da9ee365ab7d547b98979","650c16f0f2faf8d7a0d14c09","651c1ba378491dadcb55d092","null","null","<p style=""font-size: 60px; font-family: BACS"">kCRmlRE</p>","","","","","","","","","",""
"html-keyboard-response","48","625411","0.0-8.0-0.40","615da9ee365ab7d547b98979","650c16f0f2faf8d7a0d14c09","651c1ba378491dadcb55d092","null","null","<p style=""font-size: 60px; font-family: BACS"">JuamlQru</p>","","","","","","","","","",""
"html-keyboard-response","49","626413","0.0-8.0-0.41","615da9ee365ab7d547b98979","650c16f0f2faf8d7a0d14c09","651c1ba378491dadcb55d092","null","null","<p style=""font-size: 60px; font-family: BACS"">bROCTAm</p>","","","","","","","","","",""
"html-keyboard-response","50","627414","0.0-8.0-0.42","615da9ee365ab7d547b98979","650c16f0f2faf8d7a0d14c09","651c1ba378491dadcb55d092","null","null","<p style=""font-size: 60px; font-family: BACS"">YlCPBcPK</p>","","","","","","","","","",""
"html-keyboard-response","51","628416","0.0-8.0-0.43","615da9ee365ab7d547b98979","650c16f0f2faf8d7a0d14c09","651c1ba378491dadcb55d092","null","null","<p style=""font-size: 60px; font-family: BACS"">LdQvArv</p>","","","","","","","","","",""
"html-keyboard-response","52","629417","0.0-8.0-0.44","615da9ee365ab7d547b98979","650c16f0f2faf8d7a0d14c09","651c1ba378491dadcb55d092","null","null","<p style=""font-size: 60px; font-family: BACS"">YlCPBDlDT</p>","","","","","","","","","",""
"html-keyboard-response","53","630418","0.0-8.0-0.45","615da9ee365ab7d547b98979","650c16f0f2faf8d7a0d14c09","651c1ba378491dadcb55d092","null","null","<p style=""font-size: 60px; font-family: BACS"">ldAaQru</p>","","","","","","","","","",""
"html-keyboard-response","54","631419","0.0-8.0-0.46","615da9ee365ab7d547b98979","650c16f0f2faf8d7a0d14c09","651c1ba378491dadcb55d092","null","null","<p style=""font-size: 60px; font-family: BACS"">lRckAkPM</p>","","","","","","","","","",""
"html-keyboard-response","55","632420","0.0-8.0-0.47","615da9ee365ab7d547b98979","650c16f0f2faf8d7a0d14c09","651c1ba378491dadcb55d092","null","null","<p style=""font-size: 60px; font-family: BACS"">PCMPKTAm</p>","","","","","","","","","",""
"html-keyboard-response","56","633421","0.0-8.0-0.48","615da9ee365ab7d547b98979","650c16f0f2faf8d7a0d14c09","651c1ba378491dadcb55d092","null","null","<p style=""font-size: 60px; font-family: BACS"">LcNUJArv</p>","","","","","","","","","",""
"html-keyboard-response","57","634422","0.0-8.0-0.49","615da9ee365ab7d547b98979","650c16f0f2faf8d7a0d14c09","651c1ba378491dadcb55d092","null","null","<p style=""font-size: 60px; font-family: BACS"">PCMPKkPM</p>","","","","","","","","","",""
"html-keyboard-response","58","635422","0.0-8.0-0.50","615da9ee365ab7d547b98979","650c16f0f2faf8d7a0d14c09","651c1ba378491dadcb55d092","null","null","<p style=""font-size: 60px; font-family: BACS"">LdQvQru</p>","","","","","","","","","",""
"html-keyboard-response","59","636423","0.0-8.0-0.51","615da9ee365ab7d547b98979","650c16f0f2faf8d7a0d14c09","651c1ba378491dadcb55d092","null","null","<p style=""font-size: 60px; font-family: BACS"">hmKPMDlDT</p>","","","","","","","","","",""
"html-keyboard-response","60","637425","0.0-8.0-0.52","615da9ee365ab7d547b98979","650c16f0f2faf8d7a0d14c09","651c1ba378491dadcb55d092","null","null","<p style=""font-size: 60px; font-family: BACS"">LcNUJQru</p>","","","","","","","","","",""
"html-keyboard-response","61","638425","0.0-8.0-0.53","615da9ee365ab7d547b98979","650c16f0f2faf8d7a0d14c09","651c1ba378491dadcb55d092","null","null","<p style=""font-size: 60px; font-family: BACS"">TdmADlDT</p>","","","","","","","","","",""
"html-keyboard-response","62","639426","0.0-8.0-0.54","615da9ee365ab7d547b98979","650c16f0f2faf8d7a0d14c09","651c1ba378491dadcb55d092","null","null","<p style=""font-size: 60px; font-family: BACS"">damYbAOUl</p>","","","","","","","","","",""
"html-keyboard-response","63","640428","0.0-8.0-0.55","615da9ee365ab7d547b98979","650c16f0f2faf8d7a0d14c09","651c1ba378491dadcb55d092","null","null","<p style=""font-size: 60px; font-family: BACS"">kCRmTAm</p>","","","","","","","","","",""
"html-keyboard-response","64","641429","0.0-8.0-0.56","615da9ee365ab7d547b98979","650c16f0f2faf8d7a0d14c09","651c1ba378491dadcb55d092","null","null","<p style=""font-size: 60px; font-family: BACS"">PCMPKlRE</p>","","","","","","","","","",""
"html-keyboard-response","65","642431","0.0-8.0-0.57","615da9ee365ab7d547b98979","650c16f0f2faf8d7a0d14c09","651c1ba378491dadcb55d092","null","null","<p style=""font-size: 60px; font-family: BACS"">hmKPMcPK</p>","","","","","","","","","",""
"html-keyboard-response","66","643432","0.0-8.0-0.58","615da9ee365ab7d547b98979","650c16f0f2faf8d7a0d14c09","651c1ba378491dadcb55d092","null","null","<p style=""font-size: 60px; font-family: BACS"">YlCPBkPM</p>","","","","","","","","","",""
"html-keyboard-response","67","644433","0.0-8.0-0.59","615da9ee365ab7d547b98979","650c16f0f2faf8d7a0d14c09","651c1ba378491dadcb55d092","null","null","<p style=""font-size: 60px; font-family: BACS"">ubALmGrbk</p>","","","","","","","","","",""
"html-keyboard-response","68","645434","0.0-8.0-0.60","615da9ee365ab7d547b98979","650c16f0f2faf8d7a0d14c09","651c1ba378491dadcb55d092","null","null","<p style=""font-size: 60px; font-family: BACS"">TdmAkPM</p>","","","","","","","","","",""
"html-keyboard-response","69","646436","0.0-8.0-0.61","615da9ee365ab7d547b98979","650c16f0f2faf8d7a0d14c09","651c1ba378491dadcb55d092","null","null","<p style=""font-size: 60px; font-family: BACS"">ldAaArv</p>","","","","","","","","","",""
"html-keyboard-response","70","647437","0.0-8.0-0.62","615da9ee365ab7d547b98979","650c16f0f2faf8d7a0d14c09","651c1ba378491dadcb55d092","null","null","<p style=""font-size: 60px; font-family: BACS"">mkmJNAOUl</p>","","","","","","","","","",""
"html-keyboard-response","71","648439","0.0-8.0-0.63","615da9ee365ab7d547b98979","650c16f0f2faf8d7a0d14c09","651c1ba378491dadcb55d092","null","null","<p style=""font-size: 60px; font-family: BACS"">JuamlArv</p>","","","","","","","","","",""
"html-keyboard-response","72","649441","0.0-8.0-0.64","615da9ee365ab7d547b98979","650c16f0f2faf8d7a0d14c09","651c1ba378491dadcb55d092","null","null","<p style=""font-size: 60px; font-family: BACS"">cBROBTAm</p>","","","","","","","","","",""
"html-keyboard-response","73","650441","0.0-8.0-0.65","615da9ee365ab7d547b98979","650c16f0f2faf8d7a0d14c09","651c1ba378491dadcb55d092","null","null","<p style=""font-size: 60px; font-family: BACS"">JuamlAOUl</p>","","","","","","","","","",""
"html-keyboard-response","74","651443","0.0-8.0-0.66","615da9ee365ab7d547b98979","650c16f0f2faf8d7a0d14c09","651c1ba378491dadcb55d092","null","null","<p style=""font-size: 60px; font-family: BACS"">PCMPKDlDT</p>","","","","","","","","","",""
"html-keyboard-response","75","652444","0.0-8.0-0.67","615da9ee365ab7d547b98979","650c16f0f2faf8d7a0d14c09","651c1ba378491dadcb55d092","null","null","<p style=""font-size: 60px; font-family: BACS"">bROClRE</p>","","","","","","","","","",""
"html-keyboard-response","76","653446","0.0-8.0-0.68","615da9ee365ab7d547b98979","650c16f0f2faf8d7a0d14c09","651c1ba378491dadcb55d092","null","null","<p style=""font-size: 60px; font-family: BACS"">vJabUbG</p>","","","","","","","","","",""
"html-keyboard-response","77","654448","0.0-8.0-0.69","615da9ee365ab7d547b98979","650c16f0f2faf8d7a0d14c09","651c1ba378491dadcb55d092","null","null","<p style=""font-size: 60px; font-family: BACS"">adYrcGrbk</p>","","","","","","","","","",""
"html-keyboard-response","78","655448","0.0-8.0-0.70","615da9ee365ab7d547b98979","650c16f0f2faf8d7a0d14c09","651c1ba378491dadcb55d092","null","null","<p style=""font-size: 60px; font-family: BACS"">bROCDlDT</p>","","","","","","","","","",""
"html-keyboard-response","79","656450","0.0-8.0-0.71","615da9ee365ab7d547b98979","650c16f0f2faf8d7a0d14c09","651c1ba378491dadcb55d092","null","null","<p style=""font-size: 60px; font-family: BACS"">cBROBcPK</p>","","","","","","","","","",""
"html-keyboard-response","80","657451","0.0-8.0-0.72","615da9ee365ab7d547b98979","650c16f0f2faf8d7a0d14c09","651c1ba378491dadcb55d092","null","null","<p style=""font-size: 60px; font-family: BACS"">vJabGrbk</p>","","","","","","","","","",""
"html-keyboard-response","81","658452","0.0-8.0-0.73","615da9ee365ab7d547b98979","650c16f0f2faf8d7a0d14c09","651c1ba378491dadcb55d092","null","null","<p style=""font-size: 60px; font-family: BACS"">bcbMcPK</p>","","","","","","","","","",""
"html-keyboard-response","82","659453","0.0-8.0-0.74","615da9ee365ab7d547b98979","650c16f0f2faf8d7a0d14c09","651c1ba378491dadcb55d092","null","null","<p style=""font-size: 60px; font-family: BACS"">ldAaUbG</p>","","","","","","","","","",""
"html-keyboard-response","83","660454","0.0-8.0-0.75","615da9ee365ab7d547b98979","650c16f0f2faf8d7a0d14c09","651c1ba378491dadcb55d092","null","null","<p style=""font-size: 60px; font-family: BACS"">damYbGrbk</p>","","","","","","","","","",""
"html-keyboard-response","84","661456","0.0-8.0-0.76","615da9ee365ab7d547b98979","650c16f0f2faf8d7a0d14c09","651c1ba378491dadcb55d092","null","null","<p style=""font-size: 60px; font-family: BACS"">bROCcPK</p>","","","","","","","","","",""
"html-keyboard-response","85","662457","0.0-8.0-0.77","615da9ee365ab7d547b98979","650c16f0f2faf8d7a0d14c09","651c1ba378491dadcb55d092","null","null","<p style=""font-size: 60px; font-family: BACS"">rvAJQru</p>","","","","","","","","","",""
"html-keyboard-response","86","663458","0.0-8.0-0.78","615da9ee365ab7d547b98979","650c16f0f2faf8d7a0d14c09","651c1ba378491dadcb55d092","null","null","<p style=""font-size: 60px; font-family: BACS"">ldAaAOUl</p>","","","","","","","","","",""
"html-keyboard-response","87","664460","0.0-8.0-0.79","615da9ee365ab7d547b98979","650c16f0f2faf8d7a0d14c09","651c1ba378491dadcb55d092","null","null","<p style=""font-size: 60px; font-family: BACS"">hmKPMlRE</p>","","","","","","","","","",""
"html-keyboard-response","88","673244","0.0-9.0","615da9ee365ab7d547b98979","650c16f0f2faf8d7a0d14c09","651c1ba378491dadcb55d092","8783"," ","<p>Great, you've seen the first block of words. You may now take a short break.</p>
      <p>Press the spacebar when you're ready to continue.</p>","","","","","","","","","",""
"html-keyboard-response","89","674245","0.0-10.0-0.0","615da9ee365ab7d547b98979","650c16f0f2faf8d7a0d14c09","651c1ba378491dadcb55d092","null","null","<p style=""font-size: 60px; font-family: BACS"">LcNUJGrbk</p>","","","","","","","","","",""
"html-keyboard-response","90","675247","0.0-10.0-0.1","615da9ee365ab7d547b98979","650c16f0f2faf8d7a0d14c09","651c1ba378491dadcb55d092","null","null","<p style=""font-size: 60px; font-family: BACS"">YlCPBkPM</p>","","","","","","","","","",""
"html-keyboard-response","91","676249","0.0-10.0-0.2","615da9ee365ab7d547b98979","650c16f0f2faf8d7a0d14c09","651c1ba378491dadcb55d092","null","null","<p style=""font-size: 60px; font-family: BACS"">cBROBTAm</p>","","","","","","","","","",""
"html-keyboard-response","92","677250","0.0-10.0-0.3","615da9ee365ab7d547b98979","650c16f0f2faf8d7a0d14c09","651c1ba378491dadcb55d092","null","null","<p style=""font-size: 60px; font-family: BACS"">kCRmcPK</p>","","","","","","","","","",""
"html-keyboard-response","93","678251","0.0-10.0-0.4","615da9ee365ab7d547b98979","650c16f0f2faf8d7a0d14c09","651c1ba378491dadcb55d092","null","null","<p style=""font-size: 60px; font-family: BACS"">PCMPKkPM</p>","","","","","","","","","",""
"html-keyboard-response","94","679253","0.0-10.0-0.5","615da9ee365ab7d547b98979","650c16f0f2faf8d7a0d14c09","651c1ba378491dadcb55d092","null","null","<p style=""font-size: 60px; font-family: BACS"">TdmAcPK</p>","","","","","","","","","",""
"html-keyboard-response","95","680254","0.0-10.0-0.6","615da9ee365ab7d547b98979","650c16f0f2faf8d7a0d14c09","651c1ba378491dadcb55d092","null","null","<p style=""font-size: 60px; font-family: BACS"">JuamlQru</p>","","","","","","","","","",""
"html-keyboard-response","96","681255","0.0-10.0-0.7","615da9ee365ab7d547b98979","650c16f0f2faf8d7a0d14c09","651c1ba378491dadcb55d092","null","null","<p style=""font-size: 60px; font-family: BACS"">bcbMDlDT</p>","","","","","","","","","",""
"html-keyboard-response","97","682256","0.0-10.0-0.8","615da9ee365ab7d547b98979","650c16f0f2faf8d7a0d14c09","651c1ba378491dadcb55d092","null","null","<p style=""font-size: 60px; font-family: BACS"">kCRmTAm</p>","","","","","","","","","",""
"html-keyboard-response","98","683257","0.0-10.0-0.9","615da9ee365ab7d547b98979","650c16f0f2faf8d7a0d14c09","651c1ba378491dadcb55d092","null","null","<p style=""font-size: 60px; font-family: BACS"">cBROBkPM</p>","","","","","","","","","",""
"html-keyboard-response","99","684258","0.0-10.0-0.10","615da9ee365ab7d547b98979","650c16f0f2faf8d7a0d14c09","651c1ba378491dadcb55d092","null","null","<p style=""font-size: 60px; font-family: BACS"">dRbDbcPK</p>","","","","","","","","","",""
"html-keyboard-response","100","685259","0.0-10.0-0.11","615da9ee365ab7d547b98979","650c16f0f2faf8d7a0d14c09","651c1ba378491dadcb55d092","null","null","<p style=""font-size: 60px; font-family: BACS"">rvAJUbG</p>","","","","","","","","","",""
"html-keyboard-response","101","686260","0.0-10.0-0.12","615da9ee365ab7d547b98979","650c16f0f2faf8d7a0d14c09","651c1ba378491dadcb55d092","null","null","<p style=""font-size: 60px; font-family: BACS"">PCMPKDlDT</p>","","","","","","","","","",""
"html-keyboard-response","102","687262","0.0-10.0-0.13","615da9ee365ab7d547b98979","650c16f0f2faf8d7a0d14c09","651c1ba378491dadcb55d092","null","null","<p style=""font-size: 60px; font-family: BACS"">dRbDbkPM</p>","","","","","","","","","",""
"html-keyboard-response","103","688262","0.0-10.0-0.14","615da9ee365ab7d547b98979","650c16f0f2faf8d7a0d14c09","651c1ba378491dadcb55d092","null","null","<p style=""font-size: 60px; font-family: BACS"">LcNUJAOUl</p>","","","","","","","","","",""
"html-keyboard-response","104","689263","0.0-10.0-0.15","615da9ee365ab7d547b98979","650c16f0f2faf8d7a0d14c09","651c1ba378491dadcb55d092","null","null","<p style=""font-size: 60px; font-family: BACS"">ubALmQru</p>","","","","","","","","","",""
"html-keyboard-response","105","690264","0.0-10.0-0.16","615da9ee365ab7d547b98979","650c16f0f2faf8d7a0d14c09","651c1ba378491dadcb55d092","null","null","<p style=""font-size: 60px; font-family: BACS"">rvAJArv</p>","","","","","","","","","",""
"html-keyboard-response","106","691265","0.0-10.0-0.17","615da9ee365ab7d547b98979","650c16f0f2faf8d7a0d14c09","651c1ba378491dadcb55d092","null","null","<p style=""font-size: 60px; font-family: BACS"">dRbDblRE</p>","","","","","","","","","",""
"html-keyboard-response","107","692266","0.0-10.0-0.18","615da9ee365ab7d547b98979","650c16f0f2faf8d7a0d14c09","651c1ba378491dadcb55d092","null","null","<p style=""font-size: 60px; font-family: BACS"">LdQvGrbk</p>","","","","","","","","","",""
"html-keyboard-response","108","693268","0.0-10.0-0.19","615da9ee365ab7d547b98979","650c16f0f2faf8d7a0d14c09","651c1ba378491dadcb55d092","null","null","<p style=""font-size: 60px; font-family: BACS"">adYrcArv</p>","","","","","","","","","",""
"html-keyboard-response","109","694269","0.0-10.0-0.20","615da9ee365ab7d547b98979","650c16f0f2faf8d7a0d14c09","651c1ba378491dadcb55d092","null","null","<p style=""font-size: 60px; font-family: BACS"">lRckADlDT</p>","","","","","","","","","",""
"html-keyboard-response","110","695270","0.0-10.0-0.21","615da9ee365ab7d547b98979","650c16f0f2faf8d7a0d14c09","651c1ba378491dadcb55d092","null","null","<p style=""font-size: 60px; font-family: BACS"">ubALmUbG</p>","","","","","","","","","",""
"html-keyboard-response","111","696271","0.0-10.0-0.22","615da9ee365ab7d547b98979","650c16f0f2faf8d7a0d14c09","651c1ba378491dadcb55d092","null","null","<p style=""font-size: 60px; font-family: BACS"">TdmADlDT</p>","","","","","","","","","",""
"html-keyboard-response","112","697273","0.0-10.0-0.23","615da9ee365ab7d547b98979","650c16f0f2faf8d7a0d14c09","651c1ba378491dadcb55d092","null","null","<p style=""font-size: 60px; font-family: BACS"">damYbGrbk</p>","","","","","","","","","",""
"html-keyboard-response","113","698275","0.0-10.0-0.24","615da9ee365ab7d547b98979","650c16f0f2faf8d7a0d14c09","651c1ba378491dadcb55d092","null","null","<p style=""font-size: 60px; font-family: BACS"">hmKPMkPM</p>","","","","","","","","","",""
"html-keyboard-response","114","699277","0.0-10.0-0.25","615da9ee365ab7d547b98979","650c16f0f2faf8d7a0d14c09","651c1ba378491dadcb55d092","null","null","<p style=""font-size: 60px; font-family: BACS"">mkmJNGrbk</p>","","","","","","","","","",""
"html-keyboard-response","115","700278","0.0-10.0-0.26","615da9ee365ab7d547b98979","650c16f0f2faf8d7a0d14c09","651c1ba378491dadcb55d092","null","null","<p style=""font-size: 60px; font-family: BACS"">vJabArv</p>","","","","","","","","","",""
"html-keyboard-response","116","701280","0.0-10.0-0.27","615da9ee365ab7d547b98979","650c16f0f2faf8d7a0d14c09","651c1ba378491dadcb55d092","null","null","<p style=""font-size: 60px; font-family: BACS"">PCMPKlRE</p>","","","","","","","","","",""
"html-keyboard-response","117","702282","0.0-10.0-0.28","615da9ee365ab7d547b98979","650c16f0f2faf8d7a0d14c09","651c1ba378491dadcb55d092","null","null","<p style=""font-size: 60px; font-family: BACS"">adYrcGrbk</p>","","","","","","","","","",""
"html-keyboard-response","118","703284","0.0-10.0-0.29","615da9ee365ab7d547b98979","650c16f0f2faf8d7a0d14c09","651c1ba378491dadcb55d092","null","null","<p style=""font-size: 60px; font-family: BACS"">kCRmlRE</p>","","","","","","","","","",""
"html-keyboard-response","119","704285","0.0-10.0-0.30","615da9ee365ab7d547b98979","650c16f0f2faf8d7a0d14c09","651c1ba378491dadcb55d092","null","null","<p style=""font-size: 60px; font-family: BACS"">LcNUJArv</p>","","","","","","","","","",""
"html-keyboard-response","120","705287","0.0-10.0-0.31","615da9ee365ab7d547b98979","650c16f0f2faf8d7a0d14c09","651c1ba378491dadcb55d092","null","null","<p style=""font-size: 60px; font-family: BACS"">hmKPMcPK</p>","","","","","","","","","",""
"html-keyboard-response","121","706290","0.0-10.0-0.32","615da9ee365ab7d547b98979","650c16f0f2faf8d7a0d14c09","651c1ba378491dadcb55d092","null","null","<p style=""font-size: 60px; font-family: BACS"">JuamlUbG</p>","","","","","","","","","",""
"html-keyboard-response","122","707291","0.0-10.0-0.33","615da9ee365ab7d547b98979","650c16f0f2faf8d7a0d14c09","651c1ba378491dadcb55d092","null","null","<p style=""font-size: 60px; font-family: BACS"">lRckATAm</p>","","","","","","","","","",""
"html-keyboard-response","123","708292","0.0-10.0-0.34","615da9ee365ab7d547b98979","650c16f0f2faf8d7a0d14c09","651c1ba378491dadcb55d092","null","null","<p style=""font-size: 60px; font-family: BACS"">TdmAkPM</p>","","","","","","","","","",""
"html-keyboard-response","124","709294","0.0-10.0-0.35","615da9ee365ab7d547b98979","650c16f0f2faf8d7a0d14c09","651c1ba378491dadcb55d092","null","null","<p style=""font-size: 60px; font-family: BACS"">JuamlArv</p>","","","","","","","","","",""
"html-keyboard-response","125","710295","0.0-10.0-0.36","615da9ee365ab7d547b98979","650c16f0f2faf8d7a0d14c09","651c1ba378491dadcb55d092","null","null","<p style=""font-size: 60px; font-family: BACS"">bcbMkPM</p>","","","","","","","","","",""
"html-keyboard-response","126","711297","0.0-10.0-0.37","615da9ee365ab7d547b98979","650c16f0f2faf8d7a0d14c09","651c1ba378491dadcb55d092","null","null","<p style=""font-size: 60px; font-family: BACS"">ldAaUbG</p>","","","","","","","","","",""
"html-keyboard-response","127","712299","0.0-10.0-0.38","615da9ee365ab7d547b98979","650c16f0f2faf8d7a0d14c09","651c1ba378491dadcb55d092","null","null","<p style=""font-size: 60px; font-family: BACS"">vJabQru</p>","","","","","","","","","",""
"html-keyboard-response","128","713300","0.0-10.0-0.39","615da9ee365ab7d547b98979","650c16f0f2faf8d7a0d14c09","651c1ba378491dadcb55d092","null","null","<p style=""font-size: 60px; font-family: BACS"">adYrcUbG</p>","","","","","","","","","",""
"html-keyboard-response","129","714301","0.0-10.0-0.40","615da9ee365ab7d547b98979","650c16f0f2faf8d7a0d14c09","651c1ba378491dadcb55d092","null","null","<p style=""font-size: 60px; font-family: BACS"">mkmJNAOUl</p>","","","","","","","","","",""
"html-keyboard-response","130","715302","0.0-10.0-0.41","615da9ee365ab7d547b98979","650c16f0f2faf8d7a0d14c09","651c1ba378491dadcb55d092","null","null","<p style=""font-size: 60px; font-family: BACS"">bROCcPK</p>","","","","","","","","","",""
"html-keyboard-response","131","716303","0.0-10.0-0.42","615da9ee365ab7d547b98979","650c16f0f2faf8d7a0d14c09","651c1ba378491dadcb55d092","null","null","<p style=""font-size: 60px; font-family: BACS"">LdQvAOUl</p>","","","","","","","","","",""
"html-keyboard-response","132","717304","0.0-10.0-0.43","615da9ee365ab7d547b98979","650c16f0f2faf8d7a0d14c09","651c1ba378491dadcb55d092","null","null","<p style=""font-size: 60px; font-family: BACS"">bROClRE</p>","","","","","","","","","",""
"html-keyboard-response","133","718305","0.0-10.0-0.44","615da9ee365ab7d547b98979","650c16f0f2faf8d7a0d14c09","651c1ba378491dadcb55d092","null","null","<p style=""font-size: 60px; font-family: BACS"">bcbMcPK</p>","","","","","","","","","",""
"html-keyboard-response","134","719306","0.0-10.0-0.45","615da9ee365ab7d547b98979","650c16f0f2faf8d7a0d14c09","651c1ba378491dadcb55d092","null","null","<p style=""font-size: 60px; font-family: BACS"">ubALmGrbk</p>","","","","","","","","","",""
"html-keyboard-response","135","720308","0.0-10.0-0.46","615da9ee365ab7d547b98979","650c16f0f2faf8d7a0d14c09","651c1ba378491dadcb55d092","null","null","<p style=""font-size: 60px; font-family: BACS"">lRckAlRE</p>","","","","","","","","","",""
"html-keyboard-response","136","721308","0.0-10.0-0.47","615da9ee365ab7d547b98979","650c16f0f2faf8d7a0d14c09","651c1ba378491dadcb55d092","null","null","<p style=""font-size: 60px; font-family: BACS"">kCRmDlDT</p>","","","","","","","","","",""
"html-keyboard-response","137","722310","0.0-10.0-0.48","615da9ee365ab7d547b98979","650c16f0f2faf8d7a0d14c09","651c1ba378491dadcb55d092","null","null","<p style=""font-size: 60px; font-family: BACS"">TdmATAm</p>","","","","","","","","","",""
"html-keyboard-response","138","723311","0.0-10.0-0.49","615da9ee365ab7d547b98979","650c16f0f2faf8d7a0d14c09","651c1ba378491dadcb55d092","null","null","<p style=""font-size: 60px; font-family: BACS"">YlCPBDlDT</p>","","","","","","","","","",""
"html-keyboard-response","139","724312","0.0-10.0-0.50","615da9ee365ab7d547b98979","650c16f0f2faf8d7a0d14c09","651c1ba378491dadcb55d092","null","null","<p style=""font-size: 60px; font-family: BACS"">rvAJGrbk</p>","","","","","","","","","",""
"html-keyboard-response","140","725313","0.0-10.0-0.51","615da9ee365ab7d547b98979","650c16f0f2faf8d7a0d14c09","651c1ba378491dadcb55d092","null","null","<p style=""font-size: 60px; font-family: BACS"">YlCPBTAm</p>","","","","","","","","","",""
"html-keyboard-response","141","726315","0.0-10.0-0.52","615da9ee365ab7d547b98979","650c16f0f2faf8d7a0d14c09","651c1ba378491dadcb55d092","null","null","<p style=""font-size: 60px; font-family: BACS"">vJabGrbk</p>","","","","","","","","","",""
"html-keyboard-response","142","727316","0.0-10.0-0.53","615da9ee365ab7d547b98979","650c16f0f2faf8d7a0d14c09","651c1ba378491dadcb55d092","null","null","<p style=""font-size: 60px; font-family: BACS"">damYbAOUl</p>","","","","","","","","","",""
"html-keyboard-response","143","728317","0.0-10.0-0.54","615da9ee365ab7d547b98979","650c16f0f2faf8d7a0d14c09","651c1ba378491dadcb55d092","null","null","<p style=""font-size: 60px; font-family: BACS"">mkmJNUbG</p>","","","","","","","","","",""
"html-keyboard-response","144","729319","0.0-10.0-0.55","615da9ee365ab7d547b98979","650c16f0f2faf8d7a0d14c09","651c1ba378491dadcb55d092","null","null","<p style=""font-size: 60px; font-family: BACS"">cBROBlRE</p>","","","","","","","","","",""
"html-keyboard-response","145","730320","0.0-10.0-0.56","615da9ee365ab7d547b98979","650c16f0f2faf8d7a0d14c09","651c1ba378491dadcb55d092","null","null","<p style=""font-size: 60px; font-family: BACS"">ldAaArv</p>","","","","","","","","","",""
"html-keyboard-response","146","731322","0.0-10.0-0.57","615da9ee365ab7d547b98979","650c16f0f2faf8d7a0d14c09","651c1ba378491dadcb55d092","null","null","<p style=""font-size: 60px; font-family: BACS"">LcNUJQru</p>","","","","","","","","","",""
"html-keyboard-response","147","732322","0.0-10.0-0.58","615da9ee365ab7d547b98979","650c16f0f2faf8d7a0d14c09","651c1ba378491dadcb55d092","null","null","<p style=""font-size: 60px; font-family: BACS"">JuamlAOUl</p>","","","","","","","","","",""
"html-keyboard-response","148","733323","0.0-10.0-0.59","615da9ee365ab7d547b98979","650c16f0f2faf8d7a0d14c09","651c1ba378491dadcb55d092","null","null","<p style=""font-size: 60px; font-family: BACS"">hmKPMDlDT</p>","","","","","","","","","",""
"html-keyboard-response","149","734325","0.0-10.0-0.60","615da9ee365ab7d547b98979","650c16f0f2faf8d7a0d14c09","651c1ba378491dadcb55d092","null","null","<p style=""font-size: 60px; font-family: BACS"">lRckAkPM</p>","","","","","","","","","",""
"html-keyboard-response","150","735325","0.0-10.0-0.61","615da9ee365ab7d547b98979","650c16f0f2faf8d7a0d14c09","651c1ba378491dadcb55d092","null","null","<p style=""font-size: 60px; font-family: BACS"">LdQvQru</p>","","","","","","","","","",""
"html-keyboard-response","151","736326","0.0-10.0-0.62","615da9ee365ab7d547b98979","650c16f0f2faf8d7a0d14c09","651c1ba378491dadcb55d092","null","null","<p style=""font-size: 60px; font-family: BACS"">PCMPKTAm</p>","","","","","","","","","",""
"html-keyboard-response","152","737328","0.0-10.0-0.63","615da9ee365ab7d547b98979","650c16f0f2faf8d7a0d14c09","651c1ba378491dadcb55d092","null","null","<p style=""font-size: 60px; font-family: BACS"">LdQvArv</p>","","","","","","","","","",""
"html-keyboard-response","153","738329","0.0-10.0-0.64","615da9ee365ab7d547b98979","650c16f0f2faf8d7a0d14c09","651c1ba378491dadcb55d092","null","null","<p style=""font-size: 60px; font-family: BACS"">damYbUbG</p>","","","","","","","","","",""
"html-keyboard-response","154","739329","0.0-10.0-0.65","615da9ee365ab7d547b98979","650c16f0f2faf8d7a0d14c09","651c1ba378491dadcb55d092","null","null","<p style=""font-size: 60px; font-family: BACS"">hmKPMlRE</p>","","","","","","","","","",""
"html-keyboard-response","155","740330","0.0-10.0-0.66","615da9ee365ab7d547b98979","650c16f0f2faf8d7a0d14c09","651c1ba378491dadcb55d092","null","null","<p style=""font-size: 60px; font-family: BACS"">vJabUbG</p>","","","","","","","","","",""
"html-keyboard-response","156","741332","0.0-10.0-0.67","615da9ee365ab7d547b98979","650c16f0f2faf8d7a0d14c09","651c1ba378491dadcb55d092","null","null","<p style=""font-size: 60px; font-family: BACS"">rvAJQru</p>","","","","","","","","","",""
"html-keyboard-response","157","742332","0.0-10.0-0.68","615da9ee365ab7d547b98979","650c16f0f2faf8d7a0d14c09","651c1ba378491dadcb55d092","null","null","<p style=""font-size: 60px; font-family: BACS"">cBROBcPK</p>","","","","","","","","","",""
"html-keyboard-response","158","743334","0.0-10.0-0.69","615da9ee365ab7d547b98979","650c16f0f2faf8d7a0d14c09","651c1ba378491dadcb55d092","null","null","<p style=""font-size: 60px; font-family: BACS"">adYrcAOUl</p>","","","","","","","","","",""
"html-keyboard-response","159","744335","0.0-10.0-0.70","615da9ee365ab7d547b98979","650c16f0f2faf8d7a0d14c09","651c1ba378491dadcb55d092","null","null","<p style=""font-size: 60px; font-family: BACS"">mkmJNQru</p>","","","","","","","","","",""
"html-keyboard-response","160","745336","0.0-10.0-0.71","615da9ee365ab7d547b98979","650c16f0f2faf8d7a0d14c09","651c1ba378491dadcb55d092","null","null","<p style=""font-size: 60px; font-family: BACS"">dRbDbTAm</p>","","","","","","","","","",""
"html-keyboard-response","161","746338","0.0-10.0-0.72","615da9ee365ab7d547b98979","650c16f0f2faf8d7a0d14c09","651c1ba378491dadcb55d092","null","null","<p style=""font-size: 60px; font-family: BACS"">ubALmAOUl</p>","","","","","","","","","",""
"html-keyboard-response","162","747339","0.0-10.0-0.73","615da9ee365ab7d547b98979","650c16f0f2faf8d7a0d14c09","651c1ba378491dadcb55d092","null","null","<p style=""font-size: 60px; font-family: BACS"">bcbMlRE</p>","","","","","","","","","",""
"html-keyboard-response","163","748339","0.0-10.0-0.74","615da9ee365ab7d547b98979","650c16f0f2faf8d7a0d14c09","651c1ba378491dadcb55d092","null","null","<p style=""font-size: 60px; font-family: BACS"">bROCTAm</p>","","","","","","","","","",""
"html-keyboard-response","164","749341","0.0-10.0-0.75","615da9ee365ab7d547b98979","650c16f0f2faf8d7a0d14c09","651c1ba378491dadcb55d092","null","null","<p style=""font-size: 60px; font-family: BACS"">ldAaQru</p>","","","","","","","","","",""
"html-keyboard-response","165","750343","0.0-10.0-0.76","615da9ee365ab7d547b98979","650c16f0f2faf8d7a0d14c09","651c1ba378491dadcb55d092","null","null","<p style=""font-size: 60px; font-family: BACS"">bROCDlDT</p>","","","","","","","","","",""
"html-keyboard-response","166","751343","0.0-10.0-0.77","615da9ee365ab7d547b98979","650c16f0f2faf8d7a0d14c09","651c1ba378491dadcb55d092","null","null","<p style=""font-size: 60px; font-family: BACS"">ldAaAOUl</p>","","","","","","","","","",""
"html-keyboard-response","167","752345","0.0-10.0-0.78","615da9ee365ab7d547b98979","650c16f0f2faf8d7a0d14c09","651c1ba378491dadcb55d092","null","null","<p style=""font-size: 60px; font-family: BACS"">YlCPBcPK</p>","","","","","","","","","",""
"html-keyboard-response","168","753347","0.0-10.0-0.79","615da9ee365ab7d547b98979","650c16f0f2faf8d7a0d14c09","651c1ba378491dadcb55d092","null","null","<p style=""font-size: 60px; font-family: BACS"">damYbArv</p>","","","","","","","","","",""
"html-keyboard-response","169","762468","0.0-11.0","615da9ee365ab7d547b98979","650c16f0f2faf8d7a0d14c09","651c1ba378491dadcb55d092","9120"," ","<p>Great, you've seen the second block of words. You may now take a short break.</p>
      <p>Press the spacebar when you're ready to continue.</p>","","","","","","","","","",""
"html-keyboard-response","170","763469","0.0-12.0-0.0","615da9ee365ab7d547b98979","650c16f0f2faf8d7a0d14c09","651c1ba378491dadcb55d092","null","null","<p style=""font-size: 60px; font-family: BACS"">LcNUJGrbk</p>","","","","","","","","","",""
"html-keyboard-response","171","764471","0.0-12.0-0.1","615da9ee365ab7d547b98979","650c16f0f2faf8d7a0d14c09","651c1ba378491dadcb55d092","null","null","<p style=""font-size: 60px; font-family: BACS"">adYrcAOUl</p>","","","","","","","","","",""
"html-keyboard-response","172","765472","0.0-12.0-0.2","615da9ee365ab7d547b98979","650c16f0f2faf8d7a0d14c09","651c1ba378491dadcb55d092","null","null","<p style=""font-size: 60px; font-family: BACS"">dRbDbkPM</p>","","","","","","","","","",""
"html-keyboard-response","173","766472","0.0-12.0-0.3","615da9ee365ab7d547b98979","650c16f0f2faf8d7a0d14c09","651c1ba378491dadcb55d092","null","null","<p style=""font-size: 60px; font-family: BACS"">ldAaQru</p>","","","","","","","","","",""
"html-keyboard-response","174","767474","0.0-12.0-0.4","615da9ee365ab7d547b98979","650c16f0f2faf8d7a0d14c09","651c1ba378491dadcb55d092","null","null","<p style=""font-size: 60px; font-family: BACS"">cBROBTAm</p>","","","","","","","","","",""
"html-keyboard-response","175","768475","0.0-12.0-0.5","615da9ee365ab7d547b98979","650c16f0f2faf8d7a0d14c09","651c1ba378491dadcb55d092","null","null","<p style=""font-size: 60px; font-family: BACS"">rvAJUbG</p>","","","","","","","","","",""
"html-keyboard-response","176","769476","0.0-12.0-0.6","615da9ee365ab7d547b98979","650c16f0f2faf8d7a0d14c09","651c1ba378491dadcb55d092","null","null","<p style=""font-size: 60px; font-family: BACS"">bROCTAm</p>","","","","","","","","","",""
"html-keyboard-response","177","770478","0.0-12.0-0.7","615da9ee365ab7d547b98979","650c16f0f2faf8d7a0d14c09","651c1ba378491dadcb55d092","null","null","<p style=""font-size: 60px; font-family: BACS"">LcNUJAOUl</p>","","","","","","","","","",""
"html-keyboard-response","178","771479","0.0-12.0-0.8","615da9ee365ab7d547b98979","650c16f0f2faf8d7a0d14c09","651c1ba378491dadcb55d092","null","null","<p style=""font-size: 60px; font-family: BACS"">PCMPKDlDT</p>","","","","","","","","","",""
"html-keyboard-response","179","772480","0.0-12.0-0.9","615da9ee365ab7d547b98979","650c16f0f2faf8d7a0d14c09","651c1ba378491dadcb55d092","null","null","<p style=""font-size: 60px; font-family: BACS"">lRckAlRE</p>","","","","","","","","","",""
"html-keyboard-response","180","773482","0.0-12.0-0.10","615da9ee365ab7d547b98979","650c16f0f2faf8d7a0d14c09","651c1ba378491dadcb55d092","null","null","<p style=""font-size: 60px; font-family: BACS"">rvAJGrbk</p>","","","","","","","","","",""
"html-keyboard-response","181","774484","0.0-12.0-0.11","615da9ee365ab7d547b98979","650c16f0f2faf8d7a0d14c09","651c1ba378491dadcb55d092","null","null","<p style=""font-size: 60px; font-family: BACS"">kCRmDlDT</p>","","","","","","","","","",""
"html-keyboard-response","182","775485","0.0-12.0-0.12","615da9ee365ab7d547b98979","650c16f0f2faf8d7a0d14c09","651c1ba378491dadcb55d092","null","null","<p style=""font-size: 60px; font-family: BACS"">LcNUJArv</p>","","","","","","","","","",""
"html-keyboard-response","183","776487","0.0-12.0-0.13","615da9ee365ab7d547b98979","650c16f0f2faf8d7a0d14c09","651c1ba378491dadcb55d092","null","null","<p style=""font-size: 60px; font-family: BACS"">bROCcPK</p>","","","","","","","","","",""
"html-keyboard-response","184","777488","0.0-12.0-0.14","615da9ee365ab7d547b98979","650c16f0f2faf8d7a0d14c09","651c1ba378491dadcb55d092","null","null","<p style=""font-size: 60px; font-family: BACS"">lRckADlDT</p>","","","","","","","","","",""
"html-keyboard-response","185","778489","0.0-12.0-0.15","615da9ee365ab7d547b98979","650c16f0f2faf8d7a0d14c09","651c1ba378491dadcb55d092","null","null","<p style=""font-size: 60px; font-family: BACS"">kCRmcPK</p>","","","","","","","","","",""
"html-keyboard-response","186","779490","0.0-12.0-0.16","615da9ee365ab7d547b98979","650c16f0f2faf8d7a0d14c09","651c1ba378491dadcb55d092","null","null","<p style=""font-size: 60px; font-family: BACS"">bcbMkPM</p>","","","","","","","","","",""
"html-keyboard-response","187","780491","0.0-12.0-0.17","615da9ee365ab7d547b98979","650c16f0f2faf8d7a0d14c09","651c1ba378491dadcb55d092","null","null","<p style=""font-size: 60px; font-family: BACS"">ldAaAOUl</p>","","","","","","","","","",""
"html-keyboard-response","188","781494","0.0-12.0-0.18","615da9ee365ab7d547b98979","650c16f0f2faf8d7a0d14c09","651c1ba378491dadcb55d092","null","null","<p style=""font-size: 60px; font-family: BACS"">bcbMcPK</p>","","","","","","","","","",""
"html-keyboard-response","189","782496","0.0-12.0-0.19","615da9ee365ab7d547b98979","650c16f0f2faf8d7a0d14c09","651c1ba378491dadcb55d092","null","null","<p style=""font-size: 60px; font-family: BACS"">dRbDblRE</p>","","","","","","","","","",""
"html-keyboard-response","190","783498","0.0-12.0-0.20","615da9ee365ab7d547b98979","650c16f0f2faf8d7a0d14c09","651c1ba378491dadcb55d092","null","null","<p style=""font-size: 60px; font-family: BACS"">vJabArv</p>","","","","","","","","","",""
"html-keyboard-response","191","784500","0.0-12.0-0.21","615da9ee365ab7d547b98979","650c16f0f2faf8d7a0d14c09","651c1ba378491dadcb55d092","null","null","<p style=""font-size: 60px; font-family: BACS"">mkmJNQru</p>","","","","","","","","","",""
"html-keyboard-response","192","785501","0.0-12.0-0.22","615da9ee365ab7d547b98979","650c16f0f2faf8d7a0d14c09","651c1ba378491dadcb55d092","null","null","<p style=""font-size: 60px; font-family: BACS"">TdmATAm</p>","","","","","","","","","",""
"html-keyboard-response","193","786502","0.0-12.0-0.23","615da9ee365ab7d547b98979","650c16f0f2faf8d7a0d14c09","651c1ba378491dadcb55d092","null","null","<p style=""font-size: 60px; font-family: BACS"">bROClRE</p>","","","","","","","","","",""
"html-keyboard-response","194","787504","0.0-12.0-0.24","615da9ee365ab7d547b98979","650c16f0f2faf8d7a0d14c09","651c1ba378491dadcb55d092","null","null","<p style=""font-size: 60px; font-family: BACS"">TdmAkPM</p>","","","","","","","","","",""
"html-keyboard-response","195","788505","0.0-12.0-0.25","615da9ee365ab7d547b98979","650c16f0f2faf8d7a0d14c09","651c1ba378491dadcb55d092","null","null","<p style=""font-size: 60px; font-family: BACS"">cBROBlRE</p>","","","","","","","","","",""
"html-keyboard-response","196","789507","0.0-12.0-0.26","615da9ee365ab7d547b98979","650c16f0f2faf8d7a0d14c09","651c1ba378491dadcb55d092","null","null","<p style=""font-size: 60px; font-family: BACS"">rvAJQru</p>","","","","","","","","","",""
"html-keyboard-response","197","790508","0.0-12.0-0.27","615da9ee365ab7d547b98979","650c16f0f2faf8d7a0d14c09","651c1ba378491dadcb55d092","null","null","<p style=""font-size: 60px; font-family: BACS"">JuamlUbG</p>","","","","","","","","","",""
"html-keyboard-response","198","791509","0.0-12.0-0.28","615da9ee365ab7d547b98979","650c16f0f2faf8d7a0d14c09","651c1ba378491dadcb55d092","null","null","<p style=""font-size: 60px; font-family: BACS"">adYrcGrbk</p>","","","","","","","","","",""
"html-keyboard-response","199","792511","0.0-12.0-0.29","615da9ee365ab7d547b98979","650c16f0f2faf8d7a0d14c09","651c1ba378491dadcb55d092","null","null","<p style=""font-size: 60px; font-family: BACS"">ldAaUbG</p>","","","","","","","","","",""
"html-keyboard-response","200","793513","0.0-12.0-0.30","615da9ee365ab7d547b98979","650c16f0f2faf8d7a0d14c09","651c1ba378491dadcb55d092","null","null","<p style=""font-size: 60px; font-family: BACS"">dRbDbcPK</p>","","","","","","","","","",""
"html-keyboard-response","201","794515","0.0-12.0-0.31","615da9ee365ab7d547b98979","650c16f0f2faf8d7a0d14c09","651c1ba378491dadcb55d092","null","null","<p style=""font-size: 60px; font-family: BACS"">vJabGrbk</p>","","","","","","","","","",""
"html-keyboard-response","202","795516","0.0-12.0-0.32","615da9ee365ab7d547b98979","650c16f0f2faf8d7a0d14c09","651c1ba378491dadcb55d092","null","null","<p style=""font-size: 60px; font-family: BACS"">ubALmAOUl</p>","","","","","","","","","",""
"html-keyboard-response","203","796516","0.0-12.0-0.33","615da9ee365ab7d547b98979","650c16f0f2faf8d7a0d14c09","651c1ba378491dadcb55d092","null","null","<p style=""font-size: 60px; font-family: BACS"">lRckAkPM</p>","","","","","","","","","",""
"html-keyboard-response","204","797518","0.0-12.0-0.34","615da9ee365ab7d547b98979","650c16f0f2faf8d7a0d14c09","651c1ba378491dadcb55d092","null","null","<p style=""font-size: 60px; font-family: BACS"">damYbGrbk</p>","","","","","","","","","",""
"html-keyboard-response","205","798519","0.0-12.0-0.35","615da9ee365ab7d547b98979","650c16f0f2faf8d7a0d14c09","651c1ba378491dadcb55d092","null","null","<p style=""font-size: 60px; font-family: BACS"">kCRmlRE</p>","","","","","","","","","",""
"html-keyboard-response","206","799520","0.0-12.0-0.36","615da9ee365ab7d547b98979","650c16f0f2faf8d7a0d14c09","651c1ba378491dadcb55d092","null","null","<p style=""font-size: 60px; font-family: BACS"">PCMPKkPM</p>","","","","","","","","","",""
"html-keyboard-response","207","800521","0.0-12.0-0.37","615da9ee365ab7d547b98979","650c16f0f2faf8d7a0d14c09","651c1ba378491dadcb55d092","null","null","<p style=""font-size: 60px; font-family: BACS"">adYrcArv</p>","","","","","","","","","",""
"html-keyboard-response","208","801522","0.0-12.0-0.38","615da9ee365ab7d547b98979","650c16f0f2faf8d7a0d14c09","651c1ba378491dadcb55d092","null","null","<p style=""font-size: 60px; font-family: BACS"">YlCPBTAm</p>","","","","","","","","","",""
"html-keyboard-response","209","802523","0.0-12.0-0.39","615da9ee365ab7d547b98979","650c16f0f2faf8d7a0d14c09","651c1ba378491dadcb55d092","null","null","<p style=""font-size: 60px; font-family: BACS"">ubALmUbG</p>","","","","","","","","","",""
"html-keyboard-response","210","803525","0.0-12.0-0.40","615da9ee365ab7d547b98979","650c16f0f2faf8d7a0d14c09","651c1ba378491dadcb55d092","null","null","<p style=""font-size: 60px; font-family: BACS"">JuamlAOUl</p>","","","","","","","","","",""
"html-keyboard-response","211","804527","0.0-12.0-0.41","615da9ee365ab7d547b98979","650c16f0f2faf8d7a0d14c09","651c1ba378491dadcb55d092","null","null","<p style=""font-size: 60px; font-family: BACS"">LcNUJQru</p>","","","","","","","","","",""
"html-keyboard-response","212","805529","0.0-12.0-0.42","615da9ee365ab7d547b98979","650c16f0f2faf8d7a0d14c09","651c1ba378491dadcb55d092","null","null","<p style=""font-size: 60px; font-family: BACS"">mkmJNAOUl</p>","","","","","","","","","",""
"html-keyboard-response","213","806531","0.0-12.0-0.43","615da9ee365ab7d547b98979","650c16f0f2faf8d7a0d14c09","651c1ba378491dadcb55d092","null","null","<p style=""font-size: 60px; font-family: BACS"">cBROBkPM</p>","","","","","","","","","",""
"html-keyboard-response","214","807531","0.0-12.0-0.44","615da9ee365ab7d547b98979","650c16f0f2faf8d7a0d14c09","651c1ba378491dadcb55d092","null","null","<p style=""font-size: 60px; font-family: BACS"">TdmAcPK</p>","","","","","","","","","",""
"html-keyboard-response","215","808532","0.0-12.0-0.45","615da9ee365ab7d547b98979","650c16f0f2faf8d7a0d14c09","651c1ba378491dadcb55d092","null","null","<p style=""font-size: 60px; font-family: BACS"">YlCPBDlDT</p>","","","","","","","","","",""
"html-keyboard-response","216","809533","0.0-12.0-0.46","615da9ee365ab7d547b98979","650c16f0f2faf8d7a0d14c09","651c1ba378491dadcb55d092","null","null","<p style=""font-size: 60px; font-family: BACS"">vJabQru</p>","","","","","","","","","",""
"html-keyboard-response","217","810534","0.0-12.0-0.47","615da9ee365ab7d547b98979","650c16f0f2faf8d7a0d14c09","651c1ba378491dadcb55d092","null","null","<p style=""font-size: 60px; font-family: BACS"">hmKPMDlDT</p>","","","","","","","","","",""
"html-keyboard-response","218","811535","0.0-12.0-0.48","615da9ee365ab7d547b98979","650c16f0f2faf8d7a0d14c09","651c1ba378491dadcb55d092","null","null","<p style=""font-size: 60px; font-family: BACS"">mkmJNGrbk</p>","","","","","","","","","",""
"html-keyboard-response","219","812536","0.0-12.0-0.49","615da9ee365ab7d547b98979","650c16f0f2faf8d7a0d14c09","651c1ba378491dadcb55d092","null","null","<p style=""font-size: 60px; font-family: BACS"">bcbMlRE</p>","","","","","","","","","",""
"html-keyboard-response","220","813537","0.0-12.0-0.50","615da9ee365ab7d547b98979","650c16f0f2faf8d7a0d14c09","651c1ba378491dadcb55d092","null","null","<p style=""font-size: 60px; font-family: BACS"">ubALmQru</p>","","","","","","","","","",""
"html-keyboard-response","221","814539","0.0-12.0-0.51","615da9ee365ab7d547b98979","650c16f0f2faf8d7a0d14c09","651c1ba378491dadcb55d092","null","null","<p style=""font-size: 60px; font-family: BACS"">lRckATAm</p>","","","","","","","","","",""
"html-keyboard-response","222","815540","0.0-12.0-0.52","615da9ee365ab7d547b98979","650c16f0f2faf8d7a0d14c09","651c1ba378491dadcb55d092","null","null","<p style=""font-size: 60px; font-family: BACS"">LdQvArv</p>","","","","","","","","","",""
"html-keyboard-response","223","816542","0.0-12.0-0.53","615da9ee365ab7d547b98979","650c16f0f2faf8d7a0d14c09","651c1ba378491dadcb55d092","null","null","<p style=""font-size: 60px; font-family: BACS"">kCRmTAm</p>","","","","","","","","","",""
"html-keyboard-response","224","817543","0.0-12.0-0.54","615da9ee365ab7d547b98979","650c16f0f2faf8d7a0d14c09","651c1ba378491dadcb55d092","null","null","<p style=""font-size: 60px; font-family: BACS"">ldAaArv</p>","","","","","","","","","",""
"html-keyboard-response","225","818544","0.0-12.0-0.55","615da9ee365ab7d547b98979","650c16f0f2faf8d7a0d14c09","651c1ba378491dadcb55d092","null","null","<p style=""font-size: 60px; font-family: BACS"">LdQvGrbk</p>","","","","","","","","","",""
"html-keyboard-response","226","819545","0.0-12.0-0.56","615da9ee365ab7d547b98979","650c16f0f2faf8d7a0d14c09","651c1ba378491dadcb55d092","null","null","<p style=""font-size: 60px; font-family: BACS"">PCMPKlRE</p>","","","","","","","","","",""
"html-keyboard-response","227","820545","0.0-12.0-0.57","615da9ee365ab7d547b98979","650c16f0f2faf8d7a0d14c09","651c1ba378491dadcb55d092","null","null","<p style=""font-size: 60px; font-family: BACS"">rvAJArv</p>","","","","","","","","","",""
"html-keyboard-response","228","821546","0.0-12.0-0.58","615da9ee365ab7d547b98979","650c16f0f2faf8d7a0d14c09","651c1ba378491dadcb55d092","null","null","<p style=""font-size: 60px; font-family: BACS"">LdQvQru</p>","","","","","","","","","",""
"html-keyboard-response","229","822547","0.0-12.0-0.59","615da9ee365ab7d547b98979","650c16f0f2faf8d7a0d14c09","651c1ba378491dadcb55d092","null","null","<p style=""font-size: 60px; font-family: BACS"">damYbArv</p>","","","","","","","","","",""
"html-keyboard-response","230","823549","0.0-12.0-0.60","615da9ee365ab7d547b98979","650c16f0f2faf8d7a0d14c09","651c1ba378491dadcb55d092","null","null","<p style=""font-size: 60px; font-family: BACS"">cBROBcPK</p>","","","","","","","","","",""
"html-keyboard-response","231","824549","0.0-12.0-0.61","615da9ee365ab7d547b98979","650c16f0f2faf8d7a0d14c09","651c1ba378491dadcb55d092","null","null","<p style=""font-size: 60px; font-family: BACS"">hmKPMkPM</p>","","","","","","","","","",""
"html-keyboard-response","232","825550","0.0-12.0-0.62","615da9ee365ab7d547b98979","650c16f0f2faf8d7a0d14c09","651c1ba378491dadcb55d092","null","null","<p style=""font-size: 60px; font-family: BACS"">ubALmGrbk</p>","","","","","","","","","",""
"html-keyboard-response","233","826551","0.0-12.0-0.63","615da9ee365ab7d547b98979","650c16f0f2faf8d7a0d14c09","651c1ba378491dadcb55d092","null","null","<p style=""font-size: 60px; font-family: BACS"">dRbDbTAm</p>","","","","","","","","","",""
"html-keyboard-response","234","827552","0.0-12.0-0.64","615da9ee365ab7d547b98979","650c16f0f2faf8d7a0d14c09","651c1ba378491dadcb55d092","null","null","<p style=""font-size: 60px; font-family: BACS"">hmKPMcPK</p>","","","","","","","","","",""
"html-keyboard-response","235","828554","0.0-12.0-0.65","615da9ee365ab7d547b98979","650c16f0f2faf8d7a0d14c09","651c1ba378491dadcb55d092","null","null","<p style=""font-size: 60px; font-family: BACS"">JuamlQru</p>","","","","","","","","","",""
"html-keyboard-response","236","829556","0.0-12.0-0.66","615da9ee365ab7d547b98979","650c16f0f2faf8d7a0d14c09","651c1ba378491dadcb55d092","null","null","<p style=""font-size: 60px; font-family: BACS"">hmKPMlRE</p>","","","","","","","","","",""
"html-keyboard-response","237","830556","0.0-12.0-0.67","615da9ee365ab7d547b98979","650c16f0f2faf8d7a0d14c09","651c1ba378491dadcb55d092","null","null","<p style=""font-size: 60px; font-family: BACS"">damYbAOUl</p>","","","","","","","","","",""
"html-keyboard-response","238","831559","0.0-12.0-0.68","615da9ee365ab7d547b98979","650c16f0f2faf8d7a0d14c09","651c1ba378491dadcb55d092","null","null","<p style=""font-size: 60px; font-family: BACS"">vJabUbG</p>","","","","","","","","","",""
"html-keyboard-response","239","832559","0.0-12.0-0.69","615da9ee365ab7d547b98979","650c16f0f2faf8d7a0d14c09","651c1ba378491dadcb55d092","null","null","<p style=""font-size: 60px; font-family: BACS"">LdQvAOUl</p>","","","","","","","","","",""
"html-keyboard-response","240","833560","0.0-12.0-0.70","615da9ee365ab7d547b98979","650c16f0f2faf8d7a0d14c09","651c1ba378491dadcb55d092","null","null","<p style=""font-size: 60px; font-family: BACS"">YlCPBkPM</p>","","","","","","","","","",""
"html-keyboard-response","241","834561","0.0-12.0-0.71","615da9ee365ab7d547b98979","650c16f0f2faf8d7a0d14c09","651c1ba378491dadcb55d092","null","null","<p style=""font-size: 60px; font-family: BACS"">JuamlArv</p>","","","","","","","","","",""
"html-keyboard-response","242","835563","0.0-12.0-0.72","615da9ee365ab7d547b98979","650c16f0f2faf8d7a0d14c09","651c1ba378491dadcb55d092","null","null","<p style=""font-size: 60px; font-family: BACS"">bROCDlDT</p>","","","","","","","","","",""
"html-keyboard-response","243","836564","0.0-12.0-0.73","615da9ee365ab7d547b98979","650c16f0f2faf8d7a0d14c09","651c1ba378491dadcb55d092","null","null","<p style=""font-size: 60px; font-family: BACS"">mkmJNUbG</p>","","","","","","","","","",""
"html-keyboard-response","244","837565","0.0-12.0-0.74","615da9ee365ab7d547b98979","650c16f0f2faf8d7a0d14c09","651c1ba378491dadcb55d092","null","null","<p style=""font-size: 60px; font-family: BACS"">PCMPKTAm</p>","","","","","","","","","",""
"html-keyboard-response","245","838698","0.0-12.0-0.75","615da9ee365ab7d547b98979","650c16f0f2faf8d7a0d14c09","651c1ba378491dadcb55d092","null","null","<p style=""font-size: 60px; font-family: BACS"">damYbUbG</p>","","","","","","","","","",""
"html-keyboard-response","246","839699","0.0-12.0-0.76","615da9ee365ab7d547b98979","650c16f0f2faf8d7a0d14c09","651c1ba378491dadcb55d092","null","null","<p style=""font-size: 60px; font-family: BACS"">bcbMDlDT</p>","","","","","","","","","",""
"html-keyboard-response","247","840701","0.0-12.0-0.77","615da9ee365ab7d547b98979","650c16f0f2faf8d7a0d14c09","651c1ba378491dadcb55d092","null","null","<p style=""font-size: 60px; font-family: BACS"">YlCPBcPK</p>","","","","","","","","","",""
"html-keyboard-response","248","842700","0.0-12.0-0.78","615da9ee365ab7d547b98979","650c16f0f2faf8d7a0d14c09","651c1ba378491dadcb55d092","null","null","<p style=""font-size: 60px; font-family: BACS"">TdmADlDT</p>","","","","","","","","","",""
"html-keyboard-response","249","843701","0.0-12.0-0.79","615da9ee365ab7d547b98979","650c16f0f2faf8d7a0d14c09","651c1ba378491dadcb55d092","null","null","<p style=""font-size: 60px; font-family: BACS"">adYrcUbG</p>","","","","","","","","","",""
"html-keyboard-response","250","854443","0.0-13.0","615da9ee365ab7d547b98979","650c16f0f2faf8d7a0d14c09","651c1ba378491dadcb55d092","10742"," ","<p>Great, you've seen the third block of words. You may now take a short break.</p>
      <p>Press the spacebar when you're ready to continue.</p>","","","","","","","","","",""
"html-keyboard-response","251","855444","0.0-14.0-0.0","615da9ee365ab7d547b98979","650c16f0f2faf8d7a0d14c09","651c1ba378491dadcb55d092","null","null","<p style=""font-size: 60px; font-family: BACS"">bROCDlDT</p>","","","","","","","","","",""
"html-keyboard-response","252","856445","0.0-14.0-0.1","615da9ee365ab7d547b98979","650c16f0f2faf8d7a0d14c09","651c1ba378491dadcb55d092","null","null","<p style=""font-size: 60px; font-family: BACS"">PCMPKTAm</p>","","","","","","","","","",""
"html-keyboard-response","253","857446","0.0-14.0-0.2","615da9ee365ab7d547b98979","650c16f0f2faf8d7a0d14c09","651c1ba378491dadcb55d092","null","null","<p style=""font-size: 60px; font-family: BACS"">LcNUJGrbk</p>","","","","","","","","","",""
"html-keyboard-response","254","858448","0.0-14.0-0.3","615da9ee365ab7d547b98979","650c16f0f2faf8d7a0d14c09","651c1ba378491dadcb55d092","null","null","<p style=""font-size: 60px; font-family: BACS"">LdQvQru</p>","","","","","","","","","",""
"html-keyboard-response","255","859451","0.0-14.0-0.4","615da9ee365ab7d547b98979","650c16f0f2faf8d7a0d14c09","651c1ba378491dadcb55d092","null","null","<p style=""font-size: 60px; font-family: BACS"">YlCPBcPK</p>","","","","","","","","","",""
"html-keyboard-response","256","860451","0.0-14.0-0.5","615da9ee365ab7d547b98979","650c16f0f2faf8d7a0d14c09","651c1ba378491dadcb55d092","null","null","<p style=""font-size: 60px; font-family: BACS"">TdmATAm</p>","","","","","","","","","",""
"html-keyboard-response","257","861452","0.0-14.0-0.6","615da9ee365ab7d547b98979","650c16f0f2faf8d7a0d14c09","651c1ba378491dadcb55d092","null","null","<p style=""font-size: 60px; font-family: BACS"">ldAaArv</p>","","","","","","","","","",""
"html-keyboard-response","258","862453","0.0-14.0-0.7","615da9ee365ab7d547b98979","650c16f0f2faf8d7a0d14c09","651c1ba378491dadcb55d092","null","null","<p style=""font-size: 60px; font-family: BACS"">ubALmAOUl</p>","","","","","","","","","",""
"html-keyboard-response","259","863455","0.0-14.0-0.8","615da9ee365ab7d547b98979","650c16f0f2faf8d7a0d14c09","651c1ba378491dadcb55d092","null","null","<p style=""font-size: 60px; font-family: BACS"">damYbUbG</p>","","","","","","","","","",""
"html-keyboard-response","260","864456","0.0-14.0-0.9","615da9ee365ab7d547b98979","650c16f0f2faf8d7a0d14c09","651c1ba378491dadcb55d092","null","null","<p style=""font-size: 60px; font-family: BACS"">JuamlArv</p>","","","","","","","","","",""
"html-keyboard-response","261","865457","0.0-14.0-0.10","615da9ee365ab7d547b98979","650c16f0f2faf8d7a0d14c09","651c1ba378491dadcb55d092","null","null","<p style=""font-size: 60px; font-family: BACS"">mkmJNGrbk</p>","","","","","","","","","",""
"html-keyboard-response","262","866458","0.0-14.0-0.11","615da9ee365ab7d547b98979","650c16f0f2faf8d7a0d14c09","651c1ba378491dadcb55d092","null","null","<p style=""font-size: 60px; font-family: BACS"">bcbMkPM</p>","","","","","","","","","",""
"html-keyboard-response","263","867460","0.0-14.0-0.12","615da9ee365ab7d547b98979","650c16f0f2faf8d7a0d14c09","651c1ba378491dadcb55d092","null","null","<p style=""font-size: 60px; font-family: BACS"">bROCcPK</p>","","","","","","","","","",""
"html-keyboard-response","264","868462","0.0-14.0-0.13","615da9ee365ab7d547b98979","650c16f0f2faf8d7a0d14c09","651c1ba378491dadcb55d092","null","null","<p style=""font-size: 60px; font-family: BACS"">YlCPBTAm</p>","","","","","","","","","",""
"html-keyboard-response","265","869463","0.0-14.0-0.14","615da9ee365ab7d547b98979","650c16f0f2faf8d7a0d14c09","651c1ba378491dadcb55d092","null","null","<p style=""font-size: 60px; font-family: BACS"">ubALmGrbk</p>","","","","","","","","","",""
"html-keyboard-response","266","870464","0.0-14.0-0.15","615da9ee365ab7d547b98979","650c16f0f2faf8d7a0d14c09","651c1ba378491dadcb55d092","null","null","<p style=""font-size: 60px; font-family: BACS"">lRckAkPM</p>","","","","","","","","","",""
"html-keyboard-response","267","871466","0.0-14.0-0.16","615da9ee365ab7d547b98979","650c16f0f2faf8d7a0d14c09","651c1ba378491dadcb55d092","null","null","<p style=""font-size: 60px; font-family: BACS"">adYrcArv</p>","","","","","","","","","",""
"html-keyboard-response","268","872467","0.0-14.0-0.17","615da9ee365ab7d547b98979","650c16f0f2faf8d7a0d14c09","651c1ba378491dadcb55d092","null","null","<p style=""font-size: 60px; font-family: BACS"">bROClRE</p>","","","","","","","","","",""
"html-keyboard-response","269","873467","0.0-14.0-0.18","615da9ee365ab7d547b98979","650c16f0f2faf8d7a0d14c09","651c1ba378491dadcb55d092","null","null","<p style=""font-size: 60px; font-family: BACS"">ubALmQru</p>","","","","","","","","","",""
"html-keyboard-response","270","874469","0.0-14.0-0.19","615da9ee365ab7d547b98979","650c16f0f2faf8d7a0d14c09","651c1ba378491dadcb55d092","null","null","<p style=""font-size: 60px; font-family: BACS"">rvAJGrbk</p>","","","","","","","","","",""
"html-keyboard-response","271","875470","0.0-14.0-0.20","615da9ee365ab7d547b98979","650c16f0f2faf8d7a0d14c09","651c1ba378491dadcb55d092","null","null","<p style=""font-size: 60px; font-family: BACS"">cBROBTAm</p>","","","","","","","","","",""
"html-keyboard-response","272","876471","0.0-14.0-0.21","615da9ee365ab7d547b98979","650c16f0f2faf8d7a0d14c09","651c1ba378491dadcb55d092","null","null","<p style=""font-size: 60px; font-family: BACS"">damYbArv</p>","","","","","","","","","",""
"html-keyboard-response","273","877472","0.0-14.0-0.22","615da9ee365ab7d547b98979","650c16f0f2faf8d7a0d14c09","651c1ba378491dadcb55d092","null","null","<p style=""font-size: 60px; font-family: BACS"">dRbDblRE</p>","","","","","","","","","",""
"html-keyboard-response","274","878473","0.0-14.0-0.23","615da9ee365ab7d547b98979","650c16f0f2faf8d7a0d14c09","651c1ba378491dadcb55d092","null","null","<p style=""font-size: 60px; font-family: BACS"">lRckADlDT</p>","","","","","","","","","",""
"html-keyboard-response","275","879473","0.0-14.0-0.24","615da9ee365ab7d547b98979","650c16f0f2faf8d7a0d14c09","651c1ba378491dadcb55d092","null","null","<p style=""font-size: 60px; font-family: BACS"">kCRmlRE</p>","","","","","","","","","",""
"html-keyboard-response","276","880475","0.0-14.0-0.25","615da9ee365ab7d547b98979","650c16f0f2faf8d7a0d14c09","651c1ba378491dadcb55d092","null","null","<p style=""font-size: 60px; font-family: BACS"">YlCPBkPM</p>","","","","","","","","","",""
"html-keyboard-response","277","881475","0.0-14.0-0.26","615da9ee365ab7d547b98979","650c16f0f2faf8d7a0d14c09","651c1ba378491dadcb55d092","null","null","<p style=""font-size: 60px; font-family: BACS"">vJabGrbk</p>","","","","","","","","","",""
"html-keyboard-response","278","882476","0.0-14.0-0.27","615da9ee365ab7d547b98979","650c16f0f2faf8d7a0d14c09","651c1ba378491dadcb55d092","null","null","<p style=""font-size: 60px; font-family: BACS"">hmKPMDlDT</p>","","","","","","","","","",""
"html-keyboard-response","279","883478","0.0-14.0-0.28","615da9ee365ab7d547b98979","650c16f0f2faf8d7a0d14c09","651c1ba378491dadcb55d092","null","null","<p style=""font-size: 60px; font-family: BACS"">mkmJNUbG</p>","","","","","","","","","",""
"html-keyboard-response","280","884480","0.0-14.0-0.29","615da9ee365ab7d547b98979","650c16f0f2faf8d7a0d14c09","651c1ba378491dadcb55d092","null","null","<p style=""font-size: 60px; font-family: BACS"">rvAJArv</p>","","","","","","","","","",""
"html-keyboard-response","281","885481","0.0-14.0-0.30","615da9ee365ab7d547b98979","650c16f0f2faf8d7a0d14c09","651c1ba378491dadcb55d092","null","null","<p style=""font-size: 60px; font-family: BACS"">adYrcUbG</p>","","","","","","","","","",""
"html-keyboard-response","282","886482","0.0-14.0-0.31","615da9ee365ab7d547b98979","650c16f0f2faf8d7a0d14c09","651c1ba378491dadcb55d092","null","null","<p style=""font-size: 60px; font-family: BACS"">bcbMDlDT</p>","","","","","","","","","",""
"html-keyboard-response","283","887483","0.0-14.0-0.32","615da9ee365ab7d547b98979","650c16f0f2faf8d7a0d14c09","651c1ba378491dadcb55d092","null","null","<p style=""font-size: 60px; font-family: BACS"">LcNUJAOUl</p>","","","","","","","","","",""
"html-keyboard-response","284","888484","0.0-14.0-0.33","615da9ee365ab7d547b98979","650c16f0f2faf8d7a0d14c09","651c1ba378491dadcb55d092","null","null","<p style=""font-size: 60px; font-family: BACS"">bROCTAm</p>","","","","","","","","","",""
"html-keyboard-response","285","889485","0.0-14.0-0.34","615da9ee365ab7d547b98979","650c16f0f2faf8d7a0d14c09","651c1ba378491dadcb55d092","null","null","<p style=""font-size: 60px; font-family: BACS"">YlCPBDlDT</p>","","","","","","","","","",""
"html-keyboard-response","286","890486","0.0-14.0-0.35","615da9ee365ab7d547b98979","650c16f0f2faf8d7a0d14c09","651c1ba378491dadcb55d092","null","null","<p style=""font-size: 60px; font-family: BACS"">LdQvArv</p>","","","","","","","","","",""
"html-keyboard-response","287","891486","0.0-14.0-0.36","615da9ee365ab7d547b98979","650c16f0f2faf8d7a0d14c09","651c1ba378491dadcb55d092","null","null","<p style=""font-size: 60px; font-family: BACS"">dRbDbkPM</p>","","","","","","","","","",""
"html-keyboard-response","288","892487","0.0-14.0-0.37","615da9ee365ab7d547b98979","650c16f0f2faf8d7a0d14c09","651c1ba378491dadcb55d092","null","null","<p style=""font-size: 60px; font-family: BACS"">ldAaUbG</p>","","","","","","","","","",""
"html-keyboard-response","289","893489","0.0-14.0-0.38","615da9ee365ab7d547b98979","650c16f0f2faf8d7a0d14c09","651c1ba378491dadcb55d092","null","null","<p style=""font-size: 60px; font-family: BACS"">dRbDbTAm</p>","","","","","","","","","",""
"html-keyboard-response","290","894491","0.0-14.0-0.39","615da9ee365ab7d547b98979","650c16f0f2faf8d7a0d14c09","651c1ba378491dadcb55d092","null","null","<p style=""font-size: 60px; font-family: BACS"">LcNUJArv</p>","","","","","","","","","",""
"html-keyboard-response","291","895492","0.0-14.0-0.40","615da9ee365ab7d547b98979","650c16f0f2faf8d7a0d14c09","651c1ba378491dadcb55d092","null","null","<p style=""font-size: 60px; font-family: BACS"">JuamlUbG</p>","","","","","","","","","",""
"html-keyboard-response","292","896493","0.0-14.0-0.41","615da9ee365ab7d547b98979","650c16f0f2faf8d7a0d14c09","651c1ba378491dadcb55d092","null","null","<p style=""font-size: 60px; font-family: BACS"">ldAaAOUl</p>","","","","","","","","","",""
"html-keyboard-response","293","897494","0.0-14.0-0.42","615da9ee365ab7d547b98979","650c16f0f2faf8d7a0d14c09","651c1ba378491dadcb55d092","null","null","<p style=""font-size: 60px; font-family: BACS"">TdmAkPM</p>","","","","","","","","","",""
"html-keyboard-response","294","898495","0.0-14.0-0.43","615da9ee365ab7d547b98979","650c16f0f2faf8d7a0d14c09","651c1ba378491dadcb55d092","null","null","<p style=""font-size: 60px; font-family: BACS"">rvAJUbG</p>","","","","","","","","","",""
"html-keyboard-response","295","899496","0.0-14.0-0.44","615da9ee365ab7d547b98979","650c16f0f2faf8d7a0d14c09","651c1ba378491dadcb55d092","null","null","<p style=""font-size: 60px; font-family: BACS"">cBROBcPK</p>","","","","","","","","","",""
"html-keyboard-response","296","900497","0.0-14.0-0.45","615da9ee365ab7d547b98979","650c16f0f2faf8d7a0d14c09","651c1ba378491dadcb55d092","null","null","<p style=""font-size: 60px; font-family: BACS"">kCRmDlDT</p>","","","","","","","","","",""
"html-keyboard-response","297","901498","0.0-14.0-0.46","615da9ee365ab7d547b98979","650c16f0f2faf8d7a0d14c09","651c1ba378491dadcb55d092","null","null","<p style=""font-size: 60px; font-family: BACS"">hmKPMlRE</p>","","","","","","","","","",""
"html-keyboard-response","298","902499","0.0-14.0-0.47","615da9ee365ab7d547b98979","650c16f0f2faf8d7a0d14c09","651c1ba378491dadcb55d092","null","null","<p style=""font-size: 60px; font-family: BACS"">cBROBkPM</p>","","","","","","","","","",""
"html-keyboard-response","299","903500","0.0-14.0-0.48","615da9ee365ab7d547b98979","650c16f0f2faf8d7a0d14c09","651c1ba378491dadcb55d092","null","null","<p style=""font-size: 60px; font-family: BACS"">LcNUJQru</p>","","","","","","","","","",""
"html-keyboard-response","300","904502","0.0-14.0-0.49","615da9ee365ab7d547b98979","650c16f0f2faf8d7a0d14c09","651c1ba378491dadcb55d092","null","null","<p style=""font-size: 60px; font-family: BACS"">cBROBlRE</p>","","","","","","","","","",""
"html-keyboard-response","301","905502","0.0-14.0-0.50","615da9ee365ab7d547b98979","650c16f0f2faf8d7a0d14c09","651c1ba378491dadcb55d092","null","null","<p style=""font-size: 60px; font-family: BACS"">TdmAcPK</p>","","","","","","","","","",""
"html-keyboard-response","302","906504","0.0-14.0-0.51","615da9ee365ab7d547b98979","650c16f0f2faf8d7a0d14c09","651c1ba378491dadcb55d092","null","null","<p style=""font-size: 60px; font-family: BACS"">JuamlQru</p>","","","","","","","","","",""
"html-keyboard-response","303","907505","0.0-14.0-0.52","615da9ee365ab7d547b98979","650c16f0f2faf8d7a0d14c09","651c1ba378491dadcb55d092","null","null","<p style=""font-size: 60px; font-family: BACS"">lRckAlRE</p>","","","","","","","","","",""
"html-keyboard-response","304","908506","0.0-14.0-0.53","615da9ee365ab7d547b98979","650c16f0f2faf8d7a0d14c09","651c1ba378491dadcb55d092","null","null","<p style=""font-size: 60px; font-family: BACS"">kCRmcPK</p>","","","","","","","","","",""
"html-keyboard-response","305","909507","0.0-14.0-0.54","615da9ee365ab7d547b98979","650c16f0f2faf8d7a0d14c09","651c1ba378491dadcb55d092","null","null","<p style=""font-size: 60px; font-family: BACS"">adYrcGrbk</p>","","","","","","","","","",""
"html-keyboard-response","306","910509","0.0-14.0-0.55","615da9ee365ab7d547b98979","650c16f0f2faf8d7a0d14c09","651c1ba378491dadcb55d092","null","null","<p style=""font-size: 60px; font-family: BACS"">LdQvAOUl</p>","","","","","","","","","",""
"html-keyboard-response","307","911511","0.0-14.0-0.56","615da9ee365ab7d547b98979","650c16f0f2faf8d7a0d14c09","651c1ba378491dadcb55d092","null","null","<p style=""font-size: 60px; font-family: BACS"">hmKPMkPM</p>","","","","","","","","","",""
"html-keyboard-response","308","912512","0.0-14.0-0.57","615da9ee365ab7d547b98979","650c16f0f2faf8d7a0d14c09","651c1ba378491dadcb55d092","null","null","<p style=""font-size: 60px; font-family: BACS"">lRckATAm</p>","","","","","","","","","",""
"html-keyboard-response","309","913514","0.0-14.0-0.58","615da9ee365ab7d547b98979","650c16f0f2faf8d7a0d14c09","651c1ba378491dadcb55d092","null","null","<p style=""font-size: 60px; font-family: BACS"">rvAJQru</p>","","","","","","","","","",""
"html-keyboard-response","310","914515","0.0-14.0-0.59","615da9ee365ab7d547b98979","650c16f0f2faf8d7a0d14c09","651c1ba378491dadcb55d092","null","null","<p style=""font-size: 60px; font-family: BACS"">PCMPKDlDT</p>","","","","","","","","","",""
"html-keyboard-response","311","915518","0.0-14.0-0.60","615da9ee365ab7d547b98979","650c16f0f2faf8d7a0d14c09","651c1ba378491dadcb55d092","null","null","<p style=""font-size: 60px; font-family: BACS"">damYbGrbk</p>","","","","","","","","","",""
"html-keyboard-response","312","916519","0.0-14.0-0.61","615da9ee365ab7d547b98979","650c16f0f2faf8d7a0d14c09","651c1ba378491dadcb55d092","null","null","<p style=""font-size: 60px; font-family: BACS"">ldAaQru</p>","","","","","","","","","",""
"html-keyboard-response","313","917520","0.0-14.0-0.62","615da9ee365ab7d547b98979","650c16f0f2faf8d7a0d14c09","651c1ba378491dadcb55d092","null","null","<p style=""font-size: 60px; font-family: BACS"">bcbMlRE</p>","","","","","","","","","",""
"html-keyboard-response","314","918520","0.0-14.0-0.63","615da9ee365ab7d547b98979","650c16f0f2faf8d7a0d14c09","651c1ba378491dadcb55d092","null","null","<p style=""font-size: 60px; font-family: BACS"">dRbDbcPK</p>","","","","","","","","","",""
"html-keyboard-response","315","919522","0.0-14.0-0.64","615da9ee365ab7d547b98979","650c16f0f2faf8d7a0d14c09","651c1ba378491dadcb55d092","null","null","<p style=""font-size: 60px; font-family: BACS"">JuamlAOUl</p>","","","","","","","","","",""
"html-keyboard-response","316","920522","0.0-14.0-0.65","615da9ee365ab7d547b98979","650c16f0f2faf8d7a0d14c09","651c1ba378491dadcb55d092","null","null","<p style=""font-size: 60px; font-family: BACS"">bcbMcPK</p>","","","","","","","","","",""
"html-keyboard-response","317","921523","0.0-14.0-0.66","615da9ee365ab7d547b98979","650c16f0f2faf8d7a0d14c09","651c1ba378491dadcb55d092","null","null","<p style=""font-size: 60px; font-family: BACS"">damYbAOUl</p>","","","","","","","","","",""
"html-keyboard-response","318","922524","0.0-14.0-0.67","615da9ee365ab7d547b98979","650c16f0f2faf8d7a0d14c09","651c1ba378491dadcb55d092","null","null","<p style=""font-size: 60px; font-family: BACS"">vJabQru</p>","","","","","","","","","",""
"html-keyboard-response","319","923526","0.0-14.0-0.68","615da9ee365ab7d547b98979","650c16f0f2faf8d7a0d14c09","651c1ba378491dadcb55d092","null","null","<p style=""font-size: 60px; font-family: BACS"">ubALmUbG</p>","","","","","","","","","",""
"html-keyboard-response","320","924526","0.0-14.0-0.69","615da9ee365ab7d547b98979","650c16f0f2faf8d7a0d14c09","651c1ba378491dadcb55d092","null","null","<p style=""font-size: 60px; font-family: BACS"">adYrcAOUl</p>","","","","","","","","","",""
"html-keyboard-response","321","925528","0.0-14.0-0.70","615da9ee365ab7d547b98979","650c16f0f2faf8d7a0d14c09","651c1ba378491dadcb55d092","null","null","<p style=""font-size: 60px; font-family: BACS"">kCRmTAm</p>","","","","","","","","","",""
"html-keyboard-response","322","926529","0.0-14.0-0.71","615da9ee365ab7d547b98979","650c16f0f2faf8d7a0d14c09","651c1ba378491dadcb55d092","null","null","<p style=""font-size: 60px; font-family: BACS"">vJabArv</p>","","","","","","","","","",""
"html-keyboard-response","323","927530","0.0-14.0-0.72","615da9ee365ab7d547b98979","650c16f0f2faf8d7a0d14c09","651c1ba378491dadcb55d092","null","null","<p style=""font-size: 60px; font-family: BACS"">mkmJNAOUl</p>","","","","","","","","","",""
"html-keyboard-response","324","928531","0.0-14.0-0.73","615da9ee365ab7d547b98979","650c16f0f2faf8d7a0d14c09","651c1ba378491dadcb55d092","null","null","<p style=""font-size: 60px; font-family: BACS"">hmKPMcPK</p>","","","","","","","","","",""
"html-keyboard-response","325","929532","0.0-14.0-0.74","615da9ee365ab7d547b98979","650c16f0f2faf8d7a0d14c09","651c1ba378491dadcb55d092","null","null","<p style=""font-size: 60px; font-family: BACS"">vJabUbG</p>","","","","","","","","","",""
"html-keyboard-response","326","930533","0.0-14.0-0.75","615da9ee365ab7d547b98979","650c16f0f2faf8d7a0d14c09","651c1ba378491dadcb55d092","null","null","<p style=""font-size: 60px; font-family: BACS"">mkmJNQru</p>","","","","","","","","","",""
"html-keyboard-response","327","931534","0.0-14.0-0.76","615da9ee365ab7d547b98979","650c16f0f2faf8d7a0d14c09","651c1ba378491dadcb55d092","null","null","<p style=""font-size: 60px; font-family: BACS"">LdQvGrbk</p>","","","","","","","","","",""
"html-keyboard-response","328","932535","0.0-14.0-0.77","615da9ee365ab7d547b98979","650c16f0f2faf8d7a0d14c09","651c1ba378491dadcb55d092","null","null","<p style=""font-size: 60px; font-family: BACS"">PCMPKkPM</p>","","","","","","","","","",""
"html-keyboard-response","329","933536","0.0-14.0-0.78","615da9ee365ab7d547b98979","650c16f0f2faf8d7a0d14c09","651c1ba378491dadcb55d092","null","null","<p style=""font-size: 60px; font-family: BACS"">TdmADlDT</p>","","","","","","","","","",""
"html-keyboard-response","330","934536","0.0-14.0-0.79","615da9ee365ab7d547b98979","650c16f0f2faf8d7a0d14c09","651c1ba378491dadcb55d092","null","null","<p style=""font-size: 60px; font-family: BACS"">PCMPKlRE</p>","","","","","","","","","",""
"html-keyboard-response","331","938143","0.0-15.0","615da9ee365ab7d547b98979","650c16f0f2faf8d7a0d14c09","651c1ba378491dadcb55d092","3606"," ","<p>Great, you've seen the fourth block of words. You may now take a short break.</p>
      <p>Press the spacebar when you're ready to continue.</p>","","","","","","","","","",""
"html-keyboard-response","332","939143","0.0-16.0-0.0","615da9ee365ab7d547b98979","650c16f0f2faf8d7a0d14c09","651c1ba378491dadcb55d092","null","null","<p style=""font-size: 60px; font-family: BACS"">hmKPMlRE</p>","","","","","","","","","",""
"html-keyboard-response","333","940144","0.0-16.0-0.1","615da9ee365ab7d547b98979","650c16f0f2faf8d7a0d14c09","651c1ba378491dadcb55d092","null","null","<p style=""font-size: 60px; font-family: BACS"">hmKPMlRE</p>","","","","","","","","","",""
"html-keyboard-response","334","941146","0.0-16.0-0.2","615da9ee365ab7d547b98979","650c16f0f2faf8d7a0d14c09","651c1ba378491dadcb55d092","null","null","<p style=""font-size: 60px; font-family: BACS"">hmKPMlRE</p>","","","","","","","","","",""
"html-keyboard-response","335","942146","0.0-16.0-0.3","615da9ee365ab7d547b98979","650c16f0f2faf8d7a0d14c09","651c1ba378491dadcb55d092","null","null","<p style=""font-size: 60px; font-family: BACS"">hmKPMlRE</p>","","","","","","","","","",""
"html-keyboard-response","336","943147","0.0-16.0-0.4","615da9ee365ab7d547b98979","650c16f0f2faf8d7a0d14c09","651c1ba378491dadcb55d092","null","null","<p style=""font-size: 60px; font-family: BACS"">hmKPMlRE</p>","","","","","","","","","",""
"html-keyboard-response","337","944149","0.0-16.0-0.5","615da9ee365ab7d547b98979","650c16f0f2faf8d7a0d14c09","651c1ba378491dadcb55d092","null","null","<p style=""font-size: 60px; font-family: BACS"">hmKPMlRE</p>","","","","","","","","","",""
"html-keyboard-response","338","945149","0.0-16.0-0.6","615da9ee365ab7d547b98979","650c16f0f2faf8d7a0d14c09","651c1ba378491dadcb55d092","null","null","<p style=""font-size: 60px; font-family: BACS"">hmKPMlRE</p>","","","","","","","","","",""
"html-keyboard-response","339","946150","0.0-16.0-0.7","615da9ee365ab7d547b98979","650c16f0f2faf8d7a0d14c09","651c1ba378491dadcb55d092","null","null","<p style=""font-size: 60px; font-family: BACS"">hmKPMlRE</p>","","","","","","","","","",""
"html-keyboard-response","340","947152","0.0-16.0-0.8","615da9ee365ab7d547b98979","650c16f0f2faf8d7a0d14c09","651c1ba378491dadcb55d092","null","null","<p style=""font-size: 60px; font-family: BACS"">hmKPMlRE</p>","","","","","","","","","",""
"html-keyboard-response","341","948153","0.0-16.0-0.9","615da9ee365ab7d547b98979","650c16f0f2faf8d7a0d14c09","651c1ba378491dadcb55d092","null","null","<p style=""font-size: 60px; font-family: BACS"">hmKPMlRE</p>","","","","","","","","","",""
"html-keyboard-response","342","949155","0.0-16.0-0.10","615da9ee365ab7d547b98979","650c16f0f2faf8d7a0d14c09","651c1ba378491dadcb55d092","null","null","<p style=""font-size: 60px; font-family: BACS"">hmKPMlRE</p>","","","","","","","","","",""
"html-keyboard-response","343","950156","0.0-16.0-0.11","615da9ee365ab7d547b98979","650c16f0f2faf8d7a0d14c09","651c1ba378491dadcb55d092","null","null","<p style=""font-size: 60px; font-family: BACS"">hmKPMlRE</p>","","","","","","","","","",""
"html-keyboard-response","344","951157","0.0-16.0-0.12","615da9ee365ab7d547b98979","650c16f0f2faf8d7a0d14c09","651c1ba378491dadcb55d092","null","null","<p style=""font-size: 60px; font-family: BACS"">hmKPMlRE</p>","","","","","","","","","",""
"html-keyboard-response","345","952157","0.0-16.0-0.13","615da9ee365ab7d547b98979","650c16f0f2faf8d7a0d14c09","651c1ba378491dadcb55d092","null","null","<p style=""font-size: 60px; font-family: BACS"">hmKPMlRE</p>","","","","","","","","","",""
"html-keyboard-response","346","953158","0.0-16.0-0.14","615da9ee365ab7d547b98979","650c16f0f2faf8d7a0d14c09","651c1ba378491dadcb55d092","null","null","<p style=""font-size: 60px; font-family: BACS"">hmKPMlRE</p>","","","","","","","","","",""
"html-keyboard-response","347","954159","0.0-16.0-0.15","615da9ee365ab7d547b98979","650c16f0f2faf8d7a0d14c09","651c1ba378491dadcb55d092","null","null","<p style=""font-size: 60px; font-family: BACS"">hmKPMlRE</p>","","","","","","","","","",""
"html-keyboard-response","348","955160","0.0-16.0-0.16","615da9ee365ab7d547b98979","650c16f0f2faf8d7a0d14c09","651c1ba378491dadcb55d092","null","null","<p style=""font-size: 60px; font-family: BACS"">hmKPMlRE</p>","","","","","","","","","",""
"html-keyboard-response","349","956161","0.0-16.0-0.17","615da9ee365ab7d547b98979","650c16f0f2faf8d7a0d14c09","651c1ba378491dadcb55d092","null","null","<p style=""font-size: 60px; font-family: BACS"">hmKPMlRE</p>","","","","","","","","","",""
"html-keyboard-response","350","957163","0.0-16.0-0.18","615da9ee365ab7d547b98979","650c16f0f2faf8d7a0d14c09","651c1ba378491dadcb55d092","null","null","<p style=""font-size: 60px; font-family: BACS"">hmKPMlRE</p>","","","","","","","","","",""
"html-keyboard-response","351","958164","0.0-16.0-0.19","615da9ee365ab7d547b98979","650c16f0f2faf8d7a0d14c09","651c1ba378491dadcb55d092","null","null","<p style=""font-size: 60px; font-family: BACS"">hmKPMlRE</p>","","","","","","","","","",""
"html-keyboard-response","352","959164","0.0-16.0-0.20","615da9ee365ab7d547b98979","650c16f0f2faf8d7a0d14c09","651c1ba378491dadcb55d092","null","null","<p style=""font-size: 60px; font-family: BACS"">hmKPMlRE</p>","","","","","","","","","",""
"html-keyboard-response","353","960165","0.0-16.0-0.21","615da9ee365ab7d547b98979","650c16f0f2faf8d7a0d14c09","651c1ba378491dadcb55d092","null","null","<p style=""font-size: 60px; font-family: BACS"">hmKPMlRE</p>","","","","","","","","","",""
"html-keyboard-response","354","961166","0.0-16.0-0.22","615da9ee365ab7d547b98979","650c16f0f2faf8d7a0d14c09","651c1ba378491dadcb55d092","null","null","<p style=""font-size: 60px; font-family: BACS"">hmKPMlRE</p>","","","","","","","","","",""
"html-keyboard-response","355","962167","0.0-16.0-0.23","615da9ee365ab7d547b98979","650c16f0f2faf8d7a0d14c09","651c1ba378491dadcb55d092","null","null","<p style=""font-size: 60px; font-family: BACS"">hmKPMlRE</p>","","","","","","","","","",""
"html-keyboard-response","356","963169","0.0-16.0-0.24","615da9ee365ab7d547b98979","650c16f0f2faf8d7a0d14c09","651c1ba378491dadcb55d092","null","null","<p style=""font-size: 60px; font-family: BACS"">hmKPMlRE</p>","","","","","","","","","",""
"html-keyboard-response","357","964172","0.0-16.0-0.25","615da9ee365ab7d547b98979","650c16f0f2faf8d7a0d14c09","651c1ba378491dadcb55d092","null","null","<p style=""font-size: 60px; font-family: BACS"">hmKPMlRE</p>","","","","","","","","","",""
"html-keyboard-response","358","965174","0.0-16.0-0.26","615da9ee365ab7d547b98979","650c16f0f2faf8d7a0d14c09","651c1ba378491dadcb55d092","null","null","<p style=""font-size: 60px; font-family: BACS"">hmKPMlRE</p>","","","","","","","","","",""
"html-keyboard-response","359","966174","0.0-16.0-0.27","615da9ee365ab7d547b98979","650c16f0f2faf8d7a0d14c09","651c1ba378491dadcb55d092","null","null","<p style=""font-size: 60px; font-family: BACS"">hmKPMlRE</p>","","","","","","","","","",""
"html-keyboard-response","360","967175","0.0-16.0-0.28","615da9ee365ab7d547b98979","650c16f0f2faf8d7a0d14c09","651c1ba378491dadcb55d092","null","null","<p style=""font-size: 60px; font-family: BACS"">hmKPMlRE</p>","","","","","","","","","",""
"html-keyboard-response","361","968177","0.0-16.0-0.29","615da9ee365ab7d547b98979","650c16f0f2faf8d7a0d14c09","651c1ba378491dadcb55d092","null","null","<p style=""font-size: 60px; font-family: BACS"">hmKPMlRE</p>","","","","","","","","","",""
"html-keyboard-response","362","969178","0.0-16.0-0.30","615da9ee365ab7d547b98979","650c16f0f2faf8d7a0d14c09","651c1ba378491dadcb55d092","null","null","<p style=""font-size: 60px; font-family: BACS"">hmKPMlRE</p>","","","","","","","","","",""
"html-keyboard-response","363","970179","0.0-16.0-0.31","615da9ee365ab7d547b98979","650c16f0f2faf8d7a0d14c09","651c1ba378491dadcb55d092","null","null","<p style=""font-size: 60px; font-family: BACS"">hmKPMlRE</p>","","","","","","","","","",""
"html-keyboard-response","364","971180","0.0-16.0-0.32","615da9ee365ab7d547b98979","650c16f0f2faf8d7a0d14c09","651c1ba378491dadcb55d092","null","null","<p style=""font-size: 60px; font-family: BACS"">hmKPMlRE</p>","","","","","","","","","",""
"html-keyboard-response","365","972182","0.0-16.0-0.33","615da9ee365ab7d547b98979","650c16f0f2faf8d7a0d14c09","651c1ba378491dadcb55d092","null","null","<p style=""font-size: 60px; font-family: BACS"">hmKPMlRE</p>","","","","","","","","","",""
"html-keyboard-response","366","973184","0.0-16.0-0.34","615da9ee365ab7d547b98979","650c16f0f2faf8d7a0d14c09","651c1ba378491dadcb55d092","null","null","<p style=""font-size: 60px; font-family: BACS"">hmKPMlRE</p>","","","","","","","","","",""
"html-keyboard-response","367","974185","0.0-16.0-0.35","615da9ee365ab7d547b98979","650c16f0f2faf8d7a0d14c09","651c1ba378491dadcb55d092","null","null","<p style=""font-size: 60px; font-family: BACS"">hmKPMlRE</p>","","","","","","","","","",""
"html-keyboard-response","368","975186","0.0-16.0-0.36","615da9ee365ab7d547b98979","650c16f0f2faf8d7a0d14c09","651c1ba378491dadcb55d092","null","null","<p style=""font-size: 60px; font-family: BACS"">hmKPMlRE</p>","","","","","","","","","",""
"html-keyboard-response","369","976188","0.0-16.0-0.37","615da9ee365ab7d547b98979","650c16f0f2faf8d7a0d14c09","651c1ba378491dadcb55d092","null","null","<p style=""font-size: 60px; font-family: BACS"">hmKPMlRE</p>","","","","","","","","","",""
"html-keyboard-response","370","977190","0.0-16.0-0.38","615da9ee365ab7d547b98979","650c16f0f2faf8d7a0d14c09","651c1ba378491dadcb55d092","null","null","<p style=""font-size: 60px; font-family: BACS"">hmKPMlRE</p>","","","","","","","","","",""
"html-keyboard-response","371","978191","0.0-16.0-0.39","615da9ee365ab7d547b98979","650c16f0f2faf8d7a0d14c09","651c1ba378491dadcb55d092","null","null","<p style=""font-size: 60px; font-family: BACS"">hmKPMlRE</p>","","","","","","","","","",""
"html-keyboard-response","372","979193","0.0-16.0-0.40","615da9ee365ab7d547b98979","650c16f0f2faf8d7a0d14c09","651c1ba378491dadcb55d092","null","null","<p style=""font-size: 60px; font-family: BACS"">hmKPMlRE</p>","","","","","","","","","",""
"html-keyboard-response","373","980195","0.0-16.0-0.41","615da9ee365ab7d547b98979","650c16f0f2faf8d7a0d14c09","651c1ba378491dadcb55d092","null","null","<p style=""font-size: 60px; font-family: BACS"">hmKPMlRE</p>","","","","","","","","","",""
"html-keyboard-response","374","981196","0.0-16.0-0.42","615da9ee365ab7d547b98979","650c16f0f2faf8d7a0d14c09","651c1ba378491dadcb55d092","null","null","<p style=""font-size: 60px; font-family: BACS"">hmKPMlRE</p>","","","","","","","","","",""
"html-keyboard-response","375","982197","0.0-16.0-0.43","615da9ee365ab7d547b98979","650c16f0f2faf8d7a0d14c09","651c1ba378491dadcb55d092","null","null","<p style=""font-size: 60px; font-family: BACS"">hmKPMlRE</p>","","","","","","","","","",""
"html-keyboard-response","376","983199","0.0-16.0-0.44","615da9ee365ab7d547b98979","650c16f0f2faf8d7a0d14c09","651c1ba378491dadcb55d092","null","null","<p style=""font-size: 60px; font-family: BACS"">hmKPMlRE</p>","","","","","","","","","",""
"html-keyboard-response","377","984200","0.0-16.0-0.45","615da9ee365ab7d547b98979","650c16f0f2faf8d7a0d14c09","651c1ba378491dadcb55d092","null","null","<p style=""font-size: 60px; font-family: BACS"">hmKPMlRE</p>","","","","","","","","","",""
"html-keyboard-response","378","985200","0.0-16.0-0.46","615da9ee365ab7d547b98979","650c16f0f2faf8d7a0d14c09","651c1ba378491dadcb55d092","null","null","<p style=""font-size: 60px; font-family: BACS"">hmKPMlRE</p>","","","","","","","","","",""
"html-keyboard-response","379","986201","0.0-16.0-0.47","615da9ee365ab7d547b98979","650c16f0f2faf8d7a0d14c09","651c1ba378491dadcb55d092","null","null","<p style=""font-size: 60px; font-family: BACS"">hmKPMlRE</p>","","","","","","","","","",""
"html-keyboard-response","380","987202","0.0-16.0-0.48","615da9ee365ab7d547b98979","650c16f0f2faf8d7a0d14c09","651c1ba378491dadcb55d092","null","null","<p style=""font-size: 60px; font-family: BACS"">hmKPMlRE</p>","","","","","","","","","",""
"html-keyboard-response","381","988204","0.0-16.0-0.49","615da9ee365ab7d547b98979","650c16f0f2faf8d7a0d14c09","651c1ba378491dadcb55d092","null","null","<p style=""font-size: 60px; font-family: BACS"">hmKPMlRE</p>","","","","","","","","","",""
"html-keyboard-response","382","989204","0.0-16.0-0.50","615da9ee365ab7d547b98979","650c16f0f2faf8d7a0d14c09","651c1ba378491dadcb55d092","null","null","<p style=""font-size: 60px; font-family: BACS"">hmKPMlRE</p>","","","","","","","","","",""
"html-keyboard-response","383","990205","0.0-16.0-0.51","615da9ee365ab7d547b98979","650c16f0f2faf8d7a0d14c09","651c1ba378491dadcb55d092","null","null","<p style=""font-size: 60px; font-family: BACS"">hmKPMlRE</p>","","","","","","","","","",""
"html-keyboard-response","384","991206","0.0-16.0-0.52","615da9ee365ab7d547b98979","650c16f0f2faf8d7a0d14c09","651c1ba378491dadcb55d092","null","null","<p style=""font-size: 60px; font-family: BACS"">hmKPMlRE</p>","","","","","","","","","",""
"html-keyboard-response","385","992207","0.0-16.0-0.53","615da9ee365ab7d547b98979","650c16f0f2faf8d7a0d14c09","651c1ba378491dadcb55d092","null","null","<p style=""font-size: 60px; font-family: BACS"">hmKPMlRE</p>","","","","","","","","","",""
"html-keyboard-response","386","993208","0.0-16.0-0.54","615da9ee365ab7d547b98979","650c16f0f2faf8d7a0d14c09","651c1ba378491dadcb55d092","null","null","<p style=""font-size: 60px; font-family: BACS"">hmKPMlRE</p>","","","","","","","","","",""
"html-keyboard-response","387","994209","0.0-16.0-0.55","615da9ee365ab7d547b98979","650c16f0f2faf8d7a0d14c09","651c1ba378491dadcb55d092","null","null","<p style=""font-size: 60px; font-family: BACS"">hmKPMlRE</p>","","","","","","","","","",""
"html-keyboard-response","388","995210","0.0-16.0-0.56","615da9ee365ab7d547b98979","650c16f0f2faf8d7a0d14c09","651c1ba378491dadcb55d092","null","null","<p style=""font-size: 60px; font-family: BACS"">hmKPMlRE</p>","","","","","","","","","",""
"html-keyboard-response","389","996211","0.0-16.0-0.57","615da9ee365ab7d547b98979","650c16f0f2faf8d7a0d14c09","651c1ba378491dadcb55d092","null","null","<p style=""font-size: 60px; font-family: BACS"">hmKPMlRE</p>","","","","","","","","","",""
"html-keyboard-response","390","997213","0.0-16.0-0.58","615da9ee365ab7d547b98979","650c16f0f2faf8d7a0d14c09","651c1ba378491dadcb55d092","null","null","<p style=""font-size: 60px; font-family: BACS"">hmKPMlRE</p>","","","","","","","","","",""
"html-keyboard-response","391","998214","0.0-16.0-0.59","615da9ee365ab7d547b98979","650c16f0f2faf8d7a0d14c09","651c1ba378491dadcb55d092","null","null","<p style=""font-size: 60px; font-family: BACS"">hmKPMlRE</p>","","","","","","","","","",""
"html-keyboard-response","392","999216","0.0-16.0-0.60","615da9ee365ab7d547b98979","650c16f0f2faf8d7a0d14c09","651c1ba378491dadcb55d092","null","null","<p style=""font-size: 60px; font-family: BACS"">hmKPMlRE</p>","","","","","","","","","",""
"html-keyboard-response","393","1000218","0.0-16.0-0.61","615da9ee365ab7d547b98979","650c16f0f2faf8d7a0d14c09","651c1ba378491dadcb55d092","null","null","<p style=""font-size: 60px; font-family: BACS"">hmKPMlRE</p>","","","","","","","","","",""
