"trial_type","trial_index","time_elapsed","internal_node_id","subject_id","study_id","session_id","rt","response","stimulus","success","item","task","correct_response","testing_condition","correct","target","confound","name","view_history"
"pavlovia","0","1923","0.0-0.0","617679054948369cb824d837","650c16f0f2faf8d7a0d14c09","651c1e4555bcdef806a4637e","","","","","","","","","","","","",""
"survey-html-form","1","16732","0.0-1.0","617679054948369cb824d837","650c16f0f2faf8d7a0d14c09","651c1e4555bcdef806a4637e","14807","{""ID"":""617679054948369cb824d837""}","","","","","","","","","","",""
"html-keyboard-response","2","19555","0.0-2.0","617679054948369cb824d837","650c16f0f2faf8d7a0d14c09","651c1e4555bcdef806a4637e","2817"," ","<p style=""font-size: 15px;"">Before beginning, we ask that you read the consent information and confirm your agreement to participate in the experiment.</p>
      <p style=""font-size: 15px;""> We ask that you remember that this is a research project and that your participation is entirely voluntary. You can stop your participation at any time, without needing to provide any explanation. The study we're asking you to participate in aims at examining how readers process written words. You will be engaged in a session of apprximately 20 minutes, followed by a brief questionnaire. You will have the opportunity to take a few breaks during the experiment. You will be paid £4 for your participation, corresponding to a rate of £8/hour. While this experiment looks at cognitive faculties, this experiment doesn't constitute clinical proof of eventual pathologies.</p>
      <p style=""font-size: 15px;"">All of the information collected thanks to yours and others' participation will be held in a secure password-protected server, and will not be shared with anyone not authorised to view it. Your personal information will be kept with an arbitrary participant ID. Thanks to this data anonymity process, any researcher analysing the data won't be able to track the information back to a specific participant. Therefore, this process will make identifying you impossibile, even when results from the study will be published in scientific reviews, presented at congresses, or at any other public forum. More generally, the collected data will be treated in accordance with the laws on privacy and conformity to the Legislative Degree n. 196 ""Code regarding the protection of personal data"" of the 30th of June 2003 and to the European Regulation 2016/670 (General Data Protection Regulation - GDPR). The Data Protection Officer is Avv. Valentina Carollo, who can be contacted at the following email addresses: <a href=""mailto:dpo@sissa.it"">dpo@sissa.it</a> or <a href=""mailto:rpd@sissa.it"">rpd@sissa.it</a> - PEC: <a href=""mailto:protocollo@pec.sissa.it"">protocollo@pec.sissa.it</a>.</p>
      <p style=""font-size: 15px;""> Before expressing your consent to participate, we would like to remind you again that in case you need explanations on any aspect of the experimental procedure, the researcher is at your disposition (<a href=""mailto:aliebelt@sissa.it"">aliebelt@sissa.it</a>, <a href=""mailto:davide.crepaldi@sissa.it"">davide.crepaldi@sissa.it</a>).</p>
      <p style=""font-size: 15px;"">If you would like to download the informed consent form, you can do so here: <a href=""BASL-Informed_Consent.pdf"" download>informed consent form</a>.</p>
      <p style=""font-size: 15px;"">We ask that you press the spacebar to proceed to the consent section.</p>","","","","","","","","","",""
"survey-html-form","3","24779","0.0-3.0","617679054948369cb824d837","650c16f0f2faf8d7a0d14c09","651c1e4555bcdef806a4637e","5222","{""consent1"":""YES"",""consent2"":""YES"",""consent3"":""YES"",""consent4"":""YES"",""consent5"":""YES"",""consent6"":""YES""}","","","","","","","","","","",""
"fullscreen","4","28952","0.0-4.0","617679054948369cb824d837","650c16f0f2faf8d7a0d14c09","651c1e4555bcdef806a4637e","","","","true","","","","","","","","",""
"html-keyboard-response","5","30875","0.0-5.0","617679054948369cb824d837","650c16f0f2faf8d7a0d14c09","651c1e4555bcdef806a4637e","1920"," ","<p>Welcome, and thank you very much for your time!</p>
      <p>In this experiment, you'll be a language expert who's been asked to take a look at words that Earth has received in its first communication with aliens. Your task, in this first part of the experiment, is to pay close attention to the words you'll be shown; later, world leaders will ask you questions on what you saw. The words will be shown to you quite quickly; it seems that the aliens were in a hurry :-)</p>
      <p>Press the spacebar to continue.<p>","","","","","","","","","",""
"html-keyboard-response","6","30934","0.0-6.0","617679054948369cb824d837","650c16f0f2faf8d7a0d14c09","651c1e4555bcdef806a4637e","null","null","<p style=""font-size: 120px; font-family: BACS""> </p>","","","","","","","","","",""
"html-keyboard-response","7","34320","0.0-7.0","617679054948369cb824d837","650c16f0f2faf8d7a0d14c09","651c1e4555bcdef806a4637e","3385"," ","<p>Here is an example of the words you'll see:</p>
      <img src='esempio.png' height='400px'>
      <p>When you're ready to begin, press the spacebar.</p></div>","","","","","","","","","",""
"html-keyboard-response","8","35325","0.0-8.0-0.0","617679054948369cb824d837","650c16f0f2faf8d7a0d14c09","651c1e4555bcdef806a4637e","null","null","<p style=""font-size: 60px; font-family: BACS"">DlDdBYhT</p>","","","","","","","","","",""
"html-keyboard-response","9","36334","0.0-8.0-0.1","617679054948369cb824d837","650c16f0f2faf8d7a0d14c09","651c1e4555bcdef806a4637e","null","null","<p style=""font-size: 60px; font-family: BACS"">UmNJZckv</p>","","","","","","","","","",""
"html-keyboard-response","10","37341","0.0-8.0-0.2","617679054948369cb824d837","650c16f0f2faf8d7a0d14c09","651c1e4555bcdef806a4637e","null","null","<p style=""font-size: 60px; font-family: BACS"">rckObLd</p>","","","","","","","","","",""
"html-keyboard-response","11","38350","0.0-8.0-0.3","617679054948369cb824d837","650c16f0f2faf8d7a0d14c09","651c1e4555bcdef806a4637e","null","null","<p style=""font-size: 60px; font-family: BACS"">YlYcBYhT</p>","","","","","","","","","",""
"html-keyboard-response","12","39360","0.0-8.0-0.4","617679054948369cb824d837","650c16f0f2faf8d7a0d14c09","651c1e4555bcdef806a4637e","null","null","<p style=""font-size: 60px; font-family: BACS"">GJZmbLd</p>","","","","","","","","","",""
"html-keyboard-response","13","40366","0.0-8.0-0.5","617679054948369cb824d837","650c16f0f2faf8d7a0d14c09","651c1e4555bcdef806a4637e","null","null","<p style=""font-size: 60px; font-family: BACS"">OQarQZckv</p>","","","","","","","","","",""
"html-keyboard-response","14","41374","0.0-8.0-0.6","617679054948369cb824d837","650c16f0f2faf8d7a0d14c09","651c1e4555bcdef806a4637e","null","null","<p style=""font-size: 60px; font-family: BACS"">AlTdBYhT</p>","","","","","","","","","",""
"html-keyboard-response","15","42382","0.0-8.0-0.7","617679054948369cb824d837","650c16f0f2faf8d7a0d14c09","651c1e4555bcdef806a4637e","null","null","<p style=""font-size: 60px; font-family: BACS"">OQarQLkNc</p>","","","","","","","","","",""
"html-keyboard-response","16","43390","0.0-8.0-0.8","617679054948369cb824d837","650c16f0f2faf8d7a0d14c09","651c1e4555bcdef806a4637e","null","null","<p style=""font-size: 60px; font-family: BACS"">BOCRMBYhT</p>","","","","","","","","","",""
"html-keyboard-response","17","44398","0.0-8.0-0.9","617679054948369cb824d837","650c16f0f2faf8d7a0d14c09","651c1e4555bcdef806a4637e","null","null","<p style=""font-size: 60px; font-family: BACS"">GJZmZckv</p>","","","","","","","","","",""
"html-keyboard-response","18","45407","0.0-8.0-0.10","617679054948369cb824d837","650c16f0f2faf8d7a0d14c09","651c1e4555bcdef806a4637e","null","null","<p style=""font-size: 60px; font-family: BACS"">YQbcbLd</p>","","","","","","","","","",""
"html-keyboard-response","19","46414","0.0-8.0-0.11","617679054948369cb824d837","650c16f0f2faf8d7a0d14c09","651c1e4555bcdef806a4637e","null","null","<p style=""font-size: 60px; font-family: BACS"">kDRKckDOm</p>","","","","","","","","","",""
"html-keyboard-response","20","47422","0.0-8.0-0.12","617679054948369cb824d837","650c16f0f2faf8d7a0d14c09","651c1e4555bcdef806a4637e","null","null","<p style=""font-size: 60px; font-family: BACS"">DlDdOPE</p>","","","","","","","","","",""
"html-keyboard-response","21","48430","0.0-8.0-0.13","617679054948369cb824d837","650c16f0f2faf8d7a0d14c09","651c1e4555bcdef806a4637e","null","null","<p style=""font-size: 60px; font-family: BACS"">uQuZcZckv</p>","","","","","","","","","",""
"html-keyboard-response","22","49438","0.0-8.0-0.14","617679054948369cb824d837","650c16f0f2faf8d7a0d14c09","651c1e4555bcdef806a4637e","null","null","<p style=""font-size: 60px; font-family: BACS"">JauQbLd</p>","","","","","","","","","",""
"html-keyboard-response","23","50447","0.0-8.0-0.15","617679054948369cb824d837","650c16f0f2faf8d7a0d14c09","651c1e4555bcdef806a4637e","null","null","<p style=""font-size: 60px; font-family: BACS"">tKDmhkPM</p>","","","","","","","","","",""
"html-keyboard-response","24","51453","0.0-8.0-0.16","617679054948369cb824d837","650c16f0f2faf8d7a0d14c09","651c1e4555bcdef806a4637e","null","null","<p style=""font-size: 60px; font-family: BACS"">thbOMOPE</p>","","","","","","","","","",""
"html-keyboard-response","25","52462","0.0-8.0-0.17","617679054948369cb824d837","650c16f0f2faf8d7a0d14c09","651c1e4555bcdef806a4637e","null","null","<p style=""font-size: 60px; font-family: BACS"">BOCRMkPM</p>","","","","","","","","","",""
"html-keyboard-response","26","53470","0.0-8.0-0.18","617679054948369cb824d837","650c16f0f2faf8d7a0d14c09","651c1e4555bcdef806a4637e","null","null","<p style=""font-size: 60px; font-family: BACS"">hTDdkDOm</p>","","","","","","","","","",""
"html-keyboard-response","27","54477","0.0-8.0-0.19","617679054948369cb824d837","650c16f0f2faf8d7a0d14c09","651c1e4555bcdef806a4637e","null","null","<p style=""font-size: 60px; font-family: BACS"">uQuZcbLd</p>","","","","","","","","","",""
"html-keyboard-response","28","55485","0.0-8.0-0.20","617679054948369cb824d837","650c16f0f2faf8d7a0d14c09","651c1e4555bcdef806a4637e","null","null","<p style=""font-size: 60px; font-family: BACS"">AlTdkDOm</p>","","","","","","","","","",""
"html-keyboard-response","29","56494","0.0-8.0-0.21","617679054948369cb824d837","650c16f0f2faf8d7a0d14c09","651c1e4555bcdef806a4637e","null","null","<p style=""font-size: 60px; font-family: BACS"">tKDmhBYhT</p>","","","","","","","","","",""
"html-keyboard-response","30","57502","0.0-8.0-0.22","617679054948369cb824d837","650c16f0f2faf8d7a0d14c09","651c1e4555bcdef806a4637e","null","null","<p style=""font-size: 60px; font-family: BACS"">mdkKkPM</p>","","","","","","","","","",""
"html-keyboard-response","31","58512","0.0-8.0-0.23","617679054948369cb824d837","650c16f0f2faf8d7a0d14c09","651c1e4555bcdef806a4637e","null","null","<p style=""font-size: 60px; font-family: BACS"">GJZmLkNc</p>","","","","","","","","","",""
"html-keyboard-response","32","59519","0.0-8.0-0.24","617679054948369cb824d837","650c16f0f2faf8d7a0d14c09","651c1e4555bcdef806a4637e","null","null","<p style=""font-size: 60px; font-family: BACS"">thbOMTmc</p>","","","","","","","","","",""
"html-keyboard-response","33","60526","0.0-8.0-0.25","617679054948369cb824d837","650c16f0f2faf8d7a0d14c09","651c1e4555bcdef806a4637e","null","null","<p style=""font-size: 60px; font-family: BACS"">UmNJLkNc</p>","","","","","","","","","",""
"html-keyboard-response","34","61534","0.0-8.0-0.26","617679054948369cb824d837","650c16f0f2faf8d7a0d14c09","651c1e4555bcdef806a4637e","null","null","<p style=""font-size: 60px; font-family: BACS"">aUZAZckv</p>","","","","","","","","","",""
"html-keyboard-response","35","62543","0.0-8.0-0.27","617679054948369cb824d837","650c16f0f2faf8d7a0d14c09","651c1e4555bcdef806a4637e","null","null","<p style=""font-size: 60px; font-family: BACS"">hTDdOPE</p>","","","","","","","","","",""
"html-keyboard-response","36","63550","0.0-8.0-0.28","617679054948369cb824d837","650c16f0f2faf8d7a0d14c09","651c1e4555bcdef806a4637e","null","null","<p style=""font-size: 60px; font-family: BACS"">RlAKcTmc</p>","","","","","","","","","",""
"html-keyboard-response","37","64557","0.0-8.0-0.29","617679054948369cb824d837","650c16f0f2faf8d7a0d14c09","651c1e4555bcdef806a4637e","null","null","<p style=""font-size: 60px; font-family: BACS"">vclYZckv</p>","","","","","","","","","",""
"html-keyboard-response","38","65566","0.0-8.0-0.30","617679054948369cb824d837","650c16f0f2faf8d7a0d14c09","651c1e4555bcdef806a4637e","null","null","<p style=""font-size: 60px; font-family: BACS"">GJZmlvk</p>","","","","","","","","","",""
"html-keyboard-response","39","66574","0.0-8.0-0.31","617679054948369cb824d837","650c16f0f2faf8d7a0d14c09","651c1e4555bcdef806a4637e","null","null","<p style=""font-size: 60px; font-family: BACS"">rckOvcb</p>","","","","","","","","","",""
"html-keyboard-response","40","67581","0.0-8.0-0.32","617679054948369cb824d837","650c16f0f2faf8d7a0d14c09","651c1e4555bcdef806a4637e","null","null","<p style=""font-size: 60px; font-family: BACS"">mdkKkDOm</p>","","","","","","","","","",""
"html-keyboard-response","41","68590","0.0-8.0-0.33","617679054948369cb824d837","650c16f0f2faf8d7a0d14c09","651c1e4555bcdef806a4637e","null","null","<p style=""font-size: 60px; font-family: BACS"">vclYLkNc</p>","","","","","","","","","",""
"html-keyboard-response","42","69601","0.0-8.0-0.34","617679054948369cb824d837","650c16f0f2faf8d7a0d14c09","651c1e4555bcdef806a4637e","null","null","<p style=""font-size: 60px; font-family: BACS"">YQbcZckv</p>","","","","","","","","","",""
"html-keyboard-response","43","70606","0.0-8.0-0.35","617679054948369cb824d837","650c16f0f2faf8d7a0d14c09","651c1e4555bcdef806a4637e","null","null","<p style=""font-size: 60px; font-family: BACS"">uQuZcLkNc</p>","","","","","","","","","",""
"html-keyboard-response","44","71614","0.0-8.0-0.36","617679054948369cb824d837","650c16f0f2faf8d7a0d14c09","651c1e4555bcdef806a4637e","null","null","<p style=""font-size: 60px; font-family: BACS"">aUZAlvk</p>","","","","","","","","","",""
"html-keyboard-response","45","72622","0.0-8.0-0.37","617679054948369cb824d837","650c16f0f2faf8d7a0d14c09","651c1e4555bcdef806a4637e","null","null","<p style=""font-size: 60px; font-family: BACS"">hTDdTmc</p>","","","","","","","","","",""
"html-keyboard-response","46","73633","0.0-8.0-0.38","617679054948369cb824d837","650c16f0f2faf8d7a0d14c09","651c1e4555bcdef806a4637e","null","null","<p style=""font-size: 60px; font-family: BACS"">YQbcvcb</p>","","","","","","","","","",""
"html-keyboard-response","47","74640","0.0-8.0-0.39","617679054948369cb824d837","650c16f0f2faf8d7a0d14c09","651c1e4555bcdef806a4637e","null","null","<p style=""font-size: 60px; font-family: BACS"">mdlalvk</p>","","","","","","","","","",""
"html-keyboard-response","48","75646","0.0-8.0-0.40","617679054948369cb824d837","650c16f0f2faf8d7a0d14c09","651c1e4555bcdef806a4637e","null","null","<p style=""font-size: 60px; font-family: BACS"">thbOMkDOm</p>","","","","","","","","","",""
"html-keyboard-response","49","76654","0.0-8.0-0.41","617679054948369cb824d837","650c16f0f2faf8d7a0d14c09","651c1e4555bcdef806a4637e","null","null","<p style=""font-size: 60px; font-family: BACS"">AlTdOPE</p>","","","","","","","","","",""
"html-keyboard-response","50","77662","0.0-8.0-0.42","617679054948369cb824d837","650c16f0f2faf8d7a0d14c09","651c1e4555bcdef806a4637e","null","null","<p style=""font-size: 60px; font-family: BACS"">DlDdkPM</p>","","","","","","","","","",""
"html-keyboard-response","51","78670","0.0-8.0-0.43","617679054948369cb824d837","650c16f0f2faf8d7a0d14c09","651c1e4555bcdef806a4637e","null","null","<p style=""font-size: 60px; font-family: BACS"">mdlavcb</p>","","","","","","","","","",""
"html-keyboard-response","52","79678","0.0-8.0-0.44","617679054948369cb824d837","650c16f0f2faf8d7a0d14c09","651c1e4555bcdef806a4637e","null","null","<p style=""font-size: 60px; font-family: BACS"">vclYbLd</p>","","","","","","","","","",""
"html-keyboard-response","53","80686","0.0-8.0-0.45","617679054948369cb824d837","650c16f0f2faf8d7a0d14c09","651c1e4555bcdef806a4637e","null","null","<p style=""font-size: 60px; font-family: BACS"">JauQlvk</p>","","","","","","","","","",""
"html-keyboard-response","54","81694","0.0-8.0-0.46","617679054948369cb824d837","650c16f0f2faf8d7a0d14c09","651c1e4555bcdef806a4637e","null","null","<p style=""font-size: 60px; font-family: BACS"">OQarQvcb</p>","","","","","","","","","",""
"html-keyboard-response","55","82701","0.0-8.0-0.47","617679054948369cb824d837","650c16f0f2faf8d7a0d14c09","651c1e4555bcdef806a4637e","null","null","<p style=""font-size: 60px; font-family: BACS"">rckOLkNc</p>","","","","","","","","","",""
"html-keyboard-response","56","83709","0.0-8.0-0.48","617679054948369cb824d837","650c16f0f2faf8d7a0d14c09","651c1e4555bcdef806a4637e","null","null","<p style=""font-size: 60px; font-family: BACS"">thbOMkPM</p>","","","","","","","","","",""
"html-keyboard-response","57","84718","0.0-8.0-0.49","617679054948369cb824d837","650c16f0f2faf8d7a0d14c09","651c1e4555bcdef806a4637e","null","null","<p style=""font-size: 60px; font-family: BACS"">aUZAvcb</p>","","","","","","","","","",""
"html-keyboard-response","58","85726","0.0-8.0-0.50","617679054948369cb824d837","650c16f0f2faf8d7a0d14c09","651c1e4555bcdef806a4637e","null","null","<p style=""font-size: 60px; font-family: BACS"">mdlaLkNc</p>","","","","","","","","","",""
"html-keyboard-response","59","86733","0.0-8.0-0.51","617679054948369cb824d837","650c16f0f2faf8d7a0d14c09","651c1e4555bcdef806a4637e","null","null","<p style=""font-size: 60px; font-family: BACS"">UmNJvcb</p>","","","","","","","","","",""
"html-keyboard-response","60","87742","0.0-8.0-0.52","617679054948369cb824d837","650c16f0f2faf8d7a0d14c09","651c1e4555bcdef806a4637e","null","null","<p style=""font-size: 60px; font-family: BACS"">kDRKckPM</p>","","","","","","","","","",""
"html-keyboard-response","61","88757","0.0-8.0-0.53","617679054948369cb824d837","650c16f0f2faf8d7a0d14c09","651c1e4555bcdef806a4637e","null","null","<p style=""font-size: 60px; font-family: BACS"">JauQZckv</p>","","","","","","","","","",""
"html-keyboard-response","62","89766","0.0-8.0-0.54","617679054948369cb824d837","650c16f0f2faf8d7a0d14c09","651c1e4555bcdef806a4637e","null","null","<p style=""font-size: 60px; font-family: BACS"">YlYckDOm</p>","","","","","","","","","",""
"html-keyboard-response","63","90775","0.0-8.0-0.55","617679054948369cb824d837","650c16f0f2faf8d7a0d14c09","651c1e4555bcdef806a4637e","null","null","<p style=""font-size: 60px; font-family: BACS"">tKDmhOPE</p>","","","","","","","","","",""
"html-keyboard-response","64","91782","0.0-8.0-0.56","617679054948369cb824d837","650c16f0f2faf8d7a0d14c09","651c1e4555bcdef806a4637e","null","null","<p style=""font-size: 60px; font-family: BACS"">aUZALkNc</p>","","","","","","","","","",""
"html-keyboard-response","65","92815","0.0-8.0-0.57","617679054948369cb824d837","650c16f0f2faf8d7a0d14c09","651c1e4555bcdef806a4637e","null","null","<p style=""font-size: 60px; font-family: BACS"">kDRKcBYhT</p>","","","","","","","","","",""
"html-keyboard-response","66","93847","0.0-8.0-0.58","617679054948369cb824d837","650c16f0f2faf8d7a0d14c09","651c1e4555bcdef806a4637e","null","null","<p style=""font-size: 60px; font-family: BACS"">YQbclvk</p>","","","","","","","","","",""
"html-keyboard-response","67","94854","0.0-8.0-0.59","617679054948369cb824d837","650c16f0f2faf8d7a0d14c09","651c1e4555bcdef806a4637e","null","null","<p style=""font-size: 60px; font-family: BACS"">BOCRMkDOm</p>","","","","","","","","","",""
"html-keyboard-response","68","95862","0.0-8.0-0.60","617679054948369cb824d837","650c16f0f2faf8d7a0d14c09","651c1e4555bcdef806a4637e","null","null","<p style=""font-size: 60px; font-family: BACS"">RlAKcOPE</p>","","","","","","","","","",""
"html-keyboard-response","69","96870","0.0-8.0-0.61","617679054948369cb824d837","650c16f0f2faf8d7a0d14c09","651c1e4555bcdef806a4637e","null","null","<p style=""font-size: 60px; font-family: BACS"">UmNJbLd</p>","","","","","","","","","",""
"html-keyboard-response","70","97877","0.0-8.0-0.62","617679054948369cb824d837","650c16f0f2faf8d7a0d14c09","651c1e4555bcdef806a4637e","null","null","<p style=""font-size: 60px; font-family: BACS"">OQarQlvk</p>","","","","","","","","","",""
"html-keyboard-response","71","98886","0.0-8.0-0.63","617679054948369cb824d837","650c16f0f2faf8d7a0d14c09","651c1e4555bcdef806a4637e","null","null","<p style=""font-size: 60px; font-family: BACS"">tKDmhTmc</p>","","","","","","","","","",""
"html-keyboard-response","72","99896","0.0-8.0-0.64","617679054948369cb824d837","650c16f0f2faf8d7a0d14c09","651c1e4555bcdef806a4637e","null","null","<p style=""font-size: 60px; font-family: BACS"">JauQvcb</p>","","","","","","","","","",""
"html-keyboard-response","73","100902","0.0-8.0-0.65","617679054948369cb824d837","650c16f0f2faf8d7a0d14c09","651c1e4555bcdef806a4637e","null","null","<p style=""font-size: 60px; font-family: BACS"">mdkKBYhT</p>","","","","","","","","","",""
"html-keyboard-response","74","101909","0.0-8.0-0.66","617679054948369cb824d837","650c16f0f2faf8d7a0d14c09","651c1e4555bcdef806a4637e","null","null","<p style=""font-size: 60px; font-family: BACS"">uQuZcvcb</p>","","","","","","","","","",""
"html-keyboard-response","75","102919","0.0-8.0-0.67","617679054948369cb824d837","650c16f0f2faf8d7a0d14c09","651c1e4555bcdef806a4637e","null","null","<p style=""font-size: 60px; font-family: BACS"">hTDdkPM</p>","","","","","","","","","",""
"html-keyboard-response","76","103925","0.0-8.0-0.68","617679054948369cb824d837","650c16f0f2faf8d7a0d14c09","651c1e4555bcdef806a4637e","null","null","<p style=""font-size: 60px; font-family: BACS"">DlDdTmc</p>","","","","","","","","","",""
"html-keyboard-response","77","104934","0.0-8.0-0.69","617679054948369cb824d837","650c16f0f2faf8d7a0d14c09","651c1e4555bcdef806a4637e","null","null","<p style=""font-size: 60px; font-family: BACS"">rckOlvk</p>","","","","","","","","","",""
"html-keyboard-response","78","105943","0.0-8.0-0.70","617679054948369cb824d837","650c16f0f2faf8d7a0d14c09","651c1e4555bcdef806a4637e","null","null","<p style=""font-size: 60px; font-family: BACS"">YlYckPM</p>","","","","","","","","","",""
"html-keyboard-response","79","106950","0.0-8.0-0.71","617679054948369cb824d837","650c16f0f2faf8d7a0d14c09","651c1e4555bcdef806a4637e","null","null","<p style=""font-size: 60px; font-family: BACS"">AlTdTmc</p>","","","","","","","","","",""
"html-keyboard-response","80","107957","0.0-8.0-0.72","617679054948369cb824d837","650c16f0f2faf8d7a0d14c09","651c1e4555bcdef806a4637e","null","null","<p style=""font-size: 60px; font-family: BACS"">mdkKOPE</p>","","","","","","","","","",""
"html-keyboard-response","81","108967","0.0-8.0-0.73","617679054948369cb824d837","650c16f0f2faf8d7a0d14c09","651c1e4555bcdef806a4637e","null","null","<p style=""font-size: 60px; font-family: BACS"">RlAKcBYhT</p>","","","","","","","","","",""
"html-keyboard-response","82","109974","0.0-8.0-0.74","617679054948369cb824d837","650c16f0f2faf8d7a0d14c09","651c1e4555bcdef806a4637e","null","null","<p style=""font-size: 60px; font-family: BACS"">mdlabLd</p>","","","","","","","","","",""
"html-keyboard-response","83","110986","0.0-8.0-0.75","617679054948369cb824d837","650c16f0f2faf8d7a0d14c09","651c1e4555bcdef806a4637e","null","null","<p style=""font-size: 60px; font-family: BACS"">BOCRMTmc</p>","","","","","","","","","",""
"html-keyboard-response","84","111990","0.0-8.0-0.76","617679054948369cb824d837","650c16f0f2faf8d7a0d14c09","651c1e4555bcdef806a4637e","null","null","<p style=""font-size: 60px; font-family: BACS"">RlAKckDOm</p>","","","","","","","","","",""
"html-keyboard-response","85","112999","0.0-8.0-0.77","617679054948369cb824d837","650c16f0f2faf8d7a0d14c09","651c1e4555bcdef806a4637e","null","null","<p style=""font-size: 60px; font-family: BACS"">kDRKcTmc</p>","","","","","","","","","",""
"html-keyboard-response","86","114005","0.0-8.0-0.78","617679054948369cb824d837","650c16f0f2faf8d7a0d14c09","651c1e4555bcdef806a4637e","null","null","<p style=""font-size: 60px; font-family: BACS"">YlYcOPE</p>","","","","","","","","","",""
"html-keyboard-response","87","115015","0.0-8.0-0.79","617679054948369cb824d837","650c16f0f2faf8d7a0d14c09","651c1e4555bcdef806a4637e","null","null","<p style=""font-size: 60px; font-family: BACS"">vclYlvk</p>","","","","","","","","","",""
"html-keyboard-response","88","116790","0.0-9.0","617679054948369cb824d837","650c16f0f2faf8d7a0d14c09","651c1e4555bcdef806a4637e","1774"," ","<p>Great, you've seen the first block of words. You may now take a short break.</p>
      <p>Press the spacebar when you're ready to continue.</p>","","","","","","","","","",""
"html-keyboard-response","89","117798","0.0-10.0-0.0","617679054948369cb824d837","650c16f0f2faf8d7a0d14c09","651c1e4555bcdef806a4637e","null","null","<p style=""font-size: 60px; font-family: BACS"">RlAKckDOm</p>","","","","","","","","","",""
"html-keyboard-response","90","118806","0.0-10.0-0.1","617679054948369cb824d837","650c16f0f2faf8d7a0d14c09","651c1e4555bcdef806a4637e","null","null","<p style=""font-size: 60px; font-family: BACS"">thbOMkPM</p>","","","","","","","","","",""
"html-keyboard-response","91","119814","0.0-10.0-0.2","617679054948369cb824d837","650c16f0f2faf8d7a0d14c09","651c1e4555bcdef806a4637e","null","null","<p style=""font-size: 60px; font-family: BACS"">YQbcbLd</p>","","","","","","","","","",""
"html-keyboard-response","92","120822","0.0-10.0-0.3","617679054948369cb824d837","650c16f0f2faf8d7a0d14c09","651c1e4555bcdef806a4637e","null","null","<p style=""font-size: 60px; font-family: BACS"">GJZmLkNc</p>","","","","","","","","","",""
"html-keyboard-response","93","121829","0.0-10.0-0.4","617679054948369cb824d837","650c16f0f2faf8d7a0d14c09","651c1e4555bcdef806a4637e","null","null","<p style=""font-size: 60px; font-family: BACS"">RlAKcBYhT</p>","","","","","","","","","",""
"html-keyboard-response","94","122837","0.0-10.0-0.5","617679054948369cb824d837","650c16f0f2faf8d7a0d14c09","651c1e4555bcdef806a4637e","null","null","<p style=""font-size: 60px; font-family: BACS"">YQbcvcb</p>","","","","","","","","","",""
"html-keyboard-response","95","123846","0.0-10.0-0.6","617679054948369cb824d837","650c16f0f2faf8d7a0d14c09","651c1e4555bcdef806a4637e","null","null","<p style=""font-size: 60px; font-family: BACS"">JauQlvk</p>","","","","","","","","","",""
"html-keyboard-response","96","124854","0.0-10.0-0.7","617679054948369cb824d837","650c16f0f2faf8d7a0d14c09","651c1e4555bcdef806a4637e","null","null","<p style=""font-size: 60px; font-family: BACS"">rckOLkNc</p>","","","","","","","","","",""
"html-keyboard-response","97","125876","0.0-10.0-0.8","617679054948369cb824d837","650c16f0f2faf8d7a0d14c09","651c1e4555bcdef806a4637e","null","null","<p style=""font-size: 60px; font-family: BACS"">UmNJvcb</p>","","","","","","","","","",""
"html-keyboard-response","98","126878","0.0-10.0-0.9","617679054948369cb824d837","650c16f0f2faf8d7a0d14c09","651c1e4555bcdef806a4637e","null","null","<p style=""font-size: 60px; font-family: BACS"">DlDdTmc</p>","","","","","","","","","",""
"html-keyboard-response","99","127885","0.0-10.0-0.10","617679054948369cb824d837","650c16f0f2faf8d7a0d14c09","651c1e4555bcdef806a4637e","null","null","<p style=""font-size: 60px; font-family: BACS"">JauQZckv</p>","","","","","","","","","",""
"html-keyboard-response","100","128894","0.0-10.0-0.11","617679054948369cb824d837","650c16f0f2faf8d7a0d14c09","651c1e4555bcdef806a4637e","null","null","<p style=""font-size: 60px; font-family: BACS"">YQbclvk</p>","","","","","","","","","",""
"html-keyboard-response","101","129902","0.0-10.0-0.12","617679054948369cb824d837","650c16f0f2faf8d7a0d14c09","651c1e4555bcdef806a4637e","null","null","<p style=""font-size: 60px; font-family: BACS"">GJZmZckv</p>","","","","","","","","","",""
"html-keyboard-response","102","130913","0.0-10.0-0.13","617679054948369cb824d837","650c16f0f2faf8d7a0d14c09","651c1e4555bcdef806a4637e","null","null","<p style=""font-size: 60px; font-family: BACS"">AlTdBYhT</p>","","","","","","","","","",""
"html-keyboard-response","103","131919","0.0-10.0-0.14","617679054948369cb824d837","650c16f0f2faf8d7a0d14c09","651c1e4555bcdef806a4637e","null","null","<p style=""font-size: 60px; font-family: BACS"">YQbcZckv</p>","","","","","","","","","",""
"html-keyboard-response","104","132927","0.0-10.0-0.15","617679054948369cb824d837","650c16f0f2faf8d7a0d14c09","651c1e4555bcdef806a4637e","null","null","<p style=""font-size: 60px; font-family: BACS"">mdkKBYhT</p>","","","","","","","","","",""
"html-keyboard-response","105","133933","0.0-10.0-0.16","617679054948369cb824d837","650c16f0f2faf8d7a0d14c09","651c1e4555bcdef806a4637e","null","null","<p style=""font-size: 60px; font-family: BACS"">AlTdOPE</p>","","","","","","","","","",""
"html-keyboard-response","106","134944","0.0-10.0-0.17","617679054948369cb824d837","650c16f0f2faf8d7a0d14c09","651c1e4555bcdef806a4637e","null","null","<p style=""font-size: 60px; font-family: BACS"">YlYcBYhT</p>","","","","","","","","","",""
"html-keyboard-response","107","135950","0.0-10.0-0.18","617679054948369cb824d837","650c16f0f2faf8d7a0d14c09","651c1e4555bcdef806a4637e","null","null","<p style=""font-size: 60px; font-family: BACS"">GJZmlvk</p>","","","","","","","","","",""
"html-keyboard-response","108","136958","0.0-10.0-0.19","617679054948369cb824d837","650c16f0f2faf8d7a0d14c09","651c1e4555bcdef806a4637e","null","null","<p style=""font-size: 60px; font-family: BACS"">hTDdTmc</p>","","","","","","","","","",""
"html-keyboard-response","109","137967","0.0-10.0-0.20","617679054948369cb824d837","650c16f0f2faf8d7a0d14c09","651c1e4555bcdef806a4637e","null","null","<p style=""font-size: 60px; font-family: BACS"">vclYbLd</p>","","","","","","","","","",""
"html-keyboard-response","110","138976","0.0-10.0-0.21","617679054948369cb824d837","650c16f0f2faf8d7a0d14c09","651c1e4555bcdef806a4637e","null","null","<p style=""font-size: 60px; font-family: BACS"">RlAKcOPE</p>","","","","","","","","","",""
"html-keyboard-response","111","139982","0.0-10.0-0.22","617679054948369cb824d837","650c16f0f2faf8d7a0d14c09","651c1e4555bcdef806a4637e","null","null","<p style=""font-size: 60px; font-family: BACS"">UmNJbLd</p>","","","","","","","","","",""
"html-keyboard-response","112","140989","0.0-10.0-0.23","617679054948369cb824d837","650c16f0f2faf8d7a0d14c09","651c1e4555bcdef806a4637e","null","null","<p style=""font-size: 60px; font-family: BACS"">vclYZckv</p>","","","","","","","","","",""
"html-keyboard-response","113","141998","0.0-10.0-0.24","617679054948369cb824d837","650c16f0f2faf8d7a0d14c09","651c1e4555bcdef806a4637e","null","null","<p style=""font-size: 60px; font-family: BACS"">mdlabLd</p>","","","","","","","","","",""
"html-keyboard-response","114","143005","0.0-10.0-0.25","617679054948369cb824d837","650c16f0f2faf8d7a0d14c09","651c1e4555bcdef806a4637e","null","null","<p style=""font-size: 60px; font-family: BACS"">aUZAvcb</p>","","","","","","","","","",""
"html-keyboard-response","115","144026","0.0-10.0-0.26","617679054948369cb824d837","650c16f0f2faf8d7a0d14c09","651c1e4555bcdef806a4637e","null","null","<p style=""font-size: 60px; font-family: BACS"">hTDdOPE</p>","","","","","","","","","",""
"html-keyboard-response","116","145059","0.0-10.0-0.27","617679054948369cb824d837","650c16f0f2faf8d7a0d14c09","651c1e4555bcdef806a4637e","null","null","<p style=""font-size: 60px; font-family: BACS"">OQarQvcb</p>","","","","","","","","","",""
"html-keyboard-response","117","146061","0.0-10.0-0.28","617679054948369cb824d837","650c16f0f2faf8d7a0d14c09","651c1e4555bcdef806a4637e","null","null","<p style=""font-size: 60px; font-family: BACS"">mdkKOPE</p>","","","","","","","","","",""
"html-keyboard-response","118","147070","0.0-10.0-0.29","617679054948369cb824d837","650c16f0f2faf8d7a0d14c09","651c1e4555bcdef806a4637e","null","null","<p style=""font-size: 60px; font-family: BACS"">JauQvcb</p>","","","","","","","","","",""
"html-keyboard-response","119","148078","0.0-10.0-0.30","617679054948369cb824d837","650c16f0f2faf8d7a0d14c09","651c1e4555bcdef806a4637e","null","null","<p style=""font-size: 60px; font-family: BACS"">rckObLd</p>","","","","","","","","","",""
"html-keyboard-response","120","149085","0.0-10.0-0.31","617679054948369cb824d837","650c16f0f2faf8d7a0d14c09","651c1e4555bcdef806a4637e","null","null","<p style=""font-size: 60px; font-family: BACS"">UmNJZckv</p>","","","","","","","","","",""
"html-keyboard-response","121","150093","0.0-10.0-0.32","617679054948369cb824d837","650c16f0f2faf8d7a0d14c09","651c1e4555bcdef806a4637e","null","null","<p style=""font-size: 60px; font-family: BACS"">thbOMTmc</p>","","","","","","","","","",""
"html-keyboard-response","122","151101","0.0-10.0-0.33","617679054948369cb824d837","650c16f0f2faf8d7a0d14c09","651c1e4555bcdef806a4637e","null","null","<p style=""font-size: 60px; font-family: BACS"">kDRKckDOm</p>","","","","","","","","","",""
"html-keyboard-response","123","152111","0.0-10.0-0.34","617679054948369cb824d837","650c16f0f2faf8d7a0d14c09","651c1e4555bcdef806a4637e","null","null","<p style=""font-size: 60px; font-family: BACS"">vclYLkNc</p>","","","","","","","","","",""
"html-keyboard-response","124","153117","0.0-10.0-0.35","617679054948369cb824d837","650c16f0f2faf8d7a0d14c09","651c1e4555bcdef806a4637e","null","null","<p style=""font-size: 60px; font-family: BACS"">AlTdTmc</p>","","","","","","","","","",""
"html-keyboard-response","125","154127","0.0-10.0-0.36","617679054948369cb824d837","650c16f0f2faf8d7a0d14c09","651c1e4555bcdef806a4637e","null","null","<p style=""font-size: 60px; font-family: BACS"">OQarQZckv</p>","","","","","","","","","",""
"html-keyboard-response","126","155133","0.0-10.0-0.37","617679054948369cb824d837","650c16f0f2faf8d7a0d14c09","651c1e4555bcdef806a4637e","null","null","<p style=""font-size: 60px; font-family: BACS"">tKDmhTmc</p>","","","","","","","","","",""
"html-keyboard-response","127","156143","0.0-10.0-0.38","617679054948369cb824d837","650c16f0f2faf8d7a0d14c09","651c1e4555bcdef806a4637e","null","null","<p style=""font-size: 60px; font-family: BACS"">uQuZcLkNc</p>","","","","","","","","","",""
"html-keyboard-response","128","157151","0.0-10.0-0.39","617679054948369cb824d837","650c16f0f2faf8d7a0d14c09","651c1e4555bcdef806a4637e","null","null","<p style=""font-size: 60px; font-family: BACS"">mdkKkPM</p>","","","","","","","","","",""
"html-keyboard-response","129","158157","0.0-10.0-0.40","617679054948369cb824d837","650c16f0f2faf8d7a0d14c09","651c1e4555bcdef806a4637e","null","null","<p style=""font-size: 60px; font-family: BACS"">rckOvcb</p>","","","","","","","","","",""
"html-keyboard-response","130","159166","0.0-10.0-0.41","617679054948369cb824d837","650c16f0f2faf8d7a0d14c09","651c1e4555bcdef806a4637e","null","null","<p style=""font-size: 60px; font-family: BACS"">tKDmhkPM</p>","","","","","","","","","",""
"html-keyboard-response","131","160175","0.0-10.0-0.42","617679054948369cb824d837","650c16f0f2faf8d7a0d14c09","651c1e4555bcdef806a4637e","null","null","<p style=""font-size: 60px; font-family: BACS"">aUZAZckv</p>","","","","","","","","","",""
"html-keyboard-response","132","161181","0.0-10.0-0.43","617679054948369cb824d837","650c16f0f2faf8d7a0d14c09","651c1e4555bcdef806a4637e","null","null","<p style=""font-size: 60px; font-family: BACS"">rckOlvk</p>","","","","","","","","","",""
"html-keyboard-response","133","162197","0.0-10.0-0.44","617679054948369cb824d837","650c16f0f2faf8d7a0d14c09","651c1e4555bcdef806a4637e","null","null","<p style=""font-size: 60px; font-family: BACS"">tKDmhOPE</p>","","","","","","","","","",""
"html-keyboard-response","134","163205","0.0-10.0-0.45","617679054948369cb824d837","650c16f0f2faf8d7a0d14c09","651c1e4555bcdef806a4637e","null","null","<p style=""font-size: 60px; font-family: BACS"">mdkKkDOm</p>","","","","","","","","","",""
"html-keyboard-response","135","164214","0.0-10.0-0.46","617679054948369cb824d837","650c16f0f2faf8d7a0d14c09","651c1e4555bcdef806a4637e","null","null","<p style=""font-size: 60px; font-family: BACS"">JauQbLd</p>","","","","","","","","","",""
"html-keyboard-response","136","165223","0.0-10.0-0.47","617679054948369cb824d837","650c16f0f2faf8d7a0d14c09","651c1e4555bcdef806a4637e","null","null","<p style=""font-size: 60px; font-family: BACS"">DlDdOPE</p>","","","","","","","","","",""
"html-keyboard-response","137","166230","0.0-10.0-0.48","617679054948369cb824d837","650c16f0f2faf8d7a0d14c09","651c1e4555bcdef806a4637e","null","null","<p style=""font-size: 60px; font-family: BACS"">YlYckPM</p>","","","","","","","","","",""
"html-keyboard-response","138","167237","0.0-10.0-0.49","617679054948369cb824d837","650c16f0f2faf8d7a0d14c09","651c1e4555bcdef806a4637e","null","null","<p style=""font-size: 60px; font-family: BACS"">vclYlvk</p>","","","","","","","","","",""
"html-keyboard-response","139","168245","0.0-10.0-0.50","617679054948369cb824d837","650c16f0f2faf8d7a0d14c09","651c1e4555bcdef806a4637e","null","null","<p style=""font-size: 60px; font-family: BACS"">BOCRMTmc</p>","","","","","","","","","",""
"html-keyboard-response","140","169254","0.0-10.0-0.51","617679054948369cb824d837","650c16f0f2faf8d7a0d14c09","651c1e4555bcdef806a4637e","null","null","<p style=""font-size: 60px; font-family: BACS"">DlDdBYhT</p>","","","","","","","","","",""
"html-keyboard-response","141","170262","0.0-10.0-0.52","617679054948369cb824d837","650c16f0f2faf8d7a0d14c09","651c1e4555bcdef806a4637e","null","null","<p style=""font-size: 60px; font-family: BACS"">kDRKckPM</p>","","","","","","","","","",""
"html-keyboard-response","142","171269","0.0-10.0-0.53","617679054948369cb824d837","650c16f0f2faf8d7a0d14c09","651c1e4555bcdef806a4637e","null","null","<p style=""font-size: 60px; font-family: BACS"">GJZmbLd</p>","","","","","","","","","",""
"html-keyboard-response","143","172278","0.0-10.0-0.54","617679054948369cb824d837","650c16f0f2faf8d7a0d14c09","651c1e4555bcdef806a4637e","null","null","<p style=""font-size: 60px; font-family: BACS"">kDRKcTmc</p>","","","","","","","","","",""
"html-keyboard-response","144","173285","0.0-10.0-0.55","617679054948369cb824d837","650c16f0f2faf8d7a0d14c09","651c1e4555bcdef806a4637e","null","null","<p style=""font-size: 60px; font-family: BACS"">mdlalvk</p>","","","","","","","","","",""
"html-keyboard-response","145","174293","0.0-10.0-0.56","617679054948369cb824d837","650c16f0f2faf8d7a0d14c09","651c1e4555bcdef806a4637e","null","null","<p style=""font-size: 60px; font-family: BACS"">UmNJLkNc</p>","","","","","","","","","",""
"html-keyboard-response","146","175302","0.0-10.0-0.57","617679054948369cb824d837","650c16f0f2faf8d7a0d14c09","651c1e4555bcdef806a4637e","null","null","<p style=""font-size: 60px; font-family: BACS"">mdlavcb</p>","","","","","","","","","",""
"html-keyboard-response","147","176311","0.0-10.0-0.58","617679054948369cb824d837","650c16f0f2faf8d7a0d14c09","651c1e4555bcdef806a4637e","null","null","<p style=""font-size: 60px; font-family: BACS"">hTDdkDOm</p>","","","","","","","","","",""
"html-keyboard-response","148","177319","0.0-10.0-0.59","617679054948369cb824d837","650c16f0f2faf8d7a0d14c09","651c1e4555bcdef806a4637e","null","null","<p style=""font-size: 60px; font-family: BACS"">BOCRMBYhT</p>","","","","","","","","","",""
"html-keyboard-response","149","178326","0.0-10.0-0.60","617679054948369cb824d837","650c16f0f2faf8d7a0d14c09","651c1e4555bcdef806a4637e","null","null","<p style=""font-size: 60px; font-family: BACS"">mdlaLkNc</p>","","","","","","","","","",""
"html-keyboard-response","150","179364","0.0-10.0-0.61","617679054948369cb824d837","650c16f0f2faf8d7a0d14c09","651c1e4555bcdef806a4637e","null","null","<p style=""font-size: 60px; font-family: BACS"">hTDdkPM</p>","","","","","","","","","",""
"html-keyboard-response","151","180373","0.0-10.0-0.62","617679054948369cb824d837","650c16f0f2faf8d7a0d14c09","651c1e4555bcdef806a4637e","null","null","<p style=""font-size: 60px; font-family: BACS"">uQuZcvcb</p>","","","","","","","","","",""
"html-keyboard-response","152","181382","0.0-10.0-0.63","617679054948369cb824d837","650c16f0f2faf8d7a0d14c09","651c1e4555bcdef806a4637e","null","null","<p style=""font-size: 60px; font-family: BACS"">YlYckDOm</p>","","","","","","","","","",""
"html-keyboard-response","153","182390","0.0-10.0-0.64","617679054948369cb824d837","650c16f0f2faf8d7a0d14c09","651c1e4555bcdef806a4637e","null","null","<p style=""font-size: 60px; font-family: BACS"">thbOMOPE</p>","","","","","","","","","",""
"html-keyboard-response","154","183397","0.0-10.0-0.65","617679054948369cb824d837","650c16f0f2faf8d7a0d14c09","651c1e4555bcdef806a4637e","null","null","<p style=""font-size: 60px; font-family: BACS"">OQarQLkNc</p>","","","","","","","","","",""
"html-keyboard-response","155","184406","0.0-10.0-0.66","617679054948369cb824d837","650c16f0f2faf8d7a0d14c09","651c1e4555bcdef806a4637e","null","null","<p style=""font-size: 60px; font-family: BACS"">BOCRMkDOm</p>","","","","","","","","","",""
"html-keyboard-response","156","185414","0.0-10.0-0.67","617679054948369cb824d837","650c16f0f2faf8d7a0d14c09","651c1e4555bcdef806a4637e","null","null","<p style=""font-size: 60px; font-family: BACS"">tKDmhBYhT</p>","","","","","","","","","",""
"html-keyboard-response","157","186421","0.0-10.0-0.68","617679054948369cb824d837","650c16f0f2faf8d7a0d14c09","651c1e4555bcdef806a4637e","null","null","<p style=""font-size: 60px; font-family: BACS"">AlTdkDOm</p>","","","","","","","","","",""
"html-keyboard-response","158","187430","0.0-10.0-0.69","617679054948369cb824d837","650c16f0f2faf8d7a0d14c09","651c1e4555bcdef806a4637e","null","null","<p style=""font-size: 60px; font-family: BACS"">kDRKcBYhT</p>","","","","","","","","","",""
"html-keyboard-response","159","188438","0.0-10.0-0.70","617679054948369cb824d837","650c16f0f2faf8d7a0d14c09","651c1e4555bcdef806a4637e","null","null","<p style=""font-size: 60px; font-family: BACS"">thbOMkDOm</p>","","","","","","","","","",""
"html-keyboard-response","160","189447","0.0-10.0-0.71","617679054948369cb824d837","650c16f0f2faf8d7a0d14c09","651c1e4555bcdef806a4637e","null","null","<p style=""font-size: 60px; font-family: BACS"">OQarQlvk</p>","","","","","","","","","",""
"html-keyboard-response","161","190453","0.0-10.0-0.72","617679054948369cb824d837","650c16f0f2faf8d7a0d14c09","651c1e4555bcdef806a4637e","null","null","<p style=""font-size: 60px; font-family: BACS"">RlAKcTmc</p>","","","","","","","","","",""
"html-keyboard-response","162","191461","0.0-10.0-0.73","617679054948369cb824d837","650c16f0f2faf8d7a0d14c09","651c1e4555bcdef806a4637e","null","null","<p style=""font-size: 60px; font-family: BACS"">DlDdkPM</p>","","","","","","","","","",""
"html-keyboard-response","163","192469","0.0-10.0-0.74","617679054948369cb824d837","650c16f0f2faf8d7a0d14c09","651c1e4555bcdef806a4637e","null","null","<p style=""font-size: 60px; font-family: BACS"">uQuZcbLd</p>","","","","","","","","","",""
"html-keyboard-response","164","193477","0.0-10.0-0.75","617679054948369cb824d837","650c16f0f2faf8d7a0d14c09","651c1e4555bcdef806a4637e","null","null","<p style=""font-size: 60px; font-family: BACS"">YlYcOPE</p>","","","","","","","","","",""
"html-keyboard-response","165","194486","0.0-10.0-0.76","617679054948369cb824d837","650c16f0f2faf8d7a0d14c09","651c1e4555bcdef806a4637e","null","null","<p style=""font-size: 60px; font-family: BACS"">aUZALkNc</p>","","","","","","","","","",""
"html-keyboard-response","166","195495","0.0-10.0-0.77","617679054948369cb824d837","650c16f0f2faf8d7a0d14c09","651c1e4555bcdef806a4637e","null","null","<p style=""font-size: 60px; font-family: BACS"">uQuZcZckv</p>","","","","","","","","","",""
"html-keyboard-response","167","196504","0.0-10.0-0.78","617679054948369cb824d837","650c16f0f2faf8d7a0d14c09","651c1e4555bcdef806a4637e","null","null","<p style=""font-size: 60px; font-family: BACS"">BOCRMkPM</p>","","","","","","","","","",""
"html-keyboard-response","168","197509","0.0-10.0-0.79","617679054948369cb824d837","650c16f0f2faf8d7a0d14c09","651c1e4555bcdef806a4637e","null","null","<p style=""font-size: 60px; font-family: BACS"">aUZAlvk</p>","","","","","","","","","",""
"html-keyboard-response","169","202370","0.0-11.0","617679054948369cb824d837","650c16f0f2faf8d7a0d14c09","651c1e4555bcdef806a4637e","4859"," ","<p>Great, you've seen the second block of words. You may now take a short break.</p>
      <p>Press the spacebar when you're ready to continue.</p>","","","","","","","","","",""
"html-keyboard-response","170","203375","0.0-12.0-0.0","617679054948369cb824d837","650c16f0f2faf8d7a0d14c09","651c1e4555bcdef806a4637e","null","null","<p style=""font-size: 60px; font-family: BACS"">aUZAvcb</p>","","","","","","","","","",""
"html-keyboard-response","171","204382","0.0-12.0-0.1","617679054948369cb824d837","650c16f0f2faf8d7a0d14c09","651c1e4555bcdef806a4637e","null","null","<p style=""font-size: 60px; font-family: BACS"">hTDdTmc</p>","","","","","","","","","",""
"html-keyboard-response","172","205390","0.0-12.0-0.2","617679054948369cb824d837","650c16f0f2faf8d7a0d14c09","651c1e4555bcdef806a4637e","null","null","<p style=""font-size: 60px; font-family: BACS"">uQuZcZckv</p>","","","","","","","","","",""
"html-keyboard-response","173","206398","0.0-12.0-0.3","617679054948369cb824d837","650c16f0f2faf8d7a0d14c09","651c1e4555bcdef806a4637e","null","null","<p style=""font-size: 60px; font-family: BACS"">BOCRMkDOm</p>","","","","","","","","","",""
"html-keyboard-response","174","207406","0.0-12.0-0.4","617679054948369cb824d837","650c16f0f2faf8d7a0d14c09","651c1e4555bcdef806a4637e","null","null","<p style=""font-size: 60px; font-family: BACS"">mdkKBYhT</p>","","","","","","","","","",""
"html-keyboard-response","175","208414","0.0-12.0-0.5","617679054948369cb824d837","650c16f0f2faf8d7a0d14c09","651c1e4555bcdef806a4637e","null","null","<p style=""font-size: 60px; font-family: BACS"">kDRKckDOm</p>","","","","","","","","","",""
"html-keyboard-response","176","209422","0.0-12.0-0.6","617679054948369cb824d837","650c16f0f2faf8d7a0d14c09","651c1e4555bcdef806a4637e","null","null","<p style=""font-size: 60px; font-family: BACS"">YQbclvk</p>","","","","","","","","","",""
"html-keyboard-response","177","210429","0.0-12.0-0.7","617679054948369cb824d837","650c16f0f2faf8d7a0d14c09","651c1e4555bcdef806a4637e","null","null","<p style=""font-size: 60px; font-family: BACS"">GJZmZckv</p>","","","","","","","","","",""
"html-keyboard-response","178","211438","0.0-12.0-0.8","617679054948369cb824d837","650c16f0f2faf8d7a0d14c09","651c1e4555bcdef806a4637e","null","null","<p style=""font-size: 60px; font-family: BACS"">BOCRMBYhT</p>","","","","","","","","","",""
"html-keyboard-response","179","212454","0.0-12.0-0.9","617679054948369cb824d837","650c16f0f2faf8d7a0d14c09","651c1e4555bcdef806a4637e","null","null","<p style=""font-size: 60px; font-family: BACS"">mdkKkDOm</p>","","","","","","","","","",""
"html-keyboard-response","180","213461","0.0-12.0-0.10","617679054948369cb824d837","650c16f0f2faf8d7a0d14c09","651c1e4555bcdef806a4637e","null","null","<p style=""font-size: 60px; font-family: BACS"">OQarQZckv</p>","","","","","","","","","",""
"html-keyboard-response","181","214470","0.0-12.0-0.11","617679054948369cb824d837","650c16f0f2faf8d7a0d14c09","651c1e4555bcdef806a4637e","null","null","<p style=""font-size: 60px; font-family: BACS"">AlTdBYhT</p>","","","","","","","","","",""
"html-keyboard-response","182","215478","0.0-12.0-0.12","617679054948369cb824d837","650c16f0f2faf8d7a0d14c09","651c1e4555bcdef806a4637e","null","null","<p style=""font-size: 60px; font-family: BACS"">hTDdkDOm</p>","","","","","","","","","",""
"html-keyboard-response","183","216486","0.0-12.0-0.13","617679054948369cb824d837","650c16f0f2faf8d7a0d14c09","651c1e4555bcdef806a4637e","null","null","<p style=""font-size: 60px; font-family: BACS"">vclYLkNc</p>","","","","","","","","","",""
"html-keyboard-response","184","217494","0.0-12.0-0.14","617679054948369cb824d837","650c16f0f2faf8d7a0d14c09","651c1e4555bcdef806a4637e","null","null","<p style=""font-size: 60px; font-family: BACS"">mdlavcb</p>","","","","","","","","","",""
"html-keyboard-response","185","218502","0.0-12.0-0.15","617679054948369cb824d837","650c16f0f2faf8d7a0d14c09","651c1e4555bcdef806a4637e","null","null","<p style=""font-size: 60px; font-family: BACS"">RlAKcOPE</p>","","","","","","","","","",""
"html-keyboard-response","186","219511","0.0-12.0-0.16","617679054948369cb824d837","650c16f0f2faf8d7a0d14c09","651c1e4555bcdef806a4637e","null","null","<p style=""font-size: 60px; font-family: BACS"">vclYbLd</p>","","","","","","","","","",""
"html-keyboard-response","187","220518","0.0-12.0-0.17","617679054948369cb824d837","650c16f0f2faf8d7a0d14c09","651c1e4555bcdef806a4637e","null","null","<p style=""font-size: 60px; font-family: BACS"">mdkKOPE</p>","","","","","","","","","",""
"html-keyboard-response","188","221526","0.0-12.0-0.18","617679054948369cb824d837","650c16f0f2faf8d7a0d14c09","651c1e4555bcdef806a4637e","null","null","<p style=""font-size: 60px; font-family: BACS"">kDRKcBYhT</p>","","","","","","","","","",""
"html-keyboard-response","189","222534","0.0-12.0-0.19","617679054948369cb824d837","650c16f0f2faf8d7a0d14c09","651c1e4555bcdef806a4637e","null","null","<p style=""font-size: 60px; font-family: BACS"">UmNJLkNc</p>","","","","","","","","","",""
"html-keyboard-response","190","223542","0.0-12.0-0.20","617679054948369cb824d837","650c16f0f2faf8d7a0d14c09","651c1e4555bcdef806a4637e","null","null","<p style=""font-size: 60px; font-family: BACS"">vclYlvk</p>","","","","","","","","","",""
"html-keyboard-response","191","224550","0.0-12.0-0.21","617679054948369cb824d837","650c16f0f2faf8d7a0d14c09","651c1e4555bcdef806a4637e","null","null","<p style=""font-size: 60px; font-family: BACS"">thbOMkDOm</p>","","","","","","","","","",""
"html-keyboard-response","192","225557","0.0-12.0-0.22","617679054948369cb824d837","650c16f0f2faf8d7a0d14c09","651c1e4555bcdef806a4637e","null","null","<p style=""font-size: 60px; font-family: BACS"">GJZmLkNc</p>","","","","","","","","","",""
"html-keyboard-response","193","226566","0.0-12.0-0.23","617679054948369cb824d837","650c16f0f2faf8d7a0d14c09","651c1e4555bcdef806a4637e","null","null","<p style=""font-size: 60px; font-family: BACS"">BOCRMkPM</p>","","","","","","","","","",""
"html-keyboard-response","194","227574","0.0-12.0-0.24","617679054948369cb824d837","650c16f0f2faf8d7a0d14c09","651c1e4555bcdef806a4637e","null","null","<p style=""font-size: 60px; font-family: BACS"">JauQZckv</p>","","","","","","","","","",""
"html-keyboard-response","195","228645","0.0-12.0-0.25","617679054948369cb824d837","650c16f0f2faf8d7a0d14c09","651c1e4555bcdef806a4637e","null","null","<p style=""font-size: 60px; font-family: BACS"">hTDdOPE</p>","","","","","","","","","",""
"html-keyboard-response","196","229653","0.0-12.0-0.26","617679054948369cb824d837","650c16f0f2faf8d7a0d14c09","651c1e4555bcdef806a4637e","null","null","<p style=""font-size: 60px; font-family: BACS"">kDRKcTmc</p>","","","","","","","","","",""
"html-keyboard-response","197","230662","0.0-12.0-0.27","617679054948369cb824d837","650c16f0f2faf8d7a0d14c09","651c1e4555bcdef806a4637e","null","null","<p style=""font-size: 60px; font-family: BACS"">aUZAlvk</p>","","","","","","","","","",""
"html-keyboard-response","198","231670","0.0-12.0-0.28","617679054948369cb824d837","650c16f0f2faf8d7a0d14c09","651c1e4555bcdef806a4637e","null","null","<p style=""font-size: 60px; font-family: BACS"">tKDmhOPE</p>","","","","","","","","","",""
"html-keyboard-response","199","232680","0.0-12.0-0.29","617679054948369cb824d837","650c16f0f2faf8d7a0d14c09","651c1e4555bcdef806a4637e","null","null","<p style=""font-size: 60px; font-family: BACS"">YlYcBYhT</p>","","","","","","","","","",""
"html-keyboard-response","200","233686","0.0-12.0-0.30","617679054948369cb824d837","650c16f0f2faf8d7a0d14c09","651c1e4555bcdef806a4637e","null","null","<p style=""font-size: 60px; font-family: BACS"">rckOvcb</p>","","","","","","","","","",""
"html-keyboard-response","201","234694","0.0-12.0-0.31","617679054948369cb824d837","650c16f0f2faf8d7a0d14c09","651c1e4555bcdef806a4637e","null","null","<p style=""font-size: 60px; font-family: BACS"">OQarQlvk</p>","","","","","","","","","",""
"html-keyboard-response","202","235701","0.0-12.0-0.32","617679054948369cb824d837","650c16f0f2faf8d7a0d14c09","651c1e4555bcdef806a4637e","null","null","<p style=""font-size: 60px; font-family: BACS"">tKDmhTmc</p>","","","","","","","","","",""
"html-keyboard-response","203","236711","0.0-12.0-0.33","617679054948369cb824d837","650c16f0f2faf8d7a0d14c09","651c1e4555bcdef806a4637e","null","null","<p style=""font-size: 60px; font-family: BACS"">OQarQLkNc</p>","","","","","","","","","",""
"html-keyboard-response","204","237718","0.0-12.0-0.34","617679054948369cb824d837","650c16f0f2faf8d7a0d14c09","651c1e4555bcdef806a4637e","null","null","<p style=""font-size: 60px; font-family: BACS"">AlTdkDOm</p>","","","","","","","","","",""
"html-keyboard-response","205","238726","0.0-12.0-0.35","617679054948369cb824d837","650c16f0f2faf8d7a0d14c09","651c1e4555bcdef806a4637e","null","null","<p style=""font-size: 60px; font-family: BACS"">GJZmlvk</p>","","","","","","","","","",""
"html-keyboard-response","206","239734","0.0-12.0-0.36","617679054948369cb824d837","650c16f0f2faf8d7a0d14c09","651c1e4555bcdef806a4637e","null","null","<p style=""font-size: 60px; font-family: BACS"">mdlaLkNc</p>","","","","","","","","","",""
"html-keyboard-response","207","240742","0.0-12.0-0.37","617679054948369cb824d837","650c16f0f2faf8d7a0d14c09","651c1e4555bcdef806a4637e","null","null","<p style=""font-size: 60px; font-family: BACS"">tKDmhBYhT</p>","","","","","","","","","",""
"html-keyboard-response","208","241750","0.0-12.0-0.38","617679054948369cb824d837","650c16f0f2faf8d7a0d14c09","651c1e4555bcdef806a4637e","null","null","<p style=""font-size: 60px; font-family: BACS"">aUZALkNc</p>","","","","","","","","","",""
"html-keyboard-response","209","242758","0.0-12.0-0.39","617679054948369cb824d837","650c16f0f2faf8d7a0d14c09","651c1e4555bcdef806a4637e","null","null","<p style=""font-size: 60px; font-family: BACS"">YlYckPM</p>","","","","","","","","","",""
"html-keyboard-response","210","243766","0.0-12.0-0.40","617679054948369cb824d837","650c16f0f2faf8d7a0d14c09","651c1e4555bcdef806a4637e","null","null","<p style=""font-size: 60px; font-family: BACS"">thbOMTmc</p>","","","","","","","","","",""
"html-keyboard-response","211","244776","0.0-12.0-0.41","617679054948369cb824d837","650c16f0f2faf8d7a0d14c09","651c1e4555bcdef806a4637e","null","null","<p style=""font-size: 60px; font-family: BACS"">tKDmhkPM</p>","","","","","","","","","",""
"html-keyboard-response","212","245782","0.0-12.0-0.42","617679054948369cb824d837","650c16f0f2faf8d7a0d14c09","651c1e4555bcdef806a4637e","null","null","<p style=""font-size: 60px; font-family: BACS"">UmNJZckv</p>","","","","","","","","","",""
"html-keyboard-response","213","246796","0.0-12.0-0.43","617679054948369cb824d837","650c16f0f2faf8d7a0d14c09","651c1e4555bcdef806a4637e","null","null","<p style=""font-size: 60px; font-family: BACS"">rckOlvk</p>","","","","","","","","","",""
"html-keyboard-response","214","247797","0.0-12.0-0.44","617679054948369cb824d837","650c16f0f2faf8d7a0d14c09","651c1e4555bcdef806a4637e","null","null","<p style=""font-size: 60px; font-family: BACS"">thbOMkPM</p>","","","","","","","","","",""
"html-keyboard-response","215","248806","0.0-12.0-0.45","617679054948369cb824d837","650c16f0f2faf8d7a0d14c09","651c1e4555bcdef806a4637e","null","null","<p style=""font-size: 60px; font-family: BACS"">BOCRMTmc</p>","","","","","","","","","",""
"html-keyboard-response","216","249815","0.0-12.0-0.46","617679054948369cb824d837","650c16f0f2faf8d7a0d14c09","651c1e4555bcdef806a4637e","null","null","<p style=""font-size: 60px; font-family: BACS"">JauQlvk</p>","","","","","","","","","",""
"html-keyboard-response","217","250822","0.0-12.0-0.47","617679054948369cb824d837","650c16f0f2faf8d7a0d14c09","651c1e4555bcdef806a4637e","null","null","<p style=""font-size: 60px; font-family: BACS"">YQbcZckv</p>","","","","","","","","","",""
"html-keyboard-response","218","251831","0.0-12.0-0.48","617679054948369cb824d837","650c16f0f2faf8d7a0d14c09","651c1e4555bcdef806a4637e","null","null","<p style=""font-size: 60px; font-family: BACS"">mdlalvk</p>","","","","","","","","","",""
"html-keyboard-response","219","252838","0.0-12.0-0.49","617679054948369cb824d837","650c16f0f2faf8d7a0d14c09","651c1e4555bcdef806a4637e","null","null","<p style=""font-size: 60px; font-family: BACS"">JauQvcb</p>","","","","","","","","","",""
"html-keyboard-response","220","253846","0.0-12.0-0.50","617679054948369cb824d837","650c16f0f2faf8d7a0d14c09","651c1e4555bcdef806a4637e","null","null","<p style=""font-size: 60px; font-family: BACS"">uQuZcLkNc</p>","","","","","","","","","",""
"html-keyboard-response","221","254855","0.0-12.0-0.51","617679054948369cb824d837","650c16f0f2faf8d7a0d14c09","651c1e4555bcdef806a4637e","null","null","<p style=""font-size: 60px; font-family: BACS"">AlTdOPE</p>","","","","","","","","","",""
"html-keyboard-response","222","255863","0.0-12.0-0.52","617679054948369cb824d837","650c16f0f2faf8d7a0d14c09","651c1e4555bcdef806a4637e","null","null","<p style=""font-size: 60px; font-family: BACS"">mdlabLd</p>","","","","","","","","","",""
"html-keyboard-response","223","256870","0.0-12.0-0.53","617679054948369cb824d837","650c16f0f2faf8d7a0d14c09","651c1e4555bcdef806a4637e","null","null","<p style=""font-size: 60px; font-family: BACS"">DlDdOPE</p>","","","","","","","","","",""
"html-keyboard-response","224","257880","0.0-12.0-0.54","617679054948369cb824d837","650c16f0f2faf8d7a0d14c09","651c1e4555bcdef806a4637e","null","null","<p style=""font-size: 60px; font-family: BACS"">UmNJbLd</p>","","","","","","","","","",""
"html-keyboard-response","225","258886","0.0-12.0-0.55","617679054948369cb824d837","650c16f0f2faf8d7a0d14c09","651c1e4555bcdef806a4637e","null","null","<p style=""font-size: 60px; font-family: BACS"">DlDdTmc</p>","","","","","","","","","",""
"html-keyboard-response","226","259893","0.0-12.0-0.56","617679054948369cb824d837","650c16f0f2faf8d7a0d14c09","651c1e4555bcdef806a4637e","null","null","<p style=""font-size: 60px; font-family: BACS"">kDRKckPM</p>","","","","","","","","","",""
"html-keyboard-response","227","260902","0.0-12.0-0.57","617679054948369cb824d837","650c16f0f2faf8d7a0d14c09","651c1e4555bcdef806a4637e","null","null","<p style=""font-size: 60px; font-family: BACS"">YlYcOPE</p>","","","","","","","","","",""
"html-keyboard-response","228","261911","0.0-12.0-0.58","617679054948369cb824d837","650c16f0f2faf8d7a0d14c09","651c1e4555bcdef806a4637e","null","null","<p style=""font-size: 60px; font-family: BACS"">DlDdkPM</p>","","","","","","","","","",""
"html-keyboard-response","229","262918","0.0-12.0-0.59","617679054948369cb824d837","650c16f0f2faf8d7a0d14c09","651c1e4555bcdef806a4637e","null","null","<p style=""font-size: 60px; font-family: BACS"">YQbcvcb</p>","","","","","","","","","",""
"html-keyboard-response","230","263926","0.0-12.0-0.60","617679054948369cb824d837","650c16f0f2faf8d7a0d14c09","651c1e4555bcdef806a4637e","null","null","<p style=""font-size: 60px; font-family: BACS"">RlAKcBYhT</p>","","","","","","","","","",""
"html-keyboard-response","231","264954","0.0-12.0-0.61","617679054948369cb824d837","650c16f0f2faf8d7a0d14c09","651c1e4555bcdef806a4637e","null","null","<p style=""font-size: 60px; font-family: BACS"">rckOLkNc</p>","","","","","","","","","",""
"html-keyboard-response","232","265958","0.0-12.0-0.62","617679054948369cb824d837","650c16f0f2faf8d7a0d14c09","651c1e4555bcdef806a4637e","null","null","<p style=""font-size: 60px; font-family: BACS"">RlAKckDOm</p>","","","","","","","","","",""
"html-keyboard-response","233","266966","0.0-12.0-0.63","617679054948369cb824d837","650c16f0f2faf8d7a0d14c09","651c1e4555bcdef806a4637e","null","null","<p style=""font-size: 60px; font-family: BACS"">hTDdkPM</p>","","","","","","","","","",""
"html-keyboard-response","234","267974","0.0-12.0-0.64","617679054948369cb824d837","650c16f0f2faf8d7a0d14c09","651c1e4555bcdef806a4637e","null","null","<p style=""font-size: 60px; font-family: BACS"">AlTdTmc</p>","","","","","","","","","",""
"html-keyboard-response","235","268982","0.0-12.0-0.65","617679054948369cb824d837","650c16f0f2faf8d7a0d14c09","651c1e4555bcdef806a4637e","null","null","<p style=""font-size: 60px; font-family: BACS"">mdkKkPM</p>","","","","","","","","","",""
"html-keyboard-response","236","269990","0.0-12.0-0.66","617679054948369cb824d837","650c16f0f2faf8d7a0d14c09","651c1e4555bcdef806a4637e","null","null","<p style=""font-size: 60px; font-family: BACS"">RlAKcTmc</p>","","","","","","","","","",""
"html-keyboard-response","237","270999","0.0-12.0-0.67","617679054948369cb824d837","650c16f0f2faf8d7a0d14c09","651c1e4555bcdef806a4637e","null","null","<p style=""font-size: 60px; font-family: BACS"">uQuZcbLd</p>","","","","","","","","","",""
"html-keyboard-response","238","272009","0.0-12.0-0.68","617679054948369cb824d837","650c16f0f2faf8d7a0d14c09","651c1e4555bcdef806a4637e","null","null","<p style=""font-size: 60px; font-family: BACS"">YlYckDOm</p>","","","","","","","","","",""
"html-keyboard-response","239","273014","0.0-12.0-0.69","617679054948369cb824d837","650c16f0f2faf8d7a0d14c09","651c1e4555bcdef806a4637e","null","null","<p style=""font-size: 60px; font-family: BACS"">thbOMOPE</p>","","","","","","","","","",""
"html-keyboard-response","240","274022","0.0-12.0-0.70","617679054948369cb824d837","650c16f0f2faf8d7a0d14c09","651c1e4555bcdef806a4637e","null","null","<p style=""font-size: 60px; font-family: BACS"">YQbcbLd</p>","","","","","","","","","",""
"html-keyboard-response","241","275030","0.0-12.0-0.71","617679054948369cb824d837","650c16f0f2faf8d7a0d14c09","651c1e4555bcdef806a4637e","null","null","<p style=""font-size: 60px; font-family: BACS"">DlDdBYhT</p>","","","","","","","","","",""
"html-keyboard-response","242","276042","0.0-12.0-0.72","617679054948369cb824d837","650c16f0f2faf8d7a0d14c09","651c1e4555bcdef806a4637e","null","null","<p style=""font-size: 60px; font-family: BACS"">JauQbLd</p>","","","","","","","","","",""
"html-keyboard-response","243","277047","0.0-12.0-0.73","617679054948369cb824d837","650c16f0f2faf8d7a0d14c09","651c1e4555bcdef806a4637e","null","null","<p style=""font-size: 60px; font-family: BACS"">aUZAZckv</p>","","","","","","","","","",""
"html-keyboard-response","244","278054","0.0-12.0-0.74","617679054948369cb824d837","650c16f0f2faf8d7a0d14c09","651c1e4555bcdef806a4637e","null","null","<p style=""font-size: 60px; font-family: BACS"">rckObLd</p>","","","","","","","","","",""
"html-keyboard-response","245","279061","0.0-12.0-0.75","617679054948369cb824d837","650c16f0f2faf8d7a0d14c09","651c1e4555bcdef806a4637e","null","null","<p style=""font-size: 60px; font-family: BACS"">uQuZcvcb</p>","","","","","","","","","",""
"html-keyboard-response","246","280069","0.0-12.0-0.76","617679054948369cb824d837","650c16f0f2faf8d7a0d14c09","651c1e4555bcdef806a4637e","null","null","<p style=""font-size: 60px; font-family: BACS"">vclYZckv</p>","","","","","","","","","",""
"html-keyboard-response","247","281081","0.0-12.0-0.77","617679054948369cb824d837","650c16f0f2faf8d7a0d14c09","651c1e4555bcdef806a4637e","null","null","<p style=""font-size: 60px; font-family: BACS"">OQarQvcb</p>","","","","","","","","","",""
"html-keyboard-response","248","282086","0.0-12.0-0.78","617679054948369cb824d837","650c16f0f2faf8d7a0d14c09","651c1e4555bcdef806a4637e","null","null","<p style=""font-size: 60px; font-family: BACS"">GJZmbLd</p>","","","","","","","","","",""
"html-keyboard-response","249","283094","0.0-12.0-0.79","617679054948369cb824d837","650c16f0f2faf8d7a0d14c09","651c1e4555bcdef806a4637e","null","null","<p style=""font-size: 60px; font-family: BACS"">UmNJvcb</p>","","","","","","","","","",""
"html-keyboard-response","250","284612","0.0-13.0","617679054948369cb824d837","650c16f0f2faf8d7a0d14c09","651c1e4555bcdef806a4637e","1515"," ","<p>Great, you've seen the third block of words. You may now take a short break.</p>
      <p>Press the spacebar when you're ready to continue.</p>","","","","","","","","","",""
"html-keyboard-response","251","285622","0.0-14.0-0.0","617679054948369cb824d837","650c16f0f2faf8d7a0d14c09","651c1e4555bcdef806a4637e","null","null","<p style=""font-size: 60px; font-family: BACS"">aUZALkNc</p>","","","","","","","","","",""
"html-keyboard-response","252","286630","0.0-14.0-0.1","617679054948369cb824d837","650c16f0f2faf8d7a0d14c09","651c1e4555bcdef806a4637e","null","null","<p style=""font-size: 60px; font-family: BACS"">kDRKcTmc</p>","","","","","","","","","",""
"html-keyboard-response","253","287642","0.0-14.0-0.2","617679054948369cb824d837","650c16f0f2faf8d7a0d14c09","651c1e4555bcdef806a4637e","null","null","<p style=""font-size: 60px; font-family: BACS"">DlDdkPM</p>","","","","","","","","","",""
"html-keyboard-response","254","288647","0.0-14.0-0.3","617679054948369cb824d837","650c16f0f2faf8d7a0d14c09","651c1e4555bcdef806a4637e","null","null","<p style=""font-size: 60px; font-family: BACS"">BOCRMBYhT</p>","","","","","","","","","",""
"html-keyboard-response","255","289654","0.0-14.0-0.4","617679054948369cb824d837","650c16f0f2faf8d7a0d14c09","651c1e4555bcdef806a4637e","null","null","<p style=""font-size: 60px; font-family: BACS"">AlTdkDOm</p>","","","","","","","","","",""
"html-keyboard-response","256","290662","0.0-14.0-0.5","617679054948369cb824d837","650c16f0f2faf8d7a0d14c09","651c1e4555bcdef806a4637e","null","null","<p style=""font-size: 60px; font-family: BACS"">mdkKOPE</p>","","","","","","","","","",""
"html-keyboard-response","257","291670","0.0-14.0-0.6","617679054948369cb824d837","650c16f0f2faf8d7a0d14c09","651c1e4555bcdef806a4637e","null","null","<p style=""font-size: 60px; font-family: BACS"">YlYckDOm</p>","","","","","","","","","",""
"html-keyboard-response","258","292677","0.0-14.0-0.7","617679054948369cb824d837","650c16f0f2faf8d7a0d14c09","651c1e4555bcdef806a4637e","null","null","<p style=""font-size: 60px; font-family: BACS"">mdkKkPM</p>","","","","","","","","","",""
"html-keyboard-response","259","293686","0.0-14.0-0.8","617679054948369cb824d837","650c16f0f2faf8d7a0d14c09","651c1e4555bcdef806a4637e","null","null","<p style=""font-size: 60px; font-family: BACS"">thbOMkDOm</p>","","","","","","","","","",""
"html-keyboard-response","260","294694","0.0-14.0-0.9","617679054948369cb824d837","650c16f0f2faf8d7a0d14c09","651c1e4555bcdef806a4637e","null","null","<p style=""font-size: 60px; font-family: BACS"">aUZAZckv</p>","","","","","","","","","",""
"html-keyboard-response","261","295701","0.0-14.0-0.10","617679054948369cb824d837","650c16f0f2faf8d7a0d14c09","651c1e4555bcdef806a4637e","null","null","<p style=""font-size: 60px; font-family: BACS"">AlTdBYhT</p>","","","","","","","","","",""
"html-keyboard-response","262","296712","0.0-14.0-0.11","617679054948369cb824d837","650c16f0f2faf8d7a0d14c09","651c1e4555bcdef806a4637e","null","null","<p style=""font-size: 60px; font-family: BACS"">GJZmlvk</p>","","","","","","","","","",""
"html-keyboard-response","263","297717","0.0-14.0-0.12","617679054948369cb824d837","650c16f0f2faf8d7a0d14c09","651c1e4555bcdef806a4637e","null","null","<p style=""font-size: 60px; font-family: BACS"">thbOMTmc</p>","","","","","","","","","",""
"html-keyboard-response","264","298726","0.0-14.0-0.13","617679054948369cb824d837","650c16f0f2faf8d7a0d14c09","651c1e4555bcdef806a4637e","null","null","<p style=""font-size: 60px; font-family: BACS"">rckObLd</p>","","","","","","","","","",""
"html-keyboard-response","265","299735","0.0-14.0-0.14","617679054948369cb824d837","650c16f0f2faf8d7a0d14c09","651c1e4555bcdef806a4637e","null","null","<p style=""font-size: 60px; font-family: BACS"">YlYcBYhT</p>","","","","","","","","","",""
"html-keyboard-response","266","300741","0.0-14.0-0.15","617679054948369cb824d837","650c16f0f2faf8d7a0d14c09","651c1e4555bcdef806a4637e","null","null","<p style=""font-size: 60px; font-family: BACS"">uQuZcLkNc</p>","","","","","","","","","",""
"html-keyboard-response","267","301750","0.0-14.0-0.16","617679054948369cb824d837","650c16f0f2faf8d7a0d14c09","651c1e4555bcdef806a4637e","null","null","<p style=""font-size: 60px; font-family: BACS"">UmNJZckv</p>","","","","","","","","","",""
"html-keyboard-response","268","302757","0.0-14.0-0.17","617679054948369cb824d837","650c16f0f2faf8d7a0d14c09","651c1e4555bcdef806a4637e","null","null","<p style=""font-size: 60px; font-family: BACS"">BOCRMTmc</p>","","","","","","","","","",""
"html-keyboard-response","269","303765","0.0-14.0-0.18","617679054948369cb824d837","650c16f0f2faf8d7a0d14c09","651c1e4555bcdef806a4637e","null","null","<p style=""font-size: 60px; font-family: BACS"">hTDdkDOm</p>","","","","","","","","","",""
"html-keyboard-response","270","304773","0.0-14.0-0.19","617679054948369cb824d837","650c16f0f2faf8d7a0d14c09","651c1e4555bcdef806a4637e","null","null","<p style=""font-size: 60px; font-family: BACS"">OQarQLkNc</p>","","","","","","","","","",""
"html-keyboard-response","271","305782","0.0-14.0-0.20","617679054948369cb824d837","650c16f0f2faf8d7a0d14c09","651c1e4555bcdef806a4637e","null","null","<p style=""font-size: 60px; font-family: BACS"">aUZAvcb</p>","","","","","","","","","",""
"html-keyboard-response","272","306789","0.0-14.0-0.21","617679054948369cb824d837","650c16f0f2faf8d7a0d14c09","651c1e4555bcdef806a4637e","null","null","<p style=""font-size: 60px; font-family: BACS"">rckOlvk</p>","","","","","","","","","",""
"html-keyboard-response","273","307797","0.0-14.0-0.22","617679054948369cb824d837","650c16f0f2faf8d7a0d14c09","651c1e4555bcdef806a4637e","null","null","<p style=""font-size: 60px; font-family: BACS"">mdkKBYhT</p>","","","","","","","","","",""
"html-keyboard-response","274","308819","0.0-14.0-0.23","617679054948369cb824d837","650c16f0f2faf8d7a0d14c09","651c1e4555bcdef806a4637e","null","null","<p style=""font-size: 60px; font-family: BACS"">AlTdTmc</p>","","","","","","","","","",""
"html-keyboard-response","275","309822","0.0-14.0-0.24","617679054948369cb824d837","650c16f0f2faf8d7a0d14c09","651c1e4555bcdef806a4637e","null","null","<p style=""font-size: 60px; font-family: BACS"">vclYZckv</p>","","","","","","","","","",""
"html-keyboard-response","276","310830","0.0-14.0-0.25","617679054948369cb824d837","650c16f0f2faf8d7a0d14c09","651c1e4555bcdef806a4637e","null","null","<p style=""font-size: 60px; font-family: BACS"">hTDdkPM</p>","","","","","","","","","",""
"html-keyboard-response","277","311838","0.0-14.0-0.26","617679054948369cb824d837","650c16f0f2faf8d7a0d14c09","651c1e4555bcdef806a4637e","null","null","<p style=""font-size: 60px; font-family: BACS"">JauQbLd</p>","","","","","","","","","",""
"html-keyboard-response","278","312847","0.0-14.0-0.27","617679054948369cb824d837","650c16f0f2faf8d7a0d14c09","651c1e4555bcdef806a4637e","null","null","<p style=""font-size: 60px; font-family: BACS"">YlYcOPE</p>","","","","","","","","","",""
"html-keyboard-response","279","313853","0.0-14.0-0.28","617679054948369cb824d837","650c16f0f2faf8d7a0d14c09","651c1e4555bcdef806a4637e","null","null","<p style=""font-size: 60px; font-family: BACS"">mdkKkDOm</p>","","","","","","","","","",""
"html-keyboard-response","280","314862","0.0-14.0-0.29","617679054948369cb824d837","650c16f0f2faf8d7a0d14c09","651c1e4555bcdef806a4637e","null","null","<p style=""font-size: 60px; font-family: BACS"">uQuZcvcb</p>","","","","","","","","","",""
"html-keyboard-response","281","315870","0.0-14.0-0.30","617679054948369cb824d837","650c16f0f2faf8d7a0d14c09","651c1e4555bcdef806a4637e","null","null","<p style=""font-size: 60px; font-family: BACS"">YQbcZckv</p>","","","","","","","","","",""
"html-keyboard-response","282","316877","0.0-14.0-0.31","617679054948369cb824d837","650c16f0f2faf8d7a0d14c09","651c1e4555bcdef806a4637e","null","null","<p style=""font-size: 60px; font-family: BACS"">mdlavcb</p>","","","","","","","","","",""
"html-keyboard-response","283","317887","0.0-14.0-0.32","617679054948369cb824d837","650c16f0f2faf8d7a0d14c09","651c1e4555bcdef806a4637e","null","null","<p style=""font-size: 60px; font-family: BACS"">RlAKcBYhT</p>","","","","","","","","","",""
"html-keyboard-response","284","318894","0.0-14.0-0.33","617679054948369cb824d837","650c16f0f2faf8d7a0d14c09","651c1e4555bcdef806a4637e","null","null","<p style=""font-size: 60px; font-family: BACS"">YlYckPM</p>","","","","","","","","","",""
"html-keyboard-response","285","319902","0.0-14.0-0.34","617679054948369cb824d837","650c16f0f2faf8d7a0d14c09","651c1e4555bcdef806a4637e","null","null","<p style=""font-size: 60px; font-family: BACS"">RlAKcOPE</p>","","","","","","","","","",""
"html-keyboard-response","286","320909","0.0-14.0-0.35","617679054948369cb824d837","650c16f0f2faf8d7a0d14c09","651c1e4555bcdef806a4637e","null","null","<p style=""font-size: 60px; font-family: BACS"">GJZmbLd</p>","","","","","","","","","",""
"html-keyboard-response","287","321918","0.0-14.0-0.36","617679054948369cb824d837","650c16f0f2faf8d7a0d14c09","651c1e4555bcdef806a4637e","null","null","<p style=""font-size: 60px; font-family: BACS"">OQarQvcb</p>","","","","","","","","","",""
"html-keyboard-response","288","322925","0.0-14.0-0.37","617679054948369cb824d837","650c16f0f2faf8d7a0d14c09","651c1e4555bcdef806a4637e","null","null","<p style=""font-size: 60px; font-family: BACS"">JauQZckv</p>","","","","","","","","","",""
"html-keyboard-response","289","323935","0.0-14.0-0.38","617679054948369cb824d837","650c16f0f2faf8d7a0d14c09","651c1e4555bcdef806a4637e","null","null","<p style=""font-size: 60px; font-family: BACS"">UmNJvcb</p>","","","","","","","","","",""
"html-keyboard-response","290","324944","0.0-14.0-0.39","617679054948369cb824d837","650c16f0f2faf8d7a0d14c09","651c1e4555bcdef806a4637e","null","null","<p style=""font-size: 60px; font-family: BACS"">kDRKcBYhT</p>","","","","","","","","","",""
"html-keyboard-response","291","325949","0.0-14.0-0.40","617679054948369cb824d837","650c16f0f2faf8d7a0d14c09","651c1e4555bcdef806a4637e","null","null","<p style=""font-size: 60px; font-family: BACS"">JauQvcb</p>","","","","","","","","","",""
"html-keyboard-response","292","326959","0.0-14.0-0.41","617679054948369cb824d837","650c16f0f2faf8d7a0d14c09","651c1e4555bcdef806a4637e","null","null","<p style=""font-size: 60px; font-family: BACS"">AlTdOPE</p>","","","","","","","","","",""
"html-keyboard-response","293","327966","0.0-14.0-0.42","617679054948369cb824d837","650c16f0f2faf8d7a0d14c09","651c1e4555bcdef806a4637e","null","null","<p style=""font-size: 60px; font-family: BACS"">thbOMkPM</p>","","","","","","","","","",""
"html-keyboard-response","294","328973","0.0-14.0-0.43","617679054948369cb824d837","650c16f0f2faf8d7a0d14c09","651c1e4555bcdef806a4637e","null","null","<p style=""font-size: 60px; font-family: BACS"">uQuZcbLd</p>","","","","","","","","","",""
"html-keyboard-response","295","329983","0.0-14.0-0.44","617679054948369cb824d837","650c16f0f2faf8d7a0d14c09","651c1e4555bcdef806a4637e","null","null","<p style=""font-size: 60px; font-family: BACS"">thbOMOPE</p>","","","","","","","","","",""
"html-keyboard-response","296","330990","0.0-14.0-0.45","617679054948369cb824d837","650c16f0f2faf8d7a0d14c09","651c1e4555bcdef806a4637e","null","null","<p style=""font-size: 60px; font-family: BACS"">mdlaLkNc</p>","","","","","","","","","",""
"html-keyboard-response","297","331998","0.0-14.0-0.46","617679054948369cb824d837","650c16f0f2faf8d7a0d14c09","651c1e4555bcdef806a4637e","null","null","<p style=""font-size: 60px; font-family: BACS"">aUZAlvk</p>","","","","","","","","","",""
"html-keyboard-response","298","333009","0.0-14.0-0.47","617679054948369cb824d837","650c16f0f2faf8d7a0d14c09","651c1e4555bcdef806a4637e","null","null","<p style=""font-size: 60px; font-family: BACS"">YQbcbLd</p>","","","","","","","","","",""
"html-keyboard-response","299","334015","0.0-14.0-0.48","617679054948369cb824d837","650c16f0f2faf8d7a0d14c09","651c1e4555bcdef806a4637e","null","null","<p style=""font-size: 60px; font-family: BACS"">RlAKckDOm</p>","","","","","","","","","",""
"html-keyboard-response","300","335024","0.0-14.0-0.49","617679054948369cb824d837","650c16f0f2faf8d7a0d14c09","651c1e4555bcdef806a4637e","null","null","<p style=""font-size: 60px; font-family: BACS"">UmNJbLd</p>","","","","","","","","","",""
"html-keyboard-response","301","336031","0.0-14.0-0.50","617679054948369cb824d837","650c16f0f2faf8d7a0d14c09","651c1e4555bcdef806a4637e","null","null","<p style=""font-size: 60px; font-family: BACS"">GJZmLkNc</p>","","","","","","","","","",""
"html-keyboard-response","302","337037","0.0-14.0-0.51","617679054948369cb824d837","650c16f0f2faf8d7a0d14c09","651c1e4555bcdef806a4637e","null","null","<p style=""font-size: 60px; font-family: BACS"">BOCRMkPM</p>","","","","","","","","","",""
"html-keyboard-response","303","338045","0.0-14.0-0.52","617679054948369cb824d837","650c16f0f2faf8d7a0d14c09","651c1e4555bcdef806a4637e","null","null","<p style=""font-size: 60px; font-family: BACS"">JauQlvk</p>","","","","","","","","","",""
"html-keyboard-response","304","339054","0.0-14.0-0.53","617679054948369cb824d837","650c16f0f2faf8d7a0d14c09","651c1e4555bcdef806a4637e","null","null","<p style=""font-size: 60px; font-family: BACS"">GJZmZckv</p>","","","","","","","","","",""
"html-keyboard-response","305","340062","0.0-14.0-0.54","617679054948369cb824d837","650c16f0f2faf8d7a0d14c09","651c1e4555bcdef806a4637e","null","null","<p style=""font-size: 60px; font-family: BACS"">kDRKckPM</p>","","","","","","","","","",""
"html-keyboard-response","306","341070","0.0-14.0-0.55","617679054948369cb824d837","650c16f0f2faf8d7a0d14c09","651c1e4555bcdef806a4637e","null","null","<p style=""font-size: 60px; font-family: BACS"">vclYbLd</p>","","","","","","","","","",""
"html-keyboard-response","307","342078","0.0-14.0-0.56","617679054948369cb824d837","650c16f0f2faf8d7a0d14c09","651c1e4555bcdef806a4637e","null","null","<p style=""font-size: 60px; font-family: BACS"">rckOvcb</p>","","","","","","","","","",""
"html-keyboard-response","308","343090","0.0-14.0-0.57","617679054948369cb824d837","650c16f0f2faf8d7a0d14c09","651c1e4555bcdef806a4637e","null","null","<p style=""font-size: 60px; font-family: BACS"">DlDdBYhT</p>","","","","","","","","","",""
"html-keyboard-response","309","344129","0.0-14.0-0.58","617679054948369cb824d837","650c16f0f2faf8d7a0d14c09","651c1e4555bcdef806a4637e","null","null","<p style=""font-size: 60px; font-family: BACS"">OQarQlvk</p>","","","","","","","","","",""
"html-keyboard-response","310","345134","0.0-14.0-0.59","617679054948369cb824d837","650c16f0f2faf8d7a0d14c09","651c1e4555bcdef806a4637e","null","null","<p style=""font-size: 60px; font-family: BACS"">uQuZcZckv</p>","","","","","","","","","",""
"html-keyboard-response","311","346142","0.0-14.0-0.60","617679054948369cb824d837","650c16f0f2faf8d7a0d14c09","651c1e4555bcdef806a4637e","null","null","<p style=""font-size: 60px; font-family: BACS"">hTDdOPE</p>","","","","","","","","","",""
"html-keyboard-response","312","347152","0.0-14.0-0.61","617679054948369cb824d837","650c16f0f2faf8d7a0d14c09","651c1e4555bcdef806a4637e","null","null","<p style=""font-size: 60px; font-family: BACS"">YQbcvcb</p>","","","","","","","","","",""
"html-keyboard-response","313","348158","0.0-14.0-0.62","617679054948369cb824d837","650c16f0f2faf8d7a0d14c09","651c1e4555bcdef806a4637e","null","null","<p style=""font-size: 60px; font-family: BACS"">DlDdOPE</p>","","","","","","","","","",""
"html-keyboard-response","314","349166","0.0-14.0-0.63","617679054948369cb824d837","650c16f0f2faf8d7a0d14c09","651c1e4555bcdef806a4637e","null","null","<p style=""font-size: 60px; font-family: BACS"">OQarQZckv</p>","","","","","","","","","",""
"html-keyboard-response","315","350174","0.0-14.0-0.64","617679054948369cb824d837","650c16f0f2faf8d7a0d14c09","651c1e4555bcdef806a4637e","null","null","<p style=""font-size: 60px; font-family: BACS"">tKDmhOPE</p>","","","","","","","","","",""
"html-keyboard-response","316","351184","0.0-14.0-0.65","617679054948369cb824d837","650c16f0f2faf8d7a0d14c09","651c1e4555bcdef806a4637e","null","null","<p style=""font-size: 60px; font-family: BACS"">mdlalvk</p>","","","","","","","","","",""
"html-keyboard-response","317","352190","0.0-14.0-0.66","617679054948369cb824d837","650c16f0f2faf8d7a0d14c09","651c1e4555bcdef806a4637e","null","null","<p style=""font-size: 60px; font-family: BACS"">UmNJLkNc</p>","","","","","","","","","",""
"html-keyboard-response","318","353199","0.0-14.0-0.67","617679054948369cb824d837","650c16f0f2faf8d7a0d14c09","651c1e4555bcdef806a4637e","null","null","<p style=""font-size: 60px; font-family: BACS"">hTDdTmc</p>","","","","","","","","","",""
"html-keyboard-response","319","354205","0.0-14.0-0.68","617679054948369cb824d837","650c16f0f2faf8d7a0d14c09","651c1e4555bcdef806a4637e","null","null","<p style=""font-size: 60px; font-family: BACS"">vclYLkNc</p>","","","","","","","","","",""
"html-keyboard-response","320","355214","0.0-14.0-0.69","617679054948369cb824d837","650c16f0f2faf8d7a0d14c09","651c1e4555bcdef806a4637e","null","null","<p style=""font-size: 60px; font-family: BACS"">tKDmhBYhT</p>","","","","","","","","","",""
"html-keyboard-response","321","356222","0.0-14.0-0.70","617679054948369cb824d837","650c16f0f2faf8d7a0d14c09","651c1e4555bcdef806a4637e","null","null","<p style=""font-size: 60px; font-family: BACS"">YQbclvk</p>","","","","","","","","","",""
"html-keyboard-response","322","357230","0.0-14.0-0.71","617679054948369cb824d837","650c16f0f2faf8d7a0d14c09","651c1e4555bcdef806a4637e","null","null","<p style=""font-size: 60px; font-family: BACS"">tKDmhkPM</p>","","","","","","","","","",""
"html-keyboard-response","323","358238","0.0-14.0-0.72","617679054948369cb824d837","650c16f0f2faf8d7a0d14c09","651c1e4555bcdef806a4637e","null","null","<p style=""font-size: 60px; font-family: BACS"">BOCRMkDOm</p>","","","","","","","","","",""
"html-keyboard-response","324","359249","0.0-14.0-0.73","617679054948369cb824d837","650c16f0f2faf8d7a0d14c09","651c1e4555bcdef806a4637e","null","null","<p style=""font-size: 60px; font-family: BACS"">tKDmhTmc</p>","","","","","","","","","",""
"html-keyboard-response","325","360253","0.0-14.0-0.74","617679054948369cb824d837","650c16f0f2faf8d7a0d14c09","651c1e4555bcdef806a4637e","null","null","<p style=""font-size: 60px; font-family: BACS"">kDRKckDOm</p>","","","","","","","","","",""
"html-keyboard-response","326","361262","0.0-14.0-0.75","617679054948369cb824d837","650c16f0f2faf8d7a0d14c09","651c1e4555bcdef806a4637e","null","null","<p style=""font-size: 60px; font-family: BACS"">RlAKcTmc</p>","","","","","","","","","",""
"html-keyboard-response","327","362287","0.0-14.0-0.76","617679054948369cb824d837","650c16f0f2faf8d7a0d14c09","651c1e4555bcdef806a4637e","null","null","<p style=""font-size: 60px; font-family: BACS"">mdlabLd</p>","","","","","","","","","",""
"html-keyboard-response","328","363295","0.0-14.0-0.77","617679054948369cb824d837","650c16f0f2faf8d7a0d14c09","651c1e4555bcdef806a4637e","null","null","<p style=""font-size: 60px; font-family: BACS"">vclYlvk</p>","","","","","","","","","",""
"html-keyboard-response","329","364302","0.0-14.0-0.78","617679054948369cb824d837","650c16f0f2faf8d7a0d14c09","651c1e4555bcdef806a4637e","null","null","<p style=""font-size: 60px; font-family: BACS"">rckOLkNc</p>","","","","","","","","","",""
"html-keyboard-response","330","365309","0.0-14.0-0.79","617679054948369cb824d837","650c16f0f2faf8d7a0d14c09","651c1e4555bcdef806a4637e","null","null","<p style=""font-size: 60px; font-family: BACS"">DlDdTmc</p>","","","","","","","","","",""
"html-keyboard-response","331","366948","0.0-15.0","617679054948369cb824d837","650c16f0f2faf8d7a0d14c09","651c1e4555bcdef806a4637e","1637"," ","<p>Great, you've seen the fourth block of words. You may now take a short break.</p>
      <p>Press the spacebar when you're ready to continue.</p>","","","","","","","","","",""
"html-keyboard-response","332","367957","0.0-16.0-0.0","617679054948369cb824d837","650c16f0f2faf8d7a0d14c09","651c1e4555bcdef806a4637e","null","null","<p style=""font-size: 60px; font-family: BACS"">vclYlvk</p>","","","","","","","","","",""
"html-keyboard-response","333","368968","0.0-16.0-0.1","617679054948369cb824d837","650c16f0f2faf8d7a0d14c09","651c1e4555bcdef806a4637e","null","null","<p style=""font-size: 60px; font-family: BACS"">vclYlvk</p>","","","","","","","","","",""
"html-keyboard-response","334","369973","0.0-16.0-0.2","617679054948369cb824d837","650c16f0f2faf8d7a0d14c09","651c1e4555bcdef806a4637e","null","null","<p style=""font-size: 60px; font-family: BACS"">vclYlvk</p>","","","","","","","","","",""
"html-keyboard-response","335","370993","0.0-16.0-0.3","617679054948369cb824d837","650c16f0f2faf8d7a0d14c09","651c1e4555bcdef806a4637e","null","null","<p style=""font-size: 60px; font-family: BACS"">vclYlvk</p>","","","","","","","","","",""
"html-keyboard-response","336","372002","0.0-16.0-0.4","617679054948369cb824d837","650c16f0f2faf8d7a0d14c09","651c1e4555bcdef806a4637e","null","null","<p style=""font-size: 60px; font-family: BACS"">vclYlvk</p>","","","","","","","","","",""
"html-keyboard-response","337","373013","0.0-16.0-0.5","617679054948369cb824d837","650c16f0f2faf8d7a0d14c09","651c1e4555bcdef806a4637e","null","null","<p style=""font-size: 60px; font-family: BACS"">vclYlvk</p>","","","","","","","","","",""
"html-keyboard-response","338","374023","0.0-16.0-0.6","617679054948369cb824d837","650c16f0f2faf8d7a0d14c09","651c1e4555bcdef806a4637e","null","null","<p style=""font-size: 60px; font-family: BACS"">vclYlvk</p>","","","","","","","","","",""
"html-keyboard-response","339","375030","0.0-16.0-0.7","617679054948369cb824d837","650c16f0f2faf8d7a0d14c09","651c1e4555bcdef806a4637e","null","null","<p style=""font-size: 60px; font-family: BACS"">vclYlvk</p>","","","","","","","","","",""
"html-keyboard-response","340","376039","0.0-16.0-0.8","617679054948369cb824d837","650c16f0f2faf8d7a0d14c09","651c1e4555bcdef806a4637e","null","null","<p style=""font-size: 60px; font-family: BACS"">vclYlvk</p>","","","","","","","","","",""
"html-keyboard-response","341","377045","0.0-16.0-0.9","617679054948369cb824d837","650c16f0f2faf8d7a0d14c09","651c1e4555bcdef806a4637e","null","null","<p style=""font-size: 60px; font-family: BACS"">vclYlvk</p>","","","","","","","","","",""
"html-keyboard-response","342","378054","0.0-16.0-0.10","617679054948369cb824d837","650c16f0f2faf8d7a0d14c09","651c1e4555bcdef806a4637e","null","null","<p style=""font-size: 60px; font-family: BACS"">vclYlvk</p>","","","","","","","","","",""
"html-keyboard-response","343","379062","0.0-16.0-0.11","617679054948369cb824d837","650c16f0f2faf8d7a0d14c09","651c1e4555bcdef806a4637e","null","null","<p style=""font-size: 60px; font-family: BACS"">vclYlvk</p>","","","","","","","","","",""
"html-keyboard-response","344","380070","0.0-16.0-0.12","617679054948369cb824d837","650c16f0f2faf8d7a0d14c09","651c1e4555bcdef806a4637e","null","null","<p style=""font-size: 60px; font-family: BACS"">vclYlvk</p>","","","","","","","","","",""
"html-keyboard-response","345","381080","0.0-16.0-0.13","617679054948369cb824d837","650c16f0f2faf8d7a0d14c09","651c1e4555bcdef806a4637e","null","null","<p style=""font-size: 60px; font-family: BACS"">vclYlvk</p>","","","","","","","","","",""
"html-keyboard-response","346","382086","0.0-16.0-0.14","617679054948369cb824d837","650c16f0f2faf8d7a0d14c09","651c1e4555bcdef806a4637e","null","null","<p style=""font-size: 60px; font-family: BACS"">vclYlvk</p>","","","","","","","","","",""
"html-keyboard-response","347","383094","0.0-16.0-0.15","617679054948369cb824d837","650c16f0f2faf8d7a0d14c09","651c1e4555bcdef806a4637e","null","null","<p style=""font-size: 60px; font-family: BACS"">vclYlvk</p>","","","","","","","","","",""
"html-keyboard-response","348","384102","0.0-16.0-0.16","617679054948369cb824d837","650c16f0f2faf8d7a0d14c09","651c1e4555bcdef806a4637e","null","null","<p style=""font-size: 60px; font-family: BACS"">vclYlvk</p>","","","","","","","","","",""
"html-keyboard-response","349","385111","0.0-16.0-0.17","617679054948369cb824d837","650c16f0f2faf8d7a0d14c09","651c1e4555bcdef806a4637e","null","null","<p style=""font-size: 60px; font-family: BACS"">vclYlvk</p>","","","","","","","","","",""
"html-keyboard-response","350","386117","0.0-16.0-0.18","617679054948369cb824d837","650c16f0f2faf8d7a0d14c09","651c1e4555bcdef806a4637e","null","null","<p style=""font-size: 60px; font-family: BACS"">vclYlvk</p>","","","","","","","","","",""
"html-keyboard-response","351","387125","0.0-16.0-0.19","617679054948369cb824d837","650c16f0f2faf8d7a0d14c09","651c1e4555bcdef806a4637e","null","null","<p style=""font-size: 60px; font-family: BACS"">vclYlvk</p>","","","","","","","","","",""
"html-keyboard-response","352","388148","0.0-16.0-0.20","617679054948369cb824d837","650c16f0f2faf8d7a0d14c09","651c1e4555bcdef806a4637e","null","null","<p style=""font-size: 60px; font-family: BACS"">vclYlvk</p>","","","","","","","","","",""
"html-keyboard-response","353","389158","0.0-16.0-0.21","617679054948369cb824d837","650c16f0f2faf8d7a0d14c09","651c1e4555bcdef806a4637e","null","null","<p style=""font-size: 60px; font-family: BACS"">vclYlvk</p>","","","","","","","","","",""
"html-keyboard-response","354","390165","0.0-16.0-0.22","617679054948369cb824d837","650c16f0f2faf8d7a0d14c09","651c1e4555bcdef806a4637e","null","null","<p style=""font-size: 60px; font-family: BACS"">vclYlvk</p>","","","","","","","","","",""
"html-keyboard-response","355","391174","0.0-16.0-0.23","617679054948369cb824d837","650c16f0f2faf8d7a0d14c09","651c1e4555bcdef806a4637e","null","null","<p style=""font-size: 60px; font-family: BACS"">vclYlvk</p>","","","","","","","","","",""
"html-keyboard-response","356","392182","0.0-16.0-0.24","617679054948369cb824d837","650c16f0f2faf8d7a0d14c09","651c1e4555bcdef806a4637e","null","null","<p style=""font-size: 60px; font-family: BACS"">vclYlvk</p>","","","","","","","","","",""
"html-keyboard-response","357","393190","0.0-16.0-0.25","617679054948369cb824d837","650c16f0f2faf8d7a0d14c09","651c1e4555bcdef806a4637e","null","null","<p style=""font-size: 60px; font-family: BACS"">vclYlvk</p>","","","","","","","","","",""
"html-keyboard-response","358","394198","0.0-16.0-0.26","617679054948369cb824d837","650c16f0f2faf8d7a0d14c09","651c1e4555bcdef806a4637e","null","null","<p style=""font-size: 60px; font-family: BACS"">vclYlvk</p>","","","","","","","","","",""
"html-keyboard-response","359","395205","0.0-16.0-0.27","617679054948369cb824d837","650c16f0f2faf8d7a0d14c09","651c1e4555bcdef806a4637e","null","null","<p style=""font-size: 60px; font-family: BACS"">vclYlvk</p>","","","","","","","","","",""
"html-keyboard-response","360","396214","0.0-16.0-0.28","617679054948369cb824d837","650c16f0f2faf8d7a0d14c09","651c1e4555bcdef806a4637e","null","null","<p style=""font-size: 60px; font-family: BACS"">vclYlvk</p>","","","","","","","","","",""
"html-keyboard-response","361","397250","0.0-16.0-0.29","617679054948369cb824d837","650c16f0f2faf8d7a0d14c09","651c1e4555bcdef806a4637e","null","null","<p style=""font-size: 60px; font-family: BACS"">vclYlvk</p>","","","","","","","","","",""
"html-keyboard-response","362","398273","0.0-16.0-0.30","617679054948369cb824d837","650c16f0f2faf8d7a0d14c09","651c1e4555bcdef806a4637e","null","null","<p style=""font-size: 60px; font-family: BACS"">vclYlvk</p>","","","","","","","","","",""
"html-keyboard-response","363","399277","0.0-16.0-0.31","617679054948369cb824d837","650c16f0f2faf8d7a0d14c09","651c1e4555bcdef806a4637e","null","null","<p style=""font-size: 60px; font-family: BACS"">vclYlvk</p>","","","","","","","","","",""
"html-keyboard-response","364","400286","0.0-16.0-0.32","617679054948369cb824d837","650c16f0f2faf8d7a0d14c09","651c1e4555bcdef806a4637e","null","null","<p style=""font-size: 60px; font-family: BACS"">vclYlvk</p>","","","","","","","","","",""
"html-keyboard-response","365","401293","0.0-16.0-0.33","617679054948369cb824d837","650c16f0f2faf8d7a0d14c09","651c1e4555bcdef806a4637e","null","null","<p style=""font-size: 60px; font-family: BACS"">vclYlvk</p>","","","","","","","","","",""
"html-keyboard-response","366","402302","0.0-16.0-0.34","617679054948369cb824d837","650c16f0f2faf8d7a0d14c09","651c1e4555bcdef806a4637e","null","null","<p style=""font-size: 60px; font-family: BACS"">vclYlvk</p>","","","","","","","","","",""
"html-keyboard-response","367","403309","0.0-16.0-0.35","617679054948369cb824d837","650c16f0f2faf8d7a0d14c09","651c1e4555bcdef806a4637e","null","null","<p style=""font-size: 60px; font-family: BACS"">vclYlvk</p>","","","","","","","","","",""
"html-keyboard-response","368","404323","0.0-16.0-0.36","617679054948369cb824d837","650c16f0f2faf8d7a0d14c09","651c1e4555bcdef806a4637e","null","null","<p style=""font-size: 60px; font-family: BACS"">vclYlvk</p>","","","","","","","","","",""
"html-keyboard-response","369","405342","0.0-16.0-0.37","617679054948369cb824d837","650c16f0f2faf8d7a0d14c09","651c1e4555bcdef806a4637e","null","null","<p style=""font-size: 60px; font-family: BACS"">vclYlvk</p>","","","","","","","","","",""
"html-keyboard-response","370","406350","0.0-16.0-0.38","617679054948369cb824d837","650c16f0f2faf8d7a0d14c09","651c1e4555bcdef806a4637e","null","null","<p style=""font-size: 60px; font-family: BACS"">vclYlvk</p>","","","","","","","","","",""
"html-keyboard-response","371","407357","0.0-16.0-0.39","617679054948369cb824d837","650c16f0f2faf8d7a0d14c09","651c1e4555bcdef806a4637e","null","null","<p style=""font-size: 60px; font-family: BACS"">vclYlvk</p>","","","","","","","","","",""
"html-keyboard-response","372","408366","0.0-16.0-0.40","617679054948369cb824d837","650c16f0f2faf8d7a0d14c09","651c1e4555bcdef806a4637e","null","null","<p style=""font-size: 60px; font-family: BACS"">vclYlvk</p>","","","","","","","","","",""
"html-keyboard-response","373","409376","0.0-16.0-0.41","617679054948369cb824d837","650c16f0f2faf8d7a0d14c09","651c1e4555bcdef806a4637e","null","null","<p style=""font-size: 60px; font-family: BACS"">vclYlvk</p>","","","","","","","","","",""
"html-keyboard-response","374","410381","0.0-16.0-0.42","617679054948369cb824d837","650c16f0f2faf8d7a0d14c09","651c1e4555bcdef806a4637e","null","null","<p style=""font-size: 60px; font-family: BACS"">vclYlvk</p>","","","","","","","","","",""
"html-keyboard-response","375","411390","0.0-16.0-0.43","617679054948369cb824d837","650c16f0f2faf8d7a0d14c09","651c1e4555bcdef806a4637e","null","null","<p style=""font-size: 60px; font-family: BACS"">vclYlvk</p>","","","","","","","","","",""
"html-keyboard-response","376","412398","0.0-16.0-0.44","617679054948369cb824d837","650c16f0f2faf8d7a0d14c09","651c1e4555bcdef806a4637e","null","null","<p style=""font-size: 60px; font-family: BACS"">vclYlvk</p>","","","","","","","","","",""
"html-keyboard-response","377","413405","0.0-16.0-0.45","617679054948369cb824d837","650c16f0f2faf8d7a0d14c09","651c1e4555bcdef806a4637e","null","null","<p style=""font-size: 60px; font-family: BACS"">vclYlvk</p>","","","","","","","","","",""
"html-keyboard-response","378","414415","0.0-16.0-0.46","617679054948369cb824d837","650c16f0f2faf8d7a0d14c09","651c1e4555bcdef806a4637e","null","null","<p style=""font-size: 60px; font-family: BACS"">vclYlvk</p>","","","","","","","","","",""
"html-keyboard-response","379","415421","0.0-16.0-0.47","617679054948369cb824d837","650c16f0f2faf8d7a0d14c09","651c1e4555bcdef806a4637e","null","null","<p style=""font-size: 60px; font-family: BACS"">vclYlvk</p>","","","","","","","","","",""
"html-keyboard-response","380","416429","0.0-16.0-0.48","617679054948369cb824d837","650c16f0f2faf8d7a0d14c09","651c1e4555bcdef806a4637e","null","null","<p style=""font-size: 60px; font-family: BACS"">vclYlvk</p>","","","","","","","","","",""
"html-keyboard-response","381","417437","0.0-16.0-0.49","617679054948369cb824d837","650c16f0f2faf8d7a0d14c09","651c1e4555bcdef806a4637e","null","null","<p style=""font-size: 60px; font-family: BACS"">vclYlvk</p>","","","","","","","","","",""
"html-keyboard-response","382","418446","0.0-16.0-0.50","617679054948369cb824d837","650c16f0f2faf8d7a0d14c09","651c1e4555bcdef806a4637e","null","null","<p style=""font-size: 60px; font-family: BACS"">vclYlvk</p>","","","","","","","","","",""
"html-keyboard-response","383","419453","0.0-16.0-0.51","617679054948369cb824d837","650c16f0f2faf8d7a0d14c09","651c1e4555bcdef806a4637e","null","null","<p style=""font-size: 60px; font-family: BACS"">vclYlvk</p>","","","","","","","","","",""
"html-keyboard-response","384","420461","0.0-16.0-0.52","617679054948369cb824d837","650c16f0f2faf8d7a0d14c09","651c1e4555bcdef806a4637e","null","null","<p style=""font-size: 60px; font-family: BACS"">vclYlvk</p>","","","","","","","","","",""
"html-keyboard-response","385","421470","0.0-16.0-0.53","617679054948369cb824d837","650c16f0f2faf8d7a0d14c09","651c1e4555bcdef806a4637e","null","null","<p style=""font-size: 60px; font-family: BACS"">vclYlvk</p>","","","","","","","","","",""
"html-keyboard-response","386","422479","0.0-16.0-0.54","617679054948369cb824d837","650c16f0f2faf8d7a0d14c09","651c1e4555bcdef806a4637e","null","null","<p style=""font-size: 60px; font-family: BACS"">vclYlvk</p>","","","","","","","","","",""
"html-keyboard-response","387","423486","0.0-16.0-0.55","617679054948369cb824d837","650c16f0f2faf8d7a0d14c09","651c1e4555bcdef806a4637e","null","null","<p style=""font-size: 60px; font-family: BACS"">vclYlvk</p>","","","","","","","","","",""
"html-keyboard-response","388","424494","0.0-16.0-0.56","617679054948369cb824d837","650c16f0f2faf8d7a0d14c09","651c1e4555bcdef806a4637e","null","null","<p style=""font-size: 60px; font-family: BACS"">vclYlvk</p>","","","","","","","","","",""
"html-keyboard-response","389","425501","0.0-16.0-0.57","617679054948369cb824d837","650c16f0f2faf8d7a0d14c09","651c1e4555bcdef806a4637e","null","null","<p style=""font-size: 60px; font-family: BACS"">vclYlvk</p>","","","","","","","","","",""
"html-keyboard-response","390","426512","0.0-16.0-0.58","617679054948369cb824d837","650c16f0f2faf8d7a0d14c09","651c1e4555bcdef806a4637e","null","null","<p style=""font-size: 60px; font-family: BACS"">vclYlvk</p>","","","","","","","","","",""
"html-keyboard-response","391","427528","0.0-16.0-0.59","617679054948369cb824d837","650c16f0f2faf8d7a0d14c09","651c1e4555bcdef806a4637e","null","null","<p style=""font-size: 60px; font-family: BACS"">vclYlvk</p>","","","","","","","","","",""
"html-keyboard-response","392","428533","0.0-16.0-0.60","617679054948369cb824d837","650c16f0f2faf8d7a0d14c09","651c1e4555bcdef806a4637e","null","null","<p style=""font-size: 60px; font-family: BACS"">vclYlvk</p>","","","","","","","","","",""
"html-keyboard-response","393","429544","0.0-16.0-0.61","617679054948369cb824d837","650c16f0f2faf8d7a0d14c09","651c1e4555bcdef806a4637e","null","null","<p style=""font-size: 60px; font-family: BACS"">vclYlvk</p>","","","","","","","","","",""
"html-keyboard-response","394","430550","0.0-16.0-0.62","617679054948369cb824d837","650c16f0f2faf8d7a0d14c09","651c1e4555bcdef806a4637e","null","null","<p style=""font-size: 60px; font-family: BACS"">vclYlvk</p>","","","","","","","","","",""
