"trial_type","trial_index","time_elapsed","internal_node_id","subject_id","study_id","session_id","rt","response","stimulus","success","item","task","correct_response","testing_condition","correct","target","confound","name"
"pavlovia","0","1639","0.0-0.0","61301fcb49db2f170cb02b93","650c16f0f2faf8d7a0d14c09","651c1cadd24a0d706e070b09","","","","","","","","","","","",""
"survey-html-form","1","40067","0.0-1.0","61301fcb49db2f170cb02b93","650c16f0f2faf8d7a0d14c09","651c1cadd24a0d706e070b09","38425","{""ID"":""61301fcb49db2f170cb02b93""}","","","","","","","","","",""
"html-keyboard-response","2","95042","0.0-2.0","61301fcb49db2f170cb02b93","650c16f0f2faf8d7a0d14c09","651c1cadd24a0d706e070b09","54971"," ","<p style=""font-size: 15px;"">Before beginning, we ask that you read the consent information and confirm your agreement to participate in the experiment.</p>
      <p style=""font-size: 15px;""> We ask that you remember that this is a research project and that your participation is entirely voluntary. You can stop your participation at any time, without needing to provide any explanation. The study we're asking you to participate in aims at examining how readers process written words. You will be engaged in a session of apprximately 20 minutes, followed by a brief questionnaire. You will have the opportunity to take a few breaks during the experiment. You will be paid £4 for your participation, corresponding to a rate of £8/hour. While this experiment looks at cognitive faculties, this experiment doesn't constitute clinical proof of eventual pathologies.</p>
      <p style=""font-size: 15px;"">All of the information collected thanks to yours and others' participation will be held in a secure password-protected server, and will not be shared with anyone not authorised to view it. Your personal information will be kept with an arbitrary participant ID. Thanks to this data anonymity process, any researcher analysing the data won't be able to track the information back to a specific participant. Therefore, this process will make identifying you impossibile, even when results from the study will be published in scientific reviews, presented at congresses, or at any other public forum. More generally, the collected data will be treated in accordance with the laws on privacy and conformity to the Legislative Degree n. 196 ""Code regarding the protection of personal data"" of the 30th of June 2003 and to the European Regulation 2016/670 (General Data Protection Regulation - GDPR). The Data Protection Officer is Avv. Valentina Carollo, who can be contacted at the following email addresses: <a href=""mailto:dpo@sissa.it"">dpo@sissa.it</a> or <a href=""mailto:rpd@sissa.it"">rpd@sissa.it</a> - PEC: <a href=""mailto:protocollo@pec.sissa.it"">protocollo@pec.sissa.it</a>.</p>
      <p style=""font-size: 15px;""> Before expressing your consent to participate, we would like to remind you again that in case you need explanations on any aspect of the experimental procedure, the researcher is at your disposition (<a href=""mailto:aliebelt@sissa.it"">aliebelt@sissa.it</a>, <a href=""mailto:davide.crepaldi@sissa.it"">davide.crepaldi@sissa.it</a>).</p>
      <p style=""font-size: 15px;"">If you would like to download the informed consent form, you can do so here: <a href=""BASL-Informed_Consent.pdf"" download>informed consent form</a>.</p>
      <p style=""font-size: 15px;"">We ask that you press the spacebar to proceed to the consent section.</p>","","","","","","","","",""
"survey-html-form","3","128211","0.0-3.0","61301fcb49db2f170cb02b93","650c16f0f2faf8d7a0d14c09","651c1cadd24a0d706e070b09","33173","{""consent1"":""YES"",""consent2"":""YES"",""consent3"":""YES"",""consent4"":""YES"",""consent5"":""YES"",""consent6"":""YES""}","","","","","","","","","",""
"fullscreen","4","142635","0.0-4.0","61301fcb49db2f170cb02b93","650c16f0f2faf8d7a0d14c09","651c1cadd24a0d706e070b09","","","","true","","","","","","","",""
"html-keyboard-response","5","183484","0.0-5.0","61301fcb49db2f170cb02b93","650c16f0f2faf8d7a0d14c09","651c1cadd24a0d706e070b09","40842"," ","<p>Welcome, and thank you very much for your time!</p>
      <p>In this experiment, you'll be a language expert who's been asked to take a look at words that Earth has received in its first communication with aliens. Your task, in this first part of the experiment, is to pay close attention to the words you'll be shown; later, world leaders will ask you questions on what you saw. The words will be shown to you quite quickly; it seems that the aliens were in a hurry :-)</p>
      <p>Press the spacebar to continue.<p>","","","","","","","","",""
"html-keyboard-response","6","183537","0.0-6.0","61301fcb49db2f170cb02b93","650c16f0f2faf8d7a0d14c09","651c1cadd24a0d706e070b09","null","null","<p style=""font-size: 120px; font-family: BACS""> </p>","","","","","","","","",""
"html-keyboard-response","7","216921","0.0-7.0","61301fcb49db2f170cb02b93","650c16f0f2faf8d7a0d14c09","651c1cadd24a0d706e070b09","33383"," ","<p>Here is an example of the words you'll see:</p>
      <img src='esempio.png' height='400px'>
      <p>When you're ready to begin, press the spacebar.</p></div>","","","","","","","","",""
"html-keyboard-response","8","217926","0.0-8.0-0.0","61301fcb49db2f170cb02b93","650c16f0f2faf8d7a0d14c09","651c1cadd24a0d706e070b09","null","null","<p style=""font-size: 60px; font-family: BACS"">uauOvUdm</p>","","","","","","","","",""
"html-keyboard-response","9","218928","0.0-8.0-0.1","61301fcb49db2f170cb02b93","650c16f0f2faf8d7a0d14c09","651c1cadd24a0d706e070b09","null","null","<p style=""font-size: 60px; font-family: BACS"">lRCBdCKc</p>","","","","","","","","",""
"html-keyboard-response","10","219934","0.0-8.0-0.2","61301fcb49db2f170cb02b93","650c16f0f2faf8d7a0d14c09","651c1cadd24a0d706e070b09","null","null","<p style=""font-size: 60px; font-family: BACS"">COtBDcthB</p>","","","","","","","","",""
"html-keyboard-response","11","220942","0.0-8.0-0.3","61301fcb49db2f170cb02b93","650c16f0f2faf8d7a0d14c09","651c1cadd24a0d706e070b09","null","null","<p style=""font-size: 60px; font-family: BACS"">QcQAJkmU</p>","","","","","","","","",""
"html-keyboard-response","12","221950","0.0-8.0-0.4","61301fcb49db2f170cb02b93","650c16f0f2faf8d7a0d14c09","651c1cadd24a0d706e070b09","null","null","<p style=""font-size: 60px; font-family: BACS"">YJLcAkJdr</p>","","","","","","","","",""
"html-keyboard-response","13","222959","0.0-8.0-0.5","61301fcb49db2f170cb02b93","650c16f0f2faf8d7a0d14c09","651c1cadd24a0d706e070b09","null","null","<p style=""font-size: 60px; font-family: BACS"">ZdNmUmZb</p>","","","","","","","","",""
"html-keyboard-response","14","223967","0.0-8.0-0.6","61301fcb49db2f170cb02b93","650c16f0f2faf8d7a0d14c09","651c1cadd24a0d706e070b09","null","null","<p style=""font-size: 60px; font-family: BACS"">KAERMdCKc</p>","","","","","","","","",""
"html-keyboard-response","15","224984","0.0-8.0-0.7","61301fcb49db2f170cb02b93","650c16f0f2faf8d7a0d14c09","651c1cadd24a0d706e070b09","null","null","<p style=""font-size: 60px; font-family: BACS"">bvkrQGb</p>","","","","","","","","",""
"html-keyboard-response","16","225992","0.0-8.0-0.8","61301fcb49db2f170cb02b93","650c16f0f2faf8d7a0d14c09","651c1cadd24a0d706e070b09","null","null","<p style=""font-size: 60px; font-family: BACS"">MDKPcthB</p>","","","","","","","","",""
"html-keyboard-response","17","227002","0.0-8.0-0.9","61301fcb49db2f170cb02b93","650c16f0f2faf8d7a0d14c09","651c1cadd24a0d706e070b09","null","null","<p style=""font-size: 60px; font-family: BACS"">KAERMTRK</p>","","","","","","","","",""
"html-keyboard-response","18","228009","0.0-8.0-0.10","61301fcb49db2f170cb02b93","650c16f0f2faf8d7a0d14c09","651c1cadd24a0d706e070b09","null","null","<p style=""font-size: 60px; font-family: BACS"">NaAQdkmU</p>","","","","","","","","",""
"html-keyboard-response","19","229015","0.0-8.0-0.11","61301fcb49db2f170cb02b93","650c16f0f2faf8d7a0d14c09","651c1cadd24a0d706e070b09","null","null","<p style=""font-size: 60px; font-family: BACS"">KAERMYKPB</p>","","","","","","","","",""
"html-keyboard-response","20","230018","0.0-8.0-0.12","61301fcb49db2f170cb02b93","650c16f0f2faf8d7a0d14c09","651c1cadd24a0d706e070b09","null","null","<p style=""font-size: 60px; font-family: BACS"">MDKPdCKc</p>","","","","","","","","",""
"html-keyboard-response","21","231034","0.0-8.0-0.13","61301fcb49db2f170cb02b93","650c16f0f2faf8d7a0d14c09","651c1cadd24a0d706e070b09","null","null","<p style=""font-size: 60px; font-family: BACS"">AYkEhcthB</p>","","","","","","","","",""
"html-keyboard-response","22","232050","0.0-8.0-0.14","61301fcb49db2f170cb02b93","650c16f0f2faf8d7a0d14c09","651c1cadd24a0d706e070b09","null","null","<p style=""font-size: 60px; font-family: BACS"">PYkCYKPB</p>","","","","","","","","",""
"html-keyboard-response","23","233060","0.0-8.0-0.15","61301fcb49db2f170cb02b93","650c16f0f2faf8d7a0d14c09","651c1cadd24a0d706e070b09","null","null","<p style=""font-size: 60px; font-family: BACS"">BdtACdCKc</p>","","","","","","","","",""
"html-keyboard-response","24","234066","0.0-8.0-0.16","61301fcb49db2f170cb02b93","650c16f0f2faf8d7a0d14c09","651c1cadd24a0d706e070b09","null","null","<p style=""font-size: 60px; font-family: BACS"">AZlLNvUdm</p>","","","","","","","","",""
"html-keyboard-response","25","235078","0.0-8.0-0.17","61301fcb49db2f170cb02b93","650c16f0f2faf8d7a0d14c09","651c1cadd24a0d706e070b09","null","null","<p style=""font-size: 60px; font-family: BACS"">PYkCcthB</p>","","","","","","","","",""
"html-keyboard-response","26","236087","0.0-8.0-0.18","61301fcb49db2f170cb02b93","650c16f0f2faf8d7a0d14c09","651c1cadd24a0d706e070b09","null","null","<p style=""font-size: 60px; font-family: BACS"">mUOcOmZb</p>","","","","","","","","",""
"html-keyboard-response","27","237090","0.0-8.0-0.19","61301fcb49db2f170cb02b93","650c16f0f2faf8d7a0d14c09","651c1cadd24a0d706e070b09","null","null","<p style=""font-size: 60px; font-family: BACS"">AZlLNQGb</p>","","","","","","","","",""
"html-keyboard-response","28","238101","0.0-8.0-0.20","61301fcb49db2f170cb02b93","650c16f0f2faf8d7a0d14c09","651c1cadd24a0d706e070b09","null","null","<p style=""font-size: 60px; font-family: BACS"">lRCBTRK</p>","","","","","","","","",""
"html-keyboard-response","29","239105","0.0-8.0-0.21","61301fcb49db2f170cb02b93","650c16f0f2faf8d7a0d14c09","651c1cadd24a0d706e070b09","null","null","<p style=""font-size: 60px; font-family: BACS"">AYkEhYKPB</p>","","","","","","","","",""
"html-keyboard-response","30","240109","0.0-8.0-0.22","61301fcb49db2f170cb02b93","650c16f0f2faf8d7a0d14c09","651c1cadd24a0d706e070b09","null","null","<p style=""font-size: 60px; font-family: BACS"">kcdOtTRK</p>","","","","","","","","",""
"html-keyboard-response","31","241117","0.0-8.0-0.23","61301fcb49db2f170cb02b93","650c16f0f2faf8d7a0d14c09","651c1cadd24a0d706e070b09","null","null","<p style=""font-size: 60px; font-family: BACS"">NbmQUvUdm</p>","","","","","","","","",""
"html-keyboard-response","32","242133","0.0-8.0-0.24","61301fcb49db2f170cb02b93","650c16f0f2faf8d7a0d14c09","651c1cadd24a0d706e070b09","null","null","<p style=""font-size: 60px; font-family: BACS"">PYkCAPEM</p>","","","","","","","","",""
"html-keyboard-response","33","243143","0.0-8.0-0.25","61301fcb49db2f170cb02b93","650c16f0f2faf8d7a0d14c09","651c1cadd24a0d706e070b09","null","null","<p style=""font-size: 60px; font-family: BACS"">mUOcOvUdm</p>","","","","","","","","",""
"html-keyboard-response","34","244158","0.0-8.0-0.26","61301fcb49db2f170cb02b93","650c16f0f2faf8d7a0d14c09","651c1cadd24a0d706e070b09","null","null","<p style=""font-size: 60px; font-family: BACS"">dGLAlQGb</p>","","","","","","","","",""
"html-keyboard-response","35","245167","0.0-8.0-0.27","61301fcb49db2f170cb02b93","650c16f0f2faf8d7a0d14c09","651c1cadd24a0d706e070b09","null","null","<p style=""font-size: 60px; font-family: BACS"">hAROKYKPB</p>","","","","","","","","",""
"html-keyboard-response","36","246174","0.0-8.0-0.28","61301fcb49db2f170cb02b93","650c16f0f2faf8d7a0d14c09","651c1cadd24a0d706e070b09","null","null","<p style=""font-size: 60px; font-family: BACS"">QcQAJkJdr</p>","","","","","","","","",""
"html-keyboard-response","37","247182","0.0-8.0-0.29","61301fcb49db2f170cb02b93","650c16f0f2faf8d7a0d14c09","651c1cadd24a0d706e070b09","null","null","<p style=""font-size: 60px; font-family: BACS"">kcdOtYKPB</p>","","","","","","","","",""
"html-keyboard-response","38","248197","0.0-8.0-0.30","61301fcb49db2f170cb02b93","650c16f0f2faf8d7a0d14c09","651c1cadd24a0d706e070b09","null","null","<p style=""font-size: 60px; font-family: BACS"">AYkEhdCKc</p>","","","","","","","","",""
"html-keyboard-response","39","249205","0.0-8.0-0.31","61301fcb49db2f170cb02b93","650c16f0f2faf8d7a0d14c09","651c1cadd24a0d706e070b09","null","null","<p style=""font-size: 60px; font-family: BACS"">NbmQUkJdr</p>","","","","","","","","",""
"html-keyboard-response","40","250208","0.0-8.0-0.32","61301fcb49db2f170cb02b93","650c16f0f2faf8d7a0d14c09","651c1cadd24a0d706e070b09","null","null","<p style=""font-size: 60px; font-family: BACS"">AZlLNkmU</p>","","","","","","","","",""
"html-keyboard-response","41","251217","0.0-8.0-0.33","61301fcb49db2f170cb02b93","650c16f0f2faf8d7a0d14c09","651c1cadd24a0d706e070b09","null","null","<p style=""font-size: 60px; font-family: BACS"">COtBDAPEM</p>","","","","","","","","",""
"html-keyboard-response","42","252233","0.0-8.0-0.34","61301fcb49db2f170cb02b93","650c16f0f2faf8d7a0d14c09","651c1cadd24a0d706e070b09","null","null","<p style=""font-size: 60px; font-family: BACS"">bvkrkmU</p>","","","","","","","","",""
"html-keyboard-response","43","253235","0.0-8.0-0.35","61301fcb49db2f170cb02b93","650c16f0f2faf8d7a0d14c09","651c1cadd24a0d706e070b09","null","null","<p style=""font-size: 60px; font-family: BACS"">COtBDdCKc</p>","","","","","","","","",""
"html-keyboard-response","44","254242","0.0-8.0-0.36","61301fcb49db2f170cb02b93","650c16f0f2faf8d7a0d14c09","651c1cadd24a0d706e070b09","null","null","<p style=""font-size: 60px; font-family: BACS"">uauOkJdr</p>","","","","","","","","",""
"html-keyboard-response","45","255257","0.0-8.0-0.37","61301fcb49db2f170cb02b93","650c16f0f2faf8d7a0d14c09","651c1cadd24a0d706e070b09","null","null","<p style=""font-size: 60px; font-family: BACS"">PYkCTRK</p>","","","","","","","","",""
"html-keyboard-response","46","256266","0.0-8.0-0.38","61301fcb49db2f170cb02b93","650c16f0f2faf8d7a0d14c09","651c1cadd24a0d706e070b09","null","null","<p style=""font-size: 60px; font-family: BACS"">YJLcAkmU</p>","","","","","","","","",""
"html-keyboard-response","47","257273","0.0-8.0-0.39","61301fcb49db2f170cb02b93","650c16f0f2faf8d7a0d14c09","651c1cadd24a0d706e070b09","null","null","<p style=""font-size: 60px; font-family: BACS"">ZdNmUQGb</p>","","","","","","","","",""
"html-keyboard-response","48","258282","0.0-8.0-0.40","61301fcb49db2f170cb02b93","650c16f0f2faf8d7a0d14c09","651c1cadd24a0d706e070b09","null","null","<p style=""font-size: 60px; font-family: BACS"">kcdOtcthB</p>","","","","","","","","",""
"html-keyboard-response","49","259291","0.0-8.0-0.41","61301fcb49db2f170cb02b93","650c16f0f2faf8d7a0d14c09","651c1cadd24a0d706e070b09","null","null","<p style=""font-size: 60px; font-family: BACS"">DhMtTRK</p>","","","","","","","","",""
"html-keyboard-response","50","260307","0.0-8.0-0.42","61301fcb49db2f170cb02b93","650c16f0f2faf8d7a0d14c09","651c1cadd24a0d706e070b09","null","null","<p style=""font-size: 60px; font-family: BACS"">dGLAlkmU</p>","","","","","","","","",""
"html-keyboard-response","51","261316","0.0-8.0-0.43","61301fcb49db2f170cb02b93","650c16f0f2faf8d7a0d14c09","651c1cadd24a0d706e070b09","null","null","<p style=""font-size: 60px; font-family: BACS"">hAROKcthB</p>","","","","","","","","",""
"html-keyboard-response","52","262323","0.0-8.0-0.44","61301fcb49db2f170cb02b93","650c16f0f2faf8d7a0d14c09","651c1cadd24a0d706e070b09","null","null","<p style=""font-size: 60px; font-family: BACS"">QcQAJvUdm</p>","","","","","","","","",""
"html-keyboard-response","53","263332","0.0-8.0-0.45","61301fcb49db2f170cb02b93","650c16f0f2faf8d7a0d14c09","651c1cadd24a0d706e070b09","null","null","<p style=""font-size: 60px; font-family: BACS"">ZdNmUkJdr</p>","","","","","","","","",""
"html-keyboard-response","54","264342","0.0-8.0-0.46","61301fcb49db2f170cb02b93","650c16f0f2faf8d7a0d14c09","651c1cadd24a0d706e070b09","null","null","<p style=""font-size: 60px; font-family: BACS"">NaAQdQGb</p>","","","","","","","","",""
"html-keyboard-response","55","265365","0.0-8.0-0.47","61301fcb49db2f170cb02b93","650c16f0f2faf8d7a0d14c09","651c1cadd24a0d706e070b09","null","null","<p style=""font-size: 60px; font-family: BACS"">lRCBcthB</p>","","","","","","","","",""
"html-keyboard-response","56","266372","0.0-8.0-0.48","61301fcb49db2f170cb02b93","650c16f0f2faf8d7a0d14c09","651c1cadd24a0d706e070b09","null","null","<p style=""font-size: 60px; font-family: BACS"">AYkEhTRK</p>","","","","","","","","",""
"html-keyboard-response","57","267381","0.0-8.0-0.49","61301fcb49db2f170cb02b93","650c16f0f2faf8d7a0d14c09","651c1cadd24a0d706e070b09","null","null","<p style=""font-size: 60px; font-family: BACS"">NaAQdmZb</p>","","","","","","","","",""
"html-keyboard-response","58","268392","0.0-8.0-0.50","61301fcb49db2f170cb02b93","650c16f0f2faf8d7a0d14c09","651c1cadd24a0d706e070b09","null","null","<p style=""font-size: 60px; font-family: BACS"">BdtACAPEM</p>","","","","","","","","",""
"html-keyboard-response","59","269407","0.0-8.0-0.51","61301fcb49db2f170cb02b93","650c16f0f2faf8d7a0d14c09","651c1cadd24a0d706e070b09","null","null","<p style=""font-size: 60px; font-family: BACS"">dGLAlvUdm</p>","","","","","","","","",""
"html-keyboard-response","60","270418","0.0-8.0-0.52","61301fcb49db2f170cb02b93","650c16f0f2faf8d7a0d14c09","651c1cadd24a0d706e070b09","null","null","<p style=""font-size: 60px; font-family: BACS"">hAROKdCKc</p>","","","","","","","","",""
"html-keyboard-response","61","271421","0.0-8.0-0.53","61301fcb49db2f170cb02b93","650c16f0f2faf8d7a0d14c09","651c1cadd24a0d706e070b09","null","null","<p style=""font-size: 60px; font-family: BACS"">BdtACcthB</p>","","","","","","","","",""
"html-keyboard-response","62","272422","0.0-8.0-0.54","61301fcb49db2f170cb02b93","650c16f0f2faf8d7a0d14c09","651c1cadd24a0d706e070b09","null","null","<p style=""font-size: 60px; font-family: BACS"">QcQAJmZb</p>","","","","","","","","",""
"html-keyboard-response","63","273432","0.0-8.0-0.55","61301fcb49db2f170cb02b93","650c16f0f2faf8d7a0d14c09","651c1cadd24a0d706e070b09","null","null","<p style=""font-size: 60px; font-family: BACS"">NaAQdvUdm</p>","","","","","","","","",""
"html-keyboard-response","64","274440","0.0-8.0-0.56","61301fcb49db2f170cb02b93","650c16f0f2faf8d7a0d14c09","651c1cadd24a0d706e070b09","null","null","<p style=""font-size: 60px; font-family: BACS"">lRCBYKPB</p>","","","","","","","","",""
"html-keyboard-response","65","275463","0.0-8.0-0.57","61301fcb49db2f170cb02b93","650c16f0f2faf8d7a0d14c09","651c1cadd24a0d706e070b09","null","null","<p style=""font-size: 60px; font-family: BACS"">DhMtdCKc</p>","","","","","","","","",""
"html-keyboard-response","66","276464","0.0-8.0-0.58","61301fcb49db2f170cb02b93","650c16f0f2faf8d7a0d14c09","651c1cadd24a0d706e070b09","null","null","<p style=""font-size: 60px; font-family: BACS"">MDKPAPEM</p>","","","","","","","","",""
"html-keyboard-response","67","277477","0.0-8.0-0.59","61301fcb49db2f170cb02b93","650c16f0f2faf8d7a0d14c09","651c1cadd24a0d706e070b09","null","null","<p style=""font-size: 60px; font-family: BACS"">YJLcAmZb</p>","","","","","","","","",""
"html-keyboard-response","68","278486","0.0-8.0-0.60","61301fcb49db2f170cb02b93","650c16f0f2faf8d7a0d14c09","651c1cadd24a0d706e070b09","null","null","<p style=""font-size: 60px; font-family: BACS"">ZdNmUkmU</p>","","","","","","","","",""
"html-keyboard-response","69","279489","0.0-8.0-0.61","61301fcb49db2f170cb02b93","650c16f0f2faf8d7a0d14c09","651c1cadd24a0d706e070b09","null","null","<p style=""font-size: 60px; font-family: BACS"">hAROKAPEM</p>","","","","","","","","",""
"html-keyboard-response","70","280502","0.0-8.0-0.62","61301fcb49db2f170cb02b93","650c16f0f2faf8d7a0d14c09","651c1cadd24a0d706e070b09","null","null","<p style=""font-size: 60px; font-family: BACS"">bvkrvUdm</p>","","","","","","","","",""
"html-keyboard-response","71","281506","0.0-8.0-0.63","61301fcb49db2f170cb02b93","650c16f0f2faf8d7a0d14c09","651c1cadd24a0d706e070b09","null","null","<p style=""font-size: 60px; font-family: BACS"">uauOQGb</p>","","","","","","","","",""
"html-keyboard-response","72","282522","0.0-8.0-0.64","61301fcb49db2f170cb02b93","650c16f0f2faf8d7a0d14c09","651c1cadd24a0d706e070b09","null","null","<p style=""font-size: 60px; font-family: BACS"">dGLAlkJdr</p>","","","","","","","","",""
"html-keyboard-response","73","283531","0.0-8.0-0.65","61301fcb49db2f170cb02b93","650c16f0f2faf8d7a0d14c09","651c1cadd24a0d706e070b09","null","null","<p style=""font-size: 60px; font-family: BACS"">kcdOtAPEM</p>","","","","","","","","",""
"html-keyboard-response","74","284541","0.0-8.0-0.66","61301fcb49db2f170cb02b93","650c16f0f2faf8d7a0d14c09","651c1cadd24a0d706e070b09","null","null","<p style=""font-size: 60px; font-family: BACS"">mUOcOkmU</p>","","","","","","","","",""
"html-keyboard-response","75","285547","0.0-8.0-0.67","61301fcb49db2f170cb02b93","650c16f0f2faf8d7a0d14c09","651c1cadd24a0d706e070b09","null","null","<p style=""font-size: 60px; font-family: BACS"">KAERMAPEM</p>","","","","","","","","",""
"html-keyboard-response","76","286564","0.0-8.0-0.68","61301fcb49db2f170cb02b93","650c16f0f2faf8d7a0d14c09","651c1cadd24a0d706e070b09","null","null","<p style=""font-size: 60px; font-family: BACS"">mUOcOkJdr</p>","","","","","","","","",""
"html-keyboard-response","77","287581","0.0-8.0-0.69","61301fcb49db2f170cb02b93","650c16f0f2faf8d7a0d14c09","651c1cadd24a0d706e070b09","null","null","<p style=""font-size: 60px; font-family: BACS"">MDKPTRK</p>","","","","","","","","",""
"html-keyboard-response","78","288589","0.0-8.0-0.70","61301fcb49db2f170cb02b93","650c16f0f2faf8d7a0d14c09","651c1cadd24a0d706e070b09","null","null","<p style=""font-size: 60px; font-family: BACS"">DhMtYKPB</p>","","","","","","","","",""
"html-keyboard-response","79","289591","0.0-8.0-0.71","61301fcb49db2f170cb02b93","650c16f0f2faf8d7a0d14c09","651c1cadd24a0d706e070b09","null","null","<p style=""font-size: 60px; font-family: BACS"">NbmQUmZb</p>","","","","","","","","",""
"html-keyboard-response","80","290604","0.0-8.0-0.72","61301fcb49db2f170cb02b93","650c16f0f2faf8d7a0d14c09","651c1cadd24a0d706e070b09","null","null","<p style=""font-size: 60px; font-family: BACS"">YJLcAQGb</p>","","","","","","","","",""
"html-keyboard-response","81","291616","0.0-8.0-0.73","61301fcb49db2f170cb02b93","650c16f0f2faf8d7a0d14c09","651c1cadd24a0d706e070b09","null","null","<p style=""font-size: 60px; font-family: BACS"">COtBDYKPB</p>","","","","","","","","",""
"html-keyboard-response","82","292630","0.0-8.0-0.74","61301fcb49db2f170cb02b93","650c16f0f2faf8d7a0d14c09","651c1cadd24a0d706e070b09","null","null","<p style=""font-size: 60px; font-family: BACS"">NbmQUQGb</p>","","","","","","","","",""
"html-keyboard-response","83","293646","0.0-8.0-0.75","61301fcb49db2f170cb02b93","650c16f0f2faf8d7a0d14c09","651c1cadd24a0d706e070b09","null","null","<p style=""font-size: 60px; font-family: BACS"">AZlLNkJdr</p>","","","","","","","","",""
"html-keyboard-response","84","294662","0.0-8.0-0.76","61301fcb49db2f170cb02b93","650c16f0f2faf8d7a0d14c09","651c1cadd24a0d706e070b09","null","null","<p style=""font-size: 60px; font-family: BACS"">bvkrmZb</p>","","","","","","","","",""
"html-keyboard-response","85","295671","0.0-8.0-0.77","61301fcb49db2f170cb02b93","650c16f0f2faf8d7a0d14c09","651c1cadd24a0d706e070b09","null","null","<p style=""font-size: 60px; font-family: BACS"">DhMtAPEM</p>","","","","","","","","",""
"html-keyboard-response","86","296680","0.0-8.0-0.78","61301fcb49db2f170cb02b93","650c16f0f2faf8d7a0d14c09","651c1cadd24a0d706e070b09","null","null","<p style=""font-size: 60px; font-family: BACS"">BdtACTRK</p>","","","","","","","","",""
"html-keyboard-response","87","297687","0.0-8.0-0.79","61301fcb49db2f170cb02b93","650c16f0f2faf8d7a0d14c09","651c1cadd24a0d706e070b09","null","null","<p style=""font-size: 60px; font-family: BACS"">uauOmZb</p>","","","","","","","","",""
"html-keyboard-response","88","343771","0.0-9.0","61301fcb49db2f170cb02b93","650c16f0f2faf8d7a0d14c09","651c1cadd24a0d706e070b09","46082"," ","<p>Great, you've seen the first block of words. You may now take a short break.</p>
      <p>Press the spacebar when you're ready to continue.</p>","","","","","","","","",""
"html-keyboard-response","89","344784","0.0-10.0-0.0","61301fcb49db2f170cb02b93","650c16f0f2faf8d7a0d14c09","651c1cadd24a0d706e070b09","null","null","<p style=""font-size: 60px; font-family: BACS"">DhMtdCKc</p>","","","","","","","","",""
"html-keyboard-response","90","345794","0.0-10.0-0.1","61301fcb49db2f170cb02b93","650c16f0f2faf8d7a0d14c09","651c1cadd24a0d706e070b09","null","null","<p style=""font-size: 60px; font-family: BACS"">AZlLNQGb</p>","","","","","","","","",""
"html-keyboard-response","91","346804","0.0-10.0-0.2","61301fcb49db2f170cb02b93","650c16f0f2faf8d7a0d14c09","651c1cadd24a0d706e070b09","null","null","<p style=""font-size: 60px; font-family: BACS"">lRCBYKPB</p>","","","","","","","","",""
"html-keyboard-response","92","347809","0.0-10.0-0.3","61301fcb49db2f170cb02b93","650c16f0f2faf8d7a0d14c09","651c1cadd24a0d706e070b09","null","null","<p style=""font-size: 60px; font-family: BACS"">dGLAlkmU</p>","","","","","","","","",""
"html-keyboard-response","93","348824","0.0-10.0-0.4","61301fcb49db2f170cb02b93","650c16f0f2faf8d7a0d14c09","651c1cadd24a0d706e070b09","null","null","<p style=""font-size: 60px; font-family: BACS"">kcdOtAPEM</p>","","","","","","","","",""
"html-keyboard-response","94","349832","0.0-10.0-0.5","61301fcb49db2f170cb02b93","650c16f0f2faf8d7a0d14c09","651c1cadd24a0d706e070b09","null","null","<p style=""font-size: 60px; font-family: BACS"">PYkCTRK</p>","","","","","","","","",""
"html-keyboard-response","95","350849","0.0-10.0-0.6","61301fcb49db2f170cb02b93","650c16f0f2faf8d7a0d14c09","651c1cadd24a0d706e070b09","null","null","<p style=""font-size: 60px; font-family: BACS"">YJLcAQGb</p>","","","","","","","","",""
"html-keyboard-response","96","351859","0.0-10.0-0.7","61301fcb49db2f170cb02b93","650c16f0f2faf8d7a0d14c09","651c1cadd24a0d706e070b09","null","null","<p style=""font-size: 60px; font-family: BACS"">COtBDYKPB</p>","","","","","","","","",""
"html-keyboard-response","97","352863","0.0-10.0-0.8","61301fcb49db2f170cb02b93","650c16f0f2faf8d7a0d14c09","651c1cadd24a0d706e070b09","null","null","<p style=""font-size: 60px; font-family: BACS"">NaAQdvUdm</p>","","","","","","","","",""
"html-keyboard-response","98","353875","0.0-10.0-0.9","61301fcb49db2f170cb02b93","650c16f0f2faf8d7a0d14c09","651c1cadd24a0d706e070b09","null","null","<p style=""font-size: 60px; font-family: BACS"">dGLAlQGb</p>","","","","","","","","",""
"html-keyboard-response","99","354884","0.0-10.0-0.10","61301fcb49db2f170cb02b93","650c16f0f2faf8d7a0d14c09","651c1cadd24a0d706e070b09","null","null","<p style=""font-size: 60px; font-family: BACS"">MDKPcthB</p>","","","","","","","","",""
"html-keyboard-response","100","355891","0.0-10.0-0.11","61301fcb49db2f170cb02b93","650c16f0f2faf8d7a0d14c09","651c1cadd24a0d706e070b09","null","null","<p style=""font-size: 60px; font-family: BACS"">KAERMdCKc</p>","","","","","","","","",""
"html-keyboard-response","101","356908","0.0-10.0-0.12","61301fcb49db2f170cb02b93","650c16f0f2faf8d7a0d14c09","651c1cadd24a0d706e070b09","null","null","<p style=""font-size: 60px; font-family: BACS"">AYkEhYKPB</p>","","","","","","","","",""
"html-keyboard-response","102","357923","0.0-10.0-0.13","61301fcb49db2f170cb02b93","650c16f0f2faf8d7a0d14c09","651c1cadd24a0d706e070b09","null","null","<p style=""font-size: 60px; font-family: BACS"">PYkCcthB</p>","","","","","","","","",""
"html-keyboard-response","103","358927","0.0-10.0-0.14","61301fcb49db2f170cb02b93","650c16f0f2faf8d7a0d14c09","651c1cadd24a0d706e070b09","null","null","<p style=""font-size: 60px; font-family: BACS"">DhMtAPEM</p>","","","","","","","","",""
"html-keyboard-response","104","359934","0.0-10.0-0.15","61301fcb49db2f170cb02b93","650c16f0f2faf8d7a0d14c09","651c1cadd24a0d706e070b09","null","null","<p style=""font-size: 60px; font-family: BACS"">AZlLNkmU</p>","","","","","","","","",""
"html-keyboard-response","105","360942","0.0-10.0-0.16","61301fcb49db2f170cb02b93","650c16f0f2faf8d7a0d14c09","651c1cadd24a0d706e070b09","null","null","<p style=""font-size: 60px; font-family: BACS"">AYkEhcthB</p>","","","","","","","","",""
"html-keyboard-response","106","361961","0.0-10.0-0.17","61301fcb49db2f170cb02b93","650c16f0f2faf8d7a0d14c09","651c1cadd24a0d706e070b09","null","null","<p style=""font-size: 60px; font-family: BACS"">dGLAlvUdm</p>","","","","","","","","",""
"html-keyboard-response","107","362976","0.0-10.0-0.18","61301fcb49db2f170cb02b93","650c16f0f2faf8d7a0d14c09","651c1cadd24a0d706e070b09","null","null","<p style=""font-size: 60px; font-family: BACS"">uauOmZb</p>","","","","","","","","",""
"html-keyboard-response","108","363983","0.0-10.0-0.19","61301fcb49db2f170cb02b93","650c16f0f2faf8d7a0d14c09","651c1cadd24a0d706e070b09","null","null","<p style=""font-size: 60px; font-family: BACS"">kcdOtYKPB</p>","","","","","","","","",""
"html-keyboard-response","109","364989","0.0-10.0-0.20","61301fcb49db2f170cb02b93","650c16f0f2faf8d7a0d14c09","651c1cadd24a0d706e070b09","null","null","<p style=""font-size: 60px; font-family: BACS"">ZdNmUkmU</p>","","","","","","","","",""
"html-keyboard-response","110","365995","0.0-10.0-0.21","61301fcb49db2f170cb02b93","650c16f0f2faf8d7a0d14c09","651c1cadd24a0d706e070b09","null","null","<p style=""font-size: 60px; font-family: BACS"">QcQAJkJdr</p>","","","","","","","","",""
"html-keyboard-response","111","367002","0.0-10.0-0.22","61301fcb49db2f170cb02b93","650c16f0f2faf8d7a0d14c09","651c1cadd24a0d706e070b09","null","null","<p style=""font-size: 60px; font-family: BACS"">COtBDcthB</p>","","","","","","","","",""
"html-keyboard-response","112","368013","0.0-10.0-0.23","61301fcb49db2f170cb02b93","650c16f0f2faf8d7a0d14c09","651c1cadd24a0d706e070b09","null","null","<p style=""font-size: 60px; font-family: BACS"">PYkCAPEM</p>","","","","","","","","",""
"html-keyboard-response","113","369022","0.0-10.0-0.24","61301fcb49db2f170cb02b93","650c16f0f2faf8d7a0d14c09","651c1cadd24a0d706e070b09","null","null","<p style=""font-size: 60px; font-family: BACS"">NbmQUmZb</p>","","","","","","","","",""
"html-keyboard-response","114","370032","0.0-10.0-0.25","61301fcb49db2f170cb02b93","650c16f0f2faf8d7a0d14c09","651c1cadd24a0d706e070b09","null","null","<p style=""font-size: 60px; font-family: BACS"">bvkrvUdm</p>","","","","","","","","",""
"html-keyboard-response","115","371043","0.0-10.0-0.26","61301fcb49db2f170cb02b93","650c16f0f2faf8d7a0d14c09","651c1cadd24a0d706e070b09","null","null","<p style=""font-size: 60px; font-family: BACS"">ZdNmUkJdr</p>","","","","","","","","",""
"html-keyboard-response","116","372049","0.0-10.0-0.27","61301fcb49db2f170cb02b93","650c16f0f2faf8d7a0d14c09","651c1cadd24a0d706e070b09","null","null","<p style=""font-size: 60px; font-family: BACS"">MDKPTRK</p>","","","","","","","","",""
"html-keyboard-response","117","373057","0.0-10.0-0.28","61301fcb49db2f170cb02b93","650c16f0f2faf8d7a0d14c09","651c1cadd24a0d706e070b09","null","null","<p style=""font-size: 60px; font-family: BACS"">QcQAJvUdm</p>","","","","","","","","",""
"html-keyboard-response","118","374068","0.0-10.0-0.29","61301fcb49db2f170cb02b93","650c16f0f2faf8d7a0d14c09","651c1cadd24a0d706e070b09","null","null","<p style=""font-size: 60px; font-family: BACS"">PYkCYKPB</p>","","","","","","","","",""
"html-keyboard-response","119","375071","0.0-10.0-0.30","61301fcb49db2f170cb02b93","650c16f0f2faf8d7a0d14c09","651c1cadd24a0d706e070b09","null","null","<p style=""font-size: 60px; font-family: BACS"">MDKPdCKc</p>","","","","","","","","",""
"html-keyboard-response","120","376074","0.0-10.0-0.31","61301fcb49db2f170cb02b93","650c16f0f2faf8d7a0d14c09","651c1cadd24a0d706e070b09","null","null","<p style=""font-size: 60px; font-family: BACS"">hAROKYKPB</p>","","","","","","","","",""
"html-keyboard-response","121","377081","0.0-10.0-0.32","61301fcb49db2f170cb02b93","650c16f0f2faf8d7a0d14c09","651c1cadd24a0d706e070b09","null","null","<p style=""font-size: 60px; font-family: BACS"">lRCBTRK</p>","","","","","","","","",""
"html-keyboard-response","122","378097","0.0-10.0-0.33","61301fcb49db2f170cb02b93","650c16f0f2faf8d7a0d14c09","651c1cadd24a0d706e070b09","null","null","<p style=""font-size: 60px; font-family: BACS"">YJLcAmZb</p>","","","","","","","","",""
"html-keyboard-response","123","379098","0.0-10.0-0.34","61301fcb49db2f170cb02b93","650c16f0f2faf8d7a0d14c09","651c1cadd24a0d706e070b09","null","null","<p style=""font-size: 60px; font-family: BACS"">KAERMTRK</p>","","","","","","","","",""
"html-keyboard-response","124","380109","0.0-10.0-0.35","61301fcb49db2f170cb02b93","650c16f0f2faf8d7a0d14c09","651c1cadd24a0d706e070b09","null","null","<p style=""font-size: 60px; font-family: BACS"">mUOcOvUdm</p>","","","","","","","","",""
"html-keyboard-response","125","381113","0.0-10.0-0.36","61301fcb49db2f170cb02b93","650c16f0f2faf8d7a0d14c09","651c1cadd24a0d706e070b09","null","null","<p style=""font-size: 60px; font-family: BACS"">hAROKAPEM</p>","","","","","","","","",""
"html-keyboard-response","126","382132","0.0-10.0-0.37","61301fcb49db2f170cb02b93","650c16f0f2faf8d7a0d14c09","651c1cadd24a0d706e070b09","null","null","<p style=""font-size: 60px; font-family: BACS"">ZdNmUQGb</p>","","","","","","","","",""
"html-keyboard-response","127","383142","0.0-10.0-0.38","61301fcb49db2f170cb02b93","650c16f0f2faf8d7a0d14c09","651c1cadd24a0d706e070b09","null","null","<p style=""font-size: 60px; font-family: BACS"">QcQAJkmU</p>","","","","","","","","",""
"html-keyboard-response","128","384163","0.0-10.0-0.39","61301fcb49db2f170cb02b93","650c16f0f2faf8d7a0d14c09","651c1cadd24a0d706e070b09","null","null","<p style=""font-size: 60px; font-family: BACS"">BdtACAPEM</p>","","","","","","","","",""
"html-keyboard-response","129","385172","0.0-10.0-0.40","61301fcb49db2f170cb02b93","650c16f0f2faf8d7a0d14c09","651c1cadd24a0d706e070b09","null","null","<p style=""font-size: 60px; font-family: BACS"">uauOvUdm</p>","","","","","","","","",""
"html-keyboard-response","130","386182","0.0-10.0-0.41","61301fcb49db2f170cb02b93","650c16f0f2faf8d7a0d14c09","651c1cadd24a0d706e070b09","null","null","<p style=""font-size: 60px; font-family: BACS"">kcdOtTRK</p>","","","","","","","","",""
"html-keyboard-response","131","387190","0.0-10.0-0.42","61301fcb49db2f170cb02b93","650c16f0f2faf8d7a0d14c09","651c1cadd24a0d706e070b09","null","null","<p style=""font-size: 60px; font-family: BACS"">KAERMYKPB</p>","","","","","","","","",""
"html-keyboard-response","132","388202","0.0-10.0-0.43","61301fcb49db2f170cb02b93","650c16f0f2faf8d7a0d14c09","651c1cadd24a0d706e070b09","null","null","<p style=""font-size: 60px; font-family: BACS"">lRCBcthB</p>","","","","","","","","",""
"html-keyboard-response","133","389207","0.0-10.0-0.44","61301fcb49db2f170cb02b93","650c16f0f2faf8d7a0d14c09","651c1cadd24a0d706e070b09","null","null","<p style=""font-size: 60px; font-family: BACS"">mUOcOmZb</p>","","","","","","","","",""
"html-keyboard-response","134","390209","0.0-10.0-0.45","61301fcb49db2f170cb02b93","650c16f0f2faf8d7a0d14c09","651c1cadd24a0d706e070b09","null","null","<p style=""font-size: 60px; font-family: BACS"">NbmQUQGb</p>","","","","","","","","",""
"html-keyboard-response","135","391214","0.0-10.0-0.46","61301fcb49db2f170cb02b93","650c16f0f2faf8d7a0d14c09","651c1cadd24a0d706e070b09","null","null","<p style=""font-size: 60px; font-family: BACS"">AYkEhdCKc</p>","","","","","","","","",""
"html-keyboard-response","136","392232","0.0-10.0-0.47","61301fcb49db2f170cb02b93","650c16f0f2faf8d7a0d14c09","651c1cadd24a0d706e070b09","null","null","<p style=""font-size: 60px; font-family: BACS"">YJLcAkJdr</p>","","","","","","","","",""
"html-keyboard-response","137","393233","0.0-10.0-0.48","61301fcb49db2f170cb02b93","650c16f0f2faf8d7a0d14c09","651c1cadd24a0d706e070b09","null","null","<p style=""font-size: 60px; font-family: BACS"">hAROKcthB</p>","","","","","","","","",""
"html-keyboard-response","138","394239","0.0-10.0-0.49","61301fcb49db2f170cb02b93","650c16f0f2faf8d7a0d14c09","651c1cadd24a0d706e070b09","null","null","<p style=""font-size: 60px; font-family: BACS"">QcQAJmZb</p>","","","","","","","","",""
"html-keyboard-response","139","395245","0.0-10.0-0.50","61301fcb49db2f170cb02b93","650c16f0f2faf8d7a0d14c09","651c1cadd24a0d706e070b09","null","null","<p style=""font-size: 60px; font-family: BACS"">BdtACdCKc</p>","","","","","","","","",""
"html-keyboard-response","140","396260","0.0-10.0-0.51","61301fcb49db2f170cb02b93","650c16f0f2faf8d7a0d14c09","651c1cadd24a0d706e070b09","null","null","<p style=""font-size: 60px; font-family: BACS"">NbmQUvUdm</p>","","","","","","","","",""
"html-keyboard-response","141","397276","0.0-10.0-0.52","61301fcb49db2f170cb02b93","650c16f0f2faf8d7a0d14c09","651c1cadd24a0d706e070b09","null","null","<p style=""font-size: 60px; font-family: BACS"">BdtACTRK</p>","","","","","","","","",""
"html-keyboard-response","142","398281","0.0-10.0-0.53","61301fcb49db2f170cb02b93","650c16f0f2faf8d7a0d14c09","651c1cadd24a0d706e070b09","null","null","<p style=""font-size: 60px; font-family: BACS"">bvkrQGb</p>","","","","","","","","",""
"html-keyboard-response","143","399283","0.0-10.0-0.54","61301fcb49db2f170cb02b93","650c16f0f2faf8d7a0d14c09","651c1cadd24a0d706e070b09","null","null","<p style=""font-size: 60px; font-family: BACS"">NaAQdmZb</p>","","","","","","","","",""
"html-keyboard-response","144","400292","0.0-10.0-0.55","61301fcb49db2f170cb02b93","650c16f0f2faf8d7a0d14c09","651c1cadd24a0d706e070b09","null","null","<p style=""font-size: 60px; font-family: BACS"">AYkEhTRK</p>","","","","","","","","",""
"html-keyboard-response","145","401304","0.0-10.0-0.56","61301fcb49db2f170cb02b93","650c16f0f2faf8d7a0d14c09","651c1cadd24a0d706e070b09","null","null","<p style=""font-size: 60px; font-family: BACS"">dGLAlkJdr</p>","","","","","","","","",""
"html-keyboard-response","146","402312","0.0-10.0-0.57","61301fcb49db2f170cb02b93","650c16f0f2faf8d7a0d14c09","651c1cadd24a0d706e070b09","null","null","<p style=""font-size: 60px; font-family: BACS"">BdtACcthB</p>","","","","","","","","",""
"html-keyboard-response","147","403318","0.0-10.0-0.58","61301fcb49db2f170cb02b93","650c16f0f2faf8d7a0d14c09","651c1cadd24a0d706e070b09","null","null","<p style=""font-size: 60px; font-family: BACS"">bvkrkmU</p>","","","","","","","","",""
"html-keyboard-response","148","404322","0.0-10.0-0.59","61301fcb49db2f170cb02b93","650c16f0f2faf8d7a0d14c09","651c1cadd24a0d706e070b09","null","null","<p style=""font-size: 60px; font-family: BACS"">ZdNmUmZb</p>","","","","","","","","",""
"html-keyboard-response","149","405327","0.0-10.0-0.60","61301fcb49db2f170cb02b93","650c16f0f2faf8d7a0d14c09","651c1cadd24a0d706e070b09","null","null","<p style=""font-size: 60px; font-family: BACS"">uauOQGb</p>","","","","","","","","",""
"html-keyboard-response","150","406331","0.0-10.0-0.61","61301fcb49db2f170cb02b93","650c16f0f2faf8d7a0d14c09","651c1cadd24a0d706e070b09","null","null","<p style=""font-size: 60px; font-family: BACS"">MDKPAPEM</p>","","","","","","","","",""
"html-keyboard-response","151","407347","0.0-10.0-0.62","61301fcb49db2f170cb02b93","650c16f0f2faf8d7a0d14c09","651c1cadd24a0d706e070b09","null","null","<p style=""font-size: 60px; font-family: BACS"">AZlLNvUdm</p>","","","","","","","","",""
"html-keyboard-response","152","408361","0.0-10.0-0.63","61301fcb49db2f170cb02b93","650c16f0f2faf8d7a0d14c09","651c1cadd24a0d706e070b09","null","null","<p style=""font-size: 60px; font-family: BACS"">mUOcOkJdr</p>","","","","","","","","",""
"html-keyboard-response","153","409372","0.0-10.0-0.64","61301fcb49db2f170cb02b93","650c16f0f2faf8d7a0d14c09","651c1cadd24a0d706e070b09","null","null","<p style=""font-size: 60px; font-family: BACS"">KAERMAPEM</p>","","","","","","","","",""
"html-keyboard-response","154","410379","0.0-10.0-0.65","61301fcb49db2f170cb02b93","650c16f0f2faf8d7a0d14c09","651c1cadd24a0d706e070b09","null","null","<p style=""font-size: 60px; font-family: BACS"">DhMtTRK</p>","","","","","","","","",""
"html-keyboard-response","155","411381","0.0-10.0-0.66","61301fcb49db2f170cb02b93","650c16f0f2faf8d7a0d14c09","651c1cadd24a0d706e070b09","null","null","<p style=""font-size: 60px; font-family: BACS"">YJLcAkmU</p>","","","","","","","","",""
"html-keyboard-response","156","412388","0.0-10.0-0.67","61301fcb49db2f170cb02b93","650c16f0f2faf8d7a0d14c09","651c1cadd24a0d706e070b09","null","null","<p style=""font-size: 60px; font-family: BACS"">lRCBdCKc</p>","","","","","","","","",""
"html-keyboard-response","157","413391","0.0-10.0-0.68","61301fcb49db2f170cb02b93","650c16f0f2faf8d7a0d14c09","651c1cadd24a0d706e070b09","null","null","<p style=""font-size: 60px; font-family: BACS"">NaAQdQGb</p>","","","","","","","","",""
"html-keyboard-response","158","414395","0.0-10.0-0.69","61301fcb49db2f170cb02b93","650c16f0f2faf8d7a0d14c09","651c1cadd24a0d706e070b09","null","null","<p style=""font-size: 60px; font-family: BACS"">COtBDAPEM</p>","","","","","","","","",""
"html-keyboard-response","159","415404","0.0-10.0-0.70","61301fcb49db2f170cb02b93","650c16f0f2faf8d7a0d14c09","651c1cadd24a0d706e070b09","null","null","<p style=""font-size: 60px; font-family: BACS"">mUOcOkmU</p>","","","","","","","","",""
"html-keyboard-response","160","416416","0.0-10.0-0.71","61301fcb49db2f170cb02b93","650c16f0f2faf8d7a0d14c09","651c1cadd24a0d706e070b09","null","null","<p style=""font-size: 60px; font-family: BACS"">COtBDdCKc</p>","","","","","","","","",""
"html-keyboard-response","161","417418","0.0-10.0-0.72","61301fcb49db2f170cb02b93","650c16f0f2faf8d7a0d14c09","651c1cadd24a0d706e070b09","null","null","<p style=""font-size: 60px; font-family: BACS"">NbmQUkJdr</p>","","","","","","","","",""
"html-keyboard-response","162","418426","0.0-10.0-0.73","61301fcb49db2f170cb02b93","650c16f0f2faf8d7a0d14c09","651c1cadd24a0d706e070b09","null","null","<p style=""font-size: 60px; font-family: BACS"">bvkrmZb</p>","","","","","","","","",""
"html-keyboard-response","163","419431","0.0-10.0-0.74","61301fcb49db2f170cb02b93","650c16f0f2faf8d7a0d14c09","651c1cadd24a0d706e070b09","null","null","<p style=""font-size: 60px; font-family: BACS"">DhMtYKPB</p>","","","","","","","","",""
"html-keyboard-response","164","420439","0.0-10.0-0.75","61301fcb49db2f170cb02b93","650c16f0f2faf8d7a0d14c09","651c1cadd24a0d706e070b09","null","null","<p style=""font-size: 60px; font-family: BACS"">kcdOtcthB</p>","","","","","","","","",""
"html-keyboard-response","165","421447","0.0-10.0-0.76","61301fcb49db2f170cb02b93","650c16f0f2faf8d7a0d14c09","651c1cadd24a0d706e070b09","null","null","<p style=""font-size: 60px; font-family: BACS"">NaAQdkmU</p>","","","","","","","","",""
"html-keyboard-response","166","422463","0.0-10.0-0.77","61301fcb49db2f170cb02b93","650c16f0f2faf8d7a0d14c09","651c1cadd24a0d706e070b09","null","null","<p style=""font-size: 60px; font-family: BACS"">uauOkJdr</p>","","","","","","","","",""
"html-keyboard-response","167","423473","0.0-10.0-0.78","61301fcb49db2f170cb02b93","650c16f0f2faf8d7a0d14c09","651c1cadd24a0d706e070b09","null","null","<p style=""font-size: 60px; font-family: BACS"">hAROKdCKc</p>","","","","","","","","",""
"html-keyboard-response","168","424477","0.0-10.0-0.79","61301fcb49db2f170cb02b93","650c16f0f2faf8d7a0d14c09","651c1cadd24a0d706e070b09","null","null","<p style=""font-size: 60px; font-family: BACS"">AZlLNkJdr</p>","","","","","","","","",""
"html-keyboard-response","169","453482","0.0-11.0","61301fcb49db2f170cb02b93","650c16f0f2faf8d7a0d14c09","651c1cadd24a0d706e070b09","29004"," ","<p>Great, you've seen the second block of words. You may now take a short break.</p>
      <p>Press the spacebar when you're ready to continue.</p>","","","","","","","","",""
"html-keyboard-response","170","454489","0.0-12.0-0.0","61301fcb49db2f170cb02b93","650c16f0f2faf8d7a0d14c09","651c1cadd24a0d706e070b09","null","null","<p style=""font-size: 60px; font-family: BACS"">AZlLNkmU</p>","","","","","","","","",""
"html-keyboard-response","171","455502","0.0-12.0-0.1","61301fcb49db2f170cb02b93","650c16f0f2faf8d7a0d14c09","651c1cadd24a0d706e070b09","null","null","<p style=""font-size: 60px; font-family: BACS"">MDKPcthB</p>","","","","","","","","",""
"html-keyboard-response","172","456509","0.0-12.0-0.2","61301fcb49db2f170cb02b93","650c16f0f2faf8d7a0d14c09","651c1cadd24a0d706e070b09","null","null","<p style=""font-size: 60px; font-family: BACS"">ZdNmUQGb</p>","","","","","","","","",""
"html-keyboard-response","173","457513","0.0-12.0-0.3","61301fcb49db2f170cb02b93","650c16f0f2faf8d7a0d14c09","651c1cadd24a0d706e070b09","null","null","<p style=""font-size: 60px; font-family: BACS"">NbmQUvUdm</p>","","","","","","","","",""
"html-keyboard-response","174","458519","0.0-12.0-0.4","61301fcb49db2f170cb02b93","650c16f0f2faf8d7a0d14c09","651c1cadd24a0d706e070b09","null","null","<p style=""font-size: 60px; font-family: BACS"">COtBDAPEM</p>","","","","","","","","",""
"html-keyboard-response","175","459521","0.0-12.0-0.5","61301fcb49db2f170cb02b93","650c16f0f2faf8d7a0d14c09","651c1cadd24a0d706e070b09","null","null","<p style=""font-size: 60px; font-family: BACS"">KAERMTRK</p>","","","","","","","","",""
"html-keyboard-response","176","460537","0.0-12.0-0.6","61301fcb49db2f170cb02b93","650c16f0f2faf8d7a0d14c09","651c1cadd24a0d706e070b09","null","null","<p style=""font-size: 60px; font-family: BACS"">NaAQdkmU</p>","","","","","","","","",""
"html-keyboard-response","177","461545","0.0-12.0-0.7","61301fcb49db2f170cb02b93","650c16f0f2faf8d7a0d14c09","651c1cadd24a0d706e070b09","null","null","<p style=""font-size: 60px; font-family: BACS"">dGLAlvUdm</p>","","","","","","","","",""
"html-keyboard-response","178","462559","0.0-12.0-0.8","61301fcb49db2f170cb02b93","650c16f0f2faf8d7a0d14c09","651c1cadd24a0d706e070b09","null","null","<p style=""font-size: 60px; font-family: BACS"">ZdNmUmZb</p>","","","","","","","","",""
"html-keyboard-response","179","463569","0.0-12.0-0.9","61301fcb49db2f170cb02b93","650c16f0f2faf8d7a0d14c09","651c1cadd24a0d706e070b09","null","null","<p style=""font-size: 60px; font-family: BACS"">PYkCYKPB</p>","","","","","","","","",""
"html-keyboard-response","180","464583","0.0-12.0-0.10","61301fcb49db2f170cb02b93","650c16f0f2faf8d7a0d14c09","651c1cadd24a0d706e070b09","null","null","<p style=""font-size: 60px; font-family: BACS"">ZdNmUkJdr</p>","","","","","","","","",""
"html-keyboard-response","181","465589","0.0-12.0-0.11","61301fcb49db2f170cb02b93","650c16f0f2faf8d7a0d14c09","651c1cadd24a0d706e070b09","null","null","<p style=""font-size: 60px; font-family: BACS"">YJLcAmZb</p>","","","","","","","","",""
"html-keyboard-response","182","466592","0.0-12.0-0.12","61301fcb49db2f170cb02b93","650c16f0f2faf8d7a0d14c09","651c1cadd24a0d706e070b09","null","null","<p style=""font-size: 60px; font-family: BACS"">dGLAlkJdr</p>","","","","","","","","",""
"html-keyboard-response","183","467610","0.0-12.0-0.13","61301fcb49db2f170cb02b93","650c16f0f2faf8d7a0d14c09","651c1cadd24a0d706e070b09","null","null","<p style=""font-size: 60px; font-family: BACS"">NbmQUQGb</p>","","","","","","","","",""
"html-keyboard-response","184","468612","0.0-12.0-0.14","61301fcb49db2f170cb02b93","650c16f0f2faf8d7a0d14c09","651c1cadd24a0d706e070b09","null","null","<p style=""font-size: 60px; font-family: BACS"">QcQAJvUdm</p>","","","","","","","","",""
"html-keyboard-response","185","469631","0.0-12.0-0.15","61301fcb49db2f170cb02b93","650c16f0f2faf8d7a0d14c09","651c1cadd24a0d706e070b09","null","null","<p style=""font-size: 60px; font-family: BACS"">hAROKAPEM</p>","","","","","","","","",""
"html-keyboard-response","186","470641","0.0-12.0-0.16","61301fcb49db2f170cb02b93","650c16f0f2faf8d7a0d14c09","651c1cadd24a0d706e070b09","null","null","<p style=""font-size: 60px; font-family: BACS"">MDKPdCKc</p>","","","","","","","","",""
"html-keyboard-response","187","471645","0.0-12.0-0.17","61301fcb49db2f170cb02b93","650c16f0f2faf8d7a0d14c09","651c1cadd24a0d706e070b09","null","null","<p style=""font-size: 60px; font-family: BACS"">bvkrQGb</p>","","","","","","","","",""
"html-keyboard-response","188","472659","0.0-12.0-0.18","61301fcb49db2f170cb02b93","650c16f0f2faf8d7a0d14c09","651c1cadd24a0d706e070b09","null","null","<p style=""font-size: 60px; font-family: BACS"">BdtACcthB</p>","","","","","","","","",""
"html-keyboard-response","189","473668","0.0-12.0-0.19","61301fcb49db2f170cb02b93","650c16f0f2faf8d7a0d14c09","651c1cadd24a0d706e070b09","null","null","<p style=""font-size: 60px; font-family: BACS"">DhMtTRK</p>","","","","","","","","",""
"html-keyboard-response","190","474684","0.0-12.0-0.20","61301fcb49db2f170cb02b93","650c16f0f2faf8d7a0d14c09","651c1cadd24a0d706e070b09","null","null","<p style=""font-size: 60px; font-family: BACS"">mUOcOmZb</p>","","","","","","","","",""
"html-keyboard-response","191","475691","0.0-12.0-0.21","61301fcb49db2f170cb02b93","650c16f0f2faf8d7a0d14c09","651c1cadd24a0d706e070b09","null","null","<p style=""font-size: 60px; font-family: BACS"">PYkCTRK</p>","","","","","","","","",""
"html-keyboard-response","192","476697","0.0-12.0-0.22","61301fcb49db2f170cb02b93","650c16f0f2faf8d7a0d14c09","651c1cadd24a0d706e070b09","null","null","<p style=""font-size: 60px; font-family: BACS"">uauOQGb</p>","","","","","","","","",""
"html-keyboard-response","193","477699","0.0-12.0-0.23","61301fcb49db2f170cb02b93","650c16f0f2faf8d7a0d14c09","651c1cadd24a0d706e070b09","null","null","<p style=""font-size: 60px; font-family: BACS"">PYkCAPEM</p>","","","","","","","","",""
"html-keyboard-response","194","478717","0.0-12.0-0.24","61301fcb49db2f170cb02b93","650c16f0f2faf8d7a0d14c09","651c1cadd24a0d706e070b09","null","null","<p style=""font-size: 60px; font-family: BACS"">AZlLNkJdr</p>","","","","","","","","",""
"html-keyboard-response","195","479730","0.0-12.0-0.25","61301fcb49db2f170cb02b93","650c16f0f2faf8d7a0d14c09","651c1cadd24a0d706e070b09","null","null","<p style=""font-size: 60px; font-family: BACS"">DhMtYKPB</p>","","","","","","","","",""
"html-keyboard-response","196","480738","0.0-12.0-0.26","61301fcb49db2f170cb02b93","650c16f0f2faf8d7a0d14c09","651c1cadd24a0d706e070b09","null","null","<p style=""font-size: 60px; font-family: BACS"">dGLAlkmU</p>","","","","","","","","",""
"html-keyboard-response","197","481742","0.0-12.0-0.27","61301fcb49db2f170cb02b93","650c16f0f2faf8d7a0d14c09","651c1cadd24a0d706e070b09","null","null","<p style=""font-size: 60px; font-family: BACS"">AZlLNQGb</p>","","","","","","","","",""
"html-keyboard-response","198","482748","0.0-12.0-0.28","61301fcb49db2f170cb02b93","650c16f0f2faf8d7a0d14c09","651c1cadd24a0d706e070b09","null","null","<p style=""font-size: 60px; font-family: BACS"">KAERMYKPB</p>","","","","","","","","",""
"html-keyboard-response","199","483757","0.0-12.0-0.29","61301fcb49db2f170cb02b93","650c16f0f2faf8d7a0d14c09","651c1cadd24a0d706e070b09","null","null","<p style=""font-size: 60px; font-family: BACS"">bvkrvUdm</p>","","","","","","","","",""
"html-keyboard-response","200","484773","0.0-12.0-0.30","61301fcb49db2f170cb02b93","650c16f0f2faf8d7a0d14c09","651c1cadd24a0d706e070b09","null","null","<p style=""font-size: 60px; font-family: BACS"">MDKPTRK</p>","","","","","","","","",""
"html-keyboard-response","201","485775","0.0-12.0-0.31","61301fcb49db2f170cb02b93","650c16f0f2faf8d7a0d14c09","651c1cadd24a0d706e070b09","null","null","<p style=""font-size: 60px; font-family: BACS"">NaAQdmZb</p>","","","","","","","","",""
"html-keyboard-response","202","486786","0.0-12.0-0.32","61301fcb49db2f170cb02b93","650c16f0f2faf8d7a0d14c09","651c1cadd24a0d706e070b09","null","null","<p style=""font-size: 60px; font-family: BACS"">kcdOtYKPB</p>","","","","","","","","",""
"html-keyboard-response","203","487792","0.0-12.0-0.33","61301fcb49db2f170cb02b93","650c16f0f2faf8d7a0d14c09","651c1cadd24a0d706e070b09","null","null","<p style=""font-size: 60px; font-family: BACS"">KAERMdCKc</p>","","","","","","","","",""
"html-keyboard-response","204","488794","0.0-12.0-0.34","61301fcb49db2f170cb02b93","650c16f0f2faf8d7a0d14c09","651c1cadd24a0d706e070b09","null","null","<p style=""font-size: 60px; font-family: BACS"">QcQAJkJdr</p>","","","","","","","","",""
"html-keyboard-response","205","489809","0.0-12.0-0.35","61301fcb49db2f170cb02b93","650c16f0f2faf8d7a0d14c09","651c1cadd24a0d706e070b09","null","null","<p style=""font-size: 60px; font-family: BACS"">dGLAlQGb</p>","","","","","","","","",""
"html-keyboard-response","206","490818","0.0-12.0-0.36","61301fcb49db2f170cb02b93","650c16f0f2faf8d7a0d14c09","651c1cadd24a0d706e070b09","null","null","<p style=""font-size: 60px; font-family: BACS"">PYkCcthB</p>","","","","","","","","",""
"html-keyboard-response","207","491821","0.0-12.0-0.37","61301fcb49db2f170cb02b93","650c16f0f2faf8d7a0d14c09","651c1cadd24a0d706e070b09","null","null","<p style=""font-size: 60px; font-family: BACS"">kcdOtAPEM</p>","","","","","","","","",""
"html-keyboard-response","208","492833","0.0-12.0-0.38","61301fcb49db2f170cb02b93","650c16f0f2faf8d7a0d14c09","651c1cadd24a0d706e070b09","null","null","<p style=""font-size: 60px; font-family: BACS"">bvkrmZb</p>","","","","","","","","",""
"html-keyboard-response","209","493835","0.0-12.0-0.39","61301fcb49db2f170cb02b93","650c16f0f2faf8d7a0d14c09","651c1cadd24a0d706e070b09","null","null","<p style=""font-size: 60px; font-family: BACS"">KAERMAPEM</p>","","","","","","","","",""
"html-keyboard-response","210","494858","0.0-12.0-0.40","61301fcb49db2f170cb02b93","650c16f0f2faf8d7a0d14c09","651c1cadd24a0d706e070b09","null","null","<p style=""font-size: 60px; font-family: BACS"">uauOmZb</p>","","","","","","","","",""
"html-keyboard-response","211","495861","0.0-12.0-0.41","61301fcb49db2f170cb02b93","650c16f0f2faf8d7a0d14c09","651c1cadd24a0d706e070b09","null","null","<p style=""font-size: 60px; font-family: BACS"">hAROKcthB</p>","","","","","","","","",""
"html-keyboard-response","212","496862","0.0-12.0-0.42","61301fcb49db2f170cb02b93","650c16f0f2faf8d7a0d14c09","651c1cadd24a0d706e070b09","null","null","<p style=""font-size: 60px; font-family: BACS"">BdtACTRK</p>","","","","","","","","",""
"html-keyboard-response","213","497866","0.0-12.0-0.43","61301fcb49db2f170cb02b93","650c16f0f2faf8d7a0d14c09","651c1cadd24a0d706e070b09","null","null","<p style=""font-size: 60px; font-family: BACS"">DhMtdCKc</p>","","","","","","","","",""
"html-keyboard-response","214","498879","0.0-12.0-0.44","61301fcb49db2f170cb02b93","650c16f0f2faf8d7a0d14c09","651c1cadd24a0d706e070b09","null","null","<p style=""font-size: 60px; font-family: BACS"">kcdOtTRK</p>","","","","","","","","",""
"html-keyboard-response","215","499888","0.0-12.0-0.45","61301fcb49db2f170cb02b93","650c16f0f2faf8d7a0d14c09","651c1cadd24a0d706e070b09","null","null","<p style=""font-size: 60px; font-family: BACS"">COtBDYKPB</p>","","","","","","","","",""
"html-keyboard-response","216","500892","0.0-12.0-0.46","61301fcb49db2f170cb02b93","650c16f0f2faf8d7a0d14c09","651c1cadd24a0d706e070b09","null","null","<p style=""font-size: 60px; font-family: BACS"">kcdOtcthB</p>","","","","","","","","",""
"html-keyboard-response","217","501904","0.0-12.0-0.47","61301fcb49db2f170cb02b93","650c16f0f2faf8d7a0d14c09","651c1cadd24a0d706e070b09","null","null","<p style=""font-size: 60px; font-family: BACS"">AYkEhYKPB</p>","","","","","","","","",""
"html-keyboard-response","218","502906","0.0-12.0-0.48","61301fcb49db2f170cb02b93","650c16f0f2faf8d7a0d14c09","651c1cadd24a0d706e070b09","null","null","<p style=""font-size: 60px; font-family: BACS"">uauOvUdm</p>","","","","","","","","",""
"html-keyboard-response","219","503922","0.0-12.0-0.49","61301fcb49db2f170cb02b93","650c16f0f2faf8d7a0d14c09","651c1cadd24a0d706e070b09","null","null","<p style=""font-size: 60px; font-family: BACS"">YJLcAQGb</p>","","","","","","","","",""
"html-keyboard-response","220","504926","0.0-12.0-0.50","61301fcb49db2f170cb02b93","650c16f0f2faf8d7a0d14c09","651c1cadd24a0d706e070b09","null","null","<p style=""font-size: 60px; font-family: BACS"">lRCBcthB</p>","","","","","","","","",""
"html-keyboard-response","221","505928","0.0-12.0-0.51","61301fcb49db2f170cb02b93","650c16f0f2faf8d7a0d14c09","651c1cadd24a0d706e070b09","null","null","<p style=""font-size: 60px; font-family: BACS"">BdtACdCKc</p>","","","","","","","","",""
"html-keyboard-response","222","506942","0.0-12.0-0.52","61301fcb49db2f170cb02b93","650c16f0f2faf8d7a0d14c09","651c1cadd24a0d706e070b09","null","null","<p style=""font-size: 60px; font-family: BACS"">QcQAJmZb</p>","","","","","","","","",""
"html-keyboard-response","223","508224","0.0-12.0-0.53","61301fcb49db2f170cb02b93","650c16f0f2faf8d7a0d14c09","651c1cadd24a0d706e070b09","null","null","<p style=""font-size: 60px; font-family: BACS"">AYkEhTRK</p>","","","","","","","","",""
"html-keyboard-response","224","510213","0.0-12.0-0.54","61301fcb49db2f170cb02b93","650c16f0f2faf8d7a0d14c09","651c1cadd24a0d706e070b09","null","null","<p style=""font-size: 60px; font-family: BACS"">NbmQUmZb</p>","","","","","","","","",""
"html-keyboard-response","225","511217","0.0-12.0-0.55","61301fcb49db2f170cb02b93","650c16f0f2faf8d7a0d14c09","651c1cadd24a0d706e070b09","null","null","<p style=""font-size: 60px; font-family: BACS"">AZlLNvUdm</p>","","","","","","","","",""
"html-keyboard-response","226","512230","0.0-12.0-0.56","61301fcb49db2f170cb02b93","650c16f0f2faf8d7a0d14c09","651c1cadd24a0d706e070b09","null","null","<p style=""font-size: 60px; font-family: BACS"">AYkEhcthB</p>","","","","","","","","",""
"html-keyboard-response","227","513238","0.0-12.0-0.57","61301fcb49db2f170cb02b93","650c16f0f2faf8d7a0d14c09","651c1cadd24a0d706e070b09","null","null","<p style=""font-size: 60px; font-family: BACS"">uauOkJdr</p>","","","","","","","","",""
"html-keyboard-response","228","514252","0.0-12.0-0.58","61301fcb49db2f170cb02b93","650c16f0f2faf8d7a0d14c09","651c1cadd24a0d706e070b09","null","null","<p style=""font-size: 60px; font-family: BACS"">AYkEhdCKc</p>","","","","","","","","",""
"html-keyboard-response","229","515266","0.0-12.0-0.59","61301fcb49db2f170cb02b93","650c16f0f2faf8d7a0d14c09","651c1cadd24a0d706e070b09","null","null","<p style=""font-size: 60px; font-family: BACS"">mUOcOvUdm</p>","","","","","","","","",""
"html-keyboard-response","230","516269","0.0-12.0-0.60","61301fcb49db2f170cb02b93","650c16f0f2faf8d7a0d14c09","651c1cadd24a0d706e070b09","null","null","<p style=""font-size: 60px; font-family: BACS"">YJLcAkJdr</p>","","","","","","","","",""
"html-keyboard-response","231","517284","0.0-12.0-0.61","61301fcb49db2f170cb02b93","650c16f0f2faf8d7a0d14c09","651c1cadd24a0d706e070b09","null","null","<p style=""font-size: 60px; font-family: BACS"">BdtACAPEM</p>","","","","","","","","",""
"html-keyboard-response","232","518299","0.0-12.0-0.62","61301fcb49db2f170cb02b93","650c16f0f2faf8d7a0d14c09","651c1cadd24a0d706e070b09","null","null","<p style=""font-size: 60px; font-family: BACS"">bvkrkmU</p>","","","","","","","","",""
"html-keyboard-response","233","519310","0.0-12.0-0.63","61301fcb49db2f170cb02b93","650c16f0f2faf8d7a0d14c09","651c1cadd24a0d706e070b09","null","null","<p style=""font-size: 60px; font-family: BACS"">lRCBYKPB</p>","","","","","","","","",""
"html-keyboard-response","234","520323","0.0-12.0-0.64","61301fcb49db2f170cb02b93","650c16f0f2faf8d7a0d14c09","651c1cadd24a0d706e070b09","null","null","<p style=""font-size: 60px; font-family: BACS"">NaAQdQGb</p>","","","","","","","","",""
"html-keyboard-response","235","521337","0.0-12.0-0.65","61301fcb49db2f170cb02b93","650c16f0f2faf8d7a0d14c09","651c1cadd24a0d706e070b09","null","null","<p style=""font-size: 60px; font-family: BACS"">QcQAJkmU</p>","","","","","","","","",""
"html-keyboard-response","236","522344","0.0-12.0-0.66","61301fcb49db2f170cb02b93","650c16f0f2faf8d7a0d14c09","651c1cadd24a0d706e070b09","null","null","<p style=""font-size: 60px; font-family: BACS"">lRCBTRK</p>","","","","","","","","",""
"html-keyboard-response","237","523359","0.0-12.0-0.67","61301fcb49db2f170cb02b93","650c16f0f2faf8d7a0d14c09","651c1cadd24a0d706e070b09","null","null","<p style=""font-size: 60px; font-family: BACS"">COtBDcthB</p>","","","","","","","","",""
"html-keyboard-response","238","524370","0.0-12.0-0.68","61301fcb49db2f170cb02b93","650c16f0f2faf8d7a0d14c09","651c1cadd24a0d706e070b09","null","null","<p style=""font-size: 60px; font-family: BACS"">MDKPAPEM</p>","","","","","","","","",""
"html-keyboard-response","239","525385","0.0-12.0-0.69","61301fcb49db2f170cb02b93","650c16f0f2faf8d7a0d14c09","651c1cadd24a0d706e070b09","null","null","<p style=""font-size: 60px; font-family: BACS"">hAROKYKPB</p>","","","","","","","","",""
"html-keyboard-response","240","526393","0.0-12.0-0.70","61301fcb49db2f170cb02b93","650c16f0f2faf8d7a0d14c09","651c1cadd24a0d706e070b09","null","null","<p style=""font-size: 60px; font-family: BACS"">DhMtAPEM</p>","","","","","","","","",""
"html-keyboard-response","241","527401","0.0-12.0-0.71","61301fcb49db2f170cb02b93","650c16f0f2faf8d7a0d14c09","651c1cadd24a0d706e070b09","null","null","<p style=""font-size: 60px; font-family: BACS"">NaAQdvUdm</p>","","","","","","","","",""
"html-keyboard-response","242","528416","0.0-12.0-0.72","61301fcb49db2f170cb02b93","650c16f0f2faf8d7a0d14c09","651c1cadd24a0d706e070b09","null","null","<p style=""font-size: 60px; font-family: BACS"">NbmQUkJdr</p>","","","","","","","","",""
"html-keyboard-response","243","529419","0.0-12.0-0.73","61301fcb49db2f170cb02b93","650c16f0f2faf8d7a0d14c09","651c1cadd24a0d706e070b09","null","null","<p style=""font-size: 60px; font-family: BACS"">lRCBdCKc</p>","","","","","","","","",""
"html-keyboard-response","244","530421","0.0-12.0-0.74","61301fcb49db2f170cb02b93","650c16f0f2faf8d7a0d14c09","651c1cadd24a0d706e070b09","null","null","<p style=""font-size: 60px; font-family: BACS"">ZdNmUkmU</p>","","","","","","","","",""
"html-keyboard-response","245","531435","0.0-12.0-0.75","61301fcb49db2f170cb02b93","650c16f0f2faf8d7a0d14c09","651c1cadd24a0d706e070b09","null","null","<p style=""font-size: 60px; font-family: BACS"">COtBDdCKc</p>","","","","","","","","",""
"html-keyboard-response","246","532437","0.0-12.0-0.76","61301fcb49db2f170cb02b93","650c16f0f2faf8d7a0d14c09","651c1cadd24a0d706e070b09","null","null","<p style=""font-size: 60px; font-family: BACS"">mUOcOkmU</p>","","","","","","","","",""
"html-keyboard-response","247","533452","0.0-12.0-0.77","61301fcb49db2f170cb02b93","650c16f0f2faf8d7a0d14c09","651c1cadd24a0d706e070b09","null","null","<p style=""font-size: 60px; font-family: BACS"">hAROKdCKc</p>","","","","","","","","",""
"html-keyboard-response","248","534455","0.0-12.0-0.78","61301fcb49db2f170cb02b93","650c16f0f2faf8d7a0d14c09","651c1cadd24a0d706e070b09","null","null","<p style=""font-size: 60px; font-family: BACS"">mUOcOkJdr</p>","","","","","","","","",""
"html-keyboard-response","249","535469","0.0-12.0-0.79","61301fcb49db2f170cb02b93","650c16f0f2faf8d7a0d14c09","651c1cadd24a0d706e070b09","null","null","<p style=""font-size: 60px; font-family: BACS"">YJLcAkmU</p>","","","","","","","","",""
"html-keyboard-response","250","573494","0.0-13.0","61301fcb49db2f170cb02b93","650c16f0f2faf8d7a0d14c09","651c1cadd24a0d706e070b09","38025"," ","<p>Great, you've seen the third block of words. You may now take a short break.</p>
      <p>Press the spacebar when you're ready to continue.</p>","","","","","","","","",""
"html-keyboard-response","251","574497","0.0-14.0-0.0","61301fcb49db2f170cb02b93","650c16f0f2faf8d7a0d14c09","651c1cadd24a0d706e070b09","null","null","<p style=""font-size: 60px; font-family: BACS"">NbmQUQGb</p>","","","","","","","","",""
"html-keyboard-response","252","575502","0.0-14.0-0.1","61301fcb49db2f170cb02b93","650c16f0f2faf8d7a0d14c09","651c1cadd24a0d706e070b09","null","null","<p style=""font-size: 60px; font-family: BACS"">dGLAlvUdm</p>","","","","","","","","",""
"html-keyboard-response","253","576518","0.0-14.0-0.2","61301fcb49db2f170cb02b93","650c16f0f2faf8d7a0d14c09","651c1cadd24a0d706e070b09","null","null","<p style=""font-size: 60px; font-family: BACS"">COtBDcthB</p>","","","","","","","","",""
"html-keyboard-response","254","577534","0.0-14.0-0.3","61301fcb49db2f170cb02b93","650c16f0f2faf8d7a0d14c09","651c1cadd24a0d706e070b09","null","null","<p style=""font-size: 60px; font-family: BACS"">uauOmZb</p>","","","","","","","","",""
"html-keyboard-response","255","578550","0.0-14.0-0.4","61301fcb49db2f170cb02b93","650c16f0f2faf8d7a0d14c09","651c1cadd24a0d706e070b09","null","null","<p style=""font-size: 60px; font-family: BACS"">PYkCTRK</p>","","","","","","","","",""
"html-keyboard-response","256","579557","0.0-14.0-0.5","61301fcb49db2f170cb02b93","650c16f0f2faf8d7a0d14c09","651c1cadd24a0d706e070b09","null","null","<p style=""font-size: 60px; font-family: BACS"">DhMtAPEM</p>","","","","","","","","",""
"html-keyboard-response","257","580569","0.0-14.0-0.6","61301fcb49db2f170cb02b93","650c16f0f2faf8d7a0d14c09","651c1cadd24a0d706e070b09","null","null","<p style=""font-size: 60px; font-family: BACS"">bvkrkmU</p>","","","","","","","","",""
"html-keyboard-response","258","581580","0.0-14.0-0.7","61301fcb49db2f170cb02b93","650c16f0f2faf8d7a0d14c09","651c1cadd24a0d706e070b09","null","null","<p style=""font-size: 60px; font-family: BACS"">KAERMYKPB</p>","","","","","","","","",""
"html-keyboard-response","259","582582","0.0-14.0-0.8","61301fcb49db2f170cb02b93","650c16f0f2faf8d7a0d14c09","651c1cadd24a0d706e070b09","null","null","<p style=""font-size: 60px; font-family: BACS"">dGLAlkJdr</p>","","","","","","","","",""
"html-keyboard-response","260","583601","0.0-14.0-0.9","61301fcb49db2f170cb02b93","650c16f0f2faf8d7a0d14c09","651c1cadd24a0d706e070b09","null","null","<p style=""font-size: 60px; font-family: BACS"">COtBDAPEM</p>","","","","","","","","",""
"html-keyboard-response","261","584617","0.0-14.0-0.10","61301fcb49db2f170cb02b93","650c16f0f2faf8d7a0d14c09","651c1cadd24a0d706e070b09","null","null","<p style=""font-size: 60px; font-family: BACS"">PYkCYKPB</p>","","","","","","","","",""
"html-keyboard-response","262","585630","0.0-14.0-0.11","61301fcb49db2f170cb02b93","650c16f0f2faf8d7a0d14c09","651c1cadd24a0d706e070b09","null","null","<p style=""font-size: 60px; font-family: BACS"">lRCBTRK</p>","","","","","","","","",""
"html-keyboard-response","263","586639","0.0-14.0-0.12","61301fcb49db2f170cb02b93","650c16f0f2faf8d7a0d14c09","651c1cadd24a0d706e070b09","null","null","<p style=""font-size: 60px; font-family: BACS"">QcQAJvUdm</p>","","","","","","","","",""
"html-keyboard-response","264","587646","0.0-14.0-0.13","61301fcb49db2f170cb02b93","650c16f0f2faf8d7a0d14c09","651c1cadd24a0d706e070b09","null","null","<p style=""font-size: 60px; font-family: BACS"">ZdNmUQGb</p>","","","","","","","","",""
"html-keyboard-response","265","588649","0.0-14.0-0.14","61301fcb49db2f170cb02b93","650c16f0f2faf8d7a0d14c09","651c1cadd24a0d706e070b09","null","null","<p style=""font-size: 60px; font-family: BACS"">KAERMTRK</p>","","","","","","","","",""
"html-keyboard-response","266","589664","0.0-14.0-0.15","61301fcb49db2f170cb02b93","650c16f0f2faf8d7a0d14c09","651c1cadd24a0d706e070b09","null","null","<p style=""font-size: 60px; font-family: BACS"">NbmQUmZb</p>","","","","","","","","",""
"html-keyboard-response","267","590672","0.0-14.0-0.16","61301fcb49db2f170cb02b93","650c16f0f2faf8d7a0d14c09","651c1cadd24a0d706e070b09","null","null","<p style=""font-size: 60px; font-family: BACS"">DhMtTRK</p>","","","","","","","","",""
"html-keyboard-response","268","591684","0.0-14.0-0.17","61301fcb49db2f170cb02b93","650c16f0f2faf8d7a0d14c09","651c1cadd24a0d706e070b09","null","null","<p style=""font-size: 60px; font-family: BACS"">QcQAJkmU</p>","","","","","","","","",""
"html-keyboard-response","269","592696","0.0-14.0-0.18","61301fcb49db2f170cb02b93","650c16f0f2faf8d7a0d14c09","651c1cadd24a0d706e070b09","null","null","<p style=""font-size: 60px; font-family: BACS"">COtBDYKPB</p>","","","","","","","","",""
"html-keyboard-response","270","593713","0.0-14.0-0.19","61301fcb49db2f170cb02b93","650c16f0f2faf8d7a0d14c09","651c1cadd24a0d706e070b09","null","null","<p style=""font-size: 60px; font-family: BACS"">YJLcAmZb</p>","","","","","","","","",""
"html-keyboard-response","271","594714","0.0-14.0-0.20","61301fcb49db2f170cb02b93","650c16f0f2faf8d7a0d14c09","651c1cadd24a0d706e070b09","null","null","<p style=""font-size: 60px; font-family: BACS"">uauOkJdr</p>","","","","","","","","",""
"html-keyboard-response","272","595720","0.0-14.0-0.21","61301fcb49db2f170cb02b93","650c16f0f2faf8d7a0d14c09","651c1cadd24a0d706e070b09","null","null","<p style=""font-size: 60px; font-family: BACS"">mUOcOvUdm</p>","","","","","","","","",""
"html-keyboard-response","273","596728","0.0-14.0-0.22","61301fcb49db2f170cb02b93","650c16f0f2faf8d7a0d14c09","651c1cadd24a0d706e070b09","null","null","<p style=""font-size: 60px; font-family: BACS"">DhMtdCKc</p>","","","","","","","","",""
"html-keyboard-response","274","597732","0.0-14.0-0.23","61301fcb49db2f170cb02b93","650c16f0f2faf8d7a0d14c09","651c1cadd24a0d706e070b09","null","null","<p style=""font-size: 60px; font-family: BACS"">NaAQdkmU</p>","","","","","","","","",""
"html-keyboard-response","275","598736","0.0-14.0-0.24","61301fcb49db2f170cb02b93","650c16f0f2faf8d7a0d14c09","651c1cadd24a0d706e070b09","null","null","<p style=""font-size: 60px; font-family: BACS"">uauOvUdm</p>","","","","","","","","",""
"html-keyboard-response","276","599750","0.0-14.0-0.25","61301fcb49db2f170cb02b93","650c16f0f2faf8d7a0d14c09","651c1cadd24a0d706e070b09","null","null","<p style=""font-size: 60px; font-family: BACS"">AZlLNkJdr</p>","","","","","","","","",""
"html-keyboard-response","277","600753","0.0-14.0-0.26","61301fcb49db2f170cb02b93","650c16f0f2faf8d7a0d14c09","651c1cadd24a0d706e070b09","null","null","<p style=""font-size: 60px; font-family: BACS"">NaAQdvUdm</p>","","","","","","","","",""
"html-keyboard-response","278","601763","0.0-14.0-0.27","61301fcb49db2f170cb02b93","650c16f0f2faf8d7a0d14c09","651c1cadd24a0d706e070b09","null","null","<p style=""font-size: 60px; font-family: BACS"">NbmQUkJdr</p>","","","","","","","","",""
"html-keyboard-response","279","602779","0.0-14.0-0.28","61301fcb49db2f170cb02b93","650c16f0f2faf8d7a0d14c09","651c1cadd24a0d706e070b09","null","null","<p style=""font-size: 60px; font-family: BACS"">BdtACdCKc</p>","","","","","","","","",""
"html-keyboard-response","280","603795","0.0-14.0-0.29","61301fcb49db2f170cb02b93","650c16f0f2faf8d7a0d14c09","651c1cadd24a0d706e070b09","null","null","<p style=""font-size: 60px; font-family: BACS"">lRCBcthB</p>","","","","","","","","",""
"html-keyboard-response","281","604798","0.0-14.0-0.30","61301fcb49db2f170cb02b93","650c16f0f2faf8d7a0d14c09","651c1cadd24a0d706e070b09","null","null","<p style=""font-size: 60px; font-family: BACS"">AZlLNkmU</p>","","","","","","","","",""
"html-keyboard-response","282","605811","0.0-14.0-0.31","61301fcb49db2f170cb02b93","650c16f0f2faf8d7a0d14c09","651c1cadd24a0d706e070b09","null","null","<p style=""font-size: 60px; font-family: BACS"">MDKPTRK</p>","","","","","","","","",""
"html-keyboard-response","283","606828","0.0-14.0-0.32","61301fcb49db2f170cb02b93","650c16f0f2faf8d7a0d14c09","651c1cadd24a0d706e070b09","null","null","<p style=""font-size: 60px; font-family: BACS"">BdtACcthB</p>","","","","","","","","",""
"html-keyboard-response","284","607844","0.0-14.0-0.33","61301fcb49db2f170cb02b93","650c16f0f2faf8d7a0d14c09","651c1cadd24a0d706e070b09","null","null","<p style=""font-size: 60px; font-family: BACS"">QcQAJkJdr</p>","","","","","","","","",""
"html-keyboard-response","285","608862","0.0-14.0-0.34","61301fcb49db2f170cb02b93","650c16f0f2faf8d7a0d14c09","651c1cadd24a0d706e070b09","null","null","<p style=""font-size: 60px; font-family: BACS"">uauOQGb</p>","","","","","","","","",""
"html-keyboard-response","286","609877","0.0-14.0-0.35","61301fcb49db2f170cb02b93","650c16f0f2faf8d7a0d14c09","651c1cadd24a0d706e070b09","null","null","<p style=""font-size: 60px; font-family: BACS"">kcdOtAPEM</p>","","","","","","","","",""
"html-keyboard-response","287","610884","0.0-14.0-0.36","61301fcb49db2f170cb02b93","650c16f0f2faf8d7a0d14c09","651c1cadd24a0d706e070b09","null","null","<p style=""font-size: 60px; font-family: BACS"">bvkrvUdm</p>","","","","","","","","",""
"html-keyboard-response","288","611895","0.0-14.0-0.37","61301fcb49db2f170cb02b93","650c16f0f2faf8d7a0d14c09","651c1cadd24a0d706e070b09","null","null","<p style=""font-size: 60px; font-family: BACS"">kcdOtTRK</p>","","","","","","","","",""
"html-keyboard-response","289","612897","0.0-14.0-0.38","61301fcb49db2f170cb02b93","650c16f0f2faf8d7a0d14c09","651c1cadd24a0d706e070b09","null","null","<p style=""font-size: 60px; font-family: BACS"">bvkrQGb</p>","","","","","","","","",""
"html-keyboard-response","290","613912","0.0-14.0-0.39","61301fcb49db2f170cb02b93","650c16f0f2faf8d7a0d14c09","651c1cadd24a0d706e070b09","null","null","<p style=""font-size: 60px; font-family: BACS"">MDKPAPEM</p>","","","","","","","","",""
"html-keyboard-response","291","614917","0.0-14.0-0.40","61301fcb49db2f170cb02b93","650c16f0f2faf8d7a0d14c09","651c1cadd24a0d706e070b09","null","null","<p style=""font-size: 60px; font-family: BACS"">AYkEhdCKc</p>","","","","","","","","",""
"html-keyboard-response","292","615920","0.0-14.0-0.41","61301fcb49db2f170cb02b93","650c16f0f2faf8d7a0d14c09","651c1cadd24a0d706e070b09","null","null","<p style=""font-size: 60px; font-family: BACS"">NaAQdQGb</p>","","","","","","","","",""
"html-keyboard-response","293","616929","0.0-14.0-0.42","61301fcb49db2f170cb02b93","650c16f0f2faf8d7a0d14c09","651c1cadd24a0d706e070b09","null","null","<p style=""font-size: 60px; font-family: BACS"">QcQAJmZb</p>","","","","","","","","",""
"html-keyboard-response","294","617937","0.0-14.0-0.43","61301fcb49db2f170cb02b93","650c16f0f2faf8d7a0d14c09","651c1cadd24a0d706e070b09","null","null","<p style=""font-size: 60px; font-family: BACS"">AZlLNvUdm</p>","","","","","","","","",""
"html-keyboard-response","295","618945","0.0-14.0-0.44","61301fcb49db2f170cb02b93","650c16f0f2faf8d7a0d14c09","651c1cadd24a0d706e070b09","null","null","<p style=""font-size: 60px; font-family: BACS"">PYkCAPEM</p>","","","","","","","","",""
"html-keyboard-response","296","619960","0.0-14.0-0.45","61301fcb49db2f170cb02b93","650c16f0f2faf8d7a0d14c09","651c1cadd24a0d706e070b09","null","null","<p style=""font-size: 60px; font-family: BACS"">ZdNmUkJdr</p>","","","","","","","","",""
"html-keyboard-response","297","620962","0.0-14.0-0.46","61301fcb49db2f170cb02b93","650c16f0f2faf8d7a0d14c09","651c1cadd24a0d706e070b09","null","null","<p style=""font-size: 60px; font-family: BACS"">lRCBdCKc</p>","","","","","","","","",""
"html-keyboard-response","298","621976","0.0-14.0-0.47","61301fcb49db2f170cb02b93","650c16f0f2faf8d7a0d14c09","651c1cadd24a0d706e070b09","null","null","<p style=""font-size: 60px; font-family: BACS"">mUOcOkJdr</p>","","","","","","","","",""
"html-keyboard-response","299","622978","0.0-14.0-0.48","61301fcb49db2f170cb02b93","650c16f0f2faf8d7a0d14c09","651c1cadd24a0d706e070b09","null","null","<p style=""font-size: 60px; font-family: BACS"">lRCBYKPB</p>","","","","","","","","",""
"html-keyboard-response","300","623994","0.0-14.0-0.49","61301fcb49db2f170cb02b93","650c16f0f2faf8d7a0d14c09","651c1cadd24a0d706e070b09","null","null","<p style=""font-size: 60px; font-family: BACS"">YJLcAkJdr</p>","","","","","","","","",""
"html-keyboard-response","301","624996","0.0-14.0-0.50","61301fcb49db2f170cb02b93","650c16f0f2faf8d7a0d14c09","651c1cadd24a0d706e070b09","null","null","<p style=""font-size: 60px; font-family: BACS"">MDKPdCKc</p>","","","","","","","","",""
"html-keyboard-response","302","626010","0.0-14.0-0.51","61301fcb49db2f170cb02b93","650c16f0f2faf8d7a0d14c09","651c1cadd24a0d706e070b09","null","null","<p style=""font-size: 60px; font-family: BACS"">mUOcOkmU</p>","","","","","","","","",""
"html-keyboard-response","303","627012","0.0-14.0-0.52","61301fcb49db2f170cb02b93","650c16f0f2faf8d7a0d14c09","651c1cadd24a0d706e070b09","null","null","<p style=""font-size: 60px; font-family: BACS"">MDKPcthB</p>","","","","","","","","",""
"html-keyboard-response","304","628016","0.0-14.0-0.53","61301fcb49db2f170cb02b93","650c16f0f2faf8d7a0d14c09","651c1cadd24a0d706e070b09","null","null","<p style=""font-size: 60px; font-family: BACS"">NaAQdmZb</p>","","","","","","","","",""
"html-keyboard-response","305","629028","0.0-14.0-0.54","61301fcb49db2f170cb02b93","650c16f0f2faf8d7a0d14c09","651c1cadd24a0d706e070b09","null","null","<p style=""font-size: 60px; font-family: BACS"">AYkEhYKPB</p>","","","","","","","","",""
"html-keyboard-response","306","630044","0.0-14.0-0.55","61301fcb49db2f170cb02b93","650c16f0f2faf8d7a0d14c09","651c1cadd24a0d706e070b09","null","null","<p style=""font-size: 60px; font-family: BACS"">dGLAlkmU</p>","","","","","","","","",""
"html-keyboard-response","307","631060","0.0-14.0-0.56","61301fcb49db2f170cb02b93","650c16f0f2faf8d7a0d14c09","651c1cadd24a0d706e070b09","null","null","<p style=""font-size: 60px; font-family: BACS"">AYkEhTRK</p>","","","","","","","","",""
"html-keyboard-response","308","632068","0.0-14.0-0.57","61301fcb49db2f170cb02b93","650c16f0f2faf8d7a0d14c09","651c1cadd24a0d706e070b09","null","null","<p style=""font-size: 60px; font-family: BACS"">bvkrmZb</p>","","","","","","","","",""
"html-keyboard-response","309","633077","0.0-14.0-0.58","61301fcb49db2f170cb02b93","650c16f0f2faf8d7a0d14c09","651c1cadd24a0d706e070b09","null","null","<p style=""font-size: 60px; font-family: BACS"">hAROKdCKc</p>","","","","","","","","",""
"html-keyboard-response","310","634079","0.0-14.0-0.59","61301fcb49db2f170cb02b93","650c16f0f2faf8d7a0d14c09","651c1cadd24a0d706e070b09","null","null","<p style=""font-size: 60px; font-family: BACS"">ZdNmUmZb</p>","","","","","","","","",""
"html-keyboard-response","311","635095","0.0-14.0-0.60","61301fcb49db2f170cb02b93","650c16f0f2faf8d7a0d14c09","651c1cadd24a0d706e070b09","null","null","<p style=""font-size: 60px; font-family: BACS"">YJLcAQGb</p>","","","","","","","","",""
"html-keyboard-response","312","636109","0.0-14.0-0.61","61301fcb49db2f170cb02b93","650c16f0f2faf8d7a0d14c09","651c1cadd24a0d706e070b09","null","null","<p style=""font-size: 60px; font-family: BACS"">mUOcOmZb</p>","","","","","","","","",""
"html-keyboard-response","313","637126","0.0-14.0-0.62","61301fcb49db2f170cb02b93","650c16f0f2faf8d7a0d14c09","651c1cadd24a0d706e070b09","null","null","<p style=""font-size: 60px; font-family: BACS"">kcdOtYKPB</p>","","","","","","","","",""
"html-keyboard-response","314","638140","0.0-14.0-0.63","61301fcb49db2f170cb02b93","650c16f0f2faf8d7a0d14c09","651c1cadd24a0d706e070b09","null","null","<p style=""font-size: 60px; font-family: BACS"">KAERMAPEM</p>","","","","","","","","",""
"html-keyboard-response","315","639144","0.0-14.0-0.64","61301fcb49db2f170cb02b93","650c16f0f2faf8d7a0d14c09","651c1cadd24a0d706e070b09","null","null","<p style=""font-size: 60px; font-family: BACS"">BdtACTRK</p>","","","","","","","","",""
"html-keyboard-response","316","640150","0.0-14.0-0.65","61301fcb49db2f170cb02b93","650c16f0f2faf8d7a0d14c09","651c1cadd24a0d706e070b09","null","null","<p style=""font-size: 60px; font-family: BACS"">hAROKYKPB</p>","","","","","","","","",""
"html-keyboard-response","317","641160","0.0-14.0-0.66","61301fcb49db2f170cb02b93","650c16f0f2faf8d7a0d14c09","651c1cadd24a0d706e070b09","null","null","<p style=""font-size: 60px; font-family: BACS"">NbmQUvUdm</p>","","","","","","","","",""
"html-keyboard-response","318","642177","0.0-14.0-0.67","61301fcb49db2f170cb02b93","650c16f0f2faf8d7a0d14c09","651c1cadd24a0d706e070b09","null","null","<p style=""font-size: 60px; font-family: BACS"">AZlLNQGb</p>","","","","","","","","",""
"html-keyboard-response","319","643193","0.0-14.0-0.68","61301fcb49db2f170cb02b93","650c16f0f2faf8d7a0d14c09","651c1cadd24a0d706e070b09","null","null","<p style=""font-size: 60px; font-family: BACS"">ZdNmUkmU</p>","","","","","","","","",""
"html-keyboard-response","320","644199","0.0-14.0-0.69","61301fcb49db2f170cb02b93","650c16f0f2faf8d7a0d14c09","651c1cadd24a0d706e070b09","null","null","<p style=""font-size: 60px; font-family: BACS"">DhMtYKPB</p>","","","","","","","","",""
"html-keyboard-response","321","645211","0.0-14.0-0.70","61301fcb49db2f170cb02b93","650c16f0f2faf8d7a0d14c09","651c1cadd24a0d706e070b09","null","null","<p style=""font-size: 60px; font-family: BACS"">KAERMdCKc</p>","","","","","","","","",""
"html-keyboard-response","322","646213","0.0-14.0-0.71","61301fcb49db2f170cb02b93","650c16f0f2faf8d7a0d14c09","651c1cadd24a0d706e070b09","null","null","<p style=""font-size: 60px; font-family: BACS"">dGLAlQGb</p>","","","","","","","","",""
"html-keyboard-response","323","647217","0.0-14.0-0.72","61301fcb49db2f170cb02b93","650c16f0f2faf8d7a0d14c09","651c1cadd24a0d706e070b09","null","null","<p style=""font-size: 60px; font-family: BACS"">AYkEhcthB</p>","","","","","","","","",""
"html-keyboard-response","324","648230","0.0-14.0-0.73","61301fcb49db2f170cb02b93","650c16f0f2faf8d7a0d14c09","651c1cadd24a0d706e070b09","null","null","<p style=""font-size: 60px; font-family: BACS"">hAROKAPEM</p>","","","","","","","","",""
"html-keyboard-response","325","649243","0.0-14.0-0.74","61301fcb49db2f170cb02b93","650c16f0f2faf8d7a0d14c09","651c1cadd24a0d706e070b09","null","null","<p style=""font-size: 60px; font-family: BACS"">YJLcAkmU</p>","","","","","","","","",""
"html-keyboard-response","326","650258","0.0-14.0-0.75","61301fcb49db2f170cb02b93","650c16f0f2faf8d7a0d14c09","651c1cadd24a0d706e070b09","null","null","<p style=""font-size: 60px; font-family: BACS"">PYkCcthB</p>","","","","","","","","",""
"html-keyboard-response","327","651261","0.0-14.0-0.76","61301fcb49db2f170cb02b93","650c16f0f2faf8d7a0d14c09","651c1cadd24a0d706e070b09","null","null","<p style=""font-size: 60px; font-family: BACS"">COtBDdCKc</p>","","","","","","","","",""
"html-keyboard-response","328","652277","0.0-14.0-0.77","61301fcb49db2f170cb02b93","650c16f0f2faf8d7a0d14c09","651c1cadd24a0d706e070b09","null","null","<p style=""font-size: 60px; font-family: BACS"">hAROKcthB</p>","","","","","","","","",""
"html-keyboard-response","329","653291","0.0-14.0-0.78","61301fcb49db2f170cb02b93","650c16f0f2faf8d7a0d14c09","651c1cadd24a0d706e070b09","null","null","<p style=""font-size: 60px; font-family: BACS"">BdtACAPEM</p>","","","","","","","","",""
"html-keyboard-response","330","654295","0.0-14.0-0.79","61301fcb49db2f170cb02b93","650c16f0f2faf8d7a0d14c09","651c1cadd24a0d706e070b09","null","null","<p style=""font-size: 60px; font-family: BACS"">kcdOtcthB</p>","","","","","","","","",""
"html-keyboard-response","331","660029","0.0-15.0","61301fcb49db2f170cb02b93","650c16f0f2faf8d7a0d14c09","651c1cadd24a0d706e070b09","5733"," ","<p>Great, you've seen the fourth block of words. You may now take a short break.</p>
      <p>Press the spacebar when you're ready to continue.</p>","","","","","","","","",""
"html-keyboard-response","332","661034","0.0-16.0-0.0","61301fcb49db2f170cb02b93","650c16f0f2faf8d7a0d14c09","651c1cadd24a0d706e070b09","null","null","<p style=""font-size: 60px; font-family: BACS"">uauOmZb</p>","","","","","","","","",""
"html-keyboard-response","333","662050","0.0-16.0-0.1","61301fcb49db2f170cb02b93","650c16f0f2faf8d7a0d14c09","651c1cadd24a0d706e070b09","null","null","<p style=""font-size: 60px; font-family: BACS"">uauOmZb</p>","","","","","","","","",""
"html-keyboard-response","334","663058","0.0-16.0-0.2","61301fcb49db2f170cb02b93","650c16f0f2faf8d7a0d14c09","651c1cadd24a0d706e070b09","null","null","<p style=""font-size: 60px; font-family: BACS"">uauOmZb</p>","","","","","","","","",""
"html-keyboard-response","335","664060","0.0-16.0-0.3","61301fcb49db2f170cb02b93","650c16f0f2faf8d7a0d14c09","651c1cadd24a0d706e070b09","null","null","<p style=""font-size: 60px; font-family: BACS"">uauOmZb</p>","","","","","","","","",""
"html-keyboard-response","336","665076","0.0-16.0-0.4","61301fcb49db2f170cb02b93","650c16f0f2faf8d7a0d14c09","651c1cadd24a0d706e070b09","null","null","<p style=""font-size: 60px; font-family: BACS"">uauOmZb</p>","","","","","","","","",""
"html-keyboard-response","337","666082","0.0-16.0-0.5","61301fcb49db2f170cb02b93","650c16f0f2faf8d7a0d14c09","651c1cadd24a0d706e070b09","null","null","<p style=""font-size: 60px; font-family: BACS"">uauOmZb</p>","","","","","","","","",""
"html-keyboard-response","338","667091","0.0-16.0-0.6","61301fcb49db2f170cb02b93","650c16f0f2faf8d7a0d14c09","651c1cadd24a0d706e070b09","null","null","<p style=""font-size: 60px; font-family: BACS"">uauOmZb</p>","","","","","","","","",""
"html-keyboard-response","339","668099","0.0-16.0-0.7","61301fcb49db2f170cb02b93","650c16f0f2faf8d7a0d14c09","651c1cadd24a0d706e070b09","null","null","<p style=""font-size: 60px; font-family: BACS"">uauOmZb</p>","","","","","","","","",""
"html-keyboard-response","340","669115","0.0-16.0-0.8","61301fcb49db2f170cb02b93","650c16f0f2faf8d7a0d14c09","651c1cadd24a0d706e070b09","null","null","<p style=""font-size: 60px; font-family: BACS"">uauOmZb</p>","","","","","","","","",""
"html-keyboard-response","341","670126","0.0-16.0-0.9","61301fcb49db2f170cb02b93","650c16f0f2faf8d7a0d14c09","651c1cadd24a0d706e070b09","null","null","<p style=""font-size: 60px; font-family: BACS"">uauOmZb</p>","","","","","","","","",""
"html-keyboard-response","342","671141","0.0-16.0-0.10","61301fcb49db2f170cb02b93","650c16f0f2faf8d7a0d14c09","651c1cadd24a0d706e070b09","null","null","<p style=""font-size: 60px; font-family: BACS"">uauOmZb</p>","","","","","","","","",""
"html-keyboard-response","343","672159","0.0-16.0-0.11","61301fcb49db2f170cb02b93","650c16f0f2faf8d7a0d14c09","651c1cadd24a0d706e070b09","null","null","<p style=""font-size: 60px; font-family: BACS"">uauOmZb</p>","","","","","","","","",""
"html-keyboard-response","344","673161","0.0-16.0-0.12","61301fcb49db2f170cb02b93","650c16f0f2faf8d7a0d14c09","651c1cadd24a0d706e070b09","null","null","<p style=""font-size: 60px; font-family: BACS"">uauOmZb</p>","","","","","","","","",""
"html-keyboard-response","345","674178","0.0-16.0-0.13","61301fcb49db2f170cb02b93","650c16f0f2faf8d7a0d14c09","651c1cadd24a0d706e070b09","null","null","<p style=""font-size: 60px; font-family: BACS"">uauOmZb</p>","","","","","","","","",""
"html-keyboard-response","346","675191","0.0-16.0-0.14","61301fcb49db2f170cb02b93","650c16f0f2faf8d7a0d14c09","651c1cadd24a0d706e070b09","null","null","<p style=""font-size: 60px; font-family: BACS"">uauOmZb</p>","","","","","","","","",""
"html-keyboard-response","347","676205","0.0-16.0-0.15","61301fcb49db2f170cb02b93","650c16f0f2faf8d7a0d14c09","651c1cadd24a0d706e070b09","null","null","<p style=""font-size: 60px; font-family: BACS"">uauOmZb</p>","","","","","","","","",""
"html-keyboard-response","348","677207","0.0-16.0-0.16","61301fcb49db2f170cb02b93","650c16f0f2faf8d7a0d14c09","651c1cadd24a0d706e070b09","null","null","<p style=""font-size: 60px; font-family: BACS"">uauOmZb</p>","","","","","","","","",""
"html-keyboard-response","349","678224","0.0-16.0-0.17","61301fcb49db2f170cb02b93","650c16f0f2faf8d7a0d14c09","651c1cadd24a0d706e070b09","null","null","<p style=""font-size: 60px; font-family: BACS"">uauOmZb</p>","","","","","","","","",""
"html-keyboard-response","350","679231","0.0-16.0-0.18","61301fcb49db2f170cb02b93","650c16f0f2faf8d7a0d14c09","651c1cadd24a0d706e070b09","null","null","<p style=""font-size: 60px; font-family: BACS"">uauOmZb</p>","","","","","","","","",""
"html-keyboard-response","351","680232","0.0-16.0-0.19","61301fcb49db2f170cb02b93","650c16f0f2faf8d7a0d14c09","651c1cadd24a0d706e070b09","null","null","<p style=""font-size: 60px; font-family: BACS"">uauOmZb</p>","","","","","","","","",""
"html-keyboard-response","352","681243","0.0-16.0-0.20","61301fcb49db2f170cb02b93","650c16f0f2faf8d7a0d14c09","651c1cadd24a0d706e070b09","null","null","<p style=""font-size: 60px; font-family: BACS"">uauOmZb</p>","","","","","","","","",""
"html-keyboard-response","353","682257","0.0-16.0-0.21","61301fcb49db2f170cb02b93","650c16f0f2faf8d7a0d14c09","651c1cadd24a0d706e070b09","null","null","<p style=""font-size: 60px; font-family: BACS"">uauOmZb</p>","","","","","","","","",""
"html-keyboard-response","354","683274","0.0-16.0-0.22","61301fcb49db2f170cb02b93","650c16f0f2faf8d7a0d14c09","651c1cadd24a0d706e070b09","null","null","<p style=""font-size: 60px; font-family: BACS"">uauOmZb</p>","","","","","","","","",""
"html-keyboard-response","355","684289","0.0-16.0-0.23","61301fcb49db2f170cb02b93","650c16f0f2faf8d7a0d14c09","651c1cadd24a0d706e070b09","null","null","<p style=""font-size: 60px; font-family: BACS"">uauOmZb</p>","","","","","","","","",""
"html-keyboard-response","356","685291","0.0-16.0-0.24","61301fcb49db2f170cb02b93","650c16f0f2faf8d7a0d14c09","651c1cadd24a0d706e070b09","null","null","<p style=""font-size: 60px; font-family: BACS"">uauOmZb</p>","","","","","","","","",""
"html-keyboard-response","357","686306","0.0-16.0-0.25","61301fcb49db2f170cb02b93","650c16f0f2faf8d7a0d14c09","651c1cadd24a0d706e070b09","null","null","<p style=""font-size: 60px; font-family: BACS"">uauOmZb</p>","","","","","","","","",""
"html-keyboard-response","358","687308","0.0-16.0-0.26","61301fcb49db2f170cb02b93","650c16f0f2faf8d7a0d14c09","651c1cadd24a0d706e070b09","null","null","<p style=""font-size: 60px; font-family: BACS"">uauOmZb</p>","","","","","","","","",""
"html-keyboard-response","359","688313","0.0-16.0-0.27","61301fcb49db2f170cb02b93","650c16f0f2faf8d7a0d14c09","651c1cadd24a0d706e070b09","null","null","<p style=""font-size: 60px; font-family: BACS"">uauOmZb</p>","","","","","","","","",""
"html-keyboard-response","360","689322","0.0-16.0-0.28","61301fcb49db2f170cb02b93","650c16f0f2faf8d7a0d14c09","651c1cadd24a0d706e070b09","null","null","<p style=""font-size: 60px; font-family: BACS"">uauOmZb</p>","","","","","","","","",""
"html-keyboard-response","361","690326","0.0-16.0-0.29","61301fcb49db2f170cb02b93","650c16f0f2faf8d7a0d14c09","651c1cadd24a0d706e070b09","null","null","<p style=""font-size: 60px; font-family: BACS"">uauOmZb</p>","","","","","","","","",""
"html-keyboard-response","362","691339","0.0-16.0-0.30","61301fcb49db2f170cb02b93","650c16f0f2faf8d7a0d14c09","651c1cadd24a0d706e070b09","null","null","<p style=""font-size: 60px; font-family: BACS"">uauOmZb</p>","","","","","","","","",""
"html-keyboard-response","363","692348","0.0-16.0-0.31","61301fcb49db2f170cb02b93","650c16f0f2faf8d7a0d14c09","651c1cadd24a0d706e070b09","null","null","<p style=""font-size: 60px; font-family: BACS"">uauOmZb</p>","","","","","","","","",""
"html-keyboard-response","364","693364","0.0-16.0-0.32","61301fcb49db2f170cb02b93","650c16f0f2faf8d7a0d14c09","651c1cadd24a0d706e070b09","null","null","<p style=""font-size: 60px; font-family: BACS"">uauOmZb</p>","","","","","","","","",""
"html-keyboard-response","365","694381","0.0-16.0-0.33","61301fcb49db2f170cb02b93","650c16f0f2faf8d7a0d14c09","651c1cadd24a0d706e070b09","null","null","<p style=""font-size: 60px; font-family: BACS"">uauOmZb</p>","","","","","","","","",""
"html-keyboard-response","366","695388","0.0-16.0-0.34","61301fcb49db2f170cb02b93","650c16f0f2faf8d7a0d14c09","651c1cadd24a0d706e070b09","null","null","<p style=""font-size: 60px; font-family: BACS"">uauOmZb</p>","","","","","","","","",""
"html-keyboard-response","367","696397","0.0-16.0-0.35","61301fcb49db2f170cb02b93","650c16f0f2faf8d7a0d14c09","651c1cadd24a0d706e070b09","null","null","<p style=""font-size: 60px; font-family: BACS"">uauOmZb</p>","","","","","","","","",""
"html-keyboard-response","368","697403","0.0-16.0-0.36","61301fcb49db2f170cb02b93","650c16f0f2faf8d7a0d14c09","651c1cadd24a0d706e070b09","null","null","<p style=""font-size: 60px; font-family: BACS"">uauOmZb</p>","","","","","","","","",""
"html-keyboard-response","369","698407","0.0-16.0-0.37","61301fcb49db2f170cb02b93","650c16f0f2faf8d7a0d14c09","651c1cadd24a0d706e070b09","null","null","<p style=""font-size: 60px; font-family: BACS"">uauOmZb</p>","","","","","","","","",""
"html-keyboard-response","370","699413","0.0-16.0-0.38","61301fcb49db2f170cb02b93","650c16f0f2faf8d7a0d14c09","651c1cadd24a0d706e070b09","null","null","<p style=""font-size: 60px; font-family: BACS"">uauOmZb</p>","","","","","","","","",""
"html-keyboard-response","371","700425","0.0-16.0-0.39","61301fcb49db2f170cb02b93","650c16f0f2faf8d7a0d14c09","651c1cadd24a0d706e070b09","null","null","<p style=""font-size: 60px; font-family: BACS"">uauOmZb</p>","","","","","","","","",""
"html-keyboard-response","372","701438","0.0-16.0-0.40","61301fcb49db2f170cb02b93","650c16f0f2faf8d7a0d14c09","651c1cadd24a0d706e070b09","null","null","<p style=""font-size: 60px; font-family: BACS"">uauOmZb</p>","","","","","","","","",""
"html-keyboard-response","373","702445","0.0-16.0-0.41","61301fcb49db2f170cb02b93","650c16f0f2faf8d7a0d14c09","651c1cadd24a0d706e070b09","null","null","<p style=""font-size: 60px; font-family: BACS"">uauOmZb</p>","","","","","","","","",""
"html-keyboard-response","374","703456","0.0-16.0-0.42","61301fcb49db2f170cb02b93","650c16f0f2faf8d7a0d14c09","651c1cadd24a0d706e070b09","null","null","<p style=""font-size: 60px; font-family: BACS"">uauOmZb</p>","","","","","","","","",""
"html-keyboard-response","375","704470","0.0-16.0-0.43","61301fcb49db2f170cb02b93","650c16f0f2faf8d7a0d14c09","651c1cadd24a0d706e070b09","null","null","<p style=""font-size: 60px; font-family: BACS"">uauOmZb</p>","","","","","","","","",""
"html-keyboard-response","376","705476","0.0-16.0-0.44","61301fcb49db2f170cb02b93","650c16f0f2faf8d7a0d14c09","651c1cadd24a0d706e070b09","null","null","<p style=""font-size: 60px; font-family: BACS"">uauOmZb</p>","","","","","","","","",""
"html-keyboard-response","377","706488","0.0-16.0-0.45","61301fcb49db2f170cb02b93","650c16f0f2faf8d7a0d14c09","651c1cadd24a0d706e070b09","null","null","<p style=""font-size: 60px; font-family: BACS"">uauOmZb</p>","","","","","","","","",""
"html-keyboard-response","378","707504","0.0-16.0-0.46","61301fcb49db2f170cb02b93","650c16f0f2faf8d7a0d14c09","651c1cadd24a0d706e070b09","null","null","<p style=""font-size: 60px; font-family: BACS"">uauOmZb</p>","","","","","","","","",""
"html-keyboard-response","379","708508","0.0-16.0-0.47","61301fcb49db2f170cb02b93","650c16f0f2faf8d7a0d14c09","651c1cadd24a0d706e070b09","null","null","<p style=""font-size: 60px; font-family: BACS"">uauOmZb</p>","","","","","","","","",""
"html-keyboard-response","380","709522","0.0-16.0-0.48","61301fcb49db2f170cb02b93","650c16f0f2faf8d7a0d14c09","651c1cadd24a0d706e070b09","null","null","<p style=""font-size: 60px; font-family: BACS"">uauOmZb</p>","","","","","","","","",""
"html-keyboard-response","381","710526","0.0-16.0-0.49","61301fcb49db2f170cb02b93","650c16f0f2faf8d7a0d14c09","651c1cadd24a0d706e070b09","null","null","<p style=""font-size: 60px; font-family: BACS"">uauOmZb</p>","","","","","","","","",""
"html-keyboard-response","382","711538","0.0-16.0-0.50","61301fcb49db2f170cb02b93","650c16f0f2faf8d7a0d14c09","651c1cadd24a0d706e070b09","null","null","<p style=""font-size: 60px; font-family: BACS"">uauOmZb</p>","","","","","","","","",""
"html-keyboard-response","383","712539","0.0-16.0-0.51","61301fcb49db2f170cb02b93","650c16f0f2faf8d7a0d14c09","651c1cadd24a0d706e070b09","null","null","<p style=""font-size: 60px; font-family: BACS"">uauOmZb</p>","","","","","","","","",""
"html-keyboard-response","384","713553","0.0-16.0-0.52","61301fcb49db2f170cb02b93","650c16f0f2faf8d7a0d14c09","651c1cadd24a0d706e070b09","null","null","<p style=""font-size: 60px; font-family: BACS"">uauOmZb</p>","","","","","","","","",""
"html-keyboard-response","385","714570","0.0-16.0-0.53","61301fcb49db2f170cb02b93","650c16f0f2faf8d7a0d14c09","651c1cadd24a0d706e070b09","null","null","<p style=""font-size: 60px; font-family: BACS"">uauOmZb</p>","","","","","","","","",""
"html-keyboard-response","386","715571","0.0-16.0-0.54","61301fcb49db2f170cb02b93","650c16f0f2faf8d7a0d14c09","651c1cadd24a0d706e070b09","null","null","<p style=""font-size: 60px; font-family: BACS"">uauOmZb</p>","","","","","","","","",""
"html-keyboard-response","387","716587","0.0-16.0-0.55","61301fcb49db2f170cb02b93","650c16f0f2faf8d7a0d14c09","651c1cadd24a0d706e070b09","null","null","<p style=""font-size: 60px; font-family: BACS"">uauOmZb</p>","","","","","","","","",""
"html-keyboard-response","388","717590","0.0-16.0-0.56","61301fcb49db2f170cb02b93","650c16f0f2faf8d7a0d14c09","651c1cadd24a0d706e070b09","null","null","<p style=""font-size: 60px; font-family: BACS"">uauOmZb</p>","","","","","","","","",""
"html-keyboard-response","389","718592","0.0-16.0-0.57","61301fcb49db2f170cb02b93","650c16f0f2faf8d7a0d14c09","651c1cadd24a0d706e070b09","null","null","<p style=""font-size: 60px; font-family: BACS"">uauOmZb</p>","","","","","","","","",""
"html-keyboard-response","390","719607","0.0-16.0-0.58","61301fcb49db2f170cb02b93","650c16f0f2faf8d7a0d14c09","651c1cadd24a0d706e070b09","null","null","<p style=""font-size: 60px; font-family: BACS"">uauOmZb</p>","","","","","","","","",""
"html-keyboard-response","391","720621","0.0-16.0-0.59","61301fcb49db2f170cb02b93","650c16f0f2faf8d7a0d14c09","651c1cadd24a0d706e070b09","null","null","<p style=""font-size: 60px; font-family: BACS"">uauOmZb</p>","","","","","","","","",""
"html-keyboard-response","392","721625","0.0-16.0-0.60","61301fcb49db2f170cb02b93","650c16f0f2faf8d7a0d14c09","651c1cadd24a0d706e070b09","null","null","<p style=""font-size: 60px; font-family: BACS"">uauOmZb</p>","","","","","","","","",""
"html-keyboard-response","393","722635","0.0-16.0-0.61","61301fcb49db2f170cb02b93","650c16f0f2faf8d7a0d14c09","651c1cadd24a0d706e070b09","null","null","<p style=""font-size: 60px; font-family: BACS"">uauOmZb</p>","","","","","","","","",""
"html-keyboard-response","394","723638","0.0-16.0-0.62","61301fcb49db2f170cb02b93","650c16f0f2faf8d7a0d14c09","651c1cadd24a0d706e070b09","null","null","<p style=""font-size: 60px; font-family: BACS"">uauOmZb</p>","","","","","","","","",""
"html-keyboard-response","395","724655","0.0-16.0-0.63","61301fcb49db2f170cb02b93","650c16f0f2faf8d7a0d14c09","651c1cadd24a0d706e070b09","null","null","<p style=""font-size: 60px; font-family: BACS"">uauOmZb</p>","","","","","","","","",""
"html-keyboard-response","396","725657","0.0-16.0-0.64","61301fcb49db2f170cb02b93","650c16f0f2faf8d7a0d14c09","651c1cadd24a0d706e070b09","null","null","<p style=""font-size: 60px; font-family: BACS"">uauOmZb</p>","","","","","","","","",""
"html-keyboard-response","397","726661","0.0-16.0-0.65","61301fcb49db2f170cb02b93","650c16f0f2faf8d7a0d14c09","651c1cadd24a0d706e070b09","null","null","<p style=""font-size: 60px; font-family: BACS"">uauOmZb</p>","","","","","","","","",""
"html-keyboard-response","398","727670","0.0-16.0-0.66","61301fcb49db2f170cb02b93","650c16f0f2faf8d7a0d14c09","651c1cadd24a0d706e070b09","null","null","<p style=""font-size: 60px; font-family: BACS"">uauOmZb</p>","","","","","","","","",""
