"trial_type","trial_index","time_elapsed","internal_node_id","subject_id","study_id","session_id","rt","response","stimulus","success","item","task","correct_response","testing_condition","correct","target","confound","name"
"pavlovia","0","851","0.0-0.0","6100174f92a7a0e5141b195e","650c16f0f2faf8d7a0d14c09","651d3ebfab1277ccc86c00c7","","","","","","","","","","","",""
"survey-html-form","1","3616","0.0-1.0","6100174f92a7a0e5141b195e","650c16f0f2faf8d7a0d14c09","651d3ebfab1277ccc86c00c7","2764","{""ID"":""6100174f92a7a0e5141b195e""}","","","","","","","","","",""
"html-keyboard-response","2","18106","0.0-2.0","6100174f92a7a0e5141b195e","650c16f0f2faf8d7a0d14c09","651d3ebfab1277ccc86c00c7","14488"," ","<p style=""font-size: 15px;"">Before beginning, we ask that you read the consent information and confirm your agreement to participate in the experiment.</p>
      <p style=""font-size: 15px;""> We ask that you remember that this is a research project and that your participation is entirely voluntary. You can stop your participation at any time, without needing to provide any explanation. The study we're asking you to participate in aims at examining how readers process written words. You will be engaged in a session of apprximately 20 minutes, followed by a brief questionnaire. You will have the opportunity to take a few breaks during the experiment. You will be paid £4 for your participation, corresponding to a rate of £8/hour. While this experiment looks at cognitive faculties, this experiment doesn't constitute clinical proof of eventual pathologies.</p>
      <p style=""font-size: 15px;"">All of the information collected thanks to yours and others' participation will be held in a secure password-protected server, and will not be shared with anyone not authorised to view it. Your personal information will be kept with an arbitrary participant ID. Thanks to this data anonymity process, any researcher analysing the data won't be able to track the information back to a specific participant. Therefore, this process will make identifying you impossibile, even when results from the study will be published in scientific reviews, presented at congresses, or at any other public forum. More generally, the collected data will be treated in accordance with the laws on privacy and conformity to the Legislative Degree n. 196 ""Code regarding the protection of personal data"" of the 30th of June 2003 and to the European Regulation 2016/670 (General Data Protection Regulation - GDPR). The Data Protection Officer is Avv. Valentina Carollo, who can be contacted at the following email addresses: <a href=""mailto:dpo@sissa.it"">dpo@sissa.it</a> or <a href=""mailto:rpd@sissa.it"">rpd@sissa.it</a> - PEC: <a href=""mailto:protocollo@pec.sissa.it"">protocollo@pec.sissa.it</a>.</p>
      <p style=""font-size: 15px;""> Before expressing your consent to participate, we would like to remind you again that in case you need explanations on any aspect of the experimental procedure, the researcher is at your disposition (<a href=""mailto:aliebelt@sissa.it"">aliebelt@sissa.it</a>, <a href=""mailto:davide.crepaldi@sissa.it"">davide.crepaldi@sissa.it</a>).</p>
      <p style=""font-size: 15px;"">If you would like to download the informed consent form, you can do so here: <a href=""BASL-Informed_Consent.pdf"" download>informed consent form</a>.</p>
      <p style=""font-size: 15px;"">We ask that you press the spacebar to proceed to the consent section.</p>","","","","","","","","",""
"survey-html-form","3","41137","0.0-3.0","6100174f92a7a0e5141b195e","650c16f0f2faf8d7a0d14c09","651d3ebfab1277ccc86c00c7","23030","{""consent1"":""YES"",""consent2"":""YES"",""consent3"":""YES"",""consent4"":""YES"",""consent5"":""YES"",""consent6"":""YES""}","","","","","","","","","",""
"fullscreen","4","48767","0.0-4.0","6100174f92a7a0e5141b195e","650c16f0f2faf8d7a0d14c09","651d3ebfab1277ccc86c00c7","","","","true","","","","","","","",""
"html-keyboard-response","5","65875","0.0-5.0","6100174f92a7a0e5141b195e","650c16f0f2faf8d7a0d14c09","651d3ebfab1277ccc86c00c7","17107"," ","<p>Welcome, and thank you very much for your time!</p>
      <p>In this experiment, you'll be a language expert who's been asked to take a look at words that Earth has received in its first communication with aliens. Your task, in this first part of the experiment, is to pay close attention to the words you'll be shown; later, world leaders will ask you questions on what you saw. The words will be shown to you quite quickly; it seems that the aliens were in a hurry :-)</p>
      <p>Press the spacebar to continue.<p>","","","","","","","","",""
"html-keyboard-response","6","65927","0.0-6.0","6100174f92a7a0e5141b195e","650c16f0f2faf8d7a0d14c09","651d3ebfab1277ccc86c00c7","null","null","<p style=""font-size: 120px; font-family: BACS""> </p>","","","","","","","","",""
"html-keyboard-response","7","80061","0.0-7.0","6100174f92a7a0e5141b195e","650c16f0f2faf8d7a0d14c09","651d3ebfab1277ccc86c00c7","14134"," ","<p>Here is an example of the words you'll see:</p>
      <img src='esempio.png' height='400px'>
      <p>When you're ready to begin, press the spacebar.</p></div>","","","","","","","","",""
"html-keyboard-response","8","81066","0.0-8.0-0.0","6100174f92a7a0e5141b195e","650c16f0f2faf8d7a0d14c09","651d3ebfab1277ccc86c00c7","null","null","<p style=""font-size: 60px; font-family: BACS"">PEtEcPK</p>","","","","","","","","",""
"html-keyboard-response","9","82067","0.0-8.0-0.1","6100174f92a7a0e5141b195e","650c16f0f2faf8d7a0d14c09","651d3ebfab1277ccc86c00c7","null","null","<p style=""font-size: 60px; font-family: BACS"">dmZvmcbm</p>","","","","","","","","",""
"html-keyboard-response","10","83068","0.0-8.0-0.2","6100174f92a7a0e5141b195e","650c16f0f2faf8d7a0d14c09","651d3ebfab1277ccc86c00c7","null","null","<p style=""font-size: 60px; font-family: BACS"">UdumdLkNc</p>","","","","","","","","",""
"html-keyboard-response","11","84069","0.0-8.0-0.3","6100174f92a7a0e5141b195e","650c16f0f2faf8d7a0d14c09","651d3ebfab1277ccc86c00c7","null","null","<p style=""font-size: 60px; font-family: BACS"">RtRhcPK</p>","","","","","","","","",""
"html-keyboard-response","12","85073","0.0-8.0-0.4","6100174f92a7a0e5141b195e","650c16f0f2faf8d7a0d14c09","651d3ebfab1277ccc86c00c7","null","null","<p style=""font-size: 60px; font-family: BACS"">vAaruZc</p>","","","","","","","","",""
"html-keyboard-response","13","86074","0.0-8.0-0.5","6100174f92a7a0e5141b195e","650c16f0f2faf8d7a0d14c09","651d3ebfab1277ccc86c00c7","null","null","<p style=""font-size: 60px; font-family: BACS"">BbODYDTk</p>","","","","","","","","",""
"html-keyboard-response","14","87079","0.0-8.0-0.6","6100174f92a7a0e5141b195e","650c16f0f2faf8d7a0d14c09","651d3ebfab1277ccc86c00c7","null","null","<p style=""font-size: 60px; font-family: BACS"">UrOQLkNc</p>","","","","","","","","",""
"html-keyboard-response","15","88081","0.0-8.0-0.7","6100174f92a7a0e5141b195e","650c16f0f2faf8d7a0d14c09","651d3ebfab1277ccc86c00c7","null","null","<p style=""font-size: 60px; font-family: BACS"">GNAcauZc</p>","","","","","","","","",""
"html-keyboard-response","16","89083","0.0-8.0-0.8","6100174f92a7a0e5141b195e","650c16f0f2faf8d7a0d14c09","651d3ebfab1277ccc86c00c7","null","null","<p style=""font-size: 60px; font-family: BACS"">dMYBPmAM</p>","","","","","","","","",""
"html-keyboard-response","17","90087","0.0-8.0-0.9","6100174f92a7a0e5141b195e","650c16f0f2faf8d7a0d14c09","651d3ebfab1277ccc86c00c7","null","null","<p style=""font-size: 60px; font-family: BACS"">TKDkYbBT</p>","","","","","","","","",""
"html-keyboard-response","18","91092","0.0-8.0-0.10","6100174f92a7a0e5141b195e","650c16f0f2faf8d7a0d14c09","651d3ebfab1277ccc86c00c7","null","null","<p style=""font-size: 60px; font-family: BACS"">mdlacbm</p>","","","","","","","","",""
"html-keyboard-response","19","92096","0.0-8.0-0.11","6100174f92a7a0e5141b195e","650c16f0f2faf8d7a0d14c09","651d3ebfab1277ccc86c00c7","null","null","<p style=""font-size: 60px; font-family: BACS"">htmhCYbBT</p>","","","","","","","","",""
"html-keyboard-response","20","93100","0.0-8.0-0.12","6100174f92a7a0e5141b195e","650c16f0f2faf8d7a0d14c09","651d3ebfab1277ccc86c00c7","null","null","<p style=""font-size: 60px; font-family: BACS"">khmhmAM</p>","","","","","","","","",""
"html-keyboard-response","21","94104","0.0-8.0-0.13","6100174f92a7a0e5141b195e","650c16f0f2faf8d7a0d14c09","651d3ebfab1277ccc86c00c7","null","null","<p style=""font-size: 60px; font-family: BACS"">dKRDYDTk</p>","","","","","","","","",""
"html-keyboard-response","22","95109","0.0-8.0-0.14","6100174f92a7a0e5141b195e","650c16f0f2faf8d7a0d14c09","651d3ebfab1277ccc86c00c7","null","null","<p style=""font-size: 60px; font-family: BACS"">NbacANmAG</p>","","","","","","","","",""
"html-keyboard-response","23","96113","0.0-8.0-0.15","6100174f92a7a0e5141b195e","650c16f0f2faf8d7a0d14c09","651d3ebfab1277ccc86c00c7","null","null","<p style=""font-size: 60px; font-family: BACS"">vAarcbm</p>","","","","","","","","",""
"html-keyboard-response","24","97117","0.0-8.0-0.16","6100174f92a7a0e5141b195e","650c16f0f2faf8d7a0d14c09","651d3ebfab1277ccc86c00c7","null","null","<p style=""font-size: 60px; font-family: BACS"">JvaAuZc</p>","","","","","","","","",""
"html-keyboard-response","25","98120","0.0-8.0-0.17","6100174f92a7a0e5141b195e","650c16f0f2faf8d7a0d14c09","651d3ebfab1277ccc86c00c7","null","null","<p style=""font-size: 60px; font-family: BACS"">lRCBTmc</p>","","","","","","","","",""
"html-keyboard-response","26","99124","0.0-8.0-0.18","6100174f92a7a0e5141b195e","650c16f0f2faf8d7a0d14c09","651d3ebfab1277ccc86c00c7","null","null","<p style=""font-size: 60px; font-family: BACS"">Ldrbvcbm</p>","","","","","","","","",""
"html-keyboard-response","27","100129","0.0-8.0-0.19","6100174f92a7a0e5141b195e","650c16f0f2faf8d7a0d14c09","651d3ebfab1277ccc86c00c7","null","null","<p style=""font-size: 60px; font-family: BACS"">vAarLkNc</p>","","","","","","","","",""
"html-keyboard-response","28","101133","0.0-8.0-0.20","6100174f92a7a0e5141b195e","650c16f0f2faf8d7a0d14c09","651d3ebfab1277ccc86c00c7","null","null","<p style=""font-size: 60px; font-family: BACS"">BbODTmc</p>","","","","","","","","",""
"html-keyboard-response","29","102137","0.0-8.0-0.21","6100174f92a7a0e5141b195e","650c16f0f2faf8d7a0d14c09","651d3ebfab1277ccc86c00c7","null","null","<p style=""font-size: 60px; font-family: BACS"">GNAcaNmAG</p>","","","","","","","","",""
"html-keyboard-response","30","103141","0.0-8.0-0.22","6100174f92a7a0e5141b195e","650c16f0f2faf8d7a0d14c09","651d3ebfab1277ccc86c00c7","null","null","<p style=""font-size: 60px; font-family: BACS"">NbmQULkNc</p>","","","","","","","","",""
"html-keyboard-response","31","104146","0.0-8.0-0.23","6100174f92a7a0e5141b195e","650c16f0f2faf8d7a0d14c09","651d3ebfab1277ccc86c00c7","null","null","<p style=""font-size: 60px; font-family: BACS"">mdlaNmAG</p>","","","","","","","","",""
"html-keyboard-response","32","105150","0.0-8.0-0.24","6100174f92a7a0e5141b195e","650c16f0f2faf8d7a0d14c09","651d3ebfab1277ccc86c00c7","null","null","<p style=""font-size: 60px; font-family: BACS"">dKRDmAM</p>","","","","","","","","",""
"html-keyboard-response","33","106154","0.0-8.0-0.25","6100174f92a7a0e5141b195e","650c16f0f2faf8d7a0d14c09","651d3ebfab1277ccc86c00c7","null","null","<p style=""font-size: 60px; font-family: BACS"">TKDkcPK</p>","","","","","","","","",""
"html-keyboard-response","34","107159","0.0-8.0-0.26","6100174f92a7a0e5141b195e","650c16f0f2faf8d7a0d14c09","651d3ebfab1277ccc86c00c7","null","null","<p style=""font-size: 60px; font-family: BACS"">dmZvmNmAG</p>","","","","","","","","",""
"html-keyboard-response","35","108162","0.0-8.0-0.27","6100174f92a7a0e5141b195e","650c16f0f2faf8d7a0d14c09","651d3ebfab1277ccc86c00c7","null","null","<p style=""font-size: 60px; font-family: BACS"">JvaAcbm</p>","","","","","","","","",""
"html-keyboard-response","36","109167","0.0-8.0-0.28","6100174f92a7a0e5141b195e","650c16f0f2faf8d7a0d14c09","651d3ebfab1277ccc86c00c7","null","null","<p style=""font-size: 60px; font-family: BACS"">PEtEmAM</p>","","","","","","","","",""
"html-keyboard-response","37","110172","0.0-8.0-0.29","6100174f92a7a0e5141b195e","650c16f0f2faf8d7a0d14c09","651d3ebfab1277ccc86c00c7","null","null","<p style=""font-size: 60px; font-family: BACS"">dKRDcPK</p>","","","","","","","","",""
"html-keyboard-response","38","111177","0.0-8.0-0.30","6100174f92a7a0e5141b195e","650c16f0f2faf8d7a0d14c09","651d3ebfab1277ccc86c00c7","null","null","<p style=""font-size: 60px; font-family: BACS"">TKDkmAM</p>","","","","","","","","",""
"html-keyboard-response","39","112181","0.0-8.0-0.31","6100174f92a7a0e5141b195e","650c16f0f2faf8d7a0d14c09","651d3ebfab1277ccc86c00c7","null","null","<p style=""font-size: 60px; font-family: BACS"">GNAcaLkNc</p>","","","","","","","","",""
"html-keyboard-response","40","113186","0.0-8.0-0.32","6100174f92a7a0e5141b195e","650c16f0f2faf8d7a0d14c09","651d3ebfab1277ccc86c00c7","null","null","<p style=""font-size: 60px; font-family: BACS"">UrOQcbm</p>","","","","","","","","",""
"html-keyboard-response","41","114190","0.0-8.0-0.33","6100174f92a7a0e5141b195e","650c16f0f2faf8d7a0d14c09","651d3ebfab1277ccc86c00c7","null","null","<p style=""font-size: 60px; font-family: BACS"">NbacALkNc</p>","","","","","","","","",""
"html-keyboard-response","42","115194","0.0-8.0-0.34","6100174f92a7a0e5141b195e","650c16f0f2faf8d7a0d14c09","651d3ebfab1277ccc86c00c7","null","null","<p style=""font-size: 60px; font-family: BACS"">dmZvmYaum</p>","","","","","","","","",""
"html-keyboard-response","43","116198","0.0-8.0-0.35","6100174f92a7a0e5141b195e","650c16f0f2faf8d7a0d14c09","651d3ebfab1277ccc86c00c7","null","null","<p style=""font-size: 60px; font-family: BACS"">CmcOYDTk</p>","","","","","","","","",""
"html-keyboard-response","44","117203","0.0-8.0-0.36","6100174f92a7a0e5141b195e","650c16f0f2faf8d7a0d14c09","651d3ebfab1277ccc86c00c7","null","null","<p style=""font-size: 60px; font-family: BACS"">UrOQuZc</p>","","","","","","","","",""
"html-keyboard-response","45","118207","0.0-8.0-0.37","6100174f92a7a0e5141b195e","650c16f0f2faf8d7a0d14c09","651d3ebfab1277ccc86c00c7","null","null","<p style=""font-size: 60px; font-family: BACS"">RtRhTmc</p>","","","","","","","","",""
"html-keyboard-response","46","119211","0.0-8.0-0.38","6100174f92a7a0e5141b195e","650c16f0f2faf8d7a0d14c09","651d3ebfab1277ccc86c00c7","null","null","<p style=""font-size: 60px; font-family: BACS"">LdrbvYaum</p>","","","","","","","","",""
"html-keyboard-response","47","120216","0.0-8.0-0.39","6100174f92a7a0e5141b195e","650c16f0f2faf8d7a0d14c09","651d3ebfab1277ccc86c00c7","null","null","<p style=""font-size: 60px; font-family: BACS"">khmhYbBT</p>","","","","","","","","",""
"html-keyboard-response","48","121219","0.0-8.0-0.40","6100174f92a7a0e5141b195e","650c16f0f2faf8d7a0d14c09","651d3ebfab1277ccc86c00c7","null","null","<p style=""font-size: 60px; font-family: BACS"">UdumdNmAG</p>","","","","","","","","",""
"html-keyboard-response","49","122224","0.0-8.0-0.41","6100174f92a7a0e5141b195e","650c16f0f2faf8d7a0d14c09","651d3ebfab1277ccc86c00c7","null","null","<p style=""font-size: 60px; font-family: BACS"">CmcOTmc</p>","","","","","","","","",""
"html-keyboard-response","50","123228","0.0-8.0-0.42","6100174f92a7a0e5141b195e","650c16f0f2faf8d7a0d14c09","651d3ebfab1277ccc86c00c7","null","null","<p style=""font-size: 60px; font-family: BACS"">NbmQUNmAG</p>","","","","","","","","",""
"html-keyboard-response","51","124233","0.0-8.0-0.43","6100174f92a7a0e5141b195e","650c16f0f2faf8d7a0d14c09","651d3ebfab1277ccc86c00c7","null","null","<p style=""font-size: 60px; font-family: BACS"">dMYBPcPK</p>","","","","","","","","",""
"html-keyboard-response","52","125237","0.0-8.0-0.44","6100174f92a7a0e5141b195e","650c16f0f2faf8d7a0d14c09","651d3ebfab1277ccc86c00c7","null","null","<p style=""font-size: 60px; font-family: BACS"">BbODmAM</p>","","","","","","","","",""
"html-keyboard-response","53","126242","0.0-8.0-0.45","6100174f92a7a0e5141b195e","650c16f0f2faf8d7a0d14c09","651d3ebfab1277ccc86c00c7","null","null","<p style=""font-size: 60px; font-family: BACS"">RtRhYDTk</p>","","","","","","","","",""
"html-keyboard-response","54","127246","0.0-8.0-0.46","6100174f92a7a0e5141b195e","650c16f0f2faf8d7a0d14c09","651d3ebfab1277ccc86c00c7","null","null","<p style=""font-size: 60px; font-family: BACS"">Udumdcbm</p>","","","","","","","","",""
"html-keyboard-response","55","128250","0.0-8.0-0.47","6100174f92a7a0e5141b195e","650c16f0f2faf8d7a0d14c09","651d3ebfab1277ccc86c00c7","null","null","<p style=""font-size: 60px; font-family: BACS"">htmhCTmc</p>","","","","","","","","",""
"html-keyboard-response","56","129254","0.0-8.0-0.48","6100174f92a7a0e5141b195e","650c16f0f2faf8d7a0d14c09","651d3ebfab1277ccc86c00c7","null","null","<p style=""font-size: 60px; font-family: BACS"">lRCBYbBT</p>","","","","","","","","",""
"html-keyboard-response","57","130259","0.0-8.0-0.49","6100174f92a7a0e5141b195e","650c16f0f2faf8d7a0d14c09","651d3ebfab1277ccc86c00c7","null","null","<p style=""font-size: 60px; font-family: BACS"">NbacAYaum</p>","","","","","","","","",""
"html-keyboard-response","58","131263","0.0-8.0-0.50","6100174f92a7a0e5141b195e","650c16f0f2faf8d7a0d14c09","651d3ebfab1277ccc86c00c7","null","null","<p style=""font-size: 60px; font-family: BACS"">RtRhmAM</p>","","","","","","","","",""
"html-keyboard-response","59","132267","0.0-8.0-0.51","6100174f92a7a0e5141b195e","650c16f0f2faf8d7a0d14c09","651d3ebfab1277ccc86c00c7","null","null","<p style=""font-size: 60px; font-family: BACS"">GNAcaYaum</p>","","","","","","","","",""
"html-keyboard-response","60","133271","0.0-8.0-0.52","6100174f92a7a0e5141b195e","650c16f0f2faf8d7a0d14c09","651d3ebfab1277ccc86c00c7","null","null","<p style=""font-size: 60px; font-family: BACS"">BbODcPK</p>","","","","","","","","",""
"html-keyboard-response","61","134276","0.0-8.0-0.53","6100174f92a7a0e5141b195e","650c16f0f2faf8d7a0d14c09","651d3ebfab1277ccc86c00c7","null","null","<p style=""font-size: 60px; font-family: BACS"">LdrbvuZc</p>","","","","","","","","",""
"html-keyboard-response","62","135280","0.0-8.0-0.54","6100174f92a7a0e5141b195e","650c16f0f2faf8d7a0d14c09","651d3ebfab1277ccc86c00c7","null","null","<p style=""font-size: 60px; font-family: BACS"">JvaALkNc</p>","","","","","","","","",""
"html-keyboard-response","63","136284","0.0-8.0-0.55","6100174f92a7a0e5141b195e","650c16f0f2faf8d7a0d14c09","651d3ebfab1277ccc86c00c7","null","null","<p style=""font-size: 60px; font-family: BACS"">CmcOYbBT</p>","","","","","","","","",""
"html-keyboard-response","64","137289","0.0-8.0-0.56","6100174f92a7a0e5141b195e","650c16f0f2faf8d7a0d14c09","651d3ebfab1277ccc86c00c7","null","null","<p style=""font-size: 60px; font-family: BACS"">NbmQUcbm</p>","","","","","","","","",""
"html-keyboard-response","65","138293","0.0-8.0-0.57","6100174f92a7a0e5141b195e","650c16f0f2faf8d7a0d14c09","651d3ebfab1277ccc86c00c7","null","null","<p style=""font-size: 60px; font-family: BACS"">dmZvmuZc</p>","","","","","","","","",""
"html-keyboard-response","66","139297","0.0-8.0-0.58","6100174f92a7a0e5141b195e","650c16f0f2faf8d7a0d14c09","651d3ebfab1277ccc86c00c7","null","null","<p style=""font-size: 60px; font-family: BACS"">dKRDYbBT</p>","","","","","","","","",""
"html-keyboard-response","67","140301","0.0-8.0-0.59","6100174f92a7a0e5141b195e","650c16f0f2faf8d7a0d14c09","651d3ebfab1277ccc86c00c7","null","null","<p style=""font-size: 60px; font-family: BACS"">lRCBYDTk</p>","","","","","","","","",""
"html-keyboard-response","68","141306","0.0-8.0-0.60","6100174f92a7a0e5141b195e","650c16f0f2faf8d7a0d14c09","651d3ebfab1277ccc86c00c7","null","null","<p style=""font-size: 60px; font-family: BACS"">JvaAYaum</p>","","","","","","","","",""
"html-keyboard-response","69","142310","0.0-8.0-0.61","6100174f92a7a0e5141b195e","650c16f0f2faf8d7a0d14c09","651d3ebfab1277ccc86c00c7","null","null","<p style=""font-size: 60px; font-family: BACS"">PEtEYbBT</p>","","","","","","","","",""
"html-keyboard-response","70","143314","0.0-8.0-0.62","6100174f92a7a0e5141b195e","650c16f0f2faf8d7a0d14c09","651d3ebfab1277ccc86c00c7","null","null","<p style=""font-size: 60px; font-family: BACS"">lRCBcPK</p>","","","","","","","","",""
"html-keyboard-response","71","144319","0.0-8.0-0.63","6100174f92a7a0e5141b195e","650c16f0f2faf8d7a0d14c09","651d3ebfab1277ccc86c00c7","null","null","<p style=""font-size: 60px; font-family: BACS"">mdlaLkNc</p>","","","","","","","","",""
"html-keyboard-response","72","145324","0.0-8.0-0.64","6100174f92a7a0e5141b195e","650c16f0f2faf8d7a0d14c09","651d3ebfab1277ccc86c00c7","null","null","<p style=""font-size: 60px; font-family: BACS"">khmhYDTk</p>","","","","","","","","",""
"html-keyboard-response","73","146328","0.0-8.0-0.65","6100174f92a7a0e5141b195e","650c16f0f2faf8d7a0d14c09","651d3ebfab1277ccc86c00c7","null","null","<p style=""font-size: 60px; font-family: BACS"">UrOQNmAG</p>","","","","","","","","",""
"html-keyboard-response","74","147331","0.0-8.0-0.66","6100174f92a7a0e5141b195e","650c16f0f2faf8d7a0d14c09","651d3ebfab1277ccc86c00c7","null","null","<p style=""font-size: 60px; font-family: BACS"">vAarYaum</p>","","","","","","","","",""
"html-keyboard-response","75","148336","0.0-8.0-0.67","6100174f92a7a0e5141b195e","650c16f0f2faf8d7a0d14c09","651d3ebfab1277ccc86c00c7","null","null","<p style=""font-size: 60px; font-family: BACS"">khmhTmc</p>","","","","","","","","",""
"html-keyboard-response","76","149340","0.0-8.0-0.68","6100174f92a7a0e5141b195e","650c16f0f2faf8d7a0d14c09","651d3ebfab1277ccc86c00c7","null","null","<p style=""font-size: 60px; font-family: BACS"">mdlauZc</p>","","","","","","","","",""
"html-keyboard-response","77","150344","0.0-8.0-0.69","6100174f92a7a0e5141b195e","650c16f0f2faf8d7a0d14c09","651d3ebfab1277ccc86c00c7","null","null","<p style=""font-size: 60px; font-family: BACS"">UdumdYaum</p>","","","","","","","","",""
"html-keyboard-response","78","151348","0.0-8.0-0.70","6100174f92a7a0e5141b195e","650c16f0f2faf8d7a0d14c09","651d3ebfab1277ccc86c00c7","null","null","<p style=""font-size: 60px; font-family: BACS"">NbacAuZc</p>","","","","","","","","",""
"html-keyboard-response","79","152353","0.0-8.0-0.71","6100174f92a7a0e5141b195e","650c16f0f2faf8d7a0d14c09","651d3ebfab1277ccc86c00c7","null","null","<p style=""font-size: 60px; font-family: BACS"">PEtEYDTk</p>","","","","","","","","",""
"html-keyboard-response","80","153358","0.0-8.0-0.72","6100174f92a7a0e5141b195e","650c16f0f2faf8d7a0d14c09","651d3ebfab1277ccc86c00c7","null","null","<p style=""font-size: 60px; font-family: BACS"">LdrbvNmAG</p>","","","","","","","","",""
"html-keyboard-response","81","154363","0.0-8.0-0.73","6100174f92a7a0e5141b195e","650c16f0f2faf8d7a0d14c09","651d3ebfab1277ccc86c00c7","null","null","<p style=""font-size: 60px; font-family: BACS"">dMYBPTmc</p>","","","","","","","","",""
"html-keyboard-response","82","155369","0.0-8.0-0.74","6100174f92a7a0e5141b195e","650c16f0f2faf8d7a0d14c09","651d3ebfab1277ccc86c00c7","null","null","<p style=""font-size: 60px; font-family: BACS"">NbmQUYaum</p>","","","","","","","","",""
"html-keyboard-response","83","156374","0.0-8.0-0.75","6100174f92a7a0e5141b195e","650c16f0f2faf8d7a0d14c09","651d3ebfab1277ccc86c00c7","null","null","<p style=""font-size: 60px; font-family: BACS"">htmhCYDTk</p>","","","","","","","","",""
"html-keyboard-response","84","157378","0.0-8.0-0.76","6100174f92a7a0e5141b195e","650c16f0f2faf8d7a0d14c09","651d3ebfab1277ccc86c00c7","null","null","<p style=""font-size: 60px; font-family: BACS"">TKDkTmc</p>","","","","","","","","",""
"html-keyboard-response","85","158382","0.0-8.0-0.77","6100174f92a7a0e5141b195e","650c16f0f2faf8d7a0d14c09","651d3ebfab1277ccc86c00c7","null","null","<p style=""font-size: 60px; font-family: BACS"">dMYBPYbBT</p>","","","","","","","","",""
"html-keyboard-response","86","159382","0.0-8.0-0.78","6100174f92a7a0e5141b195e","650c16f0f2faf8d7a0d14c09","651d3ebfab1277ccc86c00c7","null","null","<p style=""font-size: 60px; font-family: BACS"">htmhCmAM</p>","","","","","","","","",""
"html-keyboard-response","87","160387","0.0-8.0-0.79","6100174f92a7a0e5141b195e","650c16f0f2faf8d7a0d14c09","651d3ebfab1277ccc86c00c7","null","null","<p style=""font-size: 60px; font-family: BACS"">CmcOcPK</p>","","","","","","","","",""
"html-keyboard-response","88","169717","0.0-9.0","6100174f92a7a0e5141b195e","650c16f0f2faf8d7a0d14c09","651d3ebfab1277ccc86c00c7","9329"," ","<p>Great, you've seen the first block of words. You may now take a short break.</p>
      <p>Press the spacebar when you're ready to continue.</p>","","","","","","","","",""
"html-keyboard-response","89","170720","0.0-10.0-0.0","6100174f92a7a0e5141b195e","650c16f0f2faf8d7a0d14c09","651d3ebfab1277ccc86c00c7","null","null","<p style=""font-size: 60px; font-family: BACS"">dmZvmNmAG</p>","","","","","","","","",""
"html-keyboard-response","90","171724","0.0-10.0-0.1","6100174f92a7a0e5141b195e","650c16f0f2faf8d7a0d14c09","651d3ebfab1277ccc86c00c7","null","null","<p style=""font-size: 60px; font-family: BACS"">vAaruZc</p>","","","","","","","","",""
"html-keyboard-response","91","172728","0.0-10.0-0.2","6100174f92a7a0e5141b195e","650c16f0f2faf8d7a0d14c09","651d3ebfab1277ccc86c00c7","null","null","<p style=""font-size: 60px; font-family: BACS"">RtRhmAM</p>","","","","","","","","",""
"html-keyboard-response","92","173733","0.0-10.0-0.3","6100174f92a7a0e5141b195e","650c16f0f2faf8d7a0d14c09","651d3ebfab1277ccc86c00c7","null","null","<p style=""font-size: 60px; font-family: BACS"">Ldrbvcbm</p>","","","","","","","","",""
"html-keyboard-response","93","174737","0.0-10.0-0.4","6100174f92a7a0e5141b195e","650c16f0f2faf8d7a0d14c09","651d3ebfab1277ccc86c00c7","null","null","<p style=""font-size: 60px; font-family: BACS"">vAarYaum</p>","","","","","","","","",""
"html-keyboard-response","94","175741","0.0-10.0-0.5","6100174f92a7a0e5141b195e","650c16f0f2faf8d7a0d14c09","651d3ebfab1277ccc86c00c7","null","null","<p style=""font-size: 60px; font-family: BACS"">NbacALkNc</p>","","","","","","","","",""
"html-keyboard-response","95","176746","0.0-10.0-0.6","6100174f92a7a0e5141b195e","650c16f0f2faf8d7a0d14c09","651d3ebfab1277ccc86c00c7","null","null","<p style=""font-size: 60px; font-family: BACS"">UrOQuZc</p>","","","","","","","","",""
"html-keyboard-response","96","177750","0.0-10.0-0.7","6100174f92a7a0e5141b195e","650c16f0f2faf8d7a0d14c09","651d3ebfab1277ccc86c00c7","null","null","<p style=""font-size: 60px; font-family: BACS"">htmhCYDTk</p>","","","","","","","","",""
"html-keyboard-response","97","178755","0.0-10.0-0.8","6100174f92a7a0e5141b195e","650c16f0f2faf8d7a0d14c09","651d3ebfab1277ccc86c00c7","null","null","<p style=""font-size: 60px; font-family: BACS"">dKRDYbBT</p>","","","","","","","","",""
"html-keyboard-response","98","179759","0.0-10.0-0.9","6100174f92a7a0e5141b195e","650c16f0f2faf8d7a0d14c09","651d3ebfab1277ccc86c00c7","null","null","<p style=""font-size: 60px; font-family: BACS"">LdrbvuZc</p>","","","","","","","","",""
"html-keyboard-response","99","180763","0.0-10.0-0.10","6100174f92a7a0e5141b195e","650c16f0f2faf8d7a0d14c09","651d3ebfab1277ccc86c00c7","null","null","<p style=""font-size: 60px; font-family: BACS"">UrOQNmAG</p>","","","","","","","","",""
"html-keyboard-response","100","181767","0.0-10.0-0.11","6100174f92a7a0e5141b195e","650c16f0f2faf8d7a0d14c09","651d3ebfab1277ccc86c00c7","null","null","<p style=""font-size: 60px; font-family: BACS"">lRCBTmc</p>","","","","","","","","",""
"html-keyboard-response","101","182771","0.0-10.0-0.12","6100174f92a7a0e5141b195e","650c16f0f2faf8d7a0d14c09","651d3ebfab1277ccc86c00c7","null","null","<p style=""font-size: 60px; font-family: BACS"">RtRhcPK</p>","","","","","","","","",""
"html-keyboard-response","102","183776","0.0-10.0-0.13","6100174f92a7a0e5141b195e","650c16f0f2faf8d7a0d14c09","651d3ebfab1277ccc86c00c7","null","null","<p style=""font-size: 60px; font-family: BACS"">GNAcaLkNc</p>","","","","","","","","",""
"html-keyboard-response","103","184780","0.0-10.0-0.14","6100174f92a7a0e5141b195e","650c16f0f2faf8d7a0d14c09","651d3ebfab1277ccc86c00c7","null","null","<p style=""font-size: 60px; font-family: BACS"">NbacAuZc</p>","","","","","","","","",""
"html-keyboard-response","104","185784","0.0-10.0-0.15","6100174f92a7a0e5141b195e","650c16f0f2faf8d7a0d14c09","651d3ebfab1277ccc86c00c7","null","null","<p style=""font-size: 60px; font-family: BACS"">htmhCmAM</p>","","","","","","","","",""
"html-keyboard-response","105","186789","0.0-10.0-0.16","6100174f92a7a0e5141b195e","650c16f0f2faf8d7a0d14c09","651d3ebfab1277ccc86c00c7","null","null","<p style=""font-size: 60px; font-family: BACS"">khmhYbBT</p>","","","","","","","","",""
"html-keyboard-response","106","187792","0.0-10.0-0.17","6100174f92a7a0e5141b195e","650c16f0f2faf8d7a0d14c09","651d3ebfab1277ccc86c00c7","null","null","<p style=""font-size: 60px; font-family: BACS"">NbacANmAG</p>","","","","","","","","",""
"html-keyboard-response","107","188797","0.0-10.0-0.18","6100174f92a7a0e5141b195e","650c16f0f2faf8d7a0d14c09","651d3ebfab1277ccc86c00c7","null","null","<p style=""font-size: 60px; font-family: BACS"">Udumdcbm</p>","","","","","","","","",""
"html-keyboard-response","108","189801","0.0-10.0-0.19","6100174f92a7a0e5141b195e","650c16f0f2faf8d7a0d14c09","651d3ebfab1277ccc86c00c7","null","null","<p style=""font-size: 60px; font-family: BACS"">dKRDcPK</p>","","","","","","","","",""
"html-keyboard-response","109","190806","0.0-10.0-0.20","6100174f92a7a0e5141b195e","650c16f0f2faf8d7a0d14c09","651d3ebfab1277ccc86c00c7","null","null","<p style=""font-size: 60px; font-family: BACS"">htmhCTmc</p>","","","","","","","","",""
"html-keyboard-response","110","191810","0.0-10.0-0.21","6100174f92a7a0e5141b195e","650c16f0f2faf8d7a0d14c09","651d3ebfab1277ccc86c00c7","null","null","<p style=""font-size: 60px; font-family: BACS"">UdumdLkNc</p>","","","","","","","","",""
"html-keyboard-response","111","192814","0.0-10.0-0.22","6100174f92a7a0e5141b195e","650c16f0f2faf8d7a0d14c09","651d3ebfab1277ccc86c00c7","null","null","<p style=""font-size: 60px; font-family: BACS"">TKDkYbBT</p>","","","","","","","","",""
"html-keyboard-response","112","193819","0.0-10.0-0.23","6100174f92a7a0e5141b195e","650c16f0f2faf8d7a0d14c09","651d3ebfab1277ccc86c00c7","null","null","<p style=""font-size: 60px; font-family: BACS"">lRCBYDTk</p>","","","","","","","","",""
"html-keyboard-response","113","194823","0.0-10.0-0.24","6100174f92a7a0e5141b195e","650c16f0f2faf8d7a0d14c09","651d3ebfab1277ccc86c00c7","null","null","<p style=""font-size: 60px; font-family: BACS"">BbODcPK</p>","","","","","","","","",""
"html-keyboard-response","114","195827","0.0-10.0-0.25","6100174f92a7a0e5141b195e","650c16f0f2faf8d7a0d14c09","651d3ebfab1277ccc86c00c7","null","null","<p style=""font-size: 60px; font-family: BACS"">RtRhYDTk</p>","","","","","","","","",""
"html-keyboard-response","115","196831","0.0-10.0-0.26","6100174f92a7a0e5141b195e","650c16f0f2faf8d7a0d14c09","651d3ebfab1277ccc86c00c7","null","null","<p style=""font-size: 60px; font-family: BACS"">UrOQcbm</p>","","","","","","","","",""
"html-keyboard-response","116","197836","0.0-10.0-0.27","6100174f92a7a0e5141b195e","650c16f0f2faf8d7a0d14c09","651d3ebfab1277ccc86c00c7","null","null","<p style=""font-size: 60px; font-family: BACS"">PEtEcPK</p>","","","","","","","","",""
"html-keyboard-response","117","198840","0.0-10.0-0.28","6100174f92a7a0e5141b195e","650c16f0f2faf8d7a0d14c09","651d3ebfab1277ccc86c00c7","null","null","<p style=""font-size: 60px; font-family: BACS"">JvaAuZc</p>","","","","","","","","",""
"html-keyboard-response","118","199844","0.0-10.0-0.29","6100174f92a7a0e5141b195e","650c16f0f2faf8d7a0d14c09","651d3ebfab1277ccc86c00c7","null","null","<p style=""font-size: 60px; font-family: BACS"">dMYBPTmc</p>","","","","","","","","",""
"html-keyboard-response","119","200847","0.0-10.0-0.30","6100174f92a7a0e5141b195e","650c16f0f2faf8d7a0d14c09","651d3ebfab1277ccc86c00c7","null","null","<p style=""font-size: 60px; font-family: BACS"">BbODYDTk</p>","","","","","","","","",""
"html-keyboard-response","120","201851","0.0-10.0-0.31","6100174f92a7a0e5141b195e","650c16f0f2faf8d7a0d14c09","651d3ebfab1277ccc86c00c7","null","null","<p style=""font-size: 60px; font-family: BACS"">mdlaLkNc</p>","","","","","","","","",""
"html-keyboard-response","121","203658","0.0-10.0-0.32","6100174f92a7a0e5141b195e","650c16f0f2faf8d7a0d14c09","651d3ebfab1277ccc86c00c7","null","null","<p style=""font-size: 60px; font-family: BACS"">LdrbvYaum</p>","","","","","","","","",""
"html-keyboard-response","122","205870","0.0-10.0-0.33","6100174f92a7a0e5141b195e","650c16f0f2faf8d7a0d14c09","651d3ebfab1277ccc86c00c7","null","null","<p style=""font-size: 60px; font-family: BACS"">khmhTmc</p>","","","","","","","","",""
"html-keyboard-response","123","207318","0.0-10.0-0.34","6100174f92a7a0e5141b195e","650c16f0f2faf8d7a0d14c09","651d3ebfab1277ccc86c00c7","null","null","<p style=""font-size: 60px; font-family: BACS"">vAarLkNc</p>","","","","","","","","",""
"html-keyboard-response","124","208320","0.0-10.0-0.35","6100174f92a7a0e5141b195e","650c16f0f2faf8d7a0d14c09","651d3ebfab1277ccc86c00c7","null","null","<p style=""font-size: 60px; font-family: BACS"">dmZvmuZc</p>","","","","","","","","",""
"html-keyboard-response","125","209324","0.0-10.0-0.36","6100174f92a7a0e5141b195e","650c16f0f2faf8d7a0d14c09","651d3ebfab1277ccc86c00c7","null","null","<p style=""font-size: 60px; font-family: BACS"">TKDkmAM</p>","","","","","","","","",""
"html-keyboard-response","126","210328","0.0-10.0-0.37","6100174f92a7a0e5141b195e","650c16f0f2faf8d7a0d14c09","651d3ebfab1277ccc86c00c7","null","null","<p style=""font-size: 60px; font-family: BACS"">mdlauZc</p>","","","","","","","","",""
"html-keyboard-response","127","211333","0.0-10.0-0.38","6100174f92a7a0e5141b195e","650c16f0f2faf8d7a0d14c09","651d3ebfab1277ccc86c00c7","null","null","<p style=""font-size: 60px; font-family: BACS"">PEtEYbBT</p>","","","","","","","","",""
"html-keyboard-response","128","212337","0.0-10.0-0.39","6100174f92a7a0e5141b195e","650c16f0f2faf8d7a0d14c09","651d3ebfab1277ccc86c00c7","null","null","<p style=""font-size: 60px; font-family: BACS"">NbmQUYaum</p>","","","","","","","","",""
"html-keyboard-response","129","213341","0.0-10.0-0.40","6100174f92a7a0e5141b195e","650c16f0f2faf8d7a0d14c09","651d3ebfab1277ccc86c00c7","null","null","<p style=""font-size: 60px; font-family: BACS"">dKRDYDTk</p>","","","","","","","","",""
"html-keyboard-response","130","214345","0.0-10.0-0.41","6100174f92a7a0e5141b195e","650c16f0f2faf8d7a0d14c09","651d3ebfab1277ccc86c00c7","null","null","<p style=""font-size: 60px; font-family: BACS"">NbmQUNmAG</p>","","","","","","","","",""
"html-keyboard-response","131","215350","0.0-10.0-0.42","6100174f92a7a0e5141b195e","650c16f0f2faf8d7a0d14c09","651d3ebfab1277ccc86c00c7","null","null","<p style=""font-size: 60px; font-family: BACS"">TKDkcPK</p>","","","","","","","","",""
"html-keyboard-response","132","216354","0.0-10.0-0.43","6100174f92a7a0e5141b195e","650c16f0f2faf8d7a0d14c09","651d3ebfab1277ccc86c00c7","null","null","<p style=""font-size: 60px; font-family: BACS"">JvaAcbm</p>","","","","","","","","",""
"html-keyboard-response","133","217358","0.0-10.0-0.44","6100174f92a7a0e5141b195e","650c16f0f2faf8d7a0d14c09","651d3ebfab1277ccc86c00c7","null","null","<p style=""font-size: 60px; font-family: BACS"">mdlaNmAG</p>","","","","","","","","",""
"html-keyboard-response","134","218362","0.0-10.0-0.45","6100174f92a7a0e5141b195e","650c16f0f2faf8d7a0d14c09","651d3ebfab1277ccc86c00c7","null","null","<p style=""font-size: 60px; font-family: BACS"">dKRDmAM</p>","","","","","","","","",""
"html-keyboard-response","135","219367","0.0-10.0-0.46","6100174f92a7a0e5141b195e","650c16f0f2faf8d7a0d14c09","651d3ebfab1277ccc86c00c7","null","null","<p style=""font-size: 60px; font-family: BACS"">dMYBPYbBT</p>","","","","","","","","",""
"html-keyboard-response","136","220371","0.0-10.0-0.47","6100174f92a7a0e5141b195e","650c16f0f2faf8d7a0d14c09","651d3ebfab1277ccc86c00c7","null","null","<p style=""font-size: 60px; font-family: BACS"">PEtEYDTk</p>","","","","","","","","",""
"html-keyboard-response","137","221375","0.0-10.0-0.48","6100174f92a7a0e5141b195e","650c16f0f2faf8d7a0d14c09","651d3ebfab1277ccc86c00c7","null","null","<p style=""font-size: 60px; font-family: BACS"">GNAcaNmAG</p>","","","","","","","","",""
"html-keyboard-response","138","222380","0.0-10.0-0.49","6100174f92a7a0e5141b195e","650c16f0f2faf8d7a0d14c09","651d3ebfab1277ccc86c00c7","null","null","<p style=""font-size: 60px; font-family: BACS"">htmhCYbBT</p>","","","","","","","","",""
"html-keyboard-response","139","223384","0.0-10.0-0.50","6100174f92a7a0e5141b195e","650c16f0f2faf8d7a0d14c09","651d3ebfab1277ccc86c00c7","null","null","<p style=""font-size: 60px; font-family: BACS"">TKDkTmc</p>","","","","","","","","",""
"html-keyboard-response","140","224388","0.0-10.0-0.51","6100174f92a7a0e5141b195e","650c16f0f2faf8d7a0d14c09","651d3ebfab1277ccc86c00c7","null","null","<p style=""font-size: 60px; font-family: BACS"">lRCBcPK</p>","","","","","","","","",""
"html-keyboard-response","141","225393","0.0-10.0-0.52","6100174f92a7a0e5141b195e","650c16f0f2faf8d7a0d14c09","651d3ebfab1277ccc86c00c7","null","null","<p style=""font-size: 60px; font-family: BACS"">CmcOYDTk</p>","","","","","","","","",""
"html-keyboard-response","142","226397","0.0-10.0-0.53","6100174f92a7a0e5141b195e","650c16f0f2faf8d7a0d14c09","651d3ebfab1277ccc86c00c7","null","null","<p style=""font-size: 60px; font-family: BACS"">JvaAYaum</p>","","","","","","","","",""
"html-keyboard-response","143","227401","0.0-10.0-0.54","6100174f92a7a0e5141b195e","650c16f0f2faf8d7a0d14c09","651d3ebfab1277ccc86c00c7","null","null","<p style=""font-size: 60px; font-family: BACS"">CmcOTmc</p>","","","","","","","","",""
"html-keyboard-response","144","228405","0.0-10.0-0.55","6100174f92a7a0e5141b195e","650c16f0f2faf8d7a0d14c09","651d3ebfab1277ccc86c00c7","null","null","<p style=""font-size: 60px; font-family: BACS"">GNAcaYaum</p>","","","","","","","","",""
"html-keyboard-response","145","229410","0.0-10.0-0.56","6100174f92a7a0e5141b195e","650c16f0f2faf8d7a0d14c09","651d3ebfab1277ccc86c00c7","null","null","<p style=""font-size: 60px; font-family: BACS"">khmhYDTk</p>","","","","","","","","",""
"html-keyboard-response","146","230414","0.0-10.0-0.57","6100174f92a7a0e5141b195e","650c16f0f2faf8d7a0d14c09","651d3ebfab1277ccc86c00c7","null","null","<p style=""font-size: 60px; font-family: BACS"">UrOQLkNc</p>","","","","","","","","",""
"html-keyboard-response","147","231418","0.0-10.0-0.58","6100174f92a7a0e5141b195e","650c16f0f2faf8d7a0d14c09","651d3ebfab1277ccc86c00c7","null","null","<p style=""font-size: 60px; font-family: BACS"">vAarcbm</p>","","","","","","","","",""
"html-keyboard-response","148","232422","0.0-10.0-0.59","6100174f92a7a0e5141b195e","650c16f0f2faf8d7a0d14c09","651d3ebfab1277ccc86c00c7","null","null","<p style=""font-size: 60px; font-family: BACS"">khmhmAM</p>","","","","","","","","",""
"html-keyboard-response","149","233427","0.0-10.0-0.60","6100174f92a7a0e5141b195e","650c16f0f2faf8d7a0d14c09","651d3ebfab1277ccc86c00c7","null","null","<p style=""font-size: 60px; font-family: BACS"">UdumdYaum</p>","","","","","","","","",""
"html-keyboard-response","150","234431","0.0-10.0-0.61","6100174f92a7a0e5141b195e","650c16f0f2faf8d7a0d14c09","651d3ebfab1277ccc86c00c7","null","null","<p style=""font-size: 60px; font-family: BACS"">BbODmAM</p>","","","","","","","","",""
"html-keyboard-response","151","235435","0.0-10.0-0.62","6100174f92a7a0e5141b195e","650c16f0f2faf8d7a0d14c09","651d3ebfab1277ccc86c00c7","null","null","<p style=""font-size: 60px; font-family: BACS"">CmcOYbBT</p>","","","","","","","","",""
"html-keyboard-response","152","236440","0.0-10.0-0.63","6100174f92a7a0e5141b195e","650c16f0f2faf8d7a0d14c09","651d3ebfab1277ccc86c00c7","null","null","<p style=""font-size: 60px; font-family: BACS"">GNAcauZc</p>","","","","","","","","",""
"html-keyboard-response","153","237444","0.0-10.0-0.64","6100174f92a7a0e5141b195e","650c16f0f2faf8d7a0d14c09","651d3ebfab1277ccc86c00c7","null","null","<p style=""font-size: 60px; font-family: BACS"">JvaALkNc</p>","","","","","","","","",""
"html-keyboard-response","154","238448","0.0-10.0-0.65","6100174f92a7a0e5141b195e","650c16f0f2faf8d7a0d14c09","651d3ebfab1277ccc86c00c7","null","null","<p style=""font-size: 60px; font-family: BACS"">BbODTmc</p>","","","","","","","","",""
"html-keyboard-response","155","239452","0.0-10.0-0.66","6100174f92a7a0e5141b195e","650c16f0f2faf8d7a0d14c09","651d3ebfab1277ccc86c00c7","null","null","<p style=""font-size: 60px; font-family: BACS"">mdlacbm</p>","","","","","","","","",""
"html-keyboard-response","156","240457","0.0-10.0-0.67","6100174f92a7a0e5141b195e","650c16f0f2faf8d7a0d14c09","651d3ebfab1277ccc86c00c7","null","null","<p style=""font-size: 60px; font-family: BACS"">lRCBYbBT</p>","","","","","","","","",""
"html-keyboard-response","157","241461","0.0-10.0-0.68","6100174f92a7a0e5141b195e","650c16f0f2faf8d7a0d14c09","651d3ebfab1277ccc86c00c7","null","null","<p style=""font-size: 60px; font-family: BACS"">CmcOcPK</p>","","","","","","","","",""
"html-keyboard-response","158","242465","0.0-10.0-0.69","6100174f92a7a0e5141b195e","650c16f0f2faf8d7a0d14c09","651d3ebfab1277ccc86c00c7","null","null","<p style=""font-size: 60px; font-family: BACS"">NbmQUcbm</p>","","","","","","","","",""
"html-keyboard-response","159","243469","0.0-10.0-0.70","6100174f92a7a0e5141b195e","650c16f0f2faf8d7a0d14c09","651d3ebfab1277ccc86c00c7","null","null","<p style=""font-size: 60px; font-family: BACS"">dMYBPmAM</p>","","","","","","","","",""
"html-keyboard-response","160","244474","0.0-10.0-0.71","6100174f92a7a0e5141b195e","650c16f0f2faf8d7a0d14c09","651d3ebfab1277ccc86c00c7","null","null","<p style=""font-size: 60px; font-family: BACS"">dmZvmYaum</p>","","","","","","","","",""
"html-keyboard-response","161","245478","0.0-10.0-0.72","6100174f92a7a0e5141b195e","650c16f0f2faf8d7a0d14c09","651d3ebfab1277ccc86c00c7","null","null","<p style=""font-size: 60px; font-family: BACS"">NbmQULkNc</p>","","","","","","","","",""
"html-keyboard-response","162","246482","0.0-10.0-0.73","6100174f92a7a0e5141b195e","650c16f0f2faf8d7a0d14c09","651d3ebfab1277ccc86c00c7","null","null","<p style=""font-size: 60px; font-family: BACS"">PEtEmAM</p>","","","","","","","","",""
"html-keyboard-response","163","247487","0.0-10.0-0.74","6100174f92a7a0e5141b195e","650c16f0f2faf8d7a0d14c09","651d3ebfab1277ccc86c00c7","null","null","<p style=""font-size: 60px; font-family: BACS"">NbacAYaum</p>","","","","","","","","",""
"html-keyboard-response","164","248491","0.0-10.0-0.75","6100174f92a7a0e5141b195e","650c16f0f2faf8d7a0d14c09","651d3ebfab1277ccc86c00c7","null","null","<p style=""font-size: 60px; font-family: BACS"">RtRhTmc</p>","","","","","","","","",""
"html-keyboard-response","165","249495","0.0-10.0-0.76","6100174f92a7a0e5141b195e","650c16f0f2faf8d7a0d14c09","651d3ebfab1277ccc86c00c7","null","null","<p style=""font-size: 60px; font-family: BACS"">LdrbvNmAG</p>","","","","","","","","",""
"html-keyboard-response","166","250499","0.0-10.0-0.77","6100174f92a7a0e5141b195e","650c16f0f2faf8d7a0d14c09","651d3ebfab1277ccc86c00c7","null","null","<p style=""font-size: 60px; font-family: BACS"">dMYBPcPK</p>","","","","","","","","",""
"html-keyboard-response","167","251504","0.0-10.0-0.78","6100174f92a7a0e5141b195e","650c16f0f2faf8d7a0d14c09","651d3ebfab1277ccc86c00c7","null","null","<p style=""font-size: 60px; font-family: BACS"">UdumdNmAG</p>","","","","","","","","",""
"html-keyboard-response","168","252508","0.0-10.0-0.79","6100174f92a7a0e5141b195e","650c16f0f2faf8d7a0d14c09","651d3ebfab1277ccc86c00c7","null","null","<p style=""font-size: 60px; font-family: BACS"">dmZvmcbm</p>","","","","","","","","",""
"html-keyboard-response","169","260913","0.0-11.0","6100174f92a7a0e5141b195e","650c16f0f2faf8d7a0d14c09","651d3ebfab1277ccc86c00c7","8404"," ","<p>Great, you've seen the second block of words. You may now take a short break.</p>
      <p>Press the spacebar when you're ready to continue.</p>","","","","","","","","",""
"html-keyboard-response","170","261918","0.0-12.0-0.0","6100174f92a7a0e5141b195e","650c16f0f2faf8d7a0d14c09","651d3ebfab1277ccc86c00c7","null","null","<p style=""font-size: 60px; font-family: BACS"">GNAcaLkNc</p>","","","","","","","","",""
"html-keyboard-response","171","262922","0.0-12.0-0.1","6100174f92a7a0e5141b195e","650c16f0f2faf8d7a0d14c09","651d3ebfab1277ccc86c00c7","null","null","<p style=""font-size: 60px; font-family: BACS"">khmhTmc</p>","","","","","","","","",""
"html-keyboard-response","172","263927","0.0-12.0-0.2","6100174f92a7a0e5141b195e","650c16f0f2faf8d7a0d14c09","651d3ebfab1277ccc86c00c7","null","null","<p style=""font-size: 60px; font-family: BACS"">JvaAYaum</p>","","","","","","","","",""
"html-keyboard-response","173","264931","0.0-12.0-0.3","6100174f92a7a0e5141b195e","650c16f0f2faf8d7a0d14c09","651d3ebfab1277ccc86c00c7","null","null","<p style=""font-size: 60px; font-family: BACS"">mdlaNmAG</p>","","","","","","","","",""
"html-keyboard-response","174","265935","0.0-12.0-0.4","6100174f92a7a0e5141b195e","650c16f0f2faf8d7a0d14c09","651d3ebfab1277ccc86c00c7","null","null","<p style=""font-size: 60px; font-family: BACS"">dKRDYbBT</p>","","","","","","","","",""
"html-keyboard-response","175","266940","0.0-12.0-0.5","6100174f92a7a0e5141b195e","650c16f0f2faf8d7a0d14c09","651d3ebfab1277ccc86c00c7","null","null","<p style=""font-size: 60px; font-family: BACS"">lRCBYDTk</p>","","","","","","","","",""
"html-keyboard-response","176","267944","0.0-12.0-0.6","6100174f92a7a0e5141b195e","650c16f0f2faf8d7a0d14c09","651d3ebfab1277ccc86c00c7","null","null","<p style=""font-size: 60px; font-family: BACS"">NbmQULkNc</p>","","","","","","","","",""
"html-keyboard-response","177","268948","0.0-12.0-0.7","6100174f92a7a0e5141b195e","650c16f0f2faf8d7a0d14c09","651d3ebfab1277ccc86c00c7","null","null","<p style=""font-size: 60px; font-family: BACS"">UdumdYaum</p>","","","","","","","","",""
"html-keyboard-response","178","269952","0.0-12.0-0.8","6100174f92a7a0e5141b195e","650c16f0f2faf8d7a0d14c09","651d3ebfab1277ccc86c00c7","null","null","<p style=""font-size: 60px; font-family: BACS"">LdrbvuZc</p>","","","","","","","","",""
"html-keyboard-response","179","270957","0.0-12.0-0.9","6100174f92a7a0e5141b195e","650c16f0f2faf8d7a0d14c09","651d3ebfab1277ccc86c00c7","null","null","<p style=""font-size: 60px; font-family: BACS"">UdumdNmAG</p>","","","","","","","","",""
"html-keyboard-response","180","271961","0.0-12.0-0.10","6100174f92a7a0e5141b195e","650c16f0f2faf8d7a0d14c09","651d3ebfab1277ccc86c00c7","null","null","<p style=""font-size: 60px; font-family: BACS"">khmhmAM</p>","","","","","","","","",""
"html-keyboard-response","181","272965","0.0-12.0-0.11","6100174f92a7a0e5141b195e","650c16f0f2faf8d7a0d14c09","651d3ebfab1277ccc86c00c7","null","null","<p style=""font-size: 60px; font-family: BACS"">JvaALkNc</p>","","","","","","","","",""
"html-keyboard-response","182","273969","0.0-12.0-0.12","6100174f92a7a0e5141b195e","650c16f0f2faf8d7a0d14c09","651d3ebfab1277ccc86c00c7","null","null","<p style=""font-size: 60px; font-family: BACS"">UrOQuZc</p>","","","","","","","","",""
"html-keyboard-response","183","274974","0.0-12.0-0.13","6100174f92a7a0e5141b195e","650c16f0f2faf8d7a0d14c09","651d3ebfab1277ccc86c00c7","null","null","<p style=""font-size: 60px; font-family: BACS"">dMYBPYbBT</p>","","","","","","","","",""
"html-keyboard-response","184","275978","0.0-12.0-0.14","6100174f92a7a0e5141b195e","650c16f0f2faf8d7a0d14c09","651d3ebfab1277ccc86c00c7","null","null","<p style=""font-size: 60px; font-family: BACS"">vAarLkNc</p>","","","","","","","","",""
"html-keyboard-response","185","276982","0.0-12.0-0.15","6100174f92a7a0e5141b195e","650c16f0f2faf8d7a0d14c09","651d3ebfab1277ccc86c00c7","null","null","<p style=""font-size: 60px; font-family: BACS"">lRCBcPK</p>","","","","","","","","",""
"html-keyboard-response","186","277987","0.0-12.0-0.16","6100174f92a7a0e5141b195e","650c16f0f2faf8d7a0d14c09","651d3ebfab1277ccc86c00c7","null","null","<p style=""font-size: 60px; font-family: BACS"">vAarYaum</p>","","","","","","","","",""
"html-keyboard-response","187","278991","0.0-12.0-0.17","6100174f92a7a0e5141b195e","650c16f0f2faf8d7a0d14c09","651d3ebfab1277ccc86c00c7","null","null","<p style=""font-size: 60px; font-family: BACS"">GNAcauZc</p>","","","","","","","","",""
"html-keyboard-response","188","279995","0.0-12.0-0.18","6100174f92a7a0e5141b195e","650c16f0f2faf8d7a0d14c09","651d3ebfab1277ccc86c00c7","null","null","<p style=""font-size: 60px; font-family: BACS"">UrOQLkNc</p>","","","","","","","","",""
"html-keyboard-response","189","281000","0.0-12.0-0.19","6100174f92a7a0e5141b195e","650c16f0f2faf8d7a0d14c09","651d3ebfab1277ccc86c00c7","null","null","<p style=""font-size: 60px; font-family: BACS"">TKDkmAM</p>","","","","","","","","",""
"html-keyboard-response","190","282004","0.0-12.0-0.20","6100174f92a7a0e5141b195e","650c16f0f2faf8d7a0d14c09","651d3ebfab1277ccc86c00c7","null","null","<p style=""font-size: 60px; font-family: BACS"">dMYBPTmc</p>","","","","","","","","",""
"html-keyboard-response","191","283008","0.0-12.0-0.21","6100174f92a7a0e5141b195e","650c16f0f2faf8d7a0d14c09","651d3ebfab1277ccc86c00c7","null","null","<p style=""font-size: 60px; font-family: BACS"">htmhCYbBT</p>","","","","","","","","",""
"html-keyboard-response","192","284012","0.0-12.0-0.22","6100174f92a7a0e5141b195e","650c16f0f2faf8d7a0d14c09","651d3ebfab1277ccc86c00c7","null","null","<p style=""font-size: 60px; font-family: BACS"">RtRhTmc</p>","","","","","","","","",""
"html-keyboard-response","193","285017","0.0-12.0-0.23","6100174f92a7a0e5141b195e","650c16f0f2faf8d7a0d14c09","651d3ebfab1277ccc86c00c7","null","null","<p style=""font-size: 60px; font-family: BACS"">BbODmAM</p>","","","","","","","","",""
"html-keyboard-response","194","286021","0.0-12.0-0.24","6100174f92a7a0e5141b195e","650c16f0f2faf8d7a0d14c09","651d3ebfab1277ccc86c00c7","null","null","<p style=""font-size: 60px; font-family: BACS"">dmZvmcbm</p>","","","","","","","","",""
"html-keyboard-response","195","287025","0.0-12.0-0.25","6100174f92a7a0e5141b195e","650c16f0f2faf8d7a0d14c09","651d3ebfab1277ccc86c00c7","null","null","<p style=""font-size: 60px; font-family: BACS"">dKRDYDTk</p>","","","","","","","","",""
"html-keyboard-response","196","288029","0.0-12.0-0.26","6100174f92a7a0e5141b195e","650c16f0f2faf8d7a0d14c09","651d3ebfab1277ccc86c00c7","null","null","<p style=""font-size: 60px; font-family: BACS"">UdumdLkNc</p>","","","","","","","","",""
"html-keyboard-response","197","289034","0.0-12.0-0.27","6100174f92a7a0e5141b195e","650c16f0f2faf8d7a0d14c09","651d3ebfab1277ccc86c00c7","null","null","<p style=""font-size: 60px; font-family: BACS"">dmZvmuZc</p>","","","","","","","","",""
"html-keyboard-response","198","290038","0.0-12.0-0.28","6100174f92a7a0e5141b195e","650c16f0f2faf8d7a0d14c09","651d3ebfab1277ccc86c00c7","null","null","<p style=""font-size: 60px; font-family: BACS"">PEtEYbBT</p>","","","","","","","","",""
"html-keyboard-response","199","291042","0.0-12.0-0.29","6100174f92a7a0e5141b195e","650c16f0f2faf8d7a0d14c09","651d3ebfab1277ccc86c00c7","null","null","<p style=""font-size: 60px; font-family: BACS"">Ldrbvcbm</p>","","","","","","","","",""
"html-keyboard-response","200","292047","0.0-12.0-0.30","6100174f92a7a0e5141b195e","650c16f0f2faf8d7a0d14c09","651d3ebfab1277ccc86c00c7","null","null","<p style=""font-size: 60px; font-family: BACS"">UrOQNmAG</p>","","","","","","","","",""
"html-keyboard-response","201","293051","0.0-12.0-0.31","6100174f92a7a0e5141b195e","650c16f0f2faf8d7a0d14c09","651d3ebfab1277ccc86c00c7","null","null","<p style=""font-size: 60px; font-family: BACS"">htmhCTmc</p>","","","","","","","","",""
"html-keyboard-response","202","294055","0.0-12.0-0.32","6100174f92a7a0e5141b195e","650c16f0f2faf8d7a0d14c09","651d3ebfab1277ccc86c00c7","null","null","<p style=""font-size: 60px; font-family: BACS"">mdlacbm</p>","","","","","","","","",""
"html-keyboard-response","203","295059","0.0-12.0-0.33","6100174f92a7a0e5141b195e","650c16f0f2faf8d7a0d14c09","651d3ebfab1277ccc86c00c7","null","null","<p style=""font-size: 60px; font-family: BACS"">dmZvmNmAG</p>","","","","","","","","",""
"html-keyboard-response","204","296064","0.0-12.0-0.34","6100174f92a7a0e5141b195e","650c16f0f2faf8d7a0d14c09","651d3ebfab1277ccc86c00c7","null","null","<p style=""font-size: 60px; font-family: BACS"">JvaAuZc</p>","","","","","","","","",""
"html-keyboard-response","205","297067","0.0-12.0-0.35","6100174f92a7a0e5141b195e","650c16f0f2faf8d7a0d14c09","651d3ebfab1277ccc86c00c7","null","null","<p style=""font-size: 60px; font-family: BACS"">BbODYDTk</p>","","","","","","","","",""
"html-keyboard-response","206","298072","0.0-12.0-0.36","6100174f92a7a0e5141b195e","650c16f0f2faf8d7a0d14c09","651d3ebfab1277ccc86c00c7","null","null","<p style=""font-size: 60px; font-family: BACS"">NbacALkNc</p>","","","","","","","","",""
"html-keyboard-response","207","299077","0.0-12.0-0.37","6100174f92a7a0e5141b195e","650c16f0f2faf8d7a0d14c09","651d3ebfab1277ccc86c00c7","null","null","<p style=""font-size: 60px; font-family: BACS"">dKRDmAM</p>","","","","","","","","",""
"html-keyboard-response","208","300081","0.0-12.0-0.38","6100174f92a7a0e5141b195e","650c16f0f2faf8d7a0d14c09","651d3ebfab1277ccc86c00c7","null","null","<p style=""font-size: 60px; font-family: BACS"">Udumdcbm</p>","","","","","","","","",""
"html-keyboard-response","209","301085","0.0-12.0-0.39","6100174f92a7a0e5141b195e","650c16f0f2faf8d7a0d14c09","651d3ebfab1277ccc86c00c7","null","null","<p style=""font-size: 60px; font-family: BACS"">RtRhYDTk</p>","","","","","","","","",""
"html-keyboard-response","210","302089","0.0-12.0-0.40","6100174f92a7a0e5141b195e","650c16f0f2faf8d7a0d14c09","651d3ebfab1277ccc86c00c7","null","null","<p style=""font-size: 60px; font-family: BACS"">NbmQUYaum</p>","","","","","","","","",""
"html-keyboard-response","211","303094","0.0-12.0-0.41","6100174f92a7a0e5141b195e","650c16f0f2faf8d7a0d14c09","651d3ebfab1277ccc86c00c7","null","null","<p style=""font-size: 60px; font-family: BACS"">khmhYbBT</p>","","","","","","","","",""
"html-keyboard-response","212","304098","0.0-12.0-0.42","6100174f92a7a0e5141b195e","650c16f0f2faf8d7a0d14c09","651d3ebfab1277ccc86c00c7","null","null","<p style=""font-size: 60px; font-family: BACS"">TKDkTmc</p>","","","","","","","","",""
"html-keyboard-response","213","305102","0.0-12.0-0.43","6100174f92a7a0e5141b195e","650c16f0f2faf8d7a0d14c09","651d3ebfab1277ccc86c00c7","null","null","<p style=""font-size: 60px; font-family: BACS"">CmcOYbBT</p>","","","","","","","","",""
"html-keyboard-response","214","306107","0.0-12.0-0.44","6100174f92a7a0e5141b195e","650c16f0f2faf8d7a0d14c09","651d3ebfab1277ccc86c00c7","null","null","<p style=""font-size: 60px; font-family: BACS"">TKDkcPK</p>","","","","","","","","",""
"html-keyboard-response","215","307111","0.0-12.0-0.45","6100174f92a7a0e5141b195e","650c16f0f2faf8d7a0d14c09","651d3ebfab1277ccc86c00c7","null","null","<p style=""font-size: 60px; font-family: BACS"">vAarcbm</p>","","","","","","","","",""
"html-keyboard-response","216","308115","0.0-12.0-0.46","6100174f92a7a0e5141b195e","650c16f0f2faf8d7a0d14c09","651d3ebfab1277ccc86c00c7","null","null","<p style=""font-size: 60px; font-family: BACS"">CmcOcPK</p>","","","","","","","","",""
"html-keyboard-response","217","309119","0.0-12.0-0.47","6100174f92a7a0e5141b195e","650c16f0f2faf8d7a0d14c09","651d3ebfab1277ccc86c00c7","null","null","<p style=""font-size: 60px; font-family: BACS"">htmhCmAM</p>","","","","","","","","",""
"html-keyboard-response","218","310124","0.0-12.0-0.48","6100174f92a7a0e5141b195e","650c16f0f2faf8d7a0d14c09","651d3ebfab1277ccc86c00c7","null","null","<p style=""font-size: 60px; font-family: BACS"">PEtEYDTk</p>","","","","","","","","",""
"html-keyboard-response","219","311128","0.0-12.0-0.49","6100174f92a7a0e5141b195e","650c16f0f2faf8d7a0d14c09","651d3ebfab1277ccc86c00c7","null","null","<p style=""font-size: 60px; font-family: BACS"">JvaAcbm</p>","","","","","","","","",""
"html-keyboard-response","220","312132","0.0-12.0-0.50","6100174f92a7a0e5141b195e","650c16f0f2faf8d7a0d14c09","651d3ebfab1277ccc86c00c7","null","null","<p style=""font-size: 60px; font-family: BACS"">RtRhmAM</p>","","","","","","","","",""
"html-keyboard-response","221","313137","0.0-12.0-0.51","6100174f92a7a0e5141b195e","650c16f0f2faf8d7a0d14c09","651d3ebfab1277ccc86c00c7","null","null","<p style=""font-size: 60px; font-family: BACS"">CmcOYDTk</p>","","","","","","","","",""
"html-keyboard-response","222","314141","0.0-12.0-0.52","6100174f92a7a0e5141b195e","650c16f0f2faf8d7a0d14c09","651d3ebfab1277ccc86c00c7","null","null","<p style=""font-size: 60px; font-family: BACS"">NbmQUNmAG</p>","","","","","","","","",""
"html-keyboard-response","223","315145","0.0-12.0-0.53","6100174f92a7a0e5141b195e","650c16f0f2faf8d7a0d14c09","651d3ebfab1277ccc86c00c7","null","null","<p style=""font-size: 60px; font-family: BACS"">TKDkYbBT</p>","","","","","","","","",""
"html-keyboard-response","224","316149","0.0-12.0-0.54","6100174f92a7a0e5141b195e","650c16f0f2faf8d7a0d14c09","651d3ebfab1277ccc86c00c7","null","null","<p style=""font-size: 60px; font-family: BACS"">NbacAuZc</p>","","","","","","","","",""
"html-keyboard-response","225","317153","0.0-12.0-0.55","6100174f92a7a0e5141b195e","650c16f0f2faf8d7a0d14c09","651d3ebfab1277ccc86c00c7","null","null","<p style=""font-size: 60px; font-family: BACS"">GNAcaNmAG</p>","","","","","","","","",""
"html-keyboard-response","226","318158","0.0-12.0-0.56","6100174f92a7a0e5141b195e","650c16f0f2faf8d7a0d14c09","651d3ebfab1277ccc86c00c7","null","null","<p style=""font-size: 60px; font-family: BACS"">NbacAYaum</p>","","","","","","","","",""
"html-keyboard-response","227","319162","0.0-12.0-0.57","6100174f92a7a0e5141b195e","650c16f0f2faf8d7a0d14c09","651d3ebfab1277ccc86c00c7","null","null","<p style=""font-size: 60px; font-family: BACS"">BbODcPK</p>","","","","","","","","",""
"html-keyboard-response","228","320166","0.0-12.0-0.58","6100174f92a7a0e5141b195e","650c16f0f2faf8d7a0d14c09","651d3ebfab1277ccc86c00c7","null","null","<p style=""font-size: 60px; font-family: BACS"">GNAcaYaum</p>","","","","","","","","",""
"html-keyboard-response","229","321171","0.0-12.0-0.59","6100174f92a7a0e5141b195e","650c16f0f2faf8d7a0d14c09","651d3ebfab1277ccc86c00c7","null","null","<p style=""font-size: 60px; font-family: BACS"">lRCBTmc</p>","","","","","","","","",""
"html-keyboard-response","230","322175","0.0-12.0-0.60","6100174f92a7a0e5141b195e","650c16f0f2faf8d7a0d14c09","651d3ebfab1277ccc86c00c7","null","null","<p style=""font-size: 60px; font-family: BACS"">dMYBPcPK</p>","","","","","","","","",""
"html-keyboard-response","231","323179","0.0-12.0-0.61","6100174f92a7a0e5141b195e","650c16f0f2faf8d7a0d14c09","651d3ebfab1277ccc86c00c7","null","null","<p style=""font-size: 60px; font-family: BACS"">NbacANmAG</p>","","","","","","","","",""
"html-keyboard-response","232","324184","0.0-12.0-0.62","6100174f92a7a0e5141b195e","650c16f0f2faf8d7a0d14c09","651d3ebfab1277ccc86c00c7","null","null","<p style=""font-size: 60px; font-family: BACS"">htmhCYDTk</p>","","","","","","","","",""
"html-keyboard-response","233","325188","0.0-12.0-0.63","6100174f92a7a0e5141b195e","650c16f0f2faf8d7a0d14c09","651d3ebfab1277ccc86c00c7","null","null","<p style=""font-size: 60px; font-family: BACS"">LdrbvNmAG</p>","","","","","","","","",""
"html-keyboard-response","234","326192","0.0-12.0-0.64","6100174f92a7a0e5141b195e","650c16f0f2faf8d7a0d14c09","651d3ebfab1277ccc86c00c7","null","null","<p style=""font-size: 60px; font-family: BACS"">mdlaLkNc</p>","","","","","","","","",""
"html-keyboard-response","235","327196","0.0-12.0-0.65","6100174f92a7a0e5141b195e","650c16f0f2faf8d7a0d14c09","651d3ebfab1277ccc86c00c7","null","null","<p style=""font-size: 60px; font-family: BACS"">dKRDcPK</p>","","","","","","","","",""
"html-keyboard-response","236","328201","0.0-12.0-0.66","6100174f92a7a0e5141b195e","650c16f0f2faf8d7a0d14c09","651d3ebfab1277ccc86c00c7","null","null","<p style=""font-size: 60px; font-family: BACS"">CmcOTmc</p>","","","","","","","","",""
"html-keyboard-response","237","329205","0.0-12.0-0.67","6100174f92a7a0e5141b195e","650c16f0f2faf8d7a0d14c09","651d3ebfab1277ccc86c00c7","null","null","<p style=""font-size: 60px; font-family: BACS"">vAaruZc</p>","","","","","","","","",""
"html-keyboard-response","238","330209","0.0-12.0-0.68","6100174f92a7a0e5141b195e","650c16f0f2faf8d7a0d14c09","651d3ebfab1277ccc86c00c7","null","null","<p style=""font-size: 60px; font-family: BACS"">BbODTmc</p>","","","","","","","","",""
"html-keyboard-response","239","331214","0.0-12.0-0.69","6100174f92a7a0e5141b195e","650c16f0f2faf8d7a0d14c09","651d3ebfab1277ccc86c00c7","null","null","<p style=""font-size: 60px; font-family: BACS"">RtRhcPK</p>","","","","","","","","",""
"html-keyboard-response","240","332218","0.0-12.0-0.70","6100174f92a7a0e5141b195e","650c16f0f2faf8d7a0d14c09","651d3ebfab1277ccc86c00c7","null","null","<p style=""font-size: 60px; font-family: BACS"">LdrbvYaum</p>","","","","","","","","",""
"html-keyboard-response","241","333222","0.0-12.0-0.71","6100174f92a7a0e5141b195e","650c16f0f2faf8d7a0d14c09","651d3ebfab1277ccc86c00c7","null","null","<p style=""font-size: 60px; font-family: BACS"">NbmQUcbm</p>","","","","","","","","",""
"html-keyboard-response","242","334226","0.0-12.0-0.72","6100174f92a7a0e5141b195e","650c16f0f2faf8d7a0d14c09","651d3ebfab1277ccc86c00c7","null","null","<p style=""font-size: 60px; font-family: BACS"">dMYBPmAM</p>","","","","","","","","",""
"html-keyboard-response","243","335230","0.0-12.0-0.73","6100174f92a7a0e5141b195e","650c16f0f2faf8d7a0d14c09","651d3ebfab1277ccc86c00c7","null","null","<p style=""font-size: 60px; font-family: BACS"">PEtEcPK</p>","","","","","","","","",""
"html-keyboard-response","244","336235","0.0-12.0-0.74","6100174f92a7a0e5141b195e","650c16f0f2faf8d7a0d14c09","651d3ebfab1277ccc86c00c7","null","null","<p style=""font-size: 60px; font-family: BACS"">lRCBYbBT</p>","","","","","","","","",""
"html-keyboard-response","245","337239","0.0-12.0-0.75","6100174f92a7a0e5141b195e","650c16f0f2faf8d7a0d14c09","651d3ebfab1277ccc86c00c7","null","null","<p style=""font-size: 60px; font-family: BACS"">khmhYDTk</p>","","","","","","","","",""
"html-keyboard-response","246","338244","0.0-12.0-0.76","6100174f92a7a0e5141b195e","650c16f0f2faf8d7a0d14c09","651d3ebfab1277ccc86c00c7","null","null","<p style=""font-size: 60px; font-family: BACS"">UrOQcbm</p>","","","","","","","","",""
"html-keyboard-response","247","339248","0.0-12.0-0.77","6100174f92a7a0e5141b195e","650c16f0f2faf8d7a0d14c09","651d3ebfab1277ccc86c00c7","null","null","<p style=""font-size: 60px; font-family: BACS"">mdlauZc</p>","","","","","","","","",""
"html-keyboard-response","248","340252","0.0-12.0-0.78","6100174f92a7a0e5141b195e","650c16f0f2faf8d7a0d14c09","651d3ebfab1277ccc86c00c7","null","null","<p style=""font-size: 60px; font-family: BACS"">PEtEmAM</p>","","","","","","","","",""
"html-keyboard-response","249","341256","0.0-12.0-0.79","6100174f92a7a0e5141b195e","650c16f0f2faf8d7a0d14c09","651d3ebfab1277ccc86c00c7","null","null","<p style=""font-size: 60px; font-family: BACS"">dmZvmYaum</p>","","","","","","","","",""
"html-keyboard-response","250","348679","0.0-13.0","6100174f92a7a0e5141b195e","650c16f0f2faf8d7a0d14c09","651d3ebfab1277ccc86c00c7","7422"," ","<p>Great, you've seen the third block of words. You may now take a short break.</p>
      <p>Press the spacebar when you're ready to continue.</p>","","","","","","","","",""
"html-keyboard-response","251","349684","0.0-14.0-0.0","6100174f92a7a0e5141b195e","650c16f0f2faf8d7a0d14c09","651d3ebfab1277ccc86c00c7","null","null","<p style=""font-size: 60px; font-family: BACS"">NbmQUcbm</p>","","","","","","","","",""
"html-keyboard-response","252","350687","0.0-14.0-0.1","6100174f92a7a0e5141b195e","650c16f0f2faf8d7a0d14c09","651d3ebfab1277ccc86c00c7","null","null","<p style=""font-size: 60px; font-family: BACS"">dKRDcPK</p>","","","","","","","","",""
"html-keyboard-response","253","351692","0.0-14.0-0.2","6100174f92a7a0e5141b195e","650c16f0f2faf8d7a0d14c09","651d3ebfab1277ccc86c00c7","null","null","<p style=""font-size: 60px; font-family: BACS"">RtRhmAM</p>","","","","","","","","",""
"html-keyboard-response","254","352697","0.0-14.0-0.3","6100174f92a7a0e5141b195e","650c16f0f2faf8d7a0d14c09","651d3ebfab1277ccc86c00c7","null","null","<p style=""font-size: 60px; font-family: BACS"">NbmQUYaum</p>","","","","","","","","",""
"html-keyboard-response","255","353701","0.0-14.0-0.4","6100174f92a7a0e5141b195e","650c16f0f2faf8d7a0d14c09","651d3ebfab1277ccc86c00c7","null","null","<p style=""font-size: 60px; font-family: BACS"">htmhCmAM</p>","","","","","","","","",""
"html-keyboard-response","256","354705","0.0-14.0-0.5","6100174f92a7a0e5141b195e","650c16f0f2faf8d7a0d14c09","651d3ebfab1277ccc86c00c7","null","null","<p style=""font-size: 60px; font-family: BACS"">khmhYbBT</p>","","","","","","","","",""
"html-keyboard-response","257","355711","0.0-14.0-0.6","6100174f92a7a0e5141b195e","650c16f0f2faf8d7a0d14c09","651d3ebfab1277ccc86c00c7","null","null","<p style=""font-size: 60px; font-family: BACS"">htmhCYDTk</p>","","","","","","","","",""
"html-keyboard-response","258","356715","0.0-14.0-0.7","6100174f92a7a0e5141b195e","650c16f0f2faf8d7a0d14c09","651d3ebfab1277ccc86c00c7","null","null","<p style=""font-size: 60px; font-family: BACS"">RtRhcPK</p>","","","","","","","","",""
"html-keyboard-response","259","357721","0.0-14.0-0.8","6100174f92a7a0e5141b195e","650c16f0f2faf8d7a0d14c09","651d3ebfab1277ccc86c00c7","null","null","<p style=""font-size: 60px; font-family: BACS"">khmhYDTk</p>","","","","","","","","",""
"html-keyboard-response","260","358724","0.0-14.0-0.9","6100174f92a7a0e5141b195e","650c16f0f2faf8d7a0d14c09","651d3ebfab1277ccc86c00c7","null","null","<p style=""font-size: 60px; font-family: BACS"">PEtEmAM</p>","","","","","","","","",""
"html-keyboard-response","261","359728","0.0-14.0-0.10","6100174f92a7a0e5141b195e","650c16f0f2faf8d7a0d14c09","651d3ebfab1277ccc86c00c7","null","null","<p style=""font-size: 60px; font-family: BACS"">Udumdcbm</p>","","","","","","","","",""
"html-keyboard-response","262","360732","0.0-14.0-0.11","6100174f92a7a0e5141b195e","650c16f0f2faf8d7a0d14c09","651d3ebfab1277ccc86c00c7","null","null","<p style=""font-size: 60px; font-family: BACS"">dMYBPTmc</p>","","","","","","","","",""
"html-keyboard-response","263","361736","0.0-14.0-0.12","6100174f92a7a0e5141b195e","650c16f0f2faf8d7a0d14c09","651d3ebfab1277ccc86c00c7","null","null","<p style=""font-size: 60px; font-family: BACS"">UdumdLkNc</p>","","","","","","","","",""
"html-keyboard-response","264","362741","0.0-14.0-0.13","6100174f92a7a0e5141b195e","650c16f0f2faf8d7a0d14c09","651d3ebfab1277ccc86c00c7","null","null","<p style=""font-size: 60px; font-family: BACS"">CmcOYDTk</p>","","","","","","","","",""
"html-keyboard-response","265","363747","0.0-14.0-0.14","6100174f92a7a0e5141b195e","650c16f0f2faf8d7a0d14c09","651d3ebfab1277ccc86c00c7","null","null","<p style=""font-size: 60px; font-family: BACS"">RtRhTmc</p>","","","","","","","","",""
"html-keyboard-response","266","364752","0.0-14.0-0.15","6100174f92a7a0e5141b195e","650c16f0f2faf8d7a0d14c09","651d3ebfab1277ccc86c00c7","null","null","<p style=""font-size: 60px; font-family: BACS"">dMYBPcPK</p>","","","","","","","","",""
"html-keyboard-response","267","365753","0.0-14.0-0.16","6100174f92a7a0e5141b195e","650c16f0f2faf8d7a0d14c09","651d3ebfab1277ccc86c00c7","null","null","<p style=""font-size: 60px; font-family: BACS"">vAarYaum</p>","","","","","","","","",""
"html-keyboard-response","268","366758","0.0-14.0-0.17","6100174f92a7a0e5141b195e","650c16f0f2faf8d7a0d14c09","651d3ebfab1277ccc86c00c7","null","null","<p style=""font-size: 60px; font-family: BACS"">PEtEYbBT</p>","","","","","","","","",""
"html-keyboard-response","269","367763","0.0-14.0-0.18","6100174f92a7a0e5141b195e","650c16f0f2faf8d7a0d14c09","651d3ebfab1277ccc86c00c7","null","null","<p style=""font-size: 60px; font-family: BACS"">NbacAYaum</p>","","","","","","","","",""
"html-keyboard-response","270","368767","0.0-14.0-0.19","6100174f92a7a0e5141b195e","650c16f0f2faf8d7a0d14c09","651d3ebfab1277ccc86c00c7","null","null","<p style=""font-size: 60px; font-family: BACS"">BbODYDTk</p>","","","","","","","","",""
"html-keyboard-response","271","369771","0.0-14.0-0.20","6100174f92a7a0e5141b195e","650c16f0f2faf8d7a0d14c09","651d3ebfab1277ccc86c00c7","null","null","<p style=""font-size: 60px; font-family: BACS"">JvaAYaum</p>","","","","","","","","",""
"html-keyboard-response","272","370777","0.0-14.0-0.21","6100174f92a7a0e5141b195e","650c16f0f2faf8d7a0d14c09","651d3ebfab1277ccc86c00c7","null","null","<p style=""font-size: 60px; font-family: BACS"">mdlaLkNc</p>","","","","","","","","",""
"html-keyboard-response","273","371777","0.0-14.0-0.22","6100174f92a7a0e5141b195e","650c16f0f2faf8d7a0d14c09","651d3ebfab1277ccc86c00c7","null","null","<p style=""font-size: 60px; font-family: BACS"">GNAcaYaum</p>","","","","","","","","",""
"html-keyboard-response","274","373403","0.0-14.0-0.23","6100174f92a7a0e5141b195e","650c16f0f2faf8d7a0d14c09","651d3ebfab1277ccc86c00c7","null","null","<p style=""font-size: 60px; font-family: BACS"">lRCBTmc</p>","","","","","","","","",""
"html-keyboard-response","275","375454","0.0-14.0-0.24","6100174f92a7a0e5141b195e","650c16f0f2faf8d7a0d14c09","651d3ebfab1277ccc86c00c7","null","null","<p style=""font-size: 60px; font-family: BACS"">BbODmAM</p>","","","","","","","","",""
"html-keyboard-response","276","377288","0.0-14.0-0.25","6100174f92a7a0e5141b195e","650c16f0f2faf8d7a0d14c09","651d3ebfab1277ccc86c00c7","null","null","<p style=""font-size: 60px; font-family: BACS"">PEtEcPK</p>","","","","","","","","",""
"html-keyboard-response","277","378636","0.0-14.0-0.26","6100174f92a7a0e5141b195e","650c16f0f2faf8d7a0d14c09","651d3ebfab1277ccc86c00c7","null","null","<p style=""font-size: 60px; font-family: BACS"">dKRDmAM</p>","","","","","","","","",""
"html-keyboard-response","278","380961","0.0-14.0-0.27","6100174f92a7a0e5141b195e","650c16f0f2faf8d7a0d14c09","651d3ebfab1277ccc86c00c7","null","null","<p style=""font-size: 60px; font-family: BACS"">TKDkYbBT</p>","","","","","","","","",""
"html-keyboard-response","279","382798","0.0-14.0-0.28","6100174f92a7a0e5141b195e","650c16f0f2faf8d7a0d14c09","651d3ebfab1277ccc86c00c7","null","null","<p style=""font-size: 60px; font-family: BACS"">BbODTmc</p>","","","","","","","","",""
"html-keyboard-response","280","384882","0.0-14.0-0.29","6100174f92a7a0e5141b195e","650c16f0f2faf8d7a0d14c09","651d3ebfab1277ccc86c00c7","null","null","<p style=""font-size: 60px; font-family: BACS"">dmZvmNmAG</p>","","","","","","","","",""
"html-keyboard-response","281","386838","0.0-14.0-0.30","6100174f92a7a0e5141b195e","650c16f0f2faf8d7a0d14c09","651d3ebfab1277ccc86c00c7","null","null","<p style=""font-size: 60px; font-family: BACS"">LdrbvYaum</p>","","","","","","","","",""
"html-keyboard-response","282","388858","0.0-14.0-0.31","6100174f92a7a0e5141b195e","650c16f0f2faf8d7a0d14c09","651d3ebfab1277ccc86c00c7","null","null","<p style=""font-size: 60px; font-family: BACS"">NbacANmAG</p>","","","","","","","","",""
"html-keyboard-response","283","390850","0.0-14.0-0.32","6100174f92a7a0e5141b195e","650c16f0f2faf8d7a0d14c09","651d3ebfab1277ccc86c00c7","null","null","<p style=""font-size: 60px; font-family: BACS"">TKDkTmc</p>","","","","","","","","",""
"html-keyboard-response","284","392031","0.0-14.0-0.33","6100174f92a7a0e5141b195e","650c16f0f2faf8d7a0d14c09","651d3ebfab1277ccc86c00c7","null","null","<p style=""font-size: 60px; font-family: BACS"">mdlauZc</p>","","","","","","","","",""
"html-keyboard-response","285","393032","0.0-14.0-0.34","6100174f92a7a0e5141b195e","650c16f0f2faf8d7a0d14c09","651d3ebfab1277ccc86c00c7","null","null","<p style=""font-size: 60px; font-family: BACS"">NbmQUNmAG</p>","","","","","","","","",""
"html-keyboard-response","286","394033","0.0-14.0-0.35","6100174f92a7a0e5141b195e","650c16f0f2faf8d7a0d14c09","651d3ebfab1277ccc86c00c7","null","null","<p style=""font-size: 60px; font-family: BACS"">khmhTmc</p>","","","","","","","","",""
"html-keyboard-response","287","395034","0.0-14.0-0.36","6100174f92a7a0e5141b195e","650c16f0f2faf8d7a0d14c09","651d3ebfab1277ccc86c00c7","null","null","<p style=""font-size: 60px; font-family: BACS"">mdlaNmAG</p>","","","","","","","","",""
"html-keyboard-response","288","396039","0.0-14.0-0.37","6100174f92a7a0e5141b195e","650c16f0f2faf8d7a0d14c09","651d3ebfab1277ccc86c00c7","null","null","<p style=""font-size: 60px; font-family: BACS"">JvaAcbm</p>","","","","","","","","",""
"html-keyboard-response","289","397040","0.0-14.0-0.38","6100174f92a7a0e5141b195e","650c16f0f2faf8d7a0d14c09","651d3ebfab1277ccc86c00c7","null","null","<p style=""font-size: 60px; font-family: BACS"">htmhCYbBT</p>","","","","","","","","",""
"html-keyboard-response","290","398042","0.0-14.0-0.39","6100174f92a7a0e5141b195e","650c16f0f2faf8d7a0d14c09","651d3ebfab1277ccc86c00c7","null","null","<p style=""font-size: 60px; font-family: BACS"">vAarLkNc</p>","","","","","","","","",""
"html-keyboard-response","291","399046","0.0-14.0-0.40","6100174f92a7a0e5141b195e","650c16f0f2faf8d7a0d14c09","651d3ebfab1277ccc86c00c7","null","null","<p style=""font-size: 60px; font-family: BACS"">PEtEYDTk</p>","","","","","","","","",""
"html-keyboard-response","292","400050","0.0-14.0-0.41","6100174f92a7a0e5141b195e","650c16f0f2faf8d7a0d14c09","651d3ebfab1277ccc86c00c7","null","null","<p style=""font-size: 60px; font-family: BACS"">TKDkmAM</p>","","","","","","","","",""
"html-keyboard-response","293","401055","0.0-14.0-0.42","6100174f92a7a0e5141b195e","650c16f0f2faf8d7a0d14c09","651d3ebfab1277ccc86c00c7","null","null","<p style=""font-size: 60px; font-family: BACS"">NbmQULkNc</p>","","","","","","","","",""
"html-keyboard-response","294","402059","0.0-14.0-0.43","6100174f92a7a0e5141b195e","650c16f0f2faf8d7a0d14c09","651d3ebfab1277ccc86c00c7","null","null","<p style=""font-size: 60px; font-family: BACS"">khmhmAM</p>","","","","","","","","",""
"html-keyboard-response","295","403063","0.0-14.0-0.44","6100174f92a7a0e5141b195e","650c16f0f2faf8d7a0d14c09","651d3ebfab1277ccc86c00c7","null","null","<p style=""font-size: 60px; font-family: BACS"">UrOQuZc</p>","","","","","","","","",""
"html-keyboard-response","296","404067","0.0-14.0-0.45","6100174f92a7a0e5141b195e","650c16f0f2faf8d7a0d14c09","651d3ebfab1277ccc86c00c7","null","null","<p style=""font-size: 60px; font-family: BACS"">dMYBPYbBT</p>","","","","","","","","",""
"html-keyboard-response","297","405466","0.0-14.0-0.46","6100174f92a7a0e5141b195e","650c16f0f2faf8d7a0d14c09","651d3ebfab1277ccc86c00c7","null","null","<p style=""font-size: 60px; font-family: BACS"">GNAcaLkNc</p>","","","","","","","","",""
"html-keyboard-response","298","407973","0.0-14.0-0.47","6100174f92a7a0e5141b195e","650c16f0f2faf8d7a0d14c09","651d3ebfab1277ccc86c00c7","null","null","<p style=""font-size: 60px; font-family: BACS"">htmhCTmc</p>","","","","","","","","",""
"html-keyboard-response","299","409791","0.0-14.0-0.48","6100174f92a7a0e5141b195e","650c16f0f2faf8d7a0d14c09","651d3ebfab1277ccc86c00c7","null","null","<p style=""font-size: 60px; font-family: BACS"">CmcOYbBT</p>","","","","","","","","",""
"html-keyboard-response","300","411885","0.0-14.0-0.49","6100174f92a7a0e5141b195e","650c16f0f2faf8d7a0d14c09","651d3ebfab1277ccc86c00c7","null","null","<p style=""font-size: 60px; font-family: BACS"">LdrbvuZc</p>","","","","","","","","",""
"html-keyboard-response","301","413837","0.0-14.0-0.50","6100174f92a7a0e5141b195e","650c16f0f2faf8d7a0d14c09","651d3ebfab1277ccc86c00c7","null","null","<p style=""font-size: 60px; font-family: BACS"">UrOQNmAG</p>","","","","","","","","",""
"html-keyboard-response","302","415677","0.0-14.0-0.51","6100174f92a7a0e5141b195e","650c16f0f2faf8d7a0d14c09","651d3ebfab1277ccc86c00c7","null","null","<p style=""font-size: 60px; font-family: BACS"">dmZvmcbm</p>","","","","","","","","",""
"html-keyboard-response","303","417942","0.0-14.0-0.52","6100174f92a7a0e5141b195e","650c16f0f2faf8d7a0d14c09","651d3ebfab1277ccc86c00c7","null","null","<p style=""font-size: 60px; font-family: BACS"">UdumdYaum</p>","","","","","","","","",""
"html-keyboard-response","304","419378","0.0-14.0-0.53","6100174f92a7a0e5141b195e","650c16f0f2faf8d7a0d14c09","651d3ebfab1277ccc86c00c7","null","null","<p style=""font-size: 60px; font-family: BACS"">dKRDYbBT</p>","","","","","","","","",""
"html-keyboard-response","305","420382","0.0-14.0-0.54","6100174f92a7a0e5141b195e","650c16f0f2faf8d7a0d14c09","651d3ebfab1277ccc86c00c7","null","null","<p style=""font-size: 60px; font-family: BACS"">lRCBYDTk</p>","","","","","","","","",""
"html-keyboard-response","306","421387","0.0-14.0-0.55","6100174f92a7a0e5141b195e","650c16f0f2faf8d7a0d14c09","651d3ebfab1277ccc86c00c7","null","null","<p style=""font-size: 60px; font-family: BACS"">UrOQcbm</p>","","","","","","","","",""
"html-keyboard-response","307","422392","0.0-14.0-0.56","6100174f92a7a0e5141b195e","650c16f0f2faf8d7a0d14c09","651d3ebfab1277ccc86c00c7","null","null","<p style=""font-size: 60px; font-family: BACS"">dmZvmuZc</p>","","","","","","","","",""
"html-keyboard-response","308","423397","0.0-14.0-0.57","6100174f92a7a0e5141b195e","650c16f0f2faf8d7a0d14c09","651d3ebfab1277ccc86c00c7","null","null","<p style=""font-size: 60px; font-family: BACS"">UdumdNmAG</p>","","","","","","","","",""
"html-keyboard-response","309","424400","0.0-14.0-0.58","6100174f92a7a0e5141b195e","650c16f0f2faf8d7a0d14c09","651d3ebfab1277ccc86c00c7","null","null","<p style=""font-size: 60px; font-family: BACS"">lRCBYbBT</p>","","","","","","","","",""
"html-keyboard-response","310","425401","0.0-14.0-0.59","6100174f92a7a0e5141b195e","650c16f0f2faf8d7a0d14c09","651d3ebfab1277ccc86c00c7","null","null","<p style=""font-size: 60px; font-family: BACS"">dMYBPmAM</p>","","","","","","","","",""
"html-keyboard-response","311","426405","0.0-14.0-0.60","6100174f92a7a0e5141b195e","650c16f0f2faf8d7a0d14c09","651d3ebfab1277ccc86c00c7","null","null","<p style=""font-size: 60px; font-family: BACS"">UrOQLkNc</p>","","","","","","","","",""
"html-keyboard-response","312","427410","0.0-14.0-0.61","6100174f92a7a0e5141b195e","650c16f0f2faf8d7a0d14c09","651d3ebfab1277ccc86c00c7","null","null","<p style=""font-size: 60px; font-family: BACS"">Ldrbvcbm</p>","","","","","","","","",""
"html-keyboard-response","313","428414","0.0-14.0-0.62","6100174f92a7a0e5141b195e","650c16f0f2faf8d7a0d14c09","651d3ebfab1277ccc86c00c7","null","null","<p style=""font-size: 60px; font-family: BACS"">CmcOcPK</p>","","","","","","","","",""
"html-keyboard-response","314","429418","0.0-14.0-0.63","6100174f92a7a0e5141b195e","650c16f0f2faf8d7a0d14c09","651d3ebfab1277ccc86c00c7","null","null","<p style=""font-size: 60px; font-family: BACS"">NbacALkNc</p>","","","","","","","","",""
"html-keyboard-response","315","430423","0.0-14.0-0.64","6100174f92a7a0e5141b195e","650c16f0f2faf8d7a0d14c09","651d3ebfab1277ccc86c00c7","null","null","<p style=""font-size: 60px; font-family: BACS"">mdlacbm</p>","","","","","","","","",""
"html-keyboard-response","316","431425","0.0-14.0-0.65","6100174f92a7a0e5141b195e","650c16f0f2faf8d7a0d14c09","651d3ebfab1277ccc86c00c7","null","null","<p style=""font-size: 60px; font-family: BACS"">CmcOTmc</p>","","","","","","","","",""
"html-keyboard-response","317","432430","0.0-14.0-0.66","6100174f92a7a0e5141b195e","650c16f0f2faf8d7a0d14c09","651d3ebfab1277ccc86c00c7","null","null","<p style=""font-size: 60px; font-family: BACS"">dmZvmYaum</p>","","","","","","","","",""
"html-keyboard-response","318","433434","0.0-14.0-0.67","6100174f92a7a0e5141b195e","650c16f0f2faf8d7a0d14c09","651d3ebfab1277ccc86c00c7","null","null","<p style=""font-size: 60px; font-family: BACS"">vAarcbm</p>","","","","","","","","",""
"html-keyboard-response","319","434438","0.0-14.0-0.68","6100174f92a7a0e5141b195e","650c16f0f2faf8d7a0d14c09","651d3ebfab1277ccc86c00c7","null","null","<p style=""font-size: 60px; font-family: BACS"">dKRDYDTk</p>","","","","","","","","",""
"html-keyboard-response","320","435442","0.0-14.0-0.69","6100174f92a7a0e5141b195e","650c16f0f2faf8d7a0d14c09","651d3ebfab1277ccc86c00c7","null","null","<p style=""font-size: 60px; font-family: BACS"">vAaruZc</p>","","","","","","","","",""
"html-keyboard-response","321","436447","0.0-14.0-0.70","6100174f92a7a0e5141b195e","650c16f0f2faf8d7a0d14c09","651d3ebfab1277ccc86c00c7","null","null","<p style=""font-size: 60px; font-family: BACS"">TKDkcPK</p>","","","","","","","","",""
"html-keyboard-response","322","437451","0.0-14.0-0.71","6100174f92a7a0e5141b195e","650c16f0f2faf8d7a0d14c09","651d3ebfab1277ccc86c00c7","null","null","<p style=""font-size: 60px; font-family: BACS"">NbacAuZc</p>","","","","","","","","",""
"html-keyboard-response","323","438455","0.0-14.0-0.72","6100174f92a7a0e5141b195e","650c16f0f2faf8d7a0d14c09","651d3ebfab1277ccc86c00c7","null","null","<p style=""font-size: 60px; font-family: BACS"">lRCBcPK</p>","","","","","","","","",""
"html-keyboard-response","324","439460","0.0-14.0-0.73","6100174f92a7a0e5141b195e","650c16f0f2faf8d7a0d14c09","651d3ebfab1277ccc86c00c7","null","null","<p style=""font-size: 60px; font-family: BACS"">JvaALkNc</p>","","","","","","","","",""
"html-keyboard-response","325","440463","0.0-14.0-0.74","6100174f92a7a0e5141b195e","650c16f0f2faf8d7a0d14c09","651d3ebfab1277ccc86c00c7","null","null","<p style=""font-size: 60px; font-family: BACS"">BbODcPK</p>","","","","","","","","",""
"html-keyboard-response","326","441468","0.0-14.0-0.75","6100174f92a7a0e5141b195e","650c16f0f2faf8d7a0d14c09","651d3ebfab1277ccc86c00c7","null","null","<p style=""font-size: 60px; font-family: BACS"">JvaAuZc</p>","","","","","","","","",""
"html-keyboard-response","327","442472","0.0-14.0-0.76","6100174f92a7a0e5141b195e","650c16f0f2faf8d7a0d14c09","651d3ebfab1277ccc86c00c7","null","null","<p style=""font-size: 60px; font-family: BACS"">LdrbvNmAG</p>","","","","","","","","",""
"html-keyboard-response","328","443477","0.0-14.0-0.77","6100174f92a7a0e5141b195e","650c16f0f2faf8d7a0d14c09","651d3ebfab1277ccc86c00c7","null","null","<p style=""font-size: 60px; font-family: BACS"">GNAcauZc</p>","","","","","","","","",""
"html-keyboard-response","329","444480","0.0-14.0-0.78","6100174f92a7a0e5141b195e","650c16f0f2faf8d7a0d14c09","651d3ebfab1277ccc86c00c7","null","null","<p style=""font-size: 60px; font-family: BACS"">RtRhYDTk</p>","","","","","","","","",""
"html-keyboard-response","330","445485","0.0-14.0-0.79","6100174f92a7a0e5141b195e","650c16f0f2faf8d7a0d14c09","651d3ebfab1277ccc86c00c7","null","null","<p style=""font-size: 60px; font-family: BACS"">GNAcaNmAG</p>","","","","","","","","",""
"html-keyboard-response","331","450743","0.0-15.0","6100174f92a7a0e5141b195e","650c16f0f2faf8d7a0d14c09","651d3ebfab1277ccc86c00c7","5257"," ","<p>Great, you've seen the fourth block of words. You may now take a short break.</p>
      <p>Press the spacebar when you're ready to continue.</p>","","","","","","","","",""
"html-keyboard-response","332","451745","0.0-16.0-0.0","6100174f92a7a0e5141b195e","650c16f0f2faf8d7a0d14c09","651d3ebfab1277ccc86c00c7","null","null","<p style=""font-size: 60px; font-family: BACS"">CmcOcPK</p>","","","","","","","","",""
"html-keyboard-response","333","452749","0.0-16.0-0.1","6100174f92a7a0e5141b195e","650c16f0f2faf8d7a0d14c09","651d3ebfab1277ccc86c00c7","null","null","<p style=""font-size: 60px; font-family: BACS"">CmcOcPK</p>","","","","","","","","",""
"html-keyboard-response","334","453753","0.0-16.0-0.2","6100174f92a7a0e5141b195e","650c16f0f2faf8d7a0d14c09","651d3ebfab1277ccc86c00c7","null","null","<p style=""font-size: 60px; font-family: BACS"">CmcOcPK</p>","","","","","","","","",""
"html-keyboard-response","335","454758","0.0-16.0-0.3","6100174f92a7a0e5141b195e","650c16f0f2faf8d7a0d14c09","651d3ebfab1277ccc86c00c7","null","null","<p style=""font-size: 60px; font-family: BACS"">CmcOcPK</p>","","","","","","","","",""
"html-keyboard-response","336","455762","0.0-16.0-0.4","6100174f92a7a0e5141b195e","650c16f0f2faf8d7a0d14c09","651d3ebfab1277ccc86c00c7","null","null","<p style=""font-size: 60px; font-family: BACS"">CmcOcPK</p>","","","","","","","","",""
"html-keyboard-response","337","456766","0.0-16.0-0.5","6100174f92a7a0e5141b195e","650c16f0f2faf8d7a0d14c09","651d3ebfab1277ccc86c00c7","null","null","<p style=""font-size: 60px; font-family: BACS"">CmcOcPK</p>","","","","","","","","",""
"html-keyboard-response","338","457770","0.0-16.0-0.6","6100174f92a7a0e5141b195e","650c16f0f2faf8d7a0d14c09","651d3ebfab1277ccc86c00c7","null","null","<p style=""font-size: 60px; font-family: BACS"">CmcOcPK</p>","","","","","","","","",""
"html-keyboard-response","339","458775","0.0-16.0-0.7","6100174f92a7a0e5141b195e","650c16f0f2faf8d7a0d14c09","651d3ebfab1277ccc86c00c7","null","null","<p style=""font-size: 60px; font-family: BACS"">CmcOcPK</p>","","","","","","","","",""
"html-keyboard-response","340","459779","0.0-16.0-0.8","6100174f92a7a0e5141b195e","650c16f0f2faf8d7a0d14c09","651d3ebfab1277ccc86c00c7","null","null","<p style=""font-size: 60px; font-family: BACS"">CmcOcPK</p>","","","","","","","","",""
"html-keyboard-response","341","460783","0.0-16.0-0.9","6100174f92a7a0e5141b195e","650c16f0f2faf8d7a0d14c09","651d3ebfab1277ccc86c00c7","null","null","<p style=""font-size: 60px; font-family: BACS"">CmcOcPK</p>","","","","","","","","",""
"html-keyboard-response","342","461788","0.0-16.0-0.10","6100174f92a7a0e5141b195e","650c16f0f2faf8d7a0d14c09","651d3ebfab1277ccc86c00c7","null","null","<p style=""font-size: 60px; font-family: BACS"">CmcOcPK</p>","","","","","","","","",""
"html-keyboard-response","343","462792","0.0-16.0-0.11","6100174f92a7a0e5141b195e","650c16f0f2faf8d7a0d14c09","651d3ebfab1277ccc86c00c7","null","null","<p style=""font-size: 60px; font-family: BACS"">CmcOcPK</p>","","","","","","","","",""
"html-keyboard-response","344","463796","0.0-16.0-0.12","6100174f92a7a0e5141b195e","650c16f0f2faf8d7a0d14c09","651d3ebfab1277ccc86c00c7","null","null","<p style=""font-size: 60px; font-family: BACS"">CmcOcPK</p>","","","","","","","","",""
"html-keyboard-response","345","464800","0.0-16.0-0.13","6100174f92a7a0e5141b195e","650c16f0f2faf8d7a0d14c09","651d3ebfab1277ccc86c00c7","null","null","<p style=""font-size: 60px; font-family: BACS"">CmcOcPK</p>","","","","","","","","",""
"html-keyboard-response","346","465804","0.0-16.0-0.14","6100174f92a7a0e5141b195e","650c16f0f2faf8d7a0d14c09","651d3ebfab1277ccc86c00c7","null","null","<p style=""font-size: 60px; font-family: BACS"">CmcOcPK</p>","","","","","","","","",""
"html-keyboard-response","347","466809","0.0-16.0-0.15","6100174f92a7a0e5141b195e","650c16f0f2faf8d7a0d14c09","651d3ebfab1277ccc86c00c7","null","null","<p style=""font-size: 60px; font-family: BACS"">CmcOcPK</p>","","","","","","","","",""
"html-keyboard-response","348","467813","0.0-16.0-0.16","6100174f92a7a0e5141b195e","650c16f0f2faf8d7a0d14c09","651d3ebfab1277ccc86c00c7","null","null","<p style=""font-size: 60px; font-family: BACS"">CmcOcPK</p>","","","","","","","","",""
"html-keyboard-response","349","468818","0.0-16.0-0.17","6100174f92a7a0e5141b195e","650c16f0f2faf8d7a0d14c09","651d3ebfab1277ccc86c00c7","null","null","<p style=""font-size: 60px; font-family: BACS"">CmcOcPK</p>","","","","","","","","",""
"html-keyboard-response","350","469822","0.0-16.0-0.18","6100174f92a7a0e5141b195e","650c16f0f2faf8d7a0d14c09","651d3ebfab1277ccc86c00c7","null","null","<p style=""font-size: 60px; font-family: BACS"">CmcOcPK</p>","","","","","","","","",""
"html-keyboard-response","351","470826","0.0-16.0-0.19","6100174f92a7a0e5141b195e","650c16f0f2faf8d7a0d14c09","651d3ebfab1277ccc86c00c7","null","null","<p style=""font-size: 60px; font-family: BACS"">CmcOcPK</p>","","","","","","","","",""
"html-keyboard-response","352","471830","0.0-16.0-0.20","6100174f92a7a0e5141b195e","650c16f0f2faf8d7a0d14c09","651d3ebfab1277ccc86c00c7","null","null","<p style=""font-size: 60px; font-family: BACS"">CmcOcPK</p>","","","","","","","","",""
"html-keyboard-response","353","472835","0.0-16.0-0.21","6100174f92a7a0e5141b195e","650c16f0f2faf8d7a0d14c09","651d3ebfab1277ccc86c00c7","null","null","<p style=""font-size: 60px; font-family: BACS"">CmcOcPK</p>","","","","","","","","",""
"html-keyboard-response","354","473839","0.0-16.0-0.22","6100174f92a7a0e5141b195e","650c16f0f2faf8d7a0d14c09","651d3ebfab1277ccc86c00c7","null","null","<p style=""font-size: 60px; font-family: BACS"">CmcOcPK</p>","","","","","","","","",""
"html-keyboard-response","355","474843","0.0-16.0-0.23","6100174f92a7a0e5141b195e","650c16f0f2faf8d7a0d14c09","651d3ebfab1277ccc86c00c7","null","null","<p style=""font-size: 60px; font-family: BACS"">CmcOcPK</p>","","","","","","","","",""
"html-keyboard-response","356","475848","0.0-16.0-0.24","6100174f92a7a0e5141b195e","650c16f0f2faf8d7a0d14c09","651d3ebfab1277ccc86c00c7","null","null","<p style=""font-size: 60px; font-family: BACS"">CmcOcPK</p>","","","","","","","","",""
"html-keyboard-response","357","476852","0.0-16.0-0.25","6100174f92a7a0e5141b195e","650c16f0f2faf8d7a0d14c09","651d3ebfab1277ccc86c00c7","null","null","<p style=""font-size: 60px; font-family: BACS"">CmcOcPK</p>","","","","","","","","",""
"html-keyboard-response","358","477856","0.0-16.0-0.26","6100174f92a7a0e5141b195e","650c16f0f2faf8d7a0d14c09","651d3ebfab1277ccc86c00c7","null","null","<p style=""font-size: 60px; font-family: BACS"">CmcOcPK</p>","","","","","","","","",""
"html-keyboard-response","359","478860","0.0-16.0-0.27","6100174f92a7a0e5141b195e","650c16f0f2faf8d7a0d14c09","651d3ebfab1277ccc86c00c7","null","null","<p style=""font-size: 60px; font-family: BACS"">CmcOcPK</p>","","","","","","","","",""
"html-keyboard-response","360","479865","0.0-16.0-0.28","6100174f92a7a0e5141b195e","650c16f0f2faf8d7a0d14c09","651d3ebfab1277ccc86c00c7","null","null","<p style=""font-size: 60px; font-family: BACS"">CmcOcPK</p>","","","","","","","","",""
"html-keyboard-response","361","480869","0.0-16.0-0.29","6100174f92a7a0e5141b195e","650c16f0f2faf8d7a0d14c09","651d3ebfab1277ccc86c00c7","null","null","<p style=""font-size: 60px; font-family: BACS"">CmcOcPK</p>","","","","","","","","",""
"html-keyboard-response","362","481873","0.0-16.0-0.30","6100174f92a7a0e5141b195e","650c16f0f2faf8d7a0d14c09","651d3ebfab1277ccc86c00c7","null","null","<p style=""font-size: 60px; font-family: BACS"">CmcOcPK</p>","","","","","","","","",""
"html-keyboard-response","363","482877","0.0-16.0-0.31","6100174f92a7a0e5141b195e","650c16f0f2faf8d7a0d14c09","651d3ebfab1277ccc86c00c7","null","null","<p style=""font-size: 60px; font-family: BACS"">CmcOcPK</p>","","","","","","","","",""
"html-keyboard-response","364","483882","0.0-16.0-0.32","6100174f92a7a0e5141b195e","650c16f0f2faf8d7a0d14c09","651d3ebfab1277ccc86c00c7","null","null","<p style=""font-size: 60px; font-family: BACS"">CmcOcPK</p>","","","","","","","","",""
"html-keyboard-response","365","484886","0.0-16.0-0.33","6100174f92a7a0e5141b195e","650c16f0f2faf8d7a0d14c09","651d3ebfab1277ccc86c00c7","null","null","<p style=""font-size: 60px; font-family: BACS"">CmcOcPK</p>","","","","","","","","",""
"html-keyboard-response","366","485890","0.0-16.0-0.34","6100174f92a7a0e5141b195e","650c16f0f2faf8d7a0d14c09","651d3ebfab1277ccc86c00c7","null","null","<p style=""font-size: 60px; font-family: BACS"">CmcOcPK</p>","","","","","","","","",""
"html-keyboard-response","367","486895","0.0-16.0-0.35","6100174f92a7a0e5141b195e","650c16f0f2faf8d7a0d14c09","651d3ebfab1277ccc86c00c7","null","null","<p style=""font-size: 60px; font-family: BACS"">CmcOcPK</p>","","","","","","","","",""
"html-keyboard-response","368","487899","0.0-16.0-0.36","6100174f92a7a0e5141b195e","650c16f0f2faf8d7a0d14c09","651d3ebfab1277ccc86c00c7","null","null","<p style=""font-size: 60px; font-family: BACS"">CmcOcPK</p>","","","","","","","","",""
"html-keyboard-response","369","488903","0.0-16.0-0.37","6100174f92a7a0e5141b195e","650c16f0f2faf8d7a0d14c09","651d3ebfab1277ccc86c00c7","null","null","<p style=""font-size: 60px; font-family: BACS"">CmcOcPK</p>","","","","","","","","",""
"html-keyboard-response","370","489907","0.0-16.0-0.38","6100174f92a7a0e5141b195e","650c16f0f2faf8d7a0d14c09","651d3ebfab1277ccc86c00c7","null","null","<p style=""font-size: 60px; font-family: BACS"">CmcOcPK</p>","","","","","","","","",""
"html-keyboard-response","371","490912","0.0-16.0-0.39","6100174f92a7a0e5141b195e","650c16f0f2faf8d7a0d14c09","651d3ebfab1277ccc86c00c7","null","null","<p style=""font-size: 60px; font-family: BACS"">CmcOcPK</p>","","","","","","","","",""
"html-keyboard-response","372","491916","0.0-16.0-0.40","6100174f92a7a0e5141b195e","650c16f0f2faf8d7a0d14c09","651d3ebfab1277ccc86c00c7","null","null","<p style=""font-size: 60px; font-family: BACS"">CmcOcPK</p>","","","","","","","","",""
"html-keyboard-response","373","492920","0.0-16.0-0.41","6100174f92a7a0e5141b195e","650c16f0f2faf8d7a0d14c09","651d3ebfab1277ccc86c00c7","null","null","<p style=""font-size: 60px; font-family: BACS"">CmcOcPK</p>","","","","","","","","",""
"html-keyboard-response","374","493925","0.0-16.0-0.42","6100174f92a7a0e5141b195e","650c16f0f2faf8d7a0d14c09","651d3ebfab1277ccc86c00c7","null","null","<p style=""font-size: 60px; font-family: BACS"">CmcOcPK</p>","","","","","","","","",""
"html-keyboard-response","375","494929","0.0-16.0-0.43","6100174f92a7a0e5141b195e","650c16f0f2faf8d7a0d14c09","651d3ebfab1277ccc86c00c7","null","null","<p style=""font-size: 60px; font-family: BACS"">CmcOcPK</p>","","","","","","","","",""
"html-keyboard-response","376","495933","0.0-16.0-0.44","6100174f92a7a0e5141b195e","650c16f0f2faf8d7a0d14c09","651d3ebfab1277ccc86c00c7","null","null","<p style=""font-size: 60px; font-family: BACS"">CmcOcPK</p>","","","","","","","","",""
"html-keyboard-response","377","496937","0.0-16.0-0.45","6100174f92a7a0e5141b195e","650c16f0f2faf8d7a0d14c09","651d3ebfab1277ccc86c00c7","null","null","<p style=""font-size: 60px; font-family: BACS"">CmcOcPK</p>","","","","","","","","",""
"html-keyboard-response","378","497942","0.0-16.0-0.46","6100174f92a7a0e5141b195e","650c16f0f2faf8d7a0d14c09","651d3ebfab1277ccc86c00c7","null","null","<p style=""font-size: 60px; font-family: BACS"">CmcOcPK</p>","","","","","","","","",""
"html-keyboard-response","379","498946","0.0-16.0-0.47","6100174f92a7a0e5141b195e","650c16f0f2faf8d7a0d14c09","651d3ebfab1277ccc86c00c7","null","null","<p style=""font-size: 60px; font-family: BACS"">CmcOcPK</p>","","","","","","","","",""
"html-keyboard-response","380","499950","0.0-16.0-0.48","6100174f92a7a0e5141b195e","650c16f0f2faf8d7a0d14c09","651d3ebfab1277ccc86c00c7","null","null","<p style=""font-size: 60px; font-family: BACS"">CmcOcPK</p>","","","","","","","","",""
"html-keyboard-response","381","500955","0.0-16.0-0.49","6100174f92a7a0e5141b195e","650c16f0f2faf8d7a0d14c09","651d3ebfab1277ccc86c00c7","null","null","<p style=""font-size: 60px; font-family: BACS"">CmcOcPK</p>","","","","","","","","",""
"html-keyboard-response","382","501959","0.0-16.0-0.50","6100174f92a7a0e5141b195e","650c16f0f2faf8d7a0d14c09","651d3ebfab1277ccc86c00c7","null","null","<p style=""font-size: 60px; font-family: BACS"">CmcOcPK</p>","","","","","","","","",""
"html-keyboard-response","383","502963","0.0-16.0-0.51","6100174f92a7a0e5141b195e","650c16f0f2faf8d7a0d14c09","651d3ebfab1277ccc86c00c7","null","null","<p style=""font-size: 60px; font-family: BACS"">CmcOcPK</p>","","","","","","","","",""
"html-keyboard-response","384","503967","0.0-16.0-0.52","6100174f92a7a0e5141b195e","650c16f0f2faf8d7a0d14c09","651d3ebfab1277ccc86c00c7","null","null","<p style=""font-size: 60px; font-family: BACS"">CmcOcPK</p>","","","","","","","","",""
"html-keyboard-response","385","504972","0.0-16.0-0.53","6100174f92a7a0e5141b195e","650c16f0f2faf8d7a0d14c09","651d3ebfab1277ccc86c00c7","null","null","<p style=""font-size: 60px; font-family: BACS"">CmcOcPK</p>","","","","","","","","",""
"html-keyboard-response","386","505976","0.0-16.0-0.54","6100174f92a7a0e5141b195e","650c16f0f2faf8d7a0d14c09","651d3ebfab1277ccc86c00c7","null","null","<p style=""font-size: 60px; font-family: BACS"">CmcOcPK</p>","","","","","","","","",""
"html-keyboard-response","387","506980","0.0-16.0-0.55","6100174f92a7a0e5141b195e","650c16f0f2faf8d7a0d14c09","651d3ebfab1277ccc86c00c7","null","null","<p style=""font-size: 60px; font-family: BACS"">CmcOcPK</p>","","","","","","","","",""
"html-keyboard-response","388","507985","0.0-16.0-0.56","6100174f92a7a0e5141b195e","650c16f0f2faf8d7a0d14c09","651d3ebfab1277ccc86c00c7","null","null","<p style=""font-size: 60px; font-family: BACS"">CmcOcPK</p>","","","","","","","","",""
"html-keyboard-response","389","508989","0.0-16.0-0.57","6100174f92a7a0e5141b195e","650c16f0f2faf8d7a0d14c09","651d3ebfab1277ccc86c00c7","null","null","<p style=""font-size: 60px; font-family: BACS"">CmcOcPK</p>","","","","","","","","",""
"html-keyboard-response","390","509993","0.0-16.0-0.58","6100174f92a7a0e5141b195e","650c16f0f2faf8d7a0d14c09","651d3ebfab1277ccc86c00c7","null","null","<p style=""font-size: 60px; font-family: BACS"">CmcOcPK</p>","","","","","","","","",""
"html-keyboard-response","391","510997","0.0-16.0-0.59","6100174f92a7a0e5141b195e","650c16f0f2faf8d7a0d14c09","651d3ebfab1277ccc86c00c7","null","null","<p style=""font-size: 60px; font-family: BACS"">CmcOcPK</p>","","","","","","","","",""
"html-keyboard-response","392","512002","0.0-16.0-0.60","6100174f92a7a0e5141b195e","650c16f0f2faf8d7a0d14c09","651d3ebfab1277ccc86c00c7","null","null","<p style=""font-size: 60px; font-family: BACS"">CmcOcPK</p>","","","","","","","","",""
"html-keyboard-response","393","513006","0.0-16.0-0.61","6100174f92a7a0e5141b195e","650c16f0f2faf8d7a0d14c09","651d3ebfab1277ccc86c00c7","null","null","<p style=""font-size: 60px; font-family: BACS"">CmcOcPK</p>","","","","","","","","",""
"html-keyboard-response","394","514010","0.0-16.0-0.62","6100174f92a7a0e5141b195e","650c16f0f2faf8d7a0d14c09","651d3ebfab1277ccc86c00c7","null","null","<p style=""font-size: 60px; font-family: BACS"">CmcOcPK</p>","","","","","","","","",""
"html-keyboard-response","395","515014","0.0-16.0-0.63","6100174f92a7a0e5141b195e","650c16f0f2faf8d7a0d14c09","651d3ebfab1277ccc86c00c7","null","null","<p style=""font-size: 60px; font-family: BACS"">CmcOcPK</p>","","","","","","","","",""
"html-keyboard-response","396","516019","0.0-16.0-0.64","6100174f92a7a0e5141b195e","650c16f0f2faf8d7a0d14c09","651d3ebfab1277ccc86c00c7","null","null","<p style=""font-size: 60px; font-family: BACS"">CmcOcPK</p>","","","","","","","","",""
"html-keyboard-response","397","517023","0.0-16.0-0.65","6100174f92a7a0e5141b195e","650c16f0f2faf8d7a0d14c09","651d3ebfab1277ccc86c00c7","null","null","<p style=""font-size: 60px; font-family: BACS"">CmcOcPK</p>","","","","","","","","",""
"html-keyboard-response","398","518027","0.0-16.0-0.66","6100174f92a7a0e5141b195e","650c16f0f2faf8d7a0d14c09","651d3ebfab1277ccc86c00c7","null","null","<p style=""font-size: 60px; font-family: BACS"">CmcOcPK</p>","","","","","","","","",""
