"trial_type","trial_index","time_elapsed","internal_node_id","subject_id","study_id","session_id","rt","response","stimulus","success","item","task","correct_response","testing_condition","correct","target","confound","name"
"pavlovia","0","1893","0.0-0.0","5fc44d83862e3e79b02e0438","650c16f0f2faf8d7a0d14c09","651c1c20371af10733e73925","","","","","","","","","","","",""
"survey-html-form","1","27921","0.0-1.0","5fc44d83862e3e79b02e0438","650c16f0f2faf8d7a0d14c09","651c1c20371af10733e73925","26027","{""ID"":""5fc44d83862e3e79b02e0438""}","","","","","","","","","",""
"html-keyboard-response","2","37781","0.0-2.0","5fc44d83862e3e79b02e0438","650c16f0f2faf8d7a0d14c09","651c1c20371af10733e73925","9859"," ","<p style=""font-size: 15px;"">Before beginning, we ask that you read the consent information and confirm your agreement to participate in the experiment.</p>
      <p style=""font-size: 15px;""> We ask that you remember that this is a research project and that your participation is entirely voluntary. You can stop your participation at any time, without needing to provide any explanation. The study we're asking you to participate in aims at examining how readers process written words. You will be engaged in a session of apprximately 20 minutes, followed by a brief questionnaire. You will have the opportunity to take a few breaks during the experiment. You will be paid £4 for your participation, corresponding to a rate of £8/hour. While this experiment looks at cognitive faculties, this experiment doesn't constitute clinical proof of eventual pathologies.</p>
      <p style=""font-size: 15px;"">All of the information collected thanks to yours and others' participation will be held in a secure password-protected server, and will not be shared with anyone not authorised to view it. Your personal information will be kept with an arbitrary participant ID. Thanks to this data anonymity process, any researcher analysing the data won't be able to track the information back to a specific participant. Therefore, this process will make identifying you impossibile, even when results from the study will be published in scientific reviews, presented at congresses, or at any other public forum. More generally, the collected data will be treated in accordance with the laws on privacy and conformity to the Legislative Degree n. 196 ""Code regarding the protection of personal data"" of the 30th of June 2003 and to the European Regulation 2016/670 (General Data Protection Regulation - GDPR). The Data Protection Officer is Avv. Valentina Carollo, who can be contacted at the following email addresses: <a href=""mailto:dpo@sissa.it"">dpo@sissa.it</a> or <a href=""mailto:rpd@sissa.it"">rpd@sissa.it</a> - PEC: <a href=""mailto:protocollo@pec.sissa.it"">protocollo@pec.sissa.it</a>.</p>
      <p style=""font-size: 15px;""> Before expressing your consent to participate, we would like to remind you again that in case you need explanations on any aspect of the experimental procedure, the researcher is at your disposition (<a href=""mailto:aliebelt@sissa.it"">aliebelt@sissa.it</a>, <a href=""mailto:davide.crepaldi@sissa.it"">davide.crepaldi@sissa.it</a>).</p>
      <p style=""font-size: 15px;"">If you would like to download the informed consent form, you can do so here: <a href=""BASL-Informed_Consent.pdf"" download>informed consent form</a>.</p>
      <p style=""font-size: 15px;"">We ask that you press the spacebar to proceed to the consent section.</p>","","","","","","","","",""
"survey-html-form","3","69961","0.0-3.0","5fc44d83862e3e79b02e0438","650c16f0f2faf8d7a0d14c09","651c1c20371af10733e73925","32179","{""consent1"":""YES"",""consent2"":""YES"",""consent3"":""YES"",""consent4"":""YES"",""consent5"":""YES"",""consent6"":""YES""}","","","","","","","","","",""
"fullscreen","4","73370","0.0-4.0","5fc44d83862e3e79b02e0438","650c16f0f2faf8d7a0d14c09","651c1c20371af10733e73925","","","","true","","","","","","","",""
"html-keyboard-response","5","97505","0.0-5.0","5fc44d83862e3e79b02e0438","650c16f0f2faf8d7a0d14c09","651c1c20371af10733e73925","24134"," ","<p>Welcome, and thank you very much for your time!</p>
      <p>In this experiment, you'll be a language expert who's been asked to take a look at words that Earth has received in its first communication with aliens. Your task, in this first part of the experiment, is to pay close attention to the words you'll be shown; later, world leaders will ask you questions on what you saw. The words will be shown to you quite quickly; it seems that the aliens were in a hurry :-)</p>
      <p>Press the spacebar to continue.<p>","","","","","","","","",""
"html-keyboard-response","6","97556","0.0-6.0","5fc44d83862e3e79b02e0438","650c16f0f2faf8d7a0d14c09","651c1c20371af10733e73925","null","null","<p style=""font-size: 120px; font-family: BACS""> </p>","","","","","","","","",""
"html-keyboard-response","7","104776","0.0-7.0","5fc44d83862e3e79b02e0438","650c16f0f2faf8d7a0d14c09","651c1c20371af10733e73925","7220"," ","<p>Here is an example of the words you'll see:</p>
      <img src='esempio.png' height='400px'>
      <p>When you're ready to begin, press the spacebar.</p></div>","","","","","","","","",""
"html-keyboard-response","8","105780","0.0-8.0-0.0","5fc44d83862e3e79b02e0438","650c16f0f2faf8d7a0d14c09","651c1c20371af10733e73925","null","null","<p style=""font-size: 60px; font-family: BACS"">mdkKCKOb</p>","","","","","","","","",""
"html-keyboard-response","9","106782","0.0-8.0-0.1","5fc44d83862e3e79b02e0438","650c16f0f2faf8d7a0d14c09","651c1c20371af10733e73925","null","null","<p style=""font-size: 60px; font-family: BACS"">lAOKMTRK</p>","","","","","","","","",""
"html-keyboard-response","10","107795","0.0-8.0-0.2","5fc44d83862e3e79b02e0438","650c16f0f2faf8d7a0d14c09","651c1c20371af10733e73925","null","null","<p style=""font-size: 60px; font-family: BACS"">NbmQUJQA</p>","","","","","","","","",""
"html-keyboard-response","11","108805","0.0-8.0-0.3","5fc44d83862e3e79b02e0438","650c16f0f2faf8d7a0d14c09","651c1c20371af10733e73925","null","null","<p style=""font-size: 60px; font-family: BACS"">ECtbDEKBO</p>","","","","","","","","",""
"html-keyboard-response","12","109814","0.0-8.0-0.4","5fc44d83862e3e79b02e0438","650c16f0f2faf8d7a0d14c09","651c1c20371af10733e73925","null","null","<p style=""font-size: 60px; font-family: BACS"">NJZlkYL</p>","","","","","","","","",""
"html-keyboard-response","13","110825","0.0-8.0-0.5","5fc44d83862e3e79b02e0438","650c16f0f2faf8d7a0d14c09","651c1c20371af10733e73925","null","null","<p style=""font-size: 60px; font-family: BACS"">ECtbDTRK</p>","","","","","","","","",""
"html-keyboard-response","14","111835","0.0-8.0-0.6","5fc44d83862e3e79b02e0438","650c16f0f2faf8d7a0d14c09","651c1c20371af10733e73925","null","null","<p style=""font-size: 60px; font-family: BACS"">aYQmYbN</p>","","","","","","","","",""
"html-keyboard-response","15","112843","0.0-8.0-0.7","5fc44d83862e3e79b02e0438","650c16f0f2faf8d7a0d14c09","651c1c20371af10733e73925","null","null","<p style=""font-size: 60px; font-family: BACS"">hbkdCKOb</p>","","","","","","","","",""
"html-keyboard-response","16","113852","0.0-8.0-0.8","5fc44d83862e3e79b02e0438","650c16f0f2faf8d7a0d14c09","651c1c20371af10733e73925","null","null","<p style=""font-size: 60px; font-family: BACS"">rvOvUOcZJ</p>","","","","","","","","",""
"html-keyboard-response","17","114858","0.0-8.0-0.9","5fc44d83862e3e79b02e0438","650c16f0f2faf8d7a0d14c09","651c1c20371af10733e73925","null","null","<p style=""font-size: 60px; font-family: BACS"">lAOKMTPOM</p>","","","","","","","","",""
"html-keyboard-response","18","115867","0.0-8.0-0.10","5fc44d83862e3e79b02e0438","650c16f0f2faf8d7a0d14c09","651c1c20371af10733e73925","null","null","<p style=""font-size: 60px; font-family: BACS"">dTmEDCKOb</p>","","","","","","","","",""
"html-keyboard-response","19","116877","0.0-8.0-0.11","5fc44d83862e3e79b02e0438","650c16f0f2faf8d7a0d14c09","651c1c20371af10733e73925","null","null","<p style=""font-size: 60px; font-family: BACS"">khmhBCAd</p>","","","","","","","","",""
"html-keyboard-response","20","117878","0.0-8.0-0.12","5fc44d83862e3e79b02e0438","650c16f0f2faf8d7a0d14c09","651c1c20371af10733e73925","null","null","<p style=""font-size: 60px; font-family: BACS"">mhtcEKBO</p>","","","","","","","","",""
"html-keyboard-response","21","118891","0.0-8.0-0.13","5fc44d83862e3e79b02e0438","650c16f0f2faf8d7a0d14c09","651c1c20371af10733e73925","null","null","<p style=""font-size: 60px; font-family: BACS"">aYQmJQA</p>","","","","","","","","",""
"html-keyboard-response","22","119903","0.0-8.0-0.14","5fc44d83862e3e79b02e0438","650c16f0f2faf8d7a0d14c09","651c1c20371af10733e73925","null","null","<p style=""font-size: 60px; font-family: BACS"">NbmQUYbN</p>","","","","","","","","",""
"html-keyboard-response","23","120911","0.0-8.0-0.15","5fc44d83862e3e79b02e0438","650c16f0f2faf8d7a0d14c09","651c1c20371af10733e73925","null","null","<p style=""font-size: 60px; font-family: BACS"">NJZlOcZJ</p>","","","","","","","","",""
"html-keyboard-response","24","121912","0.0-8.0-0.16","5fc44d83862e3e79b02e0438","650c16f0f2faf8d7a0d14c09","651c1c20371af10733e73925","null","null","<p style=""font-size: 60px; font-family: BACS"">YlYcTPOM</p>","","","","","","","","",""
"html-keyboard-response","25","122913","0.0-8.0-0.17","5fc44d83862e3e79b02e0438","650c16f0f2faf8d7a0d14c09","651c1c20371af10733e73925","null","null","<p style=""font-size: 60px; font-family: BACS"">mhtcBCAd</p>","","","","","","","","",""
"html-keyboard-response","26","123928","0.0-8.0-0.18","5fc44d83862e3e79b02e0438","650c16f0f2faf8d7a0d14c09","651c1c20371af10733e73925","null","null","<p style=""font-size: 60px; font-family: BACS"">LdQvYbN</p>","","","","","","","","",""
"html-keyboard-response","27","124929","0.0-8.0-0.19","5fc44d83862e3e79b02e0438","650c16f0f2faf8d7a0d14c09","651c1c20371af10733e73925","null","null","<p style=""font-size: 60px; font-family: BACS"">YlYcTRK</p>","","","","","","","","",""
"html-keyboard-response","28","125930","0.0-8.0-0.20","5fc44d83862e3e79b02e0438","650c16f0f2faf8d7a0d14c09","651c1c20371af10733e73925","null","null","<p style=""font-size: 60px; font-family: BACS"">NbmQUOcZJ</p>","","","","","","","","",""
"html-keyboard-response","29","126931","0.0-8.0-0.21","5fc44d83862e3e79b02e0438","650c16f0f2faf8d7a0d14c09","651c1c20371af10733e73925","null","null","<p style=""font-size: 60px; font-family: BACS"">mdkKTPOM</p>","","","","","","","","",""
"html-keyboard-response","30","127935","0.0-8.0-0.22","5fc44d83862e3e79b02e0438","650c16f0f2faf8d7a0d14c09","651c1c20371af10733e73925","null","null","<p style=""font-size: 60px; font-family: BACS"">kNuarAm</p>","","","","","","","","",""
"html-keyboard-response","31","128944","0.0-8.0-0.23","5fc44d83862e3e79b02e0438","650c16f0f2faf8d7a0d14c09","651c1c20371af10733e73925","null","null","<p style=""font-size: 60px; font-family: BACS"">ubALmYbN</p>","","","","","","","","",""
"html-keyboard-response","32","129955","0.0-8.0-0.24","5fc44d83862e3e79b02e0438","650c16f0f2faf8d7a0d14c09","651c1c20371af10733e73925","null","null","<p style=""font-size: 60px; font-family: BACS"">LdQvkYL</p>","","","","","","","","",""
"html-keyboard-response","33","130965","0.0-8.0-0.25","5fc44d83862e3e79b02e0438","650c16f0f2faf8d7a0d14c09","651c1c20371af10733e73925","null","null","<p style=""font-size: 60px; font-family: BACS"">kNuaOcZJ</p>","","","","","","","","",""
"html-keyboard-response","34","131968","0.0-8.0-0.26","5fc44d83862e3e79b02e0438","650c16f0f2faf8d7a0d14c09","651c1c20371af10733e73925","null","null","<p style=""font-size: 60px; font-family: BACS"">rvOvUYbN</p>","","","","","","","","",""
"html-keyboard-response","35","132969","0.0-8.0-0.27","5fc44d83862e3e79b02e0438","650c16f0f2faf8d7a0d14c09","651c1c20371af10733e73925","null","null","<p style=""font-size: 60px; font-family: BACS"">mdkKTRK</p>","","","","","","","","",""
"html-keyboard-response","36","133970","0.0-8.0-0.28","5fc44d83862e3e79b02e0438","650c16f0f2faf8d7a0d14c09","651c1c20371af10733e73925","null","null","<p style=""font-size: 60px; font-family: BACS"">BECkEKBO</p>","","","","","","","","",""
"html-keyboard-response","37","134986","0.0-8.0-0.29","5fc44d83862e3e79b02e0438","650c16f0f2faf8d7a0d14c09","651c1c20371af10733e73925","null","null","<p style=""font-size: 60px; font-family: BACS"">NJZlJQA</p>","","","","","","","","",""
"html-keyboard-response","38","135997","0.0-8.0-0.30","5fc44d83862e3e79b02e0438","650c16f0f2faf8d7a0d14c09","651c1c20371af10733e73925","null","null","<p style=""font-size: 60px; font-family: BACS"">YlYcCKOb</p>","","","","","","","","",""
"html-keyboard-response","39","137008","0.0-8.0-0.31","5fc44d83862e3e79b02e0438","650c16f0f2faf8d7a0d14c09","651c1c20371af10733e73925","null","null","<p style=""font-size: 60px; font-family: BACS"">NJZlYbN</p>","","","","","","","","",""
"html-keyboard-response","40","138018","0.0-8.0-0.32","5fc44d83862e3e79b02e0438","650c16f0f2faf8d7a0d14c09","651c1c20371af10733e73925","null","null","<p style=""font-size: 60px; font-family: BACS"">JNkakYL</p>","","","","","","","","",""
"html-keyboard-response","41","139030","0.0-8.0-0.33","5fc44d83862e3e79b02e0438","650c16f0f2faf8d7a0d14c09","651c1c20371af10733e73925","null","null","<p style=""font-size: 60px; font-family: BACS"">ubALmJQA</p>","","","","","","","","",""
"html-keyboard-response","42","140030","0.0-8.0-0.34","5fc44d83862e3e79b02e0438","650c16f0f2faf8d7a0d14c09","651c1c20371af10733e73925","null","null","<p style=""font-size: 60px; font-family: BACS"">dTmEDEKBO</p>","","","","","","","","",""
"html-keyboard-response","43","141034","0.0-8.0-0.35","5fc44d83862e3e79b02e0438","650c16f0f2faf8d7a0d14c09","651c1c20371af10733e73925","null","null","<p style=""font-size: 60px; font-family: BACS"">lAOKMBCAd</p>","","","","","","","","",""
"html-keyboard-response","44","142041","0.0-8.0-0.36","5fc44d83862e3e79b02e0438","650c16f0f2faf8d7a0d14c09","651c1c20371af10733e73925","null","null","<p style=""font-size: 60px; font-family: BACS"">QbkAcrAm</p>","","","","","","","","",""
"html-keyboard-response","45","143053","0.0-8.0-0.37","5fc44d83862e3e79b02e0438","650c16f0f2faf8d7a0d14c09","651c1c20371af10733e73925","null","null","<p style=""font-size: 60px; font-family: BACS"">ubALmkYL</p>","","","","","","","","",""
"html-keyboard-response","46","144054","0.0-8.0-0.38","5fc44d83862e3e79b02e0438","650c16f0f2faf8d7a0d14c09","651c1c20371af10733e73925","null","null","<p style=""font-size: 60px; font-family: BACS"">hbkdEKBO</p>","","","","","","","","",""
"html-keyboard-response","47","145064","0.0-8.0-0.39","5fc44d83862e3e79b02e0438","650c16f0f2faf8d7a0d14c09","651c1c20371af10733e73925","null","null","<p style=""font-size: 60px; font-family: BACS"">BECkBCAd</p>","","","","","","","","",""
"html-keyboard-response","48","146065","0.0-8.0-0.40","5fc44d83862e3e79b02e0438","650c16f0f2faf8d7a0d14c09","651c1c20371af10733e73925","null","null","<p style=""font-size: 60px; font-family: BACS"">dTmEDTRK</p>","","","","","","","","",""
"html-keyboard-response","49","147069","0.0-8.0-0.41","5fc44d83862e3e79b02e0438","650c16f0f2faf8d7a0d14c09","651c1c20371af10733e73925","null","null","<p style=""font-size: 60px; font-family: BACS"">JNkaJQA</p>","","","","","","","","",""
"html-keyboard-response","50","148081","0.0-8.0-0.42","5fc44d83862e3e79b02e0438","650c16f0f2faf8d7a0d14c09","651c1c20371af10733e73925","null","null","<p style=""font-size: 60px; font-family: BACS"">rvOvUkYL</p>","","","","","","","","",""
"html-keyboard-response","51","149082","0.0-8.0-0.43","5fc44d83862e3e79b02e0438","650c16f0f2faf8d7a0d14c09","651c1c20371af10733e73925","null","null","<p style=""font-size: 60px; font-family: BACS"">mdkKBCAd</p>","","","","","","","","",""
"html-keyboard-response","52","150095","0.0-8.0-0.44","5fc44d83862e3e79b02e0438","650c16f0f2faf8d7a0d14c09","651c1c20371af10733e73925","null","null","<p style=""font-size: 60px; font-family: BACS"">khmhEKBO</p>","","","","","","","","",""
"html-keyboard-response","53","151105","0.0-8.0-0.45","5fc44d83862e3e79b02e0438","650c16f0f2faf8d7a0d14c09","651c1c20371af10733e73925","null","null","<p style=""font-size: 60px; font-family: BACS"">JNkaOcZJ</p>","","","","","","","","",""
"html-keyboard-response","54","152120","0.0-8.0-0.46","5fc44d83862e3e79b02e0438","650c16f0f2faf8d7a0d14c09","651c1c20371af10733e73925","null","null","<p style=""font-size: 60px; font-family: BACS"">lBKtTPOM</p>","","","","","","","","",""
"html-keyboard-response","55","153121","0.0-8.0-0.47","5fc44d83862e3e79b02e0438","650c16f0f2faf8d7a0d14c09","651c1c20371af10733e73925","null","null","<p style=""font-size: 60px; font-family: BACS"">hbkdBCAd</p>","","","","","","","","",""
"html-keyboard-response","56","154124","0.0-8.0-0.48","5fc44d83862e3e79b02e0438","650c16f0f2faf8d7a0d14c09","651c1c20371af10733e73925","null","null","<p style=""font-size: 60px; font-family: BACS"">LdQvrAm</p>","","","","","","","","",""
"html-keyboard-response","57","155134","0.0-8.0-0.49","5fc44d83862e3e79b02e0438","650c16f0f2faf8d7a0d14c09","651c1c20371af10733e73925","null","null","<p style=""font-size: 60px; font-family: BACS"">YlYcEKBO</p>","","","","","","","","",""
"html-keyboard-response","58","156145","0.0-8.0-0.50","5fc44d83862e3e79b02e0438","650c16f0f2faf8d7a0d14c09","651c1c20371af10733e73925","null","null","<p style=""font-size: 60px; font-family: BACS"">lBKtCKOb</p>","","","","","","","","",""
"html-keyboard-response","59","157158","0.0-8.0-0.51","5fc44d83862e3e79b02e0438","650c16f0f2faf8d7a0d14c09","651c1c20371af10733e73925","null","null","<p style=""font-size: 60px; font-family: BACS"">kNuaYbN</p>","","","","","","","","",""
"html-keyboard-response","60","158160","0.0-8.0-0.52","5fc44d83862e3e79b02e0438","650c16f0f2faf8d7a0d14c09","651c1c20371af10733e73925","null","null","<p style=""font-size: 60px; font-family: BACS"">aYQmrAm</p>","","","","","","","","",""
"html-keyboard-response","61","159162","0.0-8.0-0.53","5fc44d83862e3e79b02e0438","650c16f0f2faf8d7a0d14c09","651c1c20371af10733e73925","null","null","<p style=""font-size: 60px; font-family: BACS"">kNuaJQA</p>","","","","","","","","",""
"html-keyboard-response","62","160163","0.0-8.0-0.54","5fc44d83862e3e79b02e0438","650c16f0f2faf8d7a0d14c09","651c1c20371af10733e73925","null","null","<p style=""font-size: 60px; font-family: BACS"">ubALmOcZJ</p>","","","","","","","","",""
"html-keyboard-response","63","161173","0.0-8.0-0.55","5fc44d83862e3e79b02e0438","650c16f0f2faf8d7a0d14c09","651c1c20371af10733e73925","null","null","<p style=""font-size: 60px; font-family: BACS"">lGZvkYL</p>","","","","","","","","",""
"html-keyboard-response","64","162184","0.0-8.0-0.56","5fc44d83862e3e79b02e0438","650c16f0f2faf8d7a0d14c09","651c1c20371af10733e73925","null","null","<p style=""font-size: 60px; font-family: BACS"">khmhTRK</p>","","","","","","","","",""
"html-keyboard-response","65","163194","0.0-8.0-0.57","5fc44d83862e3e79b02e0438","650c16f0f2faf8d7a0d14c09","651c1c20371af10733e73925","null","null","<p style=""font-size: 60px; font-family: BACS"">LdQvOcZJ</p>","","","","","","","","",""
"html-keyboard-response","66","164195","0.0-8.0-0.58","5fc44d83862e3e79b02e0438","650c16f0f2faf8d7a0d14c09","651c1c20371af10733e73925","null","null","<p style=""font-size: 60px; font-family: BACS"">QbkAcJQA</p>","","","","","","","","",""
"html-keyboard-response","67","165196","0.0-8.0-0.59","5fc44d83862e3e79b02e0438","650c16f0f2faf8d7a0d14c09","651c1c20371af10733e73925","null","null","<p style=""font-size: 60px; font-family: BACS"">lGZvrAm</p>","","","","","","","","",""
"html-keyboard-response","68","166207","0.0-8.0-0.60","5fc44d83862e3e79b02e0438","650c16f0f2faf8d7a0d14c09","651c1c20371af10733e73925","null","null","<p style=""font-size: 60px; font-family: BACS"">QbkAckYL</p>","","","","","","","","",""
"html-keyboard-response","69","167208","0.0-8.0-0.61","5fc44d83862e3e79b02e0438","650c16f0f2faf8d7a0d14c09","651c1c20371af10733e73925","null","null","<p style=""font-size: 60px; font-family: BACS"">lGZvYbN</p>","","","","","","","","",""
"html-keyboard-response","70","168209","0.0-8.0-0.62","5fc44d83862e3e79b02e0438","650c16f0f2faf8d7a0d14c09","651c1c20371af10733e73925","null","null","<p style=""font-size: 60px; font-family: BACS"">rvOvUrAm</p>","","","","","","","","",""
"html-keyboard-response","71","169223","0.0-8.0-0.63","5fc44d83862e3e79b02e0438","650c16f0f2faf8d7a0d14c09","651c1c20371af10733e73925","null","null","<p style=""font-size: 60px; font-family: BACS"">hbkdTPOM</p>","","","","","","","","",""
"html-keyboard-response","72","170234","0.0-8.0-0.64","5fc44d83862e3e79b02e0438","650c16f0f2faf8d7a0d14c09","651c1c20371af10733e73925","null","null","<p style=""font-size: 60px; font-family: BACS"">JNkarAm</p>","","","","","","","","",""
"html-keyboard-response","73","171235","0.0-8.0-0.65","5fc44d83862e3e79b02e0438","650c16f0f2faf8d7a0d14c09","651c1c20371af10733e73925","null","null","<p style=""font-size: 60px; font-family: BACS"">dTmEDTPOM</p>","","","","","","","","",""
"html-keyboard-response","74","172239","0.0-8.0-0.66","5fc44d83862e3e79b02e0438","650c16f0f2faf8d7a0d14c09","651c1c20371af10733e73925","null","null","<p style=""font-size: 60px; font-family: BACS"">khmhCKOb</p>","","","","","","","","",""
"html-keyboard-response","75","173240","0.0-8.0-0.67","5fc44d83862e3e79b02e0438","650c16f0f2faf8d7a0d14c09","651c1c20371af10733e73925","null","null","<p style=""font-size: 60px; font-family: BACS"">ECtbDBCAd</p>","","","","","","","","",""
"html-keyboard-response","76","174247","0.0-8.0-0.68","5fc44d83862e3e79b02e0438","650c16f0f2faf8d7a0d14c09","651c1c20371af10733e73925","null","null","<p style=""font-size: 60px; font-family: BACS"">mhtcTPOM</p>","","","","","","","","",""
"html-keyboard-response","77","175248","0.0-8.0-0.69","5fc44d83862e3e79b02e0438","650c16f0f2faf8d7a0d14c09","651c1c20371af10733e73925","null","null","<p style=""font-size: 60px; font-family: BACS"">lBKtBCAd</p>","","","","","","","","",""
"html-keyboard-response","78","176260","0.0-8.0-0.70","5fc44d83862e3e79b02e0438","650c16f0f2faf8d7a0d14c09","651c1c20371af10733e73925","null","null","<p style=""font-size: 60px; font-family: BACS"">BECkTRK</p>","","","","","","","","",""
"html-keyboard-response","79","177262","0.0-8.0-0.71","5fc44d83862e3e79b02e0438","650c16f0f2faf8d7a0d14c09","651c1c20371af10733e73925","null","null","<p style=""font-size: 60px; font-family: BACS"">aYQmkYL</p>","","","","","","","","",""
"html-keyboard-response","80","178277","0.0-8.0-0.72","5fc44d83862e3e79b02e0438","650c16f0f2faf8d7a0d14c09","651c1c20371af10733e73925","null","null","<p style=""font-size: 60px; font-family: BACS"">lBKtEKBO</p>","","","","","","","","",""
"html-keyboard-response","81","179292","0.0-8.0-0.73","5fc44d83862e3e79b02e0438","650c16f0f2faf8d7a0d14c09","651c1c20371af10733e73925","null","null","<p style=""font-size: 60px; font-family: BACS"">QbkAcOcZJ</p>","","","","","","","","",""
"html-keyboard-response","82","180305","0.0-8.0-0.74","5fc44d83862e3e79b02e0438","650c16f0f2faf8d7a0d14c09","651c1c20371af10733e73925","null","null","<p style=""font-size: 60px; font-family: BACS"">ECtbDCKOb</p>","","","","","","","","",""
"html-keyboard-response","83","181311","0.0-8.0-0.75","5fc44d83862e3e79b02e0438","650c16f0f2faf8d7a0d14c09","651c1c20371af10733e73925","null","null","<p style=""font-size: 60px; font-family: BACS"">lGZvJQA</p>","","","","","","","","",""
"html-keyboard-response","84","182313","0.0-8.0-0.76","5fc44d83862e3e79b02e0438","650c16f0f2faf8d7a0d14c09","651c1c20371af10733e73925","null","null","<p style=""font-size: 60px; font-family: BACS"">lAOKMCKOb</p>","","","","","","","","",""
"html-keyboard-response","85","183313","0.0-8.0-0.77","5fc44d83862e3e79b02e0438","650c16f0f2faf8d7a0d14c09","651c1c20371af10733e73925","null","null","<p style=""font-size: 60px; font-family: BACS"">BECkTPOM</p>","","","","","","","","",""
"html-keyboard-response","86","184314","0.0-8.0-0.78","5fc44d83862e3e79b02e0438","650c16f0f2faf8d7a0d14c09","651c1c20371af10733e73925","null","null","<p style=""font-size: 60px; font-family: BACS"">NbmQUrAm</p>","","","","","","","","",""
"html-keyboard-response","87","185315","0.0-8.0-0.79","5fc44d83862e3e79b02e0438","650c16f0f2faf8d7a0d14c09","651c1c20371af10733e73925","null","null","<p style=""font-size: 60px; font-family: BACS"">mhtcTRK</p>","","","","","","","","",""
"html-keyboard-response","88","189641","0.0-9.0","5fc44d83862e3e79b02e0438","650c16f0f2faf8d7a0d14c09","651c1c20371af10733e73925","4326"," ","<p>Great, you've seen the first block of words. You may now take a short break.</p>
      <p>Press the spacebar when you're ready to continue.</p>","","","","","","","","",""
"html-keyboard-response","89","190642","0.0-10.0-0.0","5fc44d83862e3e79b02e0438","650c16f0f2faf8d7a0d14c09","651c1c20371af10733e73925","null","null","<p style=""font-size: 60px; font-family: BACS"">hbkdCKOb</p>","","","","","","","","",""
"html-keyboard-response","90","191645","0.0-10.0-0.1","5fc44d83862e3e79b02e0438","650c16f0f2faf8d7a0d14c09","651c1c20371af10733e73925","null","null","<p style=""font-size: 60px; font-family: BACS"">QbkAcJQA</p>","","","","","","","","",""
"html-keyboard-response","91","192655","0.0-10.0-0.2","5fc44d83862e3e79b02e0438","650c16f0f2faf8d7a0d14c09","651c1c20371af10733e73925","null","null","<p style=""font-size: 60px; font-family: BACS"">LdQvOcZJ</p>","","","","","","","","",""
"html-keyboard-response","92","193658","0.0-10.0-0.3","5fc44d83862e3e79b02e0438","650c16f0f2faf8d7a0d14c09","651c1c20371af10733e73925","null","null","<p style=""font-size: 60px; font-family: BACS"">mhtcEKBO</p>","","","","","","","","",""
"html-keyboard-response","93","194659","0.0-10.0-0.4","5fc44d83862e3e79b02e0438","650c16f0f2faf8d7a0d14c09","651c1c20371af10733e73925","null","null","<p style=""font-size: 60px; font-family: BACS"">NbmQUJQA</p>","","","","","","","","",""
"html-keyboard-response","94","195668","0.0-10.0-0.5","5fc44d83862e3e79b02e0438","650c16f0f2faf8d7a0d14c09","651c1c20371af10733e73925","null","null","<p style=""font-size: 60px; font-family: BACS"">ECtbDBCAd</p>","","","","","","","","",""
"html-keyboard-response","95","196678","0.0-10.0-0.6","5fc44d83862e3e79b02e0438","650c16f0f2faf8d7a0d14c09","651c1c20371af10733e73925","null","null","<p style=""font-size: 60px; font-family: BACS"">mhtcTPOM</p>","","","","","","","","",""
"html-keyboard-response","96","197679","0.0-10.0-0.7","5fc44d83862e3e79b02e0438","650c16f0f2faf8d7a0d14c09","651c1c20371af10733e73925","null","null","<p style=""font-size: 60px; font-family: BACS"">lGZvrAm</p>","","","","","","","","",""
"html-keyboard-response","97","198688","0.0-10.0-0.8","5fc44d83862e3e79b02e0438","650c16f0f2faf8d7a0d14c09","651c1c20371af10733e73925","null","null","<p style=""font-size: 60px; font-family: BACS"">kNuaJQA</p>","","","","","","","","",""
"html-keyboard-response","98","199698","0.0-10.0-0.9","5fc44d83862e3e79b02e0438","650c16f0f2faf8d7a0d14c09","651c1c20371af10733e73925","null","null","<p style=""font-size: 60px; font-family: BACS"">dTmEDCKOb</p>","","","","","","","","",""
"html-keyboard-response","99","200699","0.0-10.0-0.10","5fc44d83862e3e79b02e0438","650c16f0f2faf8d7a0d14c09","651c1c20371af10733e73925","null","null","<p style=""font-size: 60px; font-family: BACS"">QbkAcrAm</p>","","","","","","","","",""
"html-keyboard-response","100","201701","0.0-10.0-0.11","5fc44d83862e3e79b02e0438","650c16f0f2faf8d7a0d14c09","651c1c20371af10733e73925","null","null","<p style=""font-size: 60px; font-family: BACS"">kNuaYbN</p>","","","","","","","","",""
"html-keyboard-response","101","202704","0.0-10.0-0.12","5fc44d83862e3e79b02e0438","650c16f0f2faf8d7a0d14c09","651c1c20371af10733e73925","null","null","<p style=""font-size: 60px; font-family: BACS"">lAOKMTPOM</p>","","","","","","","","",""
"html-keyboard-response","102","203713","0.0-10.0-0.13","5fc44d83862e3e79b02e0438","650c16f0f2faf8d7a0d14c09","651c1c20371af10733e73925","null","null","<p style=""font-size: 60px; font-family: BACS"">ECtbDCKOb</p>","","","","","","","","",""
"html-keyboard-response","103","204714","0.0-10.0-0.14","5fc44d83862e3e79b02e0438","650c16f0f2faf8d7a0d14c09","651c1c20371af10733e73925","null","null","<p style=""font-size: 60px; font-family: BACS"">rvOvUYbN</p>","","","","","","","","",""
"html-keyboard-response","104","205718","0.0-10.0-0.15","5fc44d83862e3e79b02e0438","650c16f0f2faf8d7a0d14c09","651c1c20371af10733e73925","null","null","<p style=""font-size: 60px; font-family: BACS"">YlYcTPOM</p>","","","","","","","","",""
"html-keyboard-response","105","206726","0.0-10.0-0.16","5fc44d83862e3e79b02e0438","650c16f0f2faf8d7a0d14c09","651c1c20371af10733e73925","null","null","<p style=""font-size: 60px; font-family: BACS"">NJZlYbN</p>","","","","","","","","",""
"html-keyboard-response","106","207733","0.0-10.0-0.17","5fc44d83862e3e79b02e0438","650c16f0f2faf8d7a0d14c09","651c1c20371af10733e73925","null","null","<p style=""font-size: 60px; font-family: BACS"">lGZvkYL</p>","","","","","","","","",""
"html-keyboard-response","107","208735","0.0-10.0-0.18","5fc44d83862e3e79b02e0438","650c16f0f2faf8d7a0d14c09","651c1c20371af10733e73925","null","null","<p style=""font-size: 60px; font-family: BACS"">rvOvUOcZJ</p>","","","","","","","","",""
"html-keyboard-response","108","209751","0.0-10.0-0.19","5fc44d83862e3e79b02e0438","650c16f0f2faf8d7a0d14c09","651c1c20371af10733e73925","null","null","<p style=""font-size: 60px; font-family: BACS"">hbkdEKBO</p>","","","","","","","","",""
"html-keyboard-response","109","210755","0.0-10.0-0.20","5fc44d83862e3e79b02e0438","650c16f0f2faf8d7a0d14c09","651c1c20371af10733e73925","null","null","<p style=""font-size: 60px; font-family: BACS"">JNkaJQA</p>","","","","","","","","",""
"html-keyboard-response","110","211757","0.0-10.0-0.21","5fc44d83862e3e79b02e0438","650c16f0f2faf8d7a0d14c09","651c1c20371af10733e73925","null","null","<p style=""font-size: 60px; font-family: BACS"">rvOvUrAm</p>","","","","","","","","",""
"html-keyboard-response","111","212769","0.0-10.0-0.22","5fc44d83862e3e79b02e0438","650c16f0f2faf8d7a0d14c09","651c1c20371af10733e73925","null","null","<p style=""font-size: 60px; font-family: BACS"">BECkEKBO</p>","","","","","","","","",""
"html-keyboard-response","112","213780","0.0-10.0-0.23","5fc44d83862e3e79b02e0438","650c16f0f2faf8d7a0d14c09","651c1c20371af10733e73925","null","null","<p style=""font-size: 60px; font-family: BACS"">lAOKMCKOb</p>","","","","","","","","",""
"html-keyboard-response","113","214781","0.0-10.0-0.24","5fc44d83862e3e79b02e0438","650c16f0f2faf8d7a0d14c09","651c1c20371af10733e73925","null","null","<p style=""font-size: 60px; font-family: BACS"">mdkKTRK</p>","","","","","","","","",""
"html-keyboard-response","114","215783","0.0-10.0-0.25","5fc44d83862e3e79b02e0438","650c16f0f2faf8d7a0d14c09","651c1c20371af10733e73925","null","null","<p style=""font-size: 60px; font-family: BACS"">lBKtCKOb</p>","","","","","","","","",""
"html-keyboard-response","115","216790","0.0-10.0-0.26","5fc44d83862e3e79b02e0438","650c16f0f2faf8d7a0d14c09","651c1c20371af10733e73925","null","null","<p style=""font-size: 60px; font-family: BACS"">kNuarAm</p>","","","","","","","","",""
"html-keyboard-response","116","217792","0.0-10.0-0.27","5fc44d83862e3e79b02e0438","650c16f0f2faf8d7a0d14c09","651c1c20371af10733e73925","null","null","<p style=""font-size: 60px; font-family: BACS"">JNkaOcZJ</p>","","","","","","","","",""
"html-keyboard-response","117","218799","0.0-10.0-0.28","5fc44d83862e3e79b02e0438","650c16f0f2faf8d7a0d14c09","651c1c20371af10733e73925","null","null","<p style=""font-size: 60px; font-family: BACS"">lBKtEKBO</p>","","","","","","","","",""
"html-keyboard-response","118","219800","0.0-10.0-0.29","5fc44d83862e3e79b02e0438","650c16f0f2faf8d7a0d14c09","651c1c20371af10733e73925","null","null","<p style=""font-size: 60px; font-family: BACS"">JNkakYL</p>","","","","","","","","",""
"html-keyboard-response","119","220815","0.0-10.0-0.30","5fc44d83862e3e79b02e0438","650c16f0f2faf8d7a0d14c09","651c1c20371af10733e73925","null","null","<p style=""font-size: 60px; font-family: BACS"">dTmEDTPOM</p>","","","","","","","","",""
"html-keyboard-response","120","221827","0.0-10.0-0.31","5fc44d83862e3e79b02e0438","650c16f0f2faf8d7a0d14c09","651c1c20371af10733e73925","null","null","<p style=""font-size: 60px; font-family: BACS"">YlYcTRK</p>","","","","","","","","",""
"html-keyboard-response","121","222841","0.0-10.0-0.32","5fc44d83862e3e79b02e0438","650c16f0f2faf8d7a0d14c09","651c1c20371af10733e73925","null","null","<p style=""font-size: 60px; font-family: BACS"">NJZlkYL</p>","","","","","","","","",""
"html-keyboard-response","122","223843","0.0-10.0-0.33","5fc44d83862e3e79b02e0438","650c16f0f2faf8d7a0d14c09","651c1c20371af10733e73925","null","null","<p style=""font-size: 60px; font-family: BACS"">mhtcBCAd</p>","","","","","","","","",""
"html-keyboard-response","123","224843","0.0-10.0-0.34","5fc44d83862e3e79b02e0438","650c16f0f2faf8d7a0d14c09","651c1c20371af10733e73925","null","null","<p style=""font-size: 60px; font-family: BACS"">lBKtTPOM</p>","","","","","","","","",""
"html-keyboard-response","124","225851","0.0-10.0-0.35","5fc44d83862e3e79b02e0438","650c16f0f2faf8d7a0d14c09","651c1c20371af10733e73925","null","null","<p style=""font-size: 60px; font-family: BACS"">NbmQUOcZJ</p>","","","","","","","","",""
"html-keyboard-response","125","226857","0.0-10.0-0.36","5fc44d83862e3e79b02e0438","650c16f0f2faf8d7a0d14c09","651c1c20371af10733e73925","null","null","<p style=""font-size: 60px; font-family: BACS"">lAOKMBCAd</p>","","","","","","","","",""
"html-keyboard-response","126","227866","0.0-10.0-0.37","5fc44d83862e3e79b02e0438","650c16f0f2faf8d7a0d14c09","651c1c20371af10733e73925","null","null","<p style=""font-size: 60px; font-family: BACS"">ECtbDEKBO</p>","","","","","","","","",""
"html-keyboard-response","127","228879","0.0-10.0-0.38","5fc44d83862e3e79b02e0438","650c16f0f2faf8d7a0d14c09","651c1c20371af10733e73925","null","null","<p style=""font-size: 60px; font-family: BACS"">dTmEDTRK</p>","","","","","","","","",""
"html-keyboard-response","128","229890","0.0-10.0-0.39","5fc44d83862e3e79b02e0438","650c16f0f2faf8d7a0d14c09","651c1c20371af10733e73925","null","null","<p style=""font-size: 60px; font-family: BACS"">QbkAcOcZJ</p>","","","","","","","","",""
"html-keyboard-response","129","230902","0.0-10.0-0.40","5fc44d83862e3e79b02e0438","650c16f0f2faf8d7a0d14c09","651c1c20371af10733e73925","null","null","<p style=""font-size: 60px; font-family: BACS"">aYQmJQA</p>","","","","","","","","",""
"html-keyboard-response","130","231910","0.0-10.0-0.41","5fc44d83862e3e79b02e0438","650c16f0f2faf8d7a0d14c09","651c1c20371af10733e73925","null","null","<p style=""font-size: 60px; font-family: BACS"">mdkKTPOM</p>","","","","","","","","",""
"html-keyboard-response","131","232925","0.0-10.0-0.42","5fc44d83862e3e79b02e0438","650c16f0f2faf8d7a0d14c09","651c1c20371af10733e73925","null","null","<p style=""font-size: 60px; font-family: BACS"">khmhBCAd</p>","","","","","","","","",""
"html-keyboard-response","132","233937","0.0-10.0-0.43","5fc44d83862e3e79b02e0438","650c16f0f2faf8d7a0d14c09","651c1c20371af10733e73925","null","null","<p style=""font-size: 60px; font-family: BACS"">lGZvYbN</p>","","","","","","","","",""
"html-keyboard-response","133","234947","0.0-10.0-0.44","5fc44d83862e3e79b02e0438","650c16f0f2faf8d7a0d14c09","651c1c20371af10733e73925","null","null","<p style=""font-size: 60px; font-family: BACS"">dTmEDEKBO</p>","","","","","","","","",""
"html-keyboard-response","134","235958","0.0-10.0-0.45","5fc44d83862e3e79b02e0438","650c16f0f2faf8d7a0d14c09","651c1c20371af10733e73925","null","null","<p style=""font-size: 60px; font-family: BACS"">khmhCKOb</p>","","","","","","","","",""
"html-keyboard-response","135","236959","0.0-10.0-0.46","5fc44d83862e3e79b02e0438","650c16f0f2faf8d7a0d14c09","651c1c20371af10733e73925","null","null","<p style=""font-size: 60px; font-family: BACS"">BECkTRK</p>","","","","","","","","",""
"html-keyboard-response","136","237964","0.0-10.0-0.47","5fc44d83862e3e79b02e0438","650c16f0f2faf8d7a0d14c09","651c1c20371af10733e73925","null","null","<p style=""font-size: 60px; font-family: BACS"">khmhEKBO</p>","","","","","","","","",""
"html-keyboard-response","137","238973","0.0-10.0-0.48","5fc44d83862e3e79b02e0438","650c16f0f2faf8d7a0d14c09","651c1c20371af10733e73925","null","null","<p style=""font-size: 60px; font-family: BACS"">lBKtBCAd</p>","","","","","","","","",""
"html-keyboard-response","138","239974","0.0-10.0-0.49","5fc44d83862e3e79b02e0438","650c16f0f2faf8d7a0d14c09","651c1c20371af10733e73925","null","null","<p style=""font-size: 60px; font-family: BACS"">NJZlJQA</p>","","","","","","","","",""
"html-keyboard-response","139","240975","0.0-10.0-0.50","5fc44d83862e3e79b02e0438","650c16f0f2faf8d7a0d14c09","651c1c20371af10733e73925","null","null","<p style=""font-size: 60px; font-family: BACS"">ECtbDTRK</p>","","","","","","","","",""
"html-keyboard-response","140","241976","0.0-10.0-0.51","5fc44d83862e3e79b02e0438","650c16f0f2faf8d7a0d14c09","651c1c20371af10733e73925","null","null","<p style=""font-size: 60px; font-family: BACS"">JNkarAm</p>","","","","","","","","",""
"html-keyboard-response","141","242980","0.0-10.0-0.52","5fc44d83862e3e79b02e0438","650c16f0f2faf8d7a0d14c09","651c1c20371af10733e73925","null","null","<p style=""font-size: 60px; font-family: BACS"">YlYcCKOb</p>","","","","","","","","",""
"html-keyboard-response","142","243991","0.0-10.0-0.53","5fc44d83862e3e79b02e0438","650c16f0f2faf8d7a0d14c09","651c1c20371af10733e73925","null","null","<p style=""font-size: 60px; font-family: BACS"">ubALmkYL</p>","","","","","","","","",""
"html-keyboard-response","143","245002","0.0-10.0-0.54","5fc44d83862e3e79b02e0438","650c16f0f2faf8d7a0d14c09","651c1c20371af10733e73925","null","null","<p style=""font-size: 60px; font-family: BACS"">mdkKCKOb</p>","","","","","","","","",""
"html-keyboard-response","144","246003","0.0-10.0-0.55","5fc44d83862e3e79b02e0438","650c16f0f2faf8d7a0d14c09","651c1c20371af10733e73925","null","null","<p style=""font-size: 60px; font-family: BACS"">NbmQUrAm</p>","","","","","","","","",""
"html-keyboard-response","145","247005","0.0-10.0-0.56","5fc44d83862e3e79b02e0438","650c16f0f2faf8d7a0d14c09","651c1c20371af10733e73925","null","null","<p style=""font-size: 60px; font-family: BACS"">hbkdTPOM</p>","","","","","","","","",""
"html-keyboard-response","146","248015","0.0-10.0-0.57","5fc44d83862e3e79b02e0438","650c16f0f2faf8d7a0d14c09","651c1c20371af10733e73925","null","null","<p style=""font-size: 60px; font-family: BACS"">aYQmYbN</p>","","","","","","","","",""
"html-keyboard-response","147","249020","0.0-10.0-0.58","5fc44d83862e3e79b02e0438","650c16f0f2faf8d7a0d14c09","651c1c20371af10733e73925","null","null","<p style=""font-size: 60px; font-family: BACS"">NJZlOcZJ</p>","","","","","","","","",""
"html-keyboard-response","148","250031","0.0-10.0-0.59","5fc44d83862e3e79b02e0438","650c16f0f2faf8d7a0d14c09","651c1c20371af10733e73925","null","null","<p style=""font-size: 60px; font-family: BACS"">YlYcEKBO</p>","","","","","","","","",""
"html-keyboard-response","149","251041","0.0-10.0-0.60","5fc44d83862e3e79b02e0438","650c16f0f2faf8d7a0d14c09","651c1c20371af10733e73925","null","null","<p style=""font-size: 60px; font-family: BACS"">ubALmJQA</p>","","","","","","","","",""
"html-keyboard-response","150","252049","0.0-10.0-0.61","5fc44d83862e3e79b02e0438","650c16f0f2faf8d7a0d14c09","651c1c20371af10733e73925","null","null","<p style=""font-size: 60px; font-family: BACS"">BECkBCAd</p>","","","","","","","","",""
"html-keyboard-response","151","253050","0.0-10.0-0.62","5fc44d83862e3e79b02e0438","650c16f0f2faf8d7a0d14c09","651c1c20371af10733e73925","null","null","<p style=""font-size: 60px; font-family: BACS"">LdQvrAm</p>","","","","","","","","",""
"html-keyboard-response","152","254051","0.0-10.0-0.63","5fc44d83862e3e79b02e0438","650c16f0f2faf8d7a0d14c09","651c1c20371af10733e73925","null","null","<p style=""font-size: 60px; font-family: BACS"">kNuaOcZJ</p>","","","","","","","","",""
"html-keyboard-response","153","255059","0.0-10.0-0.64","5fc44d83862e3e79b02e0438","650c16f0f2faf8d7a0d14c09","651c1c20371af10733e73925","null","null","<p style=""font-size: 60px; font-family: BACS"">aYQmkYL</p>","","","","","","","","",""
"html-keyboard-response","154","256060","0.0-10.0-0.65","5fc44d83862e3e79b02e0438","650c16f0f2faf8d7a0d14c09","651c1c20371af10733e73925","null","null","<p style=""font-size: 60px; font-family: BACS"">ubALmYbN</p>","","","","","","","","",""
"html-keyboard-response","155","257064","0.0-10.0-0.66","5fc44d83862e3e79b02e0438","650c16f0f2faf8d7a0d14c09","651c1c20371af10733e73925","null","null","<p style=""font-size: 60px; font-family: BACS"">hbkdBCAd</p>","","","","","","","","",""
"html-keyboard-response","156","258077","0.0-10.0-0.67","5fc44d83862e3e79b02e0438","650c16f0f2faf8d7a0d14c09","651c1c20371af10733e73925","null","null","<p style=""font-size: 60px; font-family: BACS"">lGZvJQA</p>","","","","","","","","",""
"html-keyboard-response","157","259078","0.0-10.0-0.68","5fc44d83862e3e79b02e0438","650c16f0f2faf8d7a0d14c09","651c1c20371af10733e73925","null","null","<p style=""font-size: 60px; font-family: BACS"">aYQmrAm</p>","","","","","","","","",""
"html-keyboard-response","158","260080","0.0-10.0-0.69","5fc44d83862e3e79b02e0438","650c16f0f2faf8d7a0d14c09","651c1c20371af10733e73925","null","null","<p style=""font-size: 60px; font-family: BACS"">mdkKBCAd</p>","","","","","","","","",""
"html-keyboard-response","159","261080","0.0-10.0-0.70","5fc44d83862e3e79b02e0438","650c16f0f2faf8d7a0d14c09","651c1c20371af10733e73925","null","null","<p style=""font-size: 60px; font-family: BACS"">NbmQUYbN</p>","","","","","","","","",""
"html-keyboard-response","160","262086","0.0-10.0-0.71","5fc44d83862e3e79b02e0438","650c16f0f2faf8d7a0d14c09","651c1c20371af10733e73925","null","null","<p style=""font-size: 60px; font-family: BACS"">lAOKMTRK</p>","","","","","","","","",""
"html-keyboard-response","161","263095","0.0-10.0-0.72","5fc44d83862e3e79b02e0438","650c16f0f2faf8d7a0d14c09","651c1c20371af10733e73925","null","null","<p style=""font-size: 60px; font-family: BACS"">LdQvYbN</p>","","","","","","","","",""
"html-keyboard-response","162","264103","0.0-10.0-0.73","5fc44d83862e3e79b02e0438","650c16f0f2faf8d7a0d14c09","651c1c20371af10733e73925","null","null","<p style=""font-size: 60px; font-family: BACS"">BECkTPOM</p>","","","","","","","","",""
"html-keyboard-response","163","265116","0.0-10.0-0.74","5fc44d83862e3e79b02e0438","650c16f0f2faf8d7a0d14c09","651c1c20371af10733e73925","null","null","<p style=""font-size: 60px; font-family: BACS"">mhtcTRK</p>","","","","","","","","",""
"html-keyboard-response","164","266130","0.0-10.0-0.75","5fc44d83862e3e79b02e0438","650c16f0f2faf8d7a0d14c09","651c1c20371af10733e73925","null","null","<p style=""font-size: 60px; font-family: BACS"">rvOvUkYL</p>","","","","","","","","",""
"html-keyboard-response","165","267131","0.0-10.0-0.76","5fc44d83862e3e79b02e0438","650c16f0f2faf8d7a0d14c09","651c1c20371af10733e73925","null","null","<p style=""font-size: 60px; font-family: BACS"">khmhTRK</p>","","","","","","","","",""
"html-keyboard-response","166","268133","0.0-10.0-0.77","5fc44d83862e3e79b02e0438","650c16f0f2faf8d7a0d14c09","651c1c20371af10733e73925","null","null","<p style=""font-size: 60px; font-family: BACS"">LdQvkYL</p>","","","","","","","","",""
"html-keyboard-response","167","269141","0.0-10.0-0.78","5fc44d83862e3e79b02e0438","650c16f0f2faf8d7a0d14c09","651c1c20371af10733e73925","null","null","<p style=""font-size: 60px; font-family: BACS"">ubALmOcZJ</p>","","","","","","","","",""
"html-keyboard-response","168","270152","0.0-10.0-0.79","5fc44d83862e3e79b02e0438","650c16f0f2faf8d7a0d14c09","651c1c20371af10733e73925","null","null","<p style=""font-size: 60px; font-family: BACS"">QbkAckYL</p>","","","","","","","","",""
"html-keyboard-response","169","272937","0.0-11.0","5fc44d83862e3e79b02e0438","650c16f0f2faf8d7a0d14c09","651c1c20371af10733e73925","2785"," ","<p>Great, you've seen the second block of words. You may now take a short break.</p>
      <p>Press the spacebar when you're ready to continue.</p>","","","","","","","","",""
"html-keyboard-response","170","273940","0.0-12.0-0.0","5fc44d83862e3e79b02e0438","650c16f0f2faf8d7a0d14c09","651c1c20371af10733e73925","null","null","<p style=""font-size: 60px; font-family: BACS"">lGZvYbN</p>","","","","","","","","",""
"html-keyboard-response","171","274941","0.0-12.0-0.1","5fc44d83862e3e79b02e0438","650c16f0f2faf8d7a0d14c09","651c1c20371af10733e73925","null","null","<p style=""font-size: 60px; font-family: BACS"">QbkAcrAm</p>","","","","","","","","",""
"html-keyboard-response","172","275950","0.0-12.0-0.2","5fc44d83862e3e79b02e0438","650c16f0f2faf8d7a0d14c09","651c1c20371af10733e73925","null","null","<p style=""font-size: 60px; font-family: BACS"">lBKtEKBO</p>","","","","","","","","",""
"html-keyboard-response","173","276964","0.0-12.0-0.3","5fc44d83862e3e79b02e0438","650c16f0f2faf8d7a0d14c09","651c1c20371af10733e73925","null","null","<p style=""font-size: 60px; font-family: BACS"">BECkTRK</p>","","","","","","","","",""
"html-keyboard-response","174","277971","0.0-12.0-0.4","5fc44d83862e3e79b02e0438","650c16f0f2faf8d7a0d14c09","651c1c20371af10733e73925","null","null","<p style=""font-size: 60px; font-family: BACS"">NJZlJQA</p>","","","","","","","","",""
"html-keyboard-response","175","278987","0.0-12.0-0.5","5fc44d83862e3e79b02e0438","650c16f0f2faf8d7a0d14c09","651c1c20371af10733e73925","null","null","<p style=""font-size: 60px; font-family: BACS"">JNkarAm</p>","","","","","","","","",""
"html-keyboard-response","176","279999","0.0-12.0-0.6","5fc44d83862e3e79b02e0438","650c16f0f2faf8d7a0d14c09","651c1c20371af10733e73925","null","null","<p style=""font-size: 60px; font-family: BACS"">khmhEKBO</p>","","","","","","","","",""
"html-keyboard-response","177","281000","0.0-12.0-0.7","5fc44d83862e3e79b02e0438","650c16f0f2faf8d7a0d14c09","651c1c20371af10733e73925","null","null","<p style=""font-size: 60px; font-family: BACS"">dTmEDTPOM</p>","","","","","","","","",""
"html-keyboard-response","178","282010","0.0-12.0-0.8","5fc44d83862e3e79b02e0438","650c16f0f2faf8d7a0d14c09","651c1c20371af10733e73925","null","null","<p style=""font-size: 60px; font-family: BACS"">ubALmYbN</p>","","","","","","","","",""
"html-keyboard-response","179","283018","0.0-12.0-0.9","5fc44d83862e3e79b02e0438","650c16f0f2faf8d7a0d14c09","651c1c20371af10733e73925","null","null","<p style=""font-size: 60px; font-family: BACS"">khmhCKOb</p>","","","","","","","","",""
"html-keyboard-response","180","284034","0.0-12.0-0.10","5fc44d83862e3e79b02e0438","650c16f0f2faf8d7a0d14c09","651c1c20371af10733e73925","null","null","<p style=""font-size: 60px; font-family: BACS"">ubALmOcZJ</p>","","","","","","","","",""
"html-keyboard-response","181","285045","0.0-12.0-0.11","5fc44d83862e3e79b02e0438","650c16f0f2faf8d7a0d14c09","651c1c20371af10733e73925","null","null","<p style=""font-size: 60px; font-family: BACS"">mdkKTPOM</p>","","","","","","","","",""
"html-keyboard-response","182","286046","0.0-12.0-0.12","5fc44d83862e3e79b02e0438","650c16f0f2faf8d7a0d14c09","651c1c20371af10733e73925","null","null","<p style=""font-size: 60px; font-family: BACS"">LdQvrAm</p>","","","","","","","","",""
"html-keyboard-response","183","287048","0.0-12.0-0.13","5fc44d83862e3e79b02e0438","650c16f0f2faf8d7a0d14c09","651c1c20371af10733e73925","null","null","<p style=""font-size: 60px; font-family: BACS"">lAOKMTPOM</p>","","","","","","","","",""
"html-keyboard-response","184","288061","0.0-12.0-0.14","5fc44d83862e3e79b02e0438","650c16f0f2faf8d7a0d14c09","651c1c20371af10733e73925","null","null","<p style=""font-size: 60px; font-family: BACS"">ubALmJQA</p>","","","","","","","","",""
"html-keyboard-response","185","289066","0.0-12.0-0.15","5fc44d83862e3e79b02e0438","650c16f0f2faf8d7a0d14c09","651c1c20371af10733e73925","null","null","<p style=""font-size: 60px; font-family: BACS"">aYQmkYL</p>","","","","","","","","",""
"html-keyboard-response","186","290077","0.0-12.0-0.16","5fc44d83862e3e79b02e0438","650c16f0f2faf8d7a0d14c09","651c1c20371af10733e73925","null","null","<p style=""font-size: 60px; font-family: BACS"">mhtcTRK</p>","","","","","","","","",""
"html-keyboard-response","187","291090","0.0-12.0-0.17","5fc44d83862e3e79b02e0438","650c16f0f2faf8d7a0d14c09","651c1c20371af10733e73925","null","null","<p style=""font-size: 60px; font-family: BACS"">kNuaOcZJ</p>","","","","","","","","",""
"html-keyboard-response","188","292095","0.0-12.0-0.18","5fc44d83862e3e79b02e0438","650c16f0f2faf8d7a0d14c09","651c1c20371af10733e73925","null","null","<p style=""font-size: 60px; font-family: BACS"">dTmEDCKOb</p>","","","","","","","","",""
"html-keyboard-response","189","293107","0.0-12.0-0.19","5fc44d83862e3e79b02e0438","650c16f0f2faf8d7a0d14c09","651c1c20371af10733e73925","null","null","<p style=""font-size: 60px; font-family: BACS"">rvOvUYbN</p>","","","","","","","","",""
"html-keyboard-response","190","294114","0.0-12.0-0.20","5fc44d83862e3e79b02e0438","650c16f0f2faf8d7a0d14c09","651c1c20371af10733e73925","null","null","<p style=""font-size: 60px; font-family: BACS"">mhtcEKBO</p>","","","","","","","","",""
"html-keyboard-response","191","295124","0.0-12.0-0.21","5fc44d83862e3e79b02e0438","650c16f0f2faf8d7a0d14c09","651c1c20371af10733e73925","null","null","<p style=""font-size: 60px; font-family: BACS"">lAOKMTRK</p>","","","","","","","","",""
"html-keyboard-response","192","296137","0.0-12.0-0.22","5fc44d83862e3e79b02e0438","650c16f0f2faf8d7a0d14c09","651c1c20371af10733e73925","null","null","<p style=""font-size: 60px; font-family: BACS"">mdkKBCAd</p>","","","","","","","","",""
"html-keyboard-response","193","297149","0.0-12.0-0.23","5fc44d83862e3e79b02e0438","650c16f0f2faf8d7a0d14c09","651c1c20371af10733e73925","null","null","<p style=""font-size: 60px; font-family: BACS"">QbkAckYL</p>","","","","","","","","",""
"html-keyboard-response","194","298160","0.0-12.0-0.24","5fc44d83862e3e79b02e0438","650c16f0f2faf8d7a0d14c09","651c1c20371af10733e73925","null","null","<p style=""font-size: 60px; font-family: BACS"">lAOKMBCAd</p>","","","","","","","","",""
"html-keyboard-response","195","299173","0.0-12.0-0.25","5fc44d83862e3e79b02e0438","650c16f0f2faf8d7a0d14c09","651c1c20371af10733e73925","null","null","<p style=""font-size: 60px; font-family: BACS"">YlYcCKOb</p>","","","","","","","","",""
"html-keyboard-response","196","300187","0.0-12.0-0.26","5fc44d83862e3e79b02e0438","650c16f0f2faf8d7a0d14c09","651c1c20371af10733e73925","null","null","<p style=""font-size: 60px; font-family: BACS"">NJZlkYL</p>","","","","","","","","",""
"html-keyboard-response","197","301188","0.0-12.0-0.27","5fc44d83862e3e79b02e0438","650c16f0f2faf8d7a0d14c09","651c1c20371af10733e73925","null","null","<p style=""font-size: 60px; font-family: BACS"">JNkaOcZJ</p>","","","","","","","","",""
"html-keyboard-response","198","302199","0.0-12.0-0.28","5fc44d83862e3e79b02e0438","650c16f0f2faf8d7a0d14c09","651c1c20371af10733e73925","null","null","<p style=""font-size: 60px; font-family: BACS"">rvOvUkYL</p>","","","","","","","","",""
"html-keyboard-response","199","303200","0.0-12.0-0.29","5fc44d83862e3e79b02e0438","650c16f0f2faf8d7a0d14c09","651c1c20371af10733e73925","null","null","<p style=""font-size: 60px; font-family: BACS"">lBKtBCAd</p>","","","","","","","","",""
"html-keyboard-response","200","304205","0.0-12.0-0.30","5fc44d83862e3e79b02e0438","650c16f0f2faf8d7a0d14c09","651c1c20371af10733e73925","null","null","<p style=""font-size: 60px; font-family: BACS"">lGZvJQA</p>","","","","","","","","",""
"html-keyboard-response","201","305216","0.0-12.0-0.31","5fc44d83862e3e79b02e0438","650c16f0f2faf8d7a0d14c09","651c1c20371af10733e73925","null","null","<p style=""font-size: 60px; font-family: BACS"">hbkdEKBO</p>","","","","","","","","",""
"html-keyboard-response","202","306226","0.0-12.0-0.32","5fc44d83862e3e79b02e0438","650c16f0f2faf8d7a0d14c09","651c1c20371af10733e73925","null","null","<p style=""font-size: 60px; font-family: BACS"">JNkakYL</p>","","","","","","","","",""
"html-keyboard-response","203","307239","0.0-12.0-0.33","5fc44d83862e3e79b02e0438","650c16f0f2faf8d7a0d14c09","651c1c20371af10733e73925","null","null","<p style=""font-size: 60px; font-family: BACS"">NbmQUJQA</p>","","","","","","","","",""
"html-keyboard-response","204","308241","0.0-12.0-0.34","5fc44d83862e3e79b02e0438","650c16f0f2faf8d7a0d14c09","651c1c20371af10733e73925","null","null","<p style=""font-size: 60px; font-family: BACS"">hbkdCKOb</p>","","","","","","","","",""
"html-keyboard-response","205","309251","0.0-12.0-0.35","5fc44d83862e3e79b02e0438","650c16f0f2faf8d7a0d14c09","651c1c20371af10733e73925","null","null","<p style=""font-size: 60px; font-family: BACS"">NJZlYbN</p>","","","","","","","","",""
"html-keyboard-response","206","310265","0.0-12.0-0.36","5fc44d83862e3e79b02e0438","650c16f0f2faf8d7a0d14c09","651c1c20371af10733e73925","null","null","<p style=""font-size: 60px; font-family: BACS"">hbkdBCAd</p>","","","","","","","","",""
"html-keyboard-response","207","311267","0.0-12.0-0.37","5fc44d83862e3e79b02e0438","650c16f0f2faf8d7a0d14c09","651c1c20371af10733e73925","null","null","<p style=""font-size: 60px; font-family: BACS"">aYQmrAm</p>","","","","","","","","",""
"html-keyboard-response","208","312276","0.0-12.0-0.38","5fc44d83862e3e79b02e0438","650c16f0f2faf8d7a0d14c09","651c1c20371af10733e73925","null","null","<p style=""font-size: 60px; font-family: BACS"">QbkAcJQA</p>","","","","","","","","",""
"html-keyboard-response","209","313282","0.0-12.0-0.39","5fc44d83862e3e79b02e0438","650c16f0f2faf8d7a0d14c09","651c1c20371af10733e73925","null","null","<p style=""font-size: 60px; font-family: BACS"">dTmEDTRK</p>","","","","","","","","",""
"html-keyboard-response","210","314284","0.0-12.0-0.40","5fc44d83862e3e79b02e0438","650c16f0f2faf8d7a0d14c09","651c1c20371af10733e73925","null","null","<p style=""font-size: 60px; font-family: BACS"">lGZvkYL</p>","","","","","","","","",""
"html-keyboard-response","211","315297","0.0-12.0-0.41","5fc44d83862e3e79b02e0438","650c16f0f2faf8d7a0d14c09","651c1c20371af10733e73925","null","null","<p style=""font-size: 60px; font-family: BACS"">mdkKCKOb</p>","","","","","","","","",""
"html-keyboard-response","212","316308","0.0-12.0-0.42","5fc44d83862e3e79b02e0438","650c16f0f2faf8d7a0d14c09","651c1c20371af10733e73925","null","null","<p style=""font-size: 60px; font-family: BACS"">LdQvOcZJ</p>","","","","","","","","",""
"html-keyboard-response","213","317321","0.0-12.0-0.43","5fc44d83862e3e79b02e0438","650c16f0f2faf8d7a0d14c09","651c1c20371af10733e73925","null","null","<p style=""font-size: 60px; font-family: BACS"">JNkaJQA</p>","","","","","","","","",""
"html-keyboard-response","214","318329","0.0-12.0-0.44","5fc44d83862e3e79b02e0438","650c16f0f2faf8d7a0d14c09","651c1c20371af10733e73925","null","null","<p style=""font-size: 60px; font-family: BACS"">NbmQUOcZJ</p>","","","","","","","","",""
"html-keyboard-response","215","319340","0.0-12.0-0.45","5fc44d83862e3e79b02e0438","650c16f0f2faf8d7a0d14c09","651c1c20371af10733e73925","null","null","<p style=""font-size: 60px; font-family: BACS"">lBKtTPOM</p>","","","","","","","","",""
"html-keyboard-response","216","320354","0.0-12.0-0.46","5fc44d83862e3e79b02e0438","650c16f0f2faf8d7a0d14c09","651c1c20371af10733e73925","null","null","<p style=""font-size: 60px; font-family: BACS"">LdQvkYL</p>","","","","","","","","",""
"html-keyboard-response","217","321367","0.0-12.0-0.47","5fc44d83862e3e79b02e0438","650c16f0f2faf8d7a0d14c09","651c1c20371af10733e73925","null","null","<p style=""font-size: 60px; font-family: BACS"">BECkBCAd</p>","","","","","","","","",""
"html-keyboard-response","218","322376","0.0-12.0-0.48","5fc44d83862e3e79b02e0438","650c16f0f2faf8d7a0d14c09","651c1c20371af10733e73925","null","null","<p style=""font-size: 60px; font-family: BACS"">NbmQUrAm</p>","","","","","","","","",""
"html-keyboard-response","219","323386","0.0-12.0-0.49","5fc44d83862e3e79b02e0438","650c16f0f2faf8d7a0d14c09","651c1c20371af10733e73925","null","null","<p style=""font-size: 60px; font-family: BACS"">khmhBCAd</p>","","","","","","","","",""
"html-keyboard-response","220","324394","0.0-12.0-0.50","5fc44d83862e3e79b02e0438","650c16f0f2faf8d7a0d14c09","651c1c20371af10733e73925","null","null","<p style=""font-size: 60px; font-family: BACS"">rvOvUrAm</p>","","","","","","","","",""
"html-keyboard-response","221","325407","0.0-12.0-0.51","5fc44d83862e3e79b02e0438","650c16f0f2faf8d7a0d14c09","651c1c20371af10733e73925","null","null","<p style=""font-size: 60px; font-family: BACS"">BECkTPOM</p>","","","","","","","","",""
"html-keyboard-response","222","326408","0.0-12.0-0.52","5fc44d83862e3e79b02e0438","650c16f0f2faf8d7a0d14c09","651c1c20371af10733e73925","null","null","<p style=""font-size: 60px; font-family: BACS"">mhtcBCAd</p>","","","","","","","","",""
"html-keyboard-response","223","327416","0.0-12.0-0.53","5fc44d83862e3e79b02e0438","650c16f0f2faf8d7a0d14c09","651c1c20371af10733e73925","null","null","<p style=""font-size: 60px; font-family: BACS"">kNuaJQA</p>","","","","","","","","",""
"html-keyboard-response","224","328416","0.0-12.0-0.54","5fc44d83862e3e79b02e0438","650c16f0f2faf8d7a0d14c09","651c1c20371af10733e73925","null","null","<p style=""font-size: 60px; font-family: BACS"">QbkAcOcZJ</p>","","","","","","","","",""
"html-keyboard-response","225","329427","0.0-12.0-0.55","5fc44d83862e3e79b02e0438","650c16f0f2faf8d7a0d14c09","651c1c20371af10733e73925","null","null","<p style=""font-size: 60px; font-family: BACS"">lBKtCKOb</p>","","","","","","","","",""
"html-keyboard-response","226","330427","0.0-12.0-0.56","5fc44d83862e3e79b02e0438","650c16f0f2faf8d7a0d14c09","651c1c20371af10733e73925","null","null","<p style=""font-size: 60px; font-family: BACS"">kNuarAm</p>","","","","","","","","",""
"html-keyboard-response","227","331428","0.0-12.0-0.57","5fc44d83862e3e79b02e0438","650c16f0f2faf8d7a0d14c09","651c1c20371af10733e73925","null","null","<p style=""font-size: 60px; font-family: BACS"">YlYcTPOM</p>","","","","","","","","",""
"html-keyboard-response","228","332429","0.0-12.0-0.58","5fc44d83862e3e79b02e0438","650c16f0f2faf8d7a0d14c09","651c1c20371af10733e73925","null","null","<p style=""font-size: 60px; font-family: BACS"">LdQvYbN</p>","","","","","","","","",""
"html-keyboard-response","229","333436","0.0-12.0-0.59","5fc44d83862e3e79b02e0438","650c16f0f2faf8d7a0d14c09","651c1c20371af10733e73925","null","null","<p style=""font-size: 60px; font-family: BACS"">YlYcEKBO</p>","","","","","","","","",""
"html-keyboard-response","230","334449","0.0-12.0-0.60","5fc44d83862e3e79b02e0438","650c16f0f2faf8d7a0d14c09","651c1c20371af10733e73925","null","null","<p style=""font-size: 60px; font-family: BACS"">mhtcTPOM</p>","","","","","","","","",""
"html-keyboard-response","231","335457","0.0-12.0-0.61","5fc44d83862e3e79b02e0438","650c16f0f2faf8d7a0d14c09","651c1c20371af10733e73925","null","null","<p style=""font-size: 60px; font-family: BACS"">lGZvrAm</p>","","","","","","","","",""
"html-keyboard-response","232","336457","0.0-12.0-0.62","5fc44d83862e3e79b02e0438","650c16f0f2faf8d7a0d14c09","651c1c20371af10733e73925","null","null","<p style=""font-size: 60px; font-family: BACS"">YlYcTRK</p>","","","","","","","","",""
"html-keyboard-response","233","337462","0.0-12.0-0.63","5fc44d83862e3e79b02e0438","650c16f0f2faf8d7a0d14c09","651c1c20371af10733e73925","null","null","<p style=""font-size: 60px; font-family: BACS"">NJZlOcZJ</p>","","","","","","","","",""
"html-keyboard-response","234","338471","0.0-12.0-0.64","5fc44d83862e3e79b02e0438","650c16f0f2faf8d7a0d14c09","651c1c20371af10733e73925","null","null","<p style=""font-size: 60px; font-family: BACS"">ECtbDTRK</p>","","","","","","","","",""
"html-keyboard-response","235","339486","0.0-12.0-0.65","5fc44d83862e3e79b02e0438","650c16f0f2faf8d7a0d14c09","651c1c20371af10733e73925","null","null","<p style=""font-size: 60px; font-family: BACS"">NbmQUYbN</p>","","","","","","","","",""
"html-keyboard-response","236","340488","0.0-12.0-0.66","5fc44d83862e3e79b02e0438","650c16f0f2faf8d7a0d14c09","651c1c20371af10733e73925","null","null","<p style=""font-size: 60px; font-family: BACS"">ubALmkYL</p>","","","","","","","","",""
"html-keyboard-response","237","341489","0.0-12.0-0.67","5fc44d83862e3e79b02e0438","650c16f0f2faf8d7a0d14c09","651c1c20371af10733e73925","null","null","<p style=""font-size: 60px; font-family: BACS"">ECtbDCKOb</p>","","","","","","","","",""
"html-keyboard-response","238","342494","0.0-12.0-0.68","5fc44d83862e3e79b02e0438","650c16f0f2faf8d7a0d14c09","651c1c20371af10733e73925","null","null","<p style=""font-size: 60px; font-family: BACS"">khmhTRK</p>","","","","","","","","",""
"html-keyboard-response","239","343494","0.0-12.0-0.69","5fc44d83862e3e79b02e0438","650c16f0f2faf8d7a0d14c09","651c1c20371af10733e73925","null","null","<p style=""font-size: 60px; font-family: BACS"">rvOvUOcZJ</p>","","","","","","","","",""
"html-keyboard-response","240","344503","0.0-12.0-0.70","5fc44d83862e3e79b02e0438","650c16f0f2faf8d7a0d14c09","651c1c20371af10733e73925","null","null","<p style=""font-size: 60px; font-family: BACS"">BECkEKBO</p>","","","","","","","","",""
"html-keyboard-response","241","345504","0.0-12.0-0.71","5fc44d83862e3e79b02e0438","650c16f0f2faf8d7a0d14c09","651c1c20371af10733e73925","null","null","<p style=""font-size: 60px; font-family: BACS"">hbkdTPOM</p>","","","","","","","","",""
"html-keyboard-response","242","346510","0.0-12.0-0.72","5fc44d83862e3e79b02e0438","650c16f0f2faf8d7a0d14c09","651c1c20371af10733e73925","null","null","<p style=""font-size: 60px; font-family: BACS"">dTmEDEKBO</p>","","","","","","","","",""
"html-keyboard-response","243","347521","0.0-12.0-0.73","5fc44d83862e3e79b02e0438","650c16f0f2faf8d7a0d14c09","651c1c20371af10733e73925","null","null","<p style=""font-size: 60px; font-family: BACS"">lAOKMCKOb</p>","","","","","","","","",""
"html-keyboard-response","244","348530","0.0-12.0-0.74","5fc44d83862e3e79b02e0438","650c16f0f2faf8d7a0d14c09","651c1c20371af10733e73925","null","null","<p style=""font-size: 60px; font-family: BACS"">mdkKTRK</p>","","","","","","","","",""
"html-keyboard-response","245","349537","0.0-12.0-0.75","5fc44d83862e3e79b02e0438","650c16f0f2faf8d7a0d14c09","651c1c20371af10733e73925","null","null","<p style=""font-size: 60px; font-family: BACS"">ECtbDEKBO</p>","","","","","","","","",""
"html-keyboard-response","246","350549","0.0-12.0-0.76","5fc44d83862e3e79b02e0438","650c16f0f2faf8d7a0d14c09","651c1c20371af10733e73925","null","null","<p style=""font-size: 60px; font-family: BACS"">aYQmYbN</p>","","","","","","","","",""
"html-keyboard-response","247","351553","0.0-12.0-0.77","5fc44d83862e3e79b02e0438","650c16f0f2faf8d7a0d14c09","651c1c20371af10733e73925","null","null","<p style=""font-size: 60px; font-family: BACS"">ECtbDBCAd</p>","","","","","","","","",""
"html-keyboard-response","248","352561","0.0-12.0-0.78","5fc44d83862e3e79b02e0438","650c16f0f2faf8d7a0d14c09","651c1c20371af10733e73925","null","null","<p style=""font-size: 60px; font-family: BACS"">aYQmJQA</p>","","","","","","","","",""
"html-keyboard-response","249","353566","0.0-12.0-0.79","5fc44d83862e3e79b02e0438","650c16f0f2faf8d7a0d14c09","651c1c20371af10733e73925","null","null","<p style=""font-size: 60px; font-family: BACS"">kNuaYbN</p>","","","","","","","","",""
"html-keyboard-response","250","390824","0.0-13.0","5fc44d83862e3e79b02e0438","650c16f0f2faf8d7a0d14c09","651c1c20371af10733e73925","37259"," ","<p>Great, you've seen the third block of words. You may now take a short break.</p>
      <p>Press the spacebar when you're ready to continue.</p>","","","","","","","","",""
"html-keyboard-response","251","391830","0.0-14.0-0.0","5fc44d83862e3e79b02e0438","650c16f0f2faf8d7a0d14c09","651c1c20371af10733e73925","null","null","<p style=""font-size: 60px; font-family: BACS"">LdQvrAm</p>","","","","","","","","",""
"html-keyboard-response","252","392841","0.0-14.0-0.1","5fc44d83862e3e79b02e0438","650c16f0f2faf8d7a0d14c09","651c1c20371af10733e73925","null","null","<p style=""font-size: 60px; font-family: BACS"">mdkKBCAd</p>","","","","","","","","",""
"html-keyboard-response","253","393843","0.0-14.0-0.2","5fc44d83862e3e79b02e0438","650c16f0f2faf8d7a0d14c09","651c1c20371af10733e73925","null","null","<p style=""font-size: 60px; font-family: BACS"">khmhTRK</p>","","","","","","","","",""
"html-keyboard-response","254","394848","0.0-14.0-0.3","5fc44d83862e3e79b02e0438","650c16f0f2faf8d7a0d14c09","651c1c20371af10733e73925","null","null","<p style=""font-size: 60px; font-family: BACS"">kNuaOcZJ</p>","","","","","","","","",""
"html-keyboard-response","255","395861","0.0-14.0-0.4","5fc44d83862e3e79b02e0438","650c16f0f2faf8d7a0d14c09","651c1c20371af10733e73925","null","null","<p style=""font-size: 60px; font-family: BACS"">dTmEDTPOM</p>","","","","","","","","",""
"html-keyboard-response","256","396874","0.0-14.0-0.5","5fc44d83862e3e79b02e0438","650c16f0f2faf8d7a0d14c09","651c1c20371af10733e73925","null","null","<p style=""font-size: 60px; font-family: BACS"">mhtcTRK</p>","","","","","","","","",""
"html-keyboard-response","257","397886","0.0-14.0-0.6","5fc44d83862e3e79b02e0438","650c16f0f2faf8d7a0d14c09","651c1c20371af10733e73925","null","null","<p style=""font-size: 60px; font-family: BACS"">mdkKTPOM</p>","","","","","","","","",""
"html-keyboard-response","258","398898","0.0-14.0-0.7","5fc44d83862e3e79b02e0438","650c16f0f2faf8d7a0d14c09","651c1c20371af10733e73925","null","null","<p style=""font-size: 60px; font-family: BACS"">dTmEDEKBO</p>","","","","","","","","",""
"html-keyboard-response","259","399909","0.0-14.0-0.8","5fc44d83862e3e79b02e0438","650c16f0f2faf8d7a0d14c09","651c1c20371af10733e73925","null","null","<p style=""font-size: 60px; font-family: BACS"">QbkAcOcZJ</p>","","","","","","","","",""
"html-keyboard-response","260","400915","0.0-14.0-0.9","5fc44d83862e3e79b02e0438","650c16f0f2faf8d7a0d14c09","651c1c20371af10733e73925","null","null","<p style=""font-size: 60px; font-family: BACS"">JNkakYL</p>","","","","","","","","",""
"html-keyboard-response","261","401921","0.0-14.0-0.10","5fc44d83862e3e79b02e0438","650c16f0f2faf8d7a0d14c09","651c1c20371af10733e73925","null","null","<p style=""font-size: 60px; font-family: BACS"">YlYcTPOM</p>","","","","","","","","",""
"html-keyboard-response","262","402930","0.0-14.0-0.11","5fc44d83862e3e79b02e0438","650c16f0f2faf8d7a0d14c09","651c1c20371af10733e73925","null","null","<p style=""font-size: 60px; font-family: BACS"">QbkAcJQA</p>","","","","","","","","",""
"html-keyboard-response","263","403939","0.0-14.0-0.12","5fc44d83862e3e79b02e0438","650c16f0f2faf8d7a0d14c09","651c1c20371af10733e73925","null","null","<p style=""font-size: 60px; font-family: BACS"">BECkBCAd</p>","","","","","","","","",""
"html-keyboard-response","264","404939","0.0-14.0-0.13","5fc44d83862e3e79b02e0438","650c16f0f2faf8d7a0d14c09","651c1c20371af10733e73925","null","null","<p style=""font-size: 60px; font-family: BACS"">QbkAckYL</p>","","","","","","","","",""
"html-keyboard-response","265","405940","0.0-14.0-0.14","5fc44d83862e3e79b02e0438","650c16f0f2faf8d7a0d14c09","651c1c20371af10733e73925","null","null","<p style=""font-size: 60px; font-family: BACS"">BECkTPOM</p>","","","","","","","","",""
"html-keyboard-response","266","406952","0.0-14.0-0.15","5fc44d83862e3e79b02e0438","650c16f0f2faf8d7a0d14c09","651c1c20371af10733e73925","null","null","<p style=""font-size: 60px; font-family: BACS"">hbkdCKOb</p>","","","","","","","","",""
"html-keyboard-response","267","407963","0.0-14.0-0.16","5fc44d83862e3e79b02e0438","650c16f0f2faf8d7a0d14c09","651c1c20371af10733e73925","null","null","<p style=""font-size: 60px; font-family: BACS"">aYQmYbN</p>","","","","","","","","",""
"html-keyboard-response","268","408973","0.0-14.0-0.17","5fc44d83862e3e79b02e0438","650c16f0f2faf8d7a0d14c09","651c1c20371af10733e73925","null","null","<p style=""font-size: 60px; font-family: BACS"">YlYcCKOb</p>","","","","","","","","",""
"html-keyboard-response","269","409985","0.0-14.0-0.18","5fc44d83862e3e79b02e0438","650c16f0f2faf8d7a0d14c09","651c1c20371af10733e73925","null","null","<p style=""font-size: 60px; font-family: BACS"">NJZlJQA</p>","","","","","","","","",""
"html-keyboard-response","270","410985","0.0-14.0-0.19","5fc44d83862e3e79b02e0438","650c16f0f2faf8d7a0d14c09","651c1c20371af10733e73925","null","null","<p style=""font-size: 60px; font-family: BACS"">ubALmkYL</p>","","","","","","","","",""
"html-keyboard-response","271","411989","0.0-14.0-0.20","5fc44d83862e3e79b02e0438","650c16f0f2faf8d7a0d14c09","651c1c20371af10733e73925","null","null","<p style=""font-size: 60px; font-family: BACS"">mhtcEKBO</p>","","","","","","","","",""
"html-keyboard-response","272","413001","0.0-14.0-0.21","5fc44d83862e3e79b02e0438","650c16f0f2faf8d7a0d14c09","651c1c20371af10733e73925","null","null","<p style=""font-size: 60px; font-family: BACS"">aYQmkYL</p>","","","","","","","","",""
"html-keyboard-response","273","414014","0.0-14.0-0.22","5fc44d83862e3e79b02e0438","650c16f0f2faf8d7a0d14c09","651c1c20371af10733e73925","null","null","<p style=""font-size: 60px; font-family: BACS"">ECtbDBCAd</p>","","","","","","","","",""
"html-keyboard-response","274","415016","0.0-14.0-0.23","5fc44d83862e3e79b02e0438","650c16f0f2faf8d7a0d14c09","651c1c20371af10733e73925","null","null","<p style=""font-size: 60px; font-family: BACS"">lGZvYbN</p>","","","","","","","","",""
"html-keyboard-response","275","416028","0.0-14.0-0.24","5fc44d83862e3e79b02e0438","650c16f0f2faf8d7a0d14c09","651c1c20371af10733e73925","null","null","<p style=""font-size: 60px; font-family: BACS"">dTmEDTRK</p>","","","","","","","","",""
"html-keyboard-response","276","417028","0.0-14.0-0.25","5fc44d83862e3e79b02e0438","650c16f0f2faf8d7a0d14c09","651c1c20371af10733e73925","null","null","<p style=""font-size: 60px; font-family: BACS"">kNuaJQA</p>","","","","","","","","",""
"html-keyboard-response","277","418042","0.0-14.0-0.26","5fc44d83862e3e79b02e0438","650c16f0f2faf8d7a0d14c09","651c1c20371af10733e73925","null","null","<p style=""font-size: 60px; font-family: BACS"">ECtbDTRK</p>","","","","","","","","",""
"html-keyboard-response","278","419051","0.0-14.0-0.27","5fc44d83862e3e79b02e0438","650c16f0f2faf8d7a0d14c09","651c1c20371af10733e73925","null","null","<p style=""font-size: 60px; font-family: BACS"">NbmQUOcZJ</p>","","","","","","","","",""
"html-keyboard-response","279","420052","0.0-14.0-0.28","5fc44d83862e3e79b02e0438","650c16f0f2faf8d7a0d14c09","651c1c20371af10733e73925","null","null","<p style=""font-size: 60px; font-family: BACS"">khmhCKOb</p>","","","","","","","","",""
"html-keyboard-response","280","421053","0.0-14.0-0.29","5fc44d83862e3e79b02e0438","650c16f0f2faf8d7a0d14c09","651c1c20371af10733e73925","null","null","<p style=""font-size: 60px; font-family: BACS"">aYQmrAm</p>","","","","","","","","",""
"html-keyboard-response","281","422054","0.0-14.0-0.30","5fc44d83862e3e79b02e0438","650c16f0f2faf8d7a0d14c09","651c1c20371af10733e73925","null","null","<p style=""font-size: 60px; font-family: BACS"">JNkaJQA</p>","","","","","","","","",""
"html-keyboard-response","282","423055","0.0-14.0-0.31","5fc44d83862e3e79b02e0438","650c16f0f2faf8d7a0d14c09","651c1c20371af10733e73925","null","null","<p style=""font-size: 60px; font-family: BACS"">kNuarAm</p>","","","","","","","","",""
"html-keyboard-response","283","424066","0.0-14.0-0.32","5fc44d83862e3e79b02e0438","650c16f0f2faf8d7a0d14c09","651c1c20371af10733e73925","null","null","<p style=""font-size: 60px; font-family: BACS"">rvOvUYbN</p>","","","","","","","","",""
"html-keyboard-response","284","425081","0.0-14.0-0.33","5fc44d83862e3e79b02e0438","650c16f0f2faf8d7a0d14c09","651c1c20371af10733e73925","null","null","<p style=""font-size: 60px; font-family: BACS"">lGZvJQA</p>","","","","","","","","",""
"html-keyboard-response","285","426089","0.0-14.0-0.34","5fc44d83862e3e79b02e0438","650c16f0f2faf8d7a0d14c09","651c1c20371af10733e73925","null","null","<p style=""font-size: 60px; font-family: BACS"">hbkdBCAd</p>","","","","","","","","",""
"html-keyboard-response","286","427101","0.0-14.0-0.35","5fc44d83862e3e79b02e0438","650c16f0f2faf8d7a0d14c09","651c1c20371af10733e73925","null","null","<p style=""font-size: 60px; font-family: BACS"">mhtcTPOM</p>","","","","","","","","",""
"html-keyboard-response","287","428115","0.0-14.0-0.36","5fc44d83862e3e79b02e0438","650c16f0f2faf8d7a0d14c09","651c1c20371af10733e73925","null","null","<p style=""font-size: 60px; font-family: BACS"">lAOKMCKOb</p>","","","","","","","","",""
"html-keyboard-response","288","429116","0.0-14.0-0.37","5fc44d83862e3e79b02e0438","650c16f0f2faf8d7a0d14c09","651c1c20371af10733e73925","null","null","<p style=""font-size: 60px; font-family: BACS"">NbmQUYbN</p>","","","","","","","","",""
"html-keyboard-response","289","430130","0.0-14.0-0.38","5fc44d83862e3e79b02e0438","650c16f0f2faf8d7a0d14c09","651c1c20371af10733e73925","null","null","<p style=""font-size: 60px; font-family: BACS"">lBKtTPOM</p>","","","","","","","","",""
"html-keyboard-response","290","431133","0.0-14.0-0.39","5fc44d83862e3e79b02e0438","650c16f0f2faf8d7a0d14c09","651c1c20371af10733e73925","null","null","<p style=""font-size: 60px; font-family: BACS"">rvOvUOcZJ</p>","","","","","","","","",""
"html-keyboard-response","291","432145","0.0-14.0-0.40","5fc44d83862e3e79b02e0438","650c16f0f2faf8d7a0d14c09","651c1c20371af10733e73925","null","null","<p style=""font-size: 60px; font-family: BACS"">mdkKCKOb</p>","","","","","","","","",""
"html-keyboard-response","292","433157","0.0-14.0-0.41","5fc44d83862e3e79b02e0438","650c16f0f2faf8d7a0d14c09","651c1c20371af10733e73925","null","null","<p style=""font-size: 60px; font-family: BACS"">NJZlYbN</p>","","","","","","","","",""
"html-keyboard-response","293","434158","0.0-14.0-0.42","5fc44d83862e3e79b02e0438","650c16f0f2faf8d7a0d14c09","651c1c20371af10733e73925","null","null","<p style=""font-size: 60px; font-family: BACS"">LdQvOcZJ</p>","","","","","","","","",""
"html-keyboard-response","294","435168","0.0-14.0-0.43","5fc44d83862e3e79b02e0438","650c16f0f2faf8d7a0d14c09","651c1c20371af10733e73925","null","null","<p style=""font-size: 60px; font-family: BACS"">kNuaYbN</p>","","","","","","","","",""
"html-keyboard-response","295","436183","0.0-14.0-0.44","5fc44d83862e3e79b02e0438","650c16f0f2faf8d7a0d14c09","651c1c20371af10733e73925","null","null","<p style=""font-size: 60px; font-family: BACS"">ubALmOcZJ</p>","","","","","","","","",""
"html-keyboard-response","296","437192","0.0-14.0-0.45","5fc44d83862e3e79b02e0438","650c16f0f2faf8d7a0d14c09","651c1c20371af10733e73925","null","null","<p style=""font-size: 60px; font-family: BACS"">rvOvUrAm</p>","","","","","","","","",""
"html-keyboard-response","297","438193","0.0-14.0-0.46","5fc44d83862e3e79b02e0438","650c16f0f2faf8d7a0d14c09","651c1c20371af10733e73925","null","null","<p style=""font-size: 60px; font-family: BACS"">YlYcTRK</p>","","","","","","","","",""
"html-keyboard-response","298","439199","0.0-14.0-0.47","5fc44d83862e3e79b02e0438","650c16f0f2faf8d7a0d14c09","651c1c20371af10733e73925","null","null","<p style=""font-size: 60px; font-family: BACS"">NbmQUrAm</p>","","","","","","","","",""
"html-keyboard-response","299","440213","0.0-14.0-0.48","5fc44d83862e3e79b02e0438","650c16f0f2faf8d7a0d14c09","651c1c20371af10733e73925","null","null","<p style=""font-size: 60px; font-family: BACS"">BECkEKBO</p>","","","","","","","","",""
"html-keyboard-response","300","441228","0.0-14.0-0.49","5fc44d83862e3e79b02e0438","650c16f0f2faf8d7a0d14c09","651c1c20371af10733e73925","null","null","<p style=""font-size: 60px; font-family: BACS"">mdkKTRK</p>","","","","","","","","",""
"html-keyboard-response","301","442240","0.0-14.0-0.50","5fc44d83862e3e79b02e0438","650c16f0f2faf8d7a0d14c09","651c1c20371af10733e73925","null","null","<p style=""font-size: 60px; font-family: BACS"">NbmQUJQA</p>","","","","","","","","",""
"html-keyboard-response","302","443252","0.0-14.0-0.51","5fc44d83862e3e79b02e0438","650c16f0f2faf8d7a0d14c09","651c1c20371af10733e73925","null","null","<p style=""font-size: 60px; font-family: BACS"">lAOKMTRK</p>","","","","","","","","",""
"html-keyboard-response","303","444260","0.0-14.0-0.52","5fc44d83862e3e79b02e0438","650c16f0f2faf8d7a0d14c09","651c1c20371af10733e73925","null","null","<p style=""font-size: 60px; font-family: BACS"">ubALmYbN</p>","","","","","","","","",""
"html-keyboard-response","304","445269","0.0-14.0-0.53","5fc44d83862e3e79b02e0438","650c16f0f2faf8d7a0d14c09","651c1c20371af10733e73925","null","null","<p style=""font-size: 60px; font-family: BACS"">ECtbDCKOb</p>","","","","","","","","",""
"html-keyboard-response","305","446282","0.0-14.0-0.54","5fc44d83862e3e79b02e0438","650c16f0f2faf8d7a0d14c09","651c1c20371af10733e73925","null","null","<p style=""font-size: 60px; font-family: BACS"">lBKtEKBO</p>","","","","","","","","",""
"html-keyboard-response","306","447293","0.0-14.0-0.55","5fc44d83862e3e79b02e0438","650c16f0f2faf8d7a0d14c09","651c1c20371af10733e73925","null","null","<p style=""font-size: 60px; font-family: BACS"">NJZlOcZJ</p>","","","","","","","","",""
"html-keyboard-response","307","448307","0.0-14.0-0.56","5fc44d83862e3e79b02e0438","650c16f0f2faf8d7a0d14c09","651c1c20371af10733e73925","null","null","<p style=""font-size: 60px; font-family: BACS"">lAOKMBCAd</p>","","","","","","","","",""
"html-keyboard-response","308","449307","0.0-14.0-0.57","5fc44d83862e3e79b02e0438","650c16f0f2faf8d7a0d14c09","651c1c20371af10733e73925","null","null","<p style=""font-size: 60px; font-family: BACS"">YlYcEKBO</p>","","","","","","","","",""
"html-keyboard-response","309","450321","0.0-14.0-0.58","5fc44d83862e3e79b02e0438","650c16f0f2faf8d7a0d14c09","651c1c20371af10733e73925","null","null","<p style=""font-size: 60px; font-family: BACS"">LdQvYbN</p>","","","","","","","","",""
"html-keyboard-response","310","451334","0.0-14.0-0.59","5fc44d83862e3e79b02e0438","650c16f0f2faf8d7a0d14c09","651c1c20371af10733e73925","null","null","<p style=""font-size: 60px; font-family: BACS"">khmhBCAd</p>","","","","","","","","",""
"html-keyboard-response","311","452346","0.0-14.0-0.60","5fc44d83862e3e79b02e0438","650c16f0f2faf8d7a0d14c09","651c1c20371af10733e73925","null","null","<p style=""font-size: 60px; font-family: BACS"">lAOKMTPOM</p>","","","","","","","","",""
"html-keyboard-response","312","453359","0.0-14.0-0.61","5fc44d83862e3e79b02e0438","650c16f0f2faf8d7a0d14c09","651c1c20371af10733e73925","null","null","<p style=""font-size: 60px; font-family: BACS"">mhtcBCAd</p>","","","","","","","","",""
"html-keyboard-response","313","454370","0.0-14.0-0.62","5fc44d83862e3e79b02e0438","650c16f0f2faf8d7a0d14c09","651c1c20371af10733e73925","null","null","<p style=""font-size: 60px; font-family: BACS"">aYQmJQA</p>","","","","","","","","",""
"html-keyboard-response","314","455383","0.0-14.0-0.63","5fc44d83862e3e79b02e0438","650c16f0f2faf8d7a0d14c09","651c1c20371af10733e73925","null","null","<p style=""font-size: 60px; font-family: BACS"">dTmEDCKOb</p>","","","","","","","","",""
"html-keyboard-response","315","456392","0.0-14.0-0.64","5fc44d83862e3e79b02e0438","650c16f0f2faf8d7a0d14c09","651c1c20371af10733e73925","null","null","<p style=""font-size: 60px; font-family: BACS"">khmhEKBO</p>","","","","","","","","",""
"html-keyboard-response","316","457404","0.0-14.0-0.65","5fc44d83862e3e79b02e0438","650c16f0f2faf8d7a0d14c09","651c1c20371af10733e73925","null","null","<p style=""font-size: 60px; font-family: BACS"">rvOvUkYL</p>","","","","","","","","",""
"html-keyboard-response","317","458416","0.0-14.0-0.66","5fc44d83862e3e79b02e0438","650c16f0f2faf8d7a0d14c09","651c1c20371af10733e73925","null","null","<p style=""font-size: 60px; font-family: BACS"">BECkTRK</p>","","","","","","","","",""
"html-keyboard-response","318","459416","0.0-14.0-0.67","5fc44d83862e3e79b02e0438","650c16f0f2faf8d7a0d14c09","651c1c20371af10733e73925","null","null","<p style=""font-size: 60px; font-family: BACS"">hbkdEKBO</p>","","","","","","","","",""
"html-keyboard-response","319","460429","0.0-14.0-0.68","5fc44d83862e3e79b02e0438","650c16f0f2faf8d7a0d14c09","651c1c20371af10733e73925","null","null","<p style=""font-size: 60px; font-family: BACS"">ubALmJQA</p>","","","","","","","","",""
"html-keyboard-response","320","461440","0.0-14.0-0.69","5fc44d83862e3e79b02e0438","650c16f0f2faf8d7a0d14c09","651c1c20371af10733e73925","null","null","<p style=""font-size: 60px; font-family: BACS"">lGZvkYL</p>","","","","","","","","",""
"html-keyboard-response","321","462445","0.0-14.0-0.70","5fc44d83862e3e79b02e0438","650c16f0f2faf8d7a0d14c09","651c1c20371af10733e73925","null","null","<p style=""font-size: 60px; font-family: BACS"">JNkarAm</p>","","","","","","","","",""
"html-keyboard-response","322","463445","0.0-14.0-0.71","5fc44d83862e3e79b02e0438","650c16f0f2faf8d7a0d14c09","651c1c20371af10733e73925","null","null","<p style=""font-size: 60px; font-family: BACS"">LdQvkYL</p>","","","","","","","","",""
"html-keyboard-response","323","464455","0.0-14.0-0.72","5fc44d83862e3e79b02e0438","650c16f0f2faf8d7a0d14c09","651c1c20371af10733e73925","null","null","<p style=""font-size: 60px; font-family: BACS"">lBKtCKOb</p>","","","","","","","","",""
"html-keyboard-response","324","465467","0.0-14.0-0.73","5fc44d83862e3e79b02e0438","650c16f0f2faf8d7a0d14c09","651c1c20371af10733e73925","null","null","<p style=""font-size: 60px; font-family: BACS"">QbkAcrAm</p>","","","","","","","","",""
"html-keyboard-response","325","466468","0.0-14.0-0.74","5fc44d83862e3e79b02e0438","650c16f0f2faf8d7a0d14c09","651c1c20371af10733e73925","null","null","<p style=""font-size: 60px; font-family: BACS"">JNkaOcZJ</p>","","","","","","","","",""
"html-keyboard-response","326","467469","0.0-14.0-0.75","5fc44d83862e3e79b02e0438","650c16f0f2faf8d7a0d14c09","651c1c20371af10733e73925","null","null","<p style=""font-size: 60px; font-family: BACS"">ECtbDEKBO</p>","","","","","","","","",""
"html-keyboard-response","327","468475","0.0-14.0-0.76","5fc44d83862e3e79b02e0438","650c16f0f2faf8d7a0d14c09","651c1c20371af10733e73925","null","null","<p style=""font-size: 60px; font-family: BACS"">lGZvrAm</p>","","","","","","","","",""
"html-keyboard-response","328","469477","0.0-14.0-0.77","5fc44d83862e3e79b02e0438","650c16f0f2faf8d7a0d14c09","651c1c20371af10733e73925","null","null","<p style=""font-size: 60px; font-family: BACS"">lBKtBCAd</p>","","","","","","","","",""
"html-keyboard-response","329","470491","0.0-14.0-0.78","5fc44d83862e3e79b02e0438","650c16f0f2faf8d7a0d14c09","651c1c20371af10733e73925","null","null","<p style=""font-size: 60px; font-family: BACS"">NJZlkYL</p>","","","","","","","","",""
"html-keyboard-response","330","471491","0.0-14.0-0.79","5fc44d83862e3e79b02e0438","650c16f0f2faf8d7a0d14c09","651c1c20371af10733e73925","null","null","<p style=""font-size: 60px; font-family: BACS"">hbkdTPOM</p>","","","","","","","","",""
"html-keyboard-response","331","480720","0.0-15.0","5fc44d83862e3e79b02e0438","650c16f0f2faf8d7a0d14c09","651c1c20371af10733e73925","9228"," ","<p>Great, you've seen the fourth block of words. You may now take a short break.</p>
      <p>Press the spacebar when you're ready to continue.</p>","","","","","","","","",""
"html-keyboard-response","332","481720","0.0-16.0-0.0","5fc44d83862e3e79b02e0438","650c16f0f2faf8d7a0d14c09","651c1c20371af10733e73925","null","null","<p style=""font-size: 60px; font-family: BACS"">mhtcTRK</p>","","","","","","","","",""
"html-keyboard-response","333","482721","0.0-16.0-0.1","5fc44d83862e3e79b02e0438","650c16f0f2faf8d7a0d14c09","651c1c20371af10733e73925","null","null","<p style=""font-size: 60px; font-family: BACS"">mhtcTRK</p>","","","","","","","","",""
"html-keyboard-response","334","483721","0.0-16.0-0.2","5fc44d83862e3e79b02e0438","650c16f0f2faf8d7a0d14c09","651c1c20371af10733e73925","null","null","<p style=""font-size: 60px; font-family: BACS"">mhtcTRK</p>","","","","","","","","",""
"html-keyboard-response","335","484724","0.0-16.0-0.3","5fc44d83862e3e79b02e0438","650c16f0f2faf8d7a0d14c09","651c1c20371af10733e73925","null","null","<p style=""font-size: 60px; font-family: BACS"">mhtcTRK</p>","","","","","","","","",""
"html-keyboard-response","336","485724","0.0-16.0-0.4","5fc44d83862e3e79b02e0438","650c16f0f2faf8d7a0d14c09","651c1c20371af10733e73925","null","null","<p style=""font-size: 60px; font-family: BACS"">mhtcTRK</p>","","","","","","","","",""
"html-keyboard-response","337","486725","0.0-16.0-0.5","5fc44d83862e3e79b02e0438","650c16f0f2faf8d7a0d14c09","651c1c20371af10733e73925","null","null","<p style=""font-size: 60px; font-family: BACS"">mhtcTRK</p>","","","","","","","","",""
"html-keyboard-response","338","487726","0.0-16.0-0.6","5fc44d83862e3e79b02e0438","650c16f0f2faf8d7a0d14c09","651c1c20371af10733e73925","null","null","<p style=""font-size: 60px; font-family: BACS"">mhtcTRK</p>","","","","","","","","",""
"html-keyboard-response","339","488727","0.0-16.0-0.7","5fc44d83862e3e79b02e0438","650c16f0f2faf8d7a0d14c09","651c1c20371af10733e73925","null","null","<p style=""font-size: 60px; font-family: BACS"">mhtcTRK</p>","","","","","","","","",""
"html-keyboard-response","340","489727","0.0-16.0-0.8","5fc44d83862e3e79b02e0438","650c16f0f2faf8d7a0d14c09","651c1c20371af10733e73925","null","null","<p style=""font-size: 60px; font-family: BACS"">mhtcTRK</p>","","","","","","","","",""
"html-keyboard-response","341","490728","0.0-16.0-0.9","5fc44d83862e3e79b02e0438","650c16f0f2faf8d7a0d14c09","651c1c20371af10733e73925","null","null","<p style=""font-size: 60px; font-family: BACS"">mhtcTRK</p>","","","","","","","","",""
"html-keyboard-response","342","491728","0.0-16.0-0.10","5fc44d83862e3e79b02e0438","650c16f0f2faf8d7a0d14c09","651c1c20371af10733e73925","null","null","<p style=""font-size: 60px; font-family: BACS"">mhtcTRK</p>","","","","","","","","",""
"html-keyboard-response","343","492730","0.0-16.0-0.11","5fc44d83862e3e79b02e0438","650c16f0f2faf8d7a0d14c09","651c1c20371af10733e73925","null","null","<p style=""font-size: 60px; font-family: BACS"">mhtcTRK</p>","","","","","","","","",""
"html-keyboard-response","344","493736","0.0-16.0-0.12","5fc44d83862e3e79b02e0438","650c16f0f2faf8d7a0d14c09","651c1c20371af10733e73925","null","null","<p style=""font-size: 60px; font-family: BACS"">mhtcTRK</p>","","","","","","","","",""
"html-keyboard-response","345","494737","0.0-16.0-0.13","5fc44d83862e3e79b02e0438","650c16f0f2faf8d7a0d14c09","651c1c20371af10733e73925","null","null","<p style=""font-size: 60px; font-family: BACS"">mhtcTRK</p>","","","","","","","","",""
"html-keyboard-response","346","495742","0.0-16.0-0.14","5fc44d83862e3e79b02e0438","650c16f0f2faf8d7a0d14c09","651c1c20371af10733e73925","null","null","<p style=""font-size: 60px; font-family: BACS"">mhtcTRK</p>","","","","","","","","",""
"html-keyboard-response","347","496749","0.0-16.0-0.15","5fc44d83862e3e79b02e0438","650c16f0f2faf8d7a0d14c09","651c1c20371af10733e73925","null","null","<p style=""font-size: 60px; font-family: BACS"">mhtcTRK</p>","","","","","","","","",""
"html-keyboard-response","348","497759","0.0-16.0-0.16","5fc44d83862e3e79b02e0438","650c16f0f2faf8d7a0d14c09","651c1c20371af10733e73925","null","null","<p style=""font-size: 60px; font-family: BACS"">mhtcTRK</p>","","","","","","","","",""
"html-keyboard-response","349","498760","0.0-16.0-0.17","5fc44d83862e3e79b02e0438","650c16f0f2faf8d7a0d14c09","651c1c20371af10733e73925","null","null","<p style=""font-size: 60px; font-family: BACS"">mhtcTRK</p>","","","","","","","","",""
"html-keyboard-response","350","499775","0.0-16.0-0.18","5fc44d83862e3e79b02e0438","650c16f0f2faf8d7a0d14c09","651c1c20371af10733e73925","null","null","<p style=""font-size: 60px; font-family: BACS"">mhtcTRK</p>","","","","","","","","",""
"html-keyboard-response","351","500783","0.0-16.0-0.19","5fc44d83862e3e79b02e0438","650c16f0f2faf8d7a0d14c09","651c1c20371af10733e73925","null","null","<p style=""font-size: 60px; font-family: BACS"">mhtcTRK</p>","","","","","","","","",""
"html-keyboard-response","352","501793","0.0-16.0-0.20","5fc44d83862e3e79b02e0438","650c16f0f2faf8d7a0d14c09","651c1c20371af10733e73925","null","null","<p style=""font-size: 60px; font-family: BACS"">mhtcTRK</p>","","","","","","","","",""
"html-keyboard-response","353","502794","0.0-16.0-0.21","5fc44d83862e3e79b02e0438","650c16f0f2faf8d7a0d14c09","651c1c20371af10733e73925","null","null","<p style=""font-size: 60px; font-family: BACS"">mhtcTRK</p>","","","","","","","","",""
"html-keyboard-response","354","503796","0.0-16.0-0.22","5fc44d83862e3e79b02e0438","650c16f0f2faf8d7a0d14c09","651c1c20371af10733e73925","null","null","<p style=""font-size: 60px; font-family: BACS"">mhtcTRK</p>","","","","","","","","",""
"html-keyboard-response","355","504797","0.0-16.0-0.23","5fc44d83862e3e79b02e0438","650c16f0f2faf8d7a0d14c09","651c1c20371af10733e73925","null","null","<p style=""font-size: 60px; font-family: BACS"">mhtcTRK</p>","","","","","","","","",""
"html-keyboard-response","356","505802","0.0-16.0-0.24","5fc44d83862e3e79b02e0438","650c16f0f2faf8d7a0d14c09","651c1c20371af10733e73925","null","null","<p style=""font-size: 60px; font-family: BACS"">mhtcTRK</p>","","","","","","","","",""
"html-keyboard-response","357","506812","0.0-16.0-0.25","5fc44d83862e3e79b02e0438","650c16f0f2faf8d7a0d14c09","651c1c20371af10733e73925","null","null","<p style=""font-size: 60px; font-family: BACS"">mhtcTRK</p>","","","","","","","","",""
"html-keyboard-response","358","507822","0.0-16.0-0.26","5fc44d83862e3e79b02e0438","650c16f0f2faf8d7a0d14c09","651c1c20371af10733e73925","null","null","<p style=""font-size: 60px; font-family: BACS"">mhtcTRK</p>","","","","","","","","",""
"html-keyboard-response","359","508834","0.0-16.0-0.27","5fc44d83862e3e79b02e0438","650c16f0f2faf8d7a0d14c09","651c1c20371af10733e73925","null","null","<p style=""font-size: 60px; font-family: BACS"">mhtcTRK</p>","","","","","","","","",""
"html-keyboard-response","360","509842","0.0-16.0-0.28","5fc44d83862e3e79b02e0438","650c16f0f2faf8d7a0d14c09","651c1c20371af10733e73925","null","null","<p style=""font-size: 60px; font-family: BACS"">mhtcTRK</p>","","","","","","","","",""
"html-keyboard-response","361","510842","0.0-16.0-0.29","5fc44d83862e3e79b02e0438","650c16f0f2faf8d7a0d14c09","651c1c20371af10733e73925","null","null","<p style=""font-size: 60px; font-family: BACS"">mhtcTRK</p>","","","","","","","","",""
"html-keyboard-response","362","511848","0.0-16.0-0.30","5fc44d83862e3e79b02e0438","650c16f0f2faf8d7a0d14c09","651c1c20371af10733e73925","null","null","<p style=""font-size: 60px; font-family: BACS"">mhtcTRK</p>","","","","","","","","",""
"html-keyboard-response","363","512859","0.0-16.0-0.31","5fc44d83862e3e79b02e0438","650c16f0f2faf8d7a0d14c09","651c1c20371af10733e73925","null","null","<p style=""font-size: 60px; font-family: BACS"">mhtcTRK</p>","","","","","","","","",""
"html-keyboard-response","364","513868","0.0-16.0-0.32","5fc44d83862e3e79b02e0438","650c16f0f2faf8d7a0d14c09","651c1c20371af10733e73925","null","null","<p style=""font-size: 60px; font-family: BACS"">mhtcTRK</p>","","","","","","","","",""
"html-keyboard-response","365","514869","0.0-16.0-0.33","5fc44d83862e3e79b02e0438","650c16f0f2faf8d7a0d14c09","651c1c20371af10733e73925","null","null","<p style=""font-size: 60px; font-family: BACS"">mhtcTRK</p>","","","","","","","","",""
"html-keyboard-response","366","515870","0.0-16.0-0.34","5fc44d83862e3e79b02e0438","650c16f0f2faf8d7a0d14c09","651c1c20371af10733e73925","null","null","<p style=""font-size: 60px; font-family: BACS"">mhtcTRK</p>","","","","","","","","",""
"html-keyboard-response","367","516880","0.0-16.0-0.35","5fc44d83862e3e79b02e0438","650c16f0f2faf8d7a0d14c09","651c1c20371af10733e73925","null","null","<p style=""font-size: 60px; font-family: BACS"">mhtcTRK</p>","","","","","","","","",""
"html-keyboard-response","368","517890","0.0-16.0-0.36","5fc44d83862e3e79b02e0438","650c16f0f2faf8d7a0d14c09","651c1c20371af10733e73925","null","null","<p style=""font-size: 60px; font-family: BACS"">mhtcTRK</p>","","","","","","","","",""
"html-keyboard-response","369","518897","0.0-16.0-0.37","5fc44d83862e3e79b02e0438","650c16f0f2faf8d7a0d14c09","651c1c20371af10733e73925","null","null","<p style=""font-size: 60px; font-family: BACS"">mhtcTRK</p>","","","","","","","","",""
"html-keyboard-response","370","519910","0.0-16.0-0.38","5fc44d83862e3e79b02e0438","650c16f0f2faf8d7a0d14c09","651c1c20371af10733e73925","null","null","<p style=""font-size: 60px; font-family: BACS"">mhtcTRK</p>","","","","","","","","",""
"html-keyboard-response","371","520920","0.0-16.0-0.39","5fc44d83862e3e79b02e0438","650c16f0f2faf8d7a0d14c09","651c1c20371af10733e73925","null","null","<p style=""font-size: 60px; font-family: BACS"">mhtcTRK</p>","","","","","","","","",""
"html-keyboard-response","372","521933","0.0-16.0-0.40","5fc44d83862e3e79b02e0438","650c16f0f2faf8d7a0d14c09","651c1c20371af10733e73925","null","null","<p style=""font-size: 60px; font-family: BACS"">mhtcTRK</p>","","","","","","","","",""
"html-keyboard-response","373","522934","0.0-16.0-0.41","5fc44d83862e3e79b02e0438","650c16f0f2faf8d7a0d14c09","651c1c20371af10733e73925","null","null","<p style=""font-size: 60px; font-family: BACS"">mhtcTRK</p>","","","","","","","","",""
"html-keyboard-response","374","523935","0.0-16.0-0.42","5fc44d83862e3e79b02e0438","650c16f0f2faf8d7a0d14c09","651c1c20371af10733e73925","null","null","<p style=""font-size: 60px; font-family: BACS"">mhtcTRK</p>","","","","","","","","",""
"html-keyboard-response","375","524947","0.0-16.0-0.43","5fc44d83862e3e79b02e0438","650c16f0f2faf8d7a0d14c09","651c1c20371af10733e73925","null","null","<p style=""font-size: 60px; font-family: BACS"">mhtcTRK</p>","","","","","","","","",""
"html-keyboard-response","376","525951","0.0-16.0-0.44","5fc44d83862e3e79b02e0438","650c16f0f2faf8d7a0d14c09","651c1c20371af10733e73925","null","null","<p style=""font-size: 60px; font-family: BACS"">mhtcTRK</p>","","","","","","","","",""
"html-keyboard-response","377","526957","0.0-16.0-0.45","5fc44d83862e3e79b02e0438","650c16f0f2faf8d7a0d14c09","651c1c20371af10733e73925","null","null","<p style=""font-size: 60px; font-family: BACS"">mhtcTRK</p>","","","","","","","","",""
"html-keyboard-response","378","527968","0.0-16.0-0.46","5fc44d83862e3e79b02e0438","650c16f0f2faf8d7a0d14c09","651c1c20371af10733e73925","null","null","<p style=""font-size: 60px; font-family: BACS"">mhtcTRK</p>","","","","","","","","",""
"html-keyboard-response","379","528969","0.0-16.0-0.47","5fc44d83862e3e79b02e0438","650c16f0f2faf8d7a0d14c09","651c1c20371af10733e73925","null","null","<p style=""font-size: 60px; font-family: BACS"">mhtcTRK</p>","","","","","","","","",""
"html-keyboard-response","380","529982","0.0-16.0-0.48","5fc44d83862e3e79b02e0438","650c16f0f2faf8d7a0d14c09","651c1c20371af10733e73925","null","null","<p style=""font-size: 60px; font-family: BACS"">mhtcTRK</p>","","","","","","","","",""
"html-keyboard-response","381","530996","0.0-16.0-0.49","5fc44d83862e3e79b02e0438","650c16f0f2faf8d7a0d14c09","651c1c20371af10733e73925","null","null","<p style=""font-size: 60px; font-family: BACS"">mhtcTRK</p>","","","","","","","","",""
"html-keyboard-response","382","532011","0.0-16.0-0.50","5fc44d83862e3e79b02e0438","650c16f0f2faf8d7a0d14c09","651c1c20371af10733e73925","null","null","<p style=""font-size: 60px; font-family: BACS"">mhtcTRK</p>","","","","","","","","",""
"html-keyboard-response","383","533013","0.0-16.0-0.51","5fc44d83862e3e79b02e0438","650c16f0f2faf8d7a0d14c09","651c1c20371af10733e73925","null","null","<p style=""font-size: 60px; font-family: BACS"">mhtcTRK</p>","","","","","","","","",""
"html-keyboard-response","384","534020","0.0-16.0-0.52","5fc44d83862e3e79b02e0438","650c16f0f2faf8d7a0d14c09","651c1c20371af10733e73925","null","null","<p style=""font-size: 60px; font-family: BACS"">mhtcTRK</p>","","","","","","","","",""
"html-keyboard-response","385","535035","0.0-16.0-0.53","5fc44d83862e3e79b02e0438","650c16f0f2faf8d7a0d14c09","651c1c20371af10733e73925","null","null","<p style=""font-size: 60px; font-family: BACS"">mhtcTRK</p>","","","","","","","","",""
"html-keyboard-response","386","536047","0.0-16.0-0.54","5fc44d83862e3e79b02e0438","650c16f0f2faf8d7a0d14c09","651c1c20371af10733e73925","null","null","<p style=""font-size: 60px; font-family: BACS"">mhtcTRK</p>","","","","","","","","",""
"html-keyboard-response","387","537059","0.0-16.0-0.55","5fc44d83862e3e79b02e0438","650c16f0f2faf8d7a0d14c09","651c1c20371af10733e73925","null","null","<p style=""font-size: 60px; font-family: BACS"">mhtcTRK</p>","","","","","","","","",""
"html-keyboard-response","388","538059","0.0-16.0-0.56","5fc44d83862e3e79b02e0438","650c16f0f2faf8d7a0d14c09","651c1c20371af10733e73925","null","null","<p style=""font-size: 60px; font-family: BACS"">mhtcTRK</p>","","","","","","","","",""
"html-keyboard-response","389","539067","0.0-16.0-0.57","5fc44d83862e3e79b02e0438","650c16f0f2faf8d7a0d14c09","651c1c20371af10733e73925","null","null","<p style=""font-size: 60px; font-family: BACS"">mhtcTRK</p>","","","","","","","","",""
"html-keyboard-response","390","540084","0.0-16.0-0.58","5fc44d83862e3e79b02e0438","650c16f0f2faf8d7a0d14c09","651c1c20371af10733e73925","null","null","<p style=""font-size: 60px; font-family: BACS"">mhtcTRK</p>","","","","","","","","",""
"html-keyboard-response","391","541094","0.0-16.0-0.59","5fc44d83862e3e79b02e0438","650c16f0f2faf8d7a0d14c09","651c1c20371af10733e73925","null","null","<p style=""font-size: 60px; font-family: BACS"">mhtcTRK</p>","","","","","","","","",""
"html-keyboard-response","392","542095","0.0-16.0-0.60","5fc44d83862e3e79b02e0438","650c16f0f2faf8d7a0d14c09","651c1c20371af10733e73925","null","null","<p style=""font-size: 60px; font-family: BACS"">mhtcTRK</p>","","","","","","","","",""
"html-keyboard-response","393","543098","0.0-16.0-0.61","5fc44d83862e3e79b02e0438","650c16f0f2faf8d7a0d14c09","651c1c20371af10733e73925","null","null","<p style=""font-size: 60px; font-family: BACS"">mhtcTRK</p>","","","","","","","","",""
"html-keyboard-response","394","544112","0.0-16.0-0.62","5fc44d83862e3e79b02e0438","650c16f0f2faf8d7a0d14c09","651c1c20371af10733e73925","null","null","<p style=""font-size: 60px; font-family: BACS"">mhtcTRK</p>","","","","","","","","",""
"html-keyboard-response","395","545124","0.0-16.0-0.63","5fc44d83862e3e79b02e0438","650c16f0f2faf8d7a0d14c09","651c1c20371af10733e73925","null","null","<p style=""font-size: 60px; font-family: BACS"">mhtcTRK</p>","","","","","","","","",""
"html-keyboard-response","396","546136","0.0-16.0-0.64","5fc44d83862e3e79b02e0438","650c16f0f2faf8d7a0d14c09","651c1c20371af10733e73925","null","null","<p style=""font-size: 60px; font-family: BACS"">mhtcTRK</p>","","","","","","","","",""
"html-keyboard-response","397","547147","0.0-16.0-0.65","5fc44d83862e3e79b02e0438","650c16f0f2faf8d7a0d14c09","651c1c20371af10733e73925","null","null","<p style=""font-size: 60px; font-family: BACS"">mhtcTRK</p>","","","","","","","","",""
"html-keyboard-response","398","548153","0.0-16.0-0.66","5fc44d83862e3e79b02e0438","650c16f0f2faf8d7a0d14c09","651c1c20371af10733e73925","null","null","<p style=""font-size: 60px; font-family: BACS"">mhtcTRK</p>","","","","","","","","",""
