"trial_type","trial_index","time_elapsed","internal_node_id","subject_id","study_id","session_id","rt","response","stimulus","success","item","task","correct_response","correct","target","confound","name"
"pavlovia","0","3658","0.0-0.0","60ddf71e95896d2595f0e1a5","64b003020eef62ee308107cc","64b032edeade55cc3d9b3c40","","","","","","","","","","",""
"survey-html-form","1","68911","0.0-1.0","60ddf71e95896d2595f0e1a5","64b003020eef62ee308107cc","64b032edeade55cc3d9b3c40","65249","{""ID"":""60ddf71e95896d2595f0e1a5""}","","","","","","","","",""
"html-keyboard-response","2","72164","0.0-2.0","60ddf71e95896d2595f0e1a5","64b003020eef62ee308107cc","64b032edeade55cc3d9b3c40","3251"," ","<p style=""font-size: 15px;"">Prima di cominciare, le chiediamo di leggere il modulo di consenso informato e confermare la sua volontà di partecipare all'esperimento.</p>
      <p style=""font-size: 15px;""> La preghiamo di ricordare che questo è un progetto di ricerca e che la sua partecipazione è completamente volontaria. Lei si potra' ritirare in qualunque momento, senza necessariamente dover dare alcuna spiegazione. Lo studio al quale Le si chiede di partecipare ha lo scopo di esaminare come i lettori elaborano le parole scritte. La somministrazione delle prove è individuale. Lei sarà impegnato in una sessione di lavoro della durata media di 10 minuti, e un questionario di 10 minuti. L’ordine delle prove ed il loro svolgimento sono stabiliti in modo tale da evitare un eventuale affaticamento. Tutte le prove saranno precedute da un breve addestramento in modo tale che abbia la possibilità di familiarizzare con il compito. Sono previste alcune pause nel corso dello svolgimento dell’esperimento. Una ricompensa di £4 (£8 per ora) Le verrà consegnata al termine della sessione di testing. Nonostante il testing preveda delle prove cognitive, il presente esperimento non costituisce una prova clinica che permetta la diagnosi di eventuali patologie.</p>
      <p style=""font-size: 15px;"">Tutti i dati raccolti grazie alla partecipazione Sua e di altre persone volontarie saranno custoditi in server sicuri e protetti da password, e non sarà consentito ad alcuna persona non autorizzata di accedervi. Le Sue informazioni personali saranno conservate separatamente dai risultati della presente ricerca, cui saranno associati soltanto attraverso un ID arbitrario. Grazie a questo processo di anonimizzazione dei dati, a nessun ricercatore sarà possibile analizzare i risultati sapendo da quale specifico partecipante essi provengono. Inoltre, questa procedura renderà impossibile la Sua identificazione anche nel momento in cui i risultati della ricerca fossero pubblicati su riviste scientifiche, o presentati a congressi o in qualsiasi altro pubblico consesso. Più in generale, i dati raccolti saranno trattati in accordo con le leggi sulla privacy e in conformità al Decreto Legislativo 30 giugno 2003 n. 196 “Codice in materia di protezione dei dati personali” e al Regolamento Europeo 2016/679 (General Data Protection Regulation - GDPR). Il Responsabile della protezione dei dati (RPD) è l’Avv. Valentina Carollo che può essere contattato ai seguenti indirizzi email: <a href=""mailto:dpo@sissa.it"">dpo@sissa.it</a> oppure <a href=""mailto:rpd@sissa.it"">rpd@sissa.it</a> - PEC: <a href=""mailto:protocollo@pec.sissa.it"">protocollo@pec.sissa.it</a>.</p>
      <p style=""font-size: 15px;""> Prima di esprimere il suo consenso alla partecipazione, Le ricordiamo ancora che in caso Lei abbia bisogno di delucidazioni su qualunque aspetto della procedura sperimentale, il ricercatore è a Sua completa disposizione (<a href=""mailto:aliebelt@sissa.it"">aliebelt@sissa.it</a>, <a href=""mailto:davide.crepaldi@sissa.it"">davide.crepaldi@sissa.it</a>).</p>
      <p style=""font-size: 15px;"">Se vuole scaricare il modulo di consenso informato, clicca qui: <a href=""BASL_modulo_consenso.pdf"" download>modulo di consenso</a>.</p>
      <p style=""font-size: 15px;""> Le chiediamo di premere la barra per continuare al consenso.</p>","","","","","","","",""
"survey-html-form","3","89278","0.0-3.0","60ddf71e95896d2595f0e1a5","64b003020eef62ee308107cc","64b032edeade55cc3d9b3c40","17113","{""consent1"":""YES"",""consent2"":""YES"",""consent3"":""YES"",""consent4"":""YES"",""consent5"":""YES"",""consent6"":""YES""}","","","","","","","","",""
"fullscreen","4","96515","0.0-4.0","60ddf71e95896d2595f0e1a5","64b003020eef62ee308107cc","64b032edeade55cc3d9b3c40","","","","true","","","","","","",""
"html-keyboard-response","5","110710","0.0-5.0","60ddf71e95896d2595f0e1a5","64b003020eef62ee308107cc","64b032edeade55cc3d9b3c40","14195"," ","<p>Benvenuta/o, e grazie mille del tuo tempo!</p>
      <p>In questo esperimento sarai un esperto/un'esperta di linguaggio cui è stato chiesto di dare un'occhiata ad alcuni messaggi che la Terra ha ricevuto dallo spazio. Il tuo compito, in questa prima parte dell'esperimento, sarà di fare molta attenzione alle parole che ti verranno mostrate; più tardi, i leader del mondo ti chiederanno qualche informazione su quello che hai visto. Le parole si susseguiranno abbastanza velocemente; sembra che questi alieni abbiano una certa fretta :-) </p>
      <p>Per favore, chiama lo sperimentatore se ha qualche domanda.</p><p>Premi la barra per continuare.</p>","","","","","","","",""
"html-keyboard-response","6","174650","0.0-6.0","60ddf71e95896d2595f0e1a5","64b003020eef62ee308107cc","64b032edeade55cc3d9b3c40","63939"," ","<p>Ecco un esempio delle parole che vedrai:</p>
      <img src='esempio.png' height='400px'>
      <p>Quando sei pronti per iniziare, premi la barra.</p></div>","","","","","","","",""
"html-keyboard-response","7","175652","0.0-7.0-0.0","60ddf71e95896d2595f0e1a5","64b003020eef62ee308107cc","64b032edeade55cc3d9b3c40","null","null","<p style=""font-size: 60px; font-family: BACS"">hTtBbEAO</p>","","","","","","","",""
"html-keyboard-response","8","176661","0.0-7.0-0.1","60ddf71e95896d2595f0e1a5","64b003020eef62ee308107cc","64b032edeade55cc3d9b3c40","null","null","<p style=""font-size: 60px; font-family: BACS"">kGlUuUmb</p>","","","","","","","",""
"html-keyboard-response","9","177675","0.0-7.0-0.2","60ddf71e95896d2595f0e1a5","64b003020eef62ee308107cc","64b032edeade55cc3d9b3c40","null","null","<p style=""font-size: 60px; font-family: BACS"">MTdYAPEM</p>","","","","","","","",""
"html-keyboard-response","10","178690","0.0-7.0-0.3","60ddf71e95896d2595f0e1a5","64b003020eef62ee308107cc","64b032edeade55cc3d9b3c40","null","null","<p style=""font-size: 60px; font-family: BACS"">advYOkbu</p>","","","","","","","",""
"html-keyboard-response","11","179692","0.0-7.0-0.4","60ddf71e95896d2595f0e1a5","64b003020eef62ee308107cc","64b032edeade55cc3d9b3c40","null","null","<p style=""font-size: 60px; font-family: BACS"">KAERMEKBO</p>","","","","","","","",""
"html-keyboard-response","12","180708","0.0-7.0-0.5","60ddf71e95896d2595f0e1a5","64b003020eef62ee308107cc","64b032edeade55cc3d9b3c40","null","null","<p style=""font-size: 60px; font-family: BACS"">RtRhEAO</p>","","","","","","","",""
"html-keyboard-response","13","181718","0.0-7.0-0.6","60ddf71e95896d2595f0e1a5","64b003020eef62ee308107cc","64b032edeade55cc3d9b3c40","null","null","<p style=""font-size: 60px; font-family: BACS"">ECtbDAPEM</p>","","","","","","","",""
"html-keyboard-response","14","182733","0.0-7.0-0.7","60ddf71e95896d2595f0e1a5","64b003020eef62ee308107cc","64b032edeade55cc3d9b3c40","null","null","<p style=""font-size: 60px; font-family: BACS"">BOckPCdt</p>","","","","","","","",""
"html-keyboard-response","15","183733","0.0-7.0-0.8","60ddf71e95896d2595f0e1a5","64b003020eef62ee308107cc","64b032edeade55cc3d9b3c40","null","null","<p style=""font-size: 60px; font-family: BACS"">tRdMBCAd</p>","","","","","","","",""
"html-keyboard-response","16","184737","0.0-7.0-0.9","60ddf71e95896d2595f0e1a5","64b003020eef62ee308107cc","64b032edeade55cc3d9b3c40","null","null","<p style=""font-size: 60px; font-family: BACS"">OLJblrkra</p>","","","","","","","",""
"html-keyboard-response","17","185739","0.0-7.0-0.10","60ddf71e95896d2595f0e1a5","64b003020eef62ee308107cc","64b032edeade55cc3d9b3c40","null","null","<p style=""font-size: 60px; font-family: BACS"">hTtBbCdt</p>","","","","","","","",""
"html-keyboard-response","18","186740","0.0-7.0-0.11","60ddf71e95896d2595f0e1a5","64b003020eef62ee308107cc","64b032edeade55cc3d9b3c40","null","null","<p style=""font-size: 60px; font-family: BACS"">tRdMEAO</p>","","","","","","","",""
"html-keyboard-response","19","187741","0.0-7.0-0.12","60ddf71e95896d2595f0e1a5","64b003020eef62ee308107cc","64b032edeade55cc3d9b3c40","null","null","<p style=""font-size: 60px; font-family: BACS"">NLQGmrGl</p>","","","","","","","",""
"html-keyboard-response","20","188746","0.0-7.0-0.13","60ddf71e95896d2595f0e1a5","64b003020eef62ee308107cc","64b032edeade55cc3d9b3c40","null","null","<p style=""font-size: 60px; font-family: BACS"">dmZvmkbu</p>","","","","","","","",""
"html-keyboard-response","21","189747","0.0-7.0-0.14","60ddf71e95896d2595f0e1a5","64b003020eef62ee308107cc","64b032edeade55cc3d9b3c40","null","null","<p style=""font-size: 60px; font-family: BACS"">cuOJbrkra</p>","","","","","","","",""
"html-keyboard-response","22","190748","0.0-7.0-0.15","60ddf71e95896d2595f0e1a5","64b003020eef62ee308107cc","64b032edeade55cc3d9b3c40","null","null","<p style=""font-size: 60px; font-family: BACS"">hlkTBCAd</p>","","","","","","","",""
"html-keyboard-response","23","191764","0.0-7.0-0.16","60ddf71e95896d2595f0e1a5","64b003020eef62ee308107cc","64b032edeade55cc3d9b3c40","null","null","<p style=""font-size: 60px; font-family: BACS"">tRdMAPEM</p>","","","","","","","",""
"html-keyboard-response","24","192765","0.0-7.0-0.17","60ddf71e95896d2595f0e1a5","64b003020eef62ee308107cc","64b032edeade55cc3d9b3c40","null","null","<p style=""font-size: 60px; font-family: BACS"">MTdYCdt</p>","","","","","","","",""
"html-keyboard-response","25","193766","0.0-7.0-0.18","60ddf71e95896d2595f0e1a5","64b003020eef62ee308107cc","64b032edeade55cc3d9b3c40","null","null","<p style=""font-size: 60px; font-family: BACS"">KAERMAPEM</p>","","","","","","","",""
"html-keyboard-response","26","194768","0.0-7.0-0.19","60ddf71e95896d2595f0e1a5","64b003020eef62ee308107cc","64b032edeade55cc3d9b3c40","null","null","<p style=""font-size: 60px; font-family: BACS"">YJkbuUmb</p>","","","","","","","",""
"html-keyboard-response","27","195776","0.0-7.0-0.20","60ddf71e95896d2595f0e1a5","64b003020eef62ee308107cc","64b032edeade55cc3d9b3c40","null","null","<p style=""font-size: 60px; font-family: BACS"">cuOJbrGl</p>","","","","","","","",""
"html-keyboard-response","28","196788","0.0-7.0-0.21","60ddf71e95896d2595f0e1a5","64b003020eef62ee308107cc","64b032edeade55cc3d9b3c40","null","null","<p style=""font-size: 60px; font-family: BACS"">OLJblkbu</p>","","","","","","","",""
"html-keyboard-response","29","197789","0.0-7.0-0.22","60ddf71e95896d2595f0e1a5","64b003020eef62ee308107cc","64b032edeade55cc3d9b3c40","null","null","<p style=""font-size: 60px; font-family: BACS"">BlmclBCAd</p>","","","","","","","",""
"html-keyboard-response","30","198791","0.0-7.0-0.23","60ddf71e95896d2595f0e1a5","64b003020eef62ee308107cc","64b032edeade55cc3d9b3c40","null","null","<p style=""font-size: 60px; font-family: BACS"">tRdMCdt</p>","","","","","","","",""
"html-keyboard-response","31","199805","0.0-7.0-0.24","60ddf71e95896d2595f0e1a5","64b003020eef62ee308107cc","64b032edeade55cc3d9b3c40","null","null","<p style=""font-size: 60px; font-family: BACS"">NLQGmkbu</p>","","","","","","","",""
"html-keyboard-response","32","200807","0.0-7.0-0.25","60ddf71e95896d2595f0e1a5","64b003020eef62ee308107cc","64b032edeade55cc3d9b3c40","null","null","<p style=""font-size: 60px; font-family: BACS"">BlmclCdt</p>","","","","","","","",""
"html-keyboard-response","33","201812","0.0-7.0-0.26","60ddf71e95896d2595f0e1a5","64b003020eef62ee308107cc","64b032edeade55cc3d9b3c40","null","null","<p style=""font-size: 60px; font-family: BACS"">NLQGmrkra</p>","","","","","","","",""
"html-keyboard-response","34","202814","0.0-7.0-0.27","60ddf71e95896d2595f0e1a5","64b003020eef62ee308107cc","64b032edeade55cc3d9b3c40","null","null","<p style=""font-size: 60px; font-family: BACS"">BlmclEKBO</p>","","","","","","","",""
"html-keyboard-response","35","203816","0.0-7.0-0.28","60ddf71e95896d2595f0e1a5","64b003020eef62ee308107cc","64b032edeade55cc3d9b3c40","null","null","<p style=""font-size: 60px; font-family: BACS"">ZcGdNYZUZ</p>","","","","","","","",""
"html-keyboard-response","36","204826","0.0-7.0-0.29","60ddf71e95896d2595f0e1a5","64b003020eef62ee308107cc","64b032edeade55cc3d9b3c40","null","null","<p style=""font-size: 60px; font-family: BACS"">BlmclEAO</p>","","","","","","","",""
"html-keyboard-response","37","205827","0.0-7.0-0.30","60ddf71e95896d2595f0e1a5","64b003020eef62ee308107cc","64b032edeade55cc3d9b3c40","null","null","<p style=""font-size: 60px; font-family: BACS"">dmZvmYZUZ</p>","","","","","","","",""
"html-keyboard-response","38","206836","0.0-7.0-0.31","60ddf71e95896d2595f0e1a5","64b003020eef62ee308107cc","64b032edeade55cc3d9b3c40","null","null","<p style=""font-size: 60px; font-family: BACS"">TObCOEKBO</p>","","","","","","","",""
"html-keyboard-response","39","207849","0.0-7.0-0.32","60ddf71e95896d2595f0e1a5","64b003020eef62ee308107cc","64b032edeade55cc3d9b3c40","null","null","<p style=""font-size: 60px; font-family: BACS"">hlkTCdt</p>","","","","","","","",""
"html-keyboard-response","40","208850","0.0-7.0-0.33","60ddf71e95896d2595f0e1a5","64b003020eef62ee308107cc","64b032edeade55cc3d9b3c40","null","null","<p style=""font-size: 60px; font-family: BACS"">UaYLkbu</p>","","","","","","","",""
"html-keyboard-response","41","209850","0.0-7.0-0.34","60ddf71e95896d2595f0e1a5","64b003020eef62ee308107cc","64b032edeade55cc3d9b3c40","null","null","<p style=""font-size: 60px; font-family: BACS"">RtRhEKBO</p>","","","","","","","",""
"html-keyboard-response","42","210852","0.0-7.0-0.35","60ddf71e95896d2595f0e1a5","64b003020eef62ee308107cc","64b032edeade55cc3d9b3c40","null","null","<p style=""font-size: 60px; font-family: BACS"">OLJblrGl</p>","","","","","","","",""
"html-keyboard-response","43","211863","0.0-7.0-0.36","60ddf71e95896d2595f0e1a5","64b003020eef62ee308107cc","64b032edeade55cc3d9b3c40","null","null","<p style=""font-size: 60px; font-family: BACS"">advYOYZUZ</p>","","","","","","","",""
"html-keyboard-response","44","212877","0.0-7.0-0.37","60ddf71e95896d2595f0e1a5","64b003020eef62ee308107cc","64b032edeade55cc3d9b3c40","null","null","<p style=""font-size: 60px; font-family: BACS"">ECtbDEKBO</p>","","","","","","","",""
"html-keyboard-response","45","213887","0.0-7.0-0.38","60ddf71e95896d2595f0e1a5","64b003020eef62ee308107cc","64b032edeade55cc3d9b3c40","null","null","<p style=""font-size: 60px; font-family: BACS"">advYOrGl</p>","","","","","","","",""
"html-keyboard-response","46","214889","0.0-7.0-0.39","60ddf71e95896d2595f0e1a5","64b003020eef62ee308107cc","64b032edeade55cc3d9b3c40","null","null","<p style=""font-size: 60px; font-family: BACS"">vmuLluUmb</p>","","","","","","","",""
"html-keyboard-response","47","215894","0.0-7.0-0.40","60ddf71e95896d2595f0e1a5","64b003020eef62ee308107cc","64b032edeade55cc3d9b3c40","null","null","<p style=""font-size: 60px; font-family: BACS"">cuOJbkbu</p>","","","","","","","",""
"html-keyboard-response","48","216895","0.0-7.0-0.41","60ddf71e95896d2595f0e1a5","64b003020eef62ee308107cc","64b032edeade55cc3d9b3c40","null","null","<p style=""font-size: 60px; font-family: BACS"">hlkTAPEM</p>","","","","","","","",""
"html-keyboard-response","49","217896","0.0-7.0-0.42","60ddf71e95896d2595f0e1a5","64b003020eef62ee308107cc","64b032edeade55cc3d9b3c40","null","null","<p style=""font-size: 60px; font-family: BACS"">vmuLlrGl</p>","","","","","","","",""
"html-keyboard-response","50","218903","0.0-7.0-0.43","60ddf71e95896d2595f0e1a5","64b003020eef62ee308107cc","64b032edeade55cc3d9b3c40","null","null","<p style=""font-size: 60px; font-family: BACS"">UaYLrkra</p>","","","","","","","",""
"html-keyboard-response","51","219904","0.0-7.0-0.44","60ddf71e95896d2595f0e1a5","64b003020eef62ee308107cc","64b032edeade55cc3d9b3c40","null","null","<p style=""font-size: 60px; font-family: BACS"">YJkbYZUZ</p>","","","","","","","",""
"html-keyboard-response","52","220909","0.0-7.0-0.45","60ddf71e95896d2595f0e1a5","64b003020eef62ee308107cc","64b032edeade55cc3d9b3c40","null","null","<p style=""font-size: 60px; font-family: BACS"">TObCOAPEM</p>","","","","","","","",""
"html-keyboard-response","53","221911","0.0-7.0-0.46","60ddf71e95896d2595f0e1a5","64b003020eef62ee308107cc","64b032edeade55cc3d9b3c40","null","null","<p style=""font-size: 60px; font-family: BACS"">vmuLlrkra</p>","","","","","","","",""
"html-keyboard-response","54","222914","0.0-7.0-0.47","60ddf71e95896d2595f0e1a5","64b003020eef62ee308107cc","64b032edeade55cc3d9b3c40","null","null","<p style=""font-size: 60px; font-family: BACS"">UaYLYZUZ</p>","","","","","","","",""
"html-keyboard-response","55","223924","0.0-7.0-0.48","60ddf71e95896d2595f0e1a5","64b003020eef62ee308107cc","64b032edeade55cc3d9b3c40","null","null","<p style=""font-size: 60px; font-family: BACS"">BOckPAPEM</p>","","","","","","","",""
"html-keyboard-response","56","224924","0.0-7.0-0.49","60ddf71e95896d2595f0e1a5","64b003020eef62ee308107cc","64b032edeade55cc3d9b3c40","null","null","<p style=""font-size: 60px; font-family: BACS"">cuOJbYZUZ</p>","","","","","","","",""
"html-keyboard-response","57","225925","0.0-7.0-0.50","60ddf71e95896d2595f0e1a5","64b003020eef62ee308107cc","64b032edeade55cc3d9b3c40","null","null","<p style=""font-size: 60px; font-family: BACS"">BOckPBCAd</p>","","","","","","","",""
"html-keyboard-response","58","226926","0.0-7.0-0.51","60ddf71e95896d2595f0e1a5","64b003020eef62ee308107cc","64b032edeade55cc3d9b3c40","null","null","<p style=""font-size: 60px; font-family: BACS"">TObCOEAO</p>","","","","","","","",""
"html-keyboard-response","59","227928","0.0-7.0-0.52","60ddf71e95896d2595f0e1a5","64b003020eef62ee308107cc","64b032edeade55cc3d9b3c40","null","null","<p style=""font-size: 60px; font-family: BACS"">YJkbkbu</p>","","","","","","","",""
"html-keyboard-response","60","228930","0.0-7.0-0.53","60ddf71e95896d2595f0e1a5","64b003020eef62ee308107cc","64b032edeade55cc3d9b3c40","null","null","<p style=""font-size: 60px; font-family: BACS"">TObCOCdt</p>","","","","","","","",""
"html-keyboard-response","61","229931","0.0-7.0-0.54","60ddf71e95896d2595f0e1a5","64b003020eef62ee308107cc","64b032edeade55cc3d9b3c40","null","null","<p style=""font-size: 60px; font-family: BACS"">OLJbluUmb</p>","","","","","","","",""
"html-keyboard-response","62","230942","0.0-7.0-0.55","60ddf71e95896d2595f0e1a5","64b003020eef62ee308107cc","64b032edeade55cc3d9b3c40","null","null","<p style=""font-size: 60px; font-family: BACS"">KAERMEAO</p>","","","","","","","",""
"html-keyboard-response","63","231944","0.0-7.0-0.56","60ddf71e95896d2595f0e1a5","64b003020eef62ee308107cc","64b032edeade55cc3d9b3c40","null","null","<p style=""font-size: 60px; font-family: BACS"">hlkTEKBO</p>","","","","","","","",""
"html-keyboard-response","64","232956","0.0-7.0-0.57","60ddf71e95896d2595f0e1a5","64b003020eef62ee308107cc","64b032edeade55cc3d9b3c40","null","null","<p style=""font-size: 60px; font-family: BACS"">ZcGdNrGl</p>","","","","","","","",""
"html-keyboard-response","65","233969","0.0-7.0-0.58","60ddf71e95896d2595f0e1a5","64b003020eef62ee308107cc","64b032edeade55cc3d9b3c40","null","null","<p style=""font-size: 60px; font-family: BACS"">MTdYBCAd</p>","","","","","","","",""
"html-keyboard-response","66","234981","0.0-7.0-0.59","60ddf71e95896d2595f0e1a5","64b003020eef62ee308107cc","64b032edeade55cc3d9b3c40","null","null","<p style=""font-size: 60px; font-family: BACS"">kGlUkbu</p>","","","","","","","",""
"html-keyboard-response","67","235994","0.0-7.0-0.60","60ddf71e95896d2595f0e1a5","64b003020eef62ee308107cc","64b032edeade55cc3d9b3c40","null","null","<p style=""font-size: 60px; font-family: BACS"">dmZvmuUmb</p>","","","","","","","",""
"html-keyboard-response","68","236995","0.0-7.0-0.61","60ddf71e95896d2595f0e1a5","64b003020eef62ee308107cc","64b032edeade55cc3d9b3c40","null","null","<p style=""font-size: 60px; font-family: BACS"">RtRhBCAd</p>","","","","","","","",""
"html-keyboard-response","69","237996","0.0-7.0-0.62","60ddf71e95896d2595f0e1a5","64b003020eef62ee308107cc","64b032edeade55cc3d9b3c40","null","null","<p style=""font-size: 60px; font-family: BACS"">MTdYEAO</p>","","","","","","","",""
"html-keyboard-response","70","239004","0.0-7.0-0.63","60ddf71e95896d2595f0e1a5","64b003020eef62ee308107cc","64b032edeade55cc3d9b3c40","null","null","<p style=""font-size: 60px; font-family: BACS"">NLQGmYZUZ</p>","","","","","","","",""
"html-keyboard-response","71","240005","0.0-7.0-0.64","60ddf71e95896d2595f0e1a5","64b003020eef62ee308107cc","64b032edeade55cc3d9b3c40","null","null","<p style=""font-size: 60px; font-family: BACS"">kGlUrkra</p>","","","","","","","",""
"html-keyboard-response","72","241011","0.0-7.0-0.65","60ddf71e95896d2595f0e1a5","64b003020eef62ee308107cc","64b032edeade55cc3d9b3c40","null","null","<p style=""font-size: 60px; font-family: BACS"">hTtBbEKBO</p>","","","","","","","",""
"html-keyboard-response","73","242012","0.0-7.0-0.66","60ddf71e95896d2595f0e1a5","64b003020eef62ee308107cc","64b032edeade55cc3d9b3c40","null","null","<p style=""font-size: 60px; font-family: BACS"">ZcGdNrkra</p>","","","","","","","",""
"html-keyboard-response","74","243022","0.0-7.0-0.67","60ddf71e95896d2595f0e1a5","64b003020eef62ee308107cc","64b032edeade55cc3d9b3c40","null","null","<p style=""font-size: 60px; font-family: BACS"">advYOuUmb</p>","","","","","","","",""
"html-keyboard-response","75","244023","0.0-7.0-0.68","60ddf71e95896d2595f0e1a5","64b003020eef62ee308107cc","64b032edeade55cc3d9b3c40","null","null","<p style=""font-size: 60px; font-family: BACS"">ECtbDEAO</p>","","","","","","","",""
"html-keyboard-response","76","245029","0.0-7.0-0.69","60ddf71e95896d2595f0e1a5","64b003020eef62ee308107cc","64b032edeade55cc3d9b3c40","null","null","<p style=""font-size: 60px; font-family: BACS"">kGlUrGl</p>","","","","","","","",""
"html-keyboard-response","77","246030","0.0-7.0-0.70","60ddf71e95896d2595f0e1a5","64b003020eef62ee308107cc","64b032edeade55cc3d9b3c40","null","null","<p style=""font-size: 60px; font-family: BACS"">ECtbDBCAd</p>","","","","","","","",""
"html-keyboard-response","78","247030","0.0-7.0-0.71","60ddf71e95896d2595f0e1a5","64b003020eef62ee308107cc","64b032edeade55cc3d9b3c40","null","null","<p style=""font-size: 60px; font-family: BACS"">dmZvmrkra</p>","","","","","","","",""
"html-keyboard-response","79","248031","0.0-7.0-0.72","60ddf71e95896d2595f0e1a5","64b003020eef62ee308107cc","64b032edeade55cc3d9b3c40","null","null","<p style=""font-size: 60px; font-family: BACS"">UaYLuUmb</p>","","","","","","","",""
"html-keyboard-response","80","249032","0.0-7.0-0.73","60ddf71e95896d2595f0e1a5","64b003020eef62ee308107cc","64b032edeade55cc3d9b3c40","null","null","<p style=""font-size: 60px; font-family: BACS"">vmuLlYZUZ</p>","","","","","","","",""
"html-keyboard-response","81","250033","0.0-7.0-0.74","60ddf71e95896d2595f0e1a5","64b003020eef62ee308107cc","64b032edeade55cc3d9b3c40","null","null","<p style=""font-size: 60px; font-family: BACS"">BOckPEKBO</p>","","","","","","","",""
"html-keyboard-response","82","251045","0.0-7.0-0.75","60ddf71e95896d2595f0e1a5","64b003020eef62ee308107cc","64b032edeade55cc3d9b3c40","null","null","<p style=""font-size: 60px; font-family: BACS"">YJkbrGl</p>","","","","","","","",""
"html-keyboard-response","83","252046","0.0-7.0-0.76","60ddf71e95896d2595f0e1a5","64b003020eef62ee308107cc","64b032edeade55cc3d9b3c40","null","null","<p style=""font-size: 60px; font-family: BACS"">ZcGdNuUmb</p>","","","","","","","",""
"html-keyboard-response","84","253048","0.0-7.0-0.77","60ddf71e95896d2595f0e1a5","64b003020eef62ee308107cc","64b032edeade55cc3d9b3c40","null","null","<p style=""font-size: 60px; font-family: BACS"">hTtBbAPEM</p>","","","","","","","",""
"html-keyboard-response","85","254060","0.0-7.0-0.78","60ddf71e95896d2595f0e1a5","64b003020eef62ee308107cc","64b032edeade55cc3d9b3c40","null","null","<p style=""font-size: 60px; font-family: BACS"">RtRhCdt</p>","","","","","","","",""
"html-keyboard-response","86","255062","0.0-7.0-0.79","60ddf71e95896d2595f0e1a5","64b003020eef62ee308107cc","64b032edeade55cc3d9b3c40","null","null","<p style=""font-size: 60px; font-family: BACS"">KAERMBCAd</p>","","","","","","","",""
"html-keyboard-response","87","261285","0.0-8.0","60ddf71e95896d2595f0e1a5","64b003020eef62ee308107cc","64b032edeade55cc3d9b3c40","6223"," ","<p>Ottimo, hai visto il primo blocco di parole. Ora puoi prenderti una piccola pausa.</p>
      <p>Premi la barra quando sei pronta/o per riprendere.</p>","","","","","","","",""
"html-keyboard-response","88","262293","0.0-9.0-0.0","60ddf71e95896d2595f0e1a5","64b003020eef62ee308107cc","64b032edeade55cc3d9b3c40","null","null","<p style=""font-size: 60px; font-family: BACS"">NLQGmrGl</p>","","","","","","","",""
"html-keyboard-response","89","263295","0.0-9.0-0.1","60ddf71e95896d2595f0e1a5","64b003020eef62ee308107cc","64b032edeade55cc3d9b3c40","null","null","<p style=""font-size: 60px; font-family: BACS"">hTtBbCdt</p>","","","","","","","",""
"html-keyboard-response","90","264296","0.0-9.0-0.2","60ddf71e95896d2595f0e1a5","64b003020eef62ee308107cc","64b032edeade55cc3d9b3c40","null","null","<p style=""font-size: 60px; font-family: BACS"">ECtbDBCAd</p>","","","","","","","",""
"html-keyboard-response","91","265298","0.0-9.0-0.3","60ddf71e95896d2595f0e1a5","64b003020eef62ee308107cc","64b032edeade55cc3d9b3c40","null","null","<p style=""font-size: 60px; font-family: BACS"">advYOrGl</p>","","","","","","","",""
"html-keyboard-response","92","266298","0.0-9.0-0.4","60ddf71e95896d2595f0e1a5","64b003020eef62ee308107cc","64b032edeade55cc3d9b3c40","null","null","<p style=""font-size: 60px; font-family: BACS"">NLQGmrkra</p>","","","","","","","",""
"html-keyboard-response","93","267299","0.0-9.0-0.5","60ddf71e95896d2595f0e1a5","64b003020eef62ee308107cc","64b032edeade55cc3d9b3c40","null","null","<p style=""font-size: 60px; font-family: BACS"">cuOJbrGl</p>","","","","","","","",""
"html-keyboard-response","94","268311","0.0-9.0-0.6","60ddf71e95896d2595f0e1a5","64b003020eef62ee308107cc","64b032edeade55cc3d9b3c40","null","null","<p style=""font-size: 60px; font-family: BACS"">vmuLluUmb</p>","","","","","","","",""
"html-keyboard-response","95","269312","0.0-9.0-0.7","60ddf71e95896d2595f0e1a5","64b003020eef62ee308107cc","64b032edeade55cc3d9b3c40","null","null","<p style=""font-size: 60px; font-family: BACS"">OLJblrkra</p>","","","","","","","",""
"html-keyboard-response","96","270313","0.0-9.0-0.8","60ddf71e95896d2595f0e1a5","64b003020eef62ee308107cc","64b032edeade55cc3d9b3c40","null","null","<p style=""font-size: 60px; font-family: BACS"">dmZvmYZUZ</p>","","","","","","","",""
"html-keyboard-response","97","271314","0.0-9.0-0.9","60ddf71e95896d2595f0e1a5","64b003020eef62ee308107cc","64b032edeade55cc3d9b3c40","null","null","<p style=""font-size: 60px; font-family: BACS"">hlkTCdt</p>","","","","","","","",""
"html-keyboard-response","98","272315","0.0-9.0-0.10","60ddf71e95896d2595f0e1a5","64b003020eef62ee308107cc","64b032edeade55cc3d9b3c40","null","null","<p style=""font-size: 60px; font-family: BACS"">ZcGdNuUmb</p>","","","","","","","",""
"html-keyboard-response","99","273317","0.0-9.0-0.11","60ddf71e95896d2595f0e1a5","64b003020eef62ee308107cc","64b032edeade55cc3d9b3c40","null","null","<p style=""font-size: 60px; font-family: BACS"">vmuLlrGl</p>","","","","","","","",""
"html-keyboard-response","100","274319","0.0-9.0-0.12","60ddf71e95896d2595f0e1a5","64b003020eef62ee308107cc","64b032edeade55cc3d9b3c40","null","null","<p style=""font-size: 60px; font-family: BACS"">ECtbDEAO</p>","","","","","","","",""
"html-keyboard-response","101","275322","0.0-9.0-0.13","60ddf71e95896d2595f0e1a5","64b003020eef62ee308107cc","64b032edeade55cc3d9b3c40","null","null","<p style=""font-size: 60px; font-family: BACS"">UaYLrkra</p>","","","","","","","",""
"html-keyboard-response","102","276323","0.0-9.0-0.14","60ddf71e95896d2595f0e1a5","64b003020eef62ee308107cc","64b032edeade55cc3d9b3c40","null","null","<p style=""font-size: 60px; font-family: BACS"">advYOkbu</p>","","","","","","","",""
"html-keyboard-response","103","277326","0.0-9.0-0.15","60ddf71e95896d2595f0e1a5","64b003020eef62ee308107cc","64b032edeade55cc3d9b3c40","null","null","<p style=""font-size: 60px; font-family: BACS"">KAERMAPEM</p>","","","","","","","",""
"html-keyboard-response","104","278329","0.0-9.0-0.16","60ddf71e95896d2595f0e1a5","64b003020eef62ee308107cc","64b032edeade55cc3d9b3c40","null","null","<p style=""font-size: 60px; font-family: BACS"">hlkTEKBO</p>","","","","","","","",""
"html-keyboard-response","105","279342","0.0-9.0-0.17","60ddf71e95896d2595f0e1a5","64b003020eef62ee308107cc","64b032edeade55cc3d9b3c40","null","null","<p style=""font-size: 60px; font-family: BACS"">KAERMEAO</p>","","","","","","","",""
"html-keyboard-response","106","280343","0.0-9.0-0.18","60ddf71e95896d2595f0e1a5","64b003020eef62ee308107cc","64b032edeade55cc3d9b3c40","null","null","<p style=""font-size: 60px; font-family: BACS"">dmZvmuUmb</p>","","","","","","","",""
"html-keyboard-response","107","281344","0.0-9.0-0.19","60ddf71e95896d2595f0e1a5","64b003020eef62ee308107cc","64b032edeade55cc3d9b3c40","null","null","<p style=""font-size: 60px; font-family: BACS"">ZcGdNrGl</p>","","","","","","","",""
"html-keyboard-response","108","282345","0.0-9.0-0.20","60ddf71e95896d2595f0e1a5","64b003020eef62ee308107cc","64b032edeade55cc3d9b3c40","null","null","<p style=""font-size: 60px; font-family: BACS"">ECtbDAPEM</p>","","","","","","","",""
"html-keyboard-response","109","283347","0.0-9.0-0.21","60ddf71e95896d2595f0e1a5","64b003020eef62ee308107cc","64b032edeade55cc3d9b3c40","null","null","<p style=""font-size: 60px; font-family: BACS"">YJkbYZUZ</p>","","","","","","","",""
"html-keyboard-response","110","284359","0.0-9.0-0.22","60ddf71e95896d2595f0e1a5","64b003020eef62ee308107cc","64b032edeade55cc3d9b3c40","null","null","<p style=""font-size: 60px; font-family: BACS"">kGlUrGl</p>","","","","","","","",""
"html-keyboard-response","111","285360","0.0-9.0-0.23","60ddf71e95896d2595f0e1a5","64b003020eef62ee308107cc","64b032edeade55cc3d9b3c40","null","null","<p style=""font-size: 60px; font-family: BACS"">vmuLlrkra</p>","","","","","","","",""
"html-keyboard-response","112","286362","0.0-9.0-0.24","60ddf71e95896d2595f0e1a5","64b003020eef62ee308107cc","64b032edeade55cc3d9b3c40","null","null","<p style=""font-size: 60px; font-family: BACS"">UaYLkbu</p>","","","","","","","",""
"html-keyboard-response","113","287377","0.0-9.0-0.25","60ddf71e95896d2595f0e1a5","64b003020eef62ee308107cc","64b032edeade55cc3d9b3c40","null","null","<p style=""font-size: 60px; font-family: BACS"">RtRhEKBO</p>","","","","","","","",""
"html-keyboard-response","114","288378","0.0-9.0-0.26","60ddf71e95896d2595f0e1a5","64b003020eef62ee308107cc","64b032edeade55cc3d9b3c40","null","null","<p style=""font-size: 60px; font-family: BACS"">OLJblkbu</p>","","","","","","","",""
"html-keyboard-response","115","289380","0.0-9.0-0.27","60ddf71e95896d2595f0e1a5","64b003020eef62ee308107cc","64b032edeade55cc3d9b3c40","null","null","<p style=""font-size: 60px; font-family: BACS"">tRdMBCAd</p>","","","","","","","",""
"html-keyboard-response","116","290389","0.0-9.0-0.28","60ddf71e95896d2595f0e1a5","64b003020eef62ee308107cc","64b032edeade55cc3d9b3c40","null","null","<p style=""font-size: 60px; font-family: BACS"">RtRhCdt</p>","","","","","","","",""
"html-keyboard-response","117","291390","0.0-9.0-0.29","60ddf71e95896d2595f0e1a5","64b003020eef62ee308107cc","64b032edeade55cc3d9b3c40","null","null","<p style=""font-size: 60px; font-family: BACS"">BlmclEKBO</p>","","","","","","","",""
"html-keyboard-response","118","292394","0.0-9.0-0.30","60ddf71e95896d2595f0e1a5","64b003020eef62ee308107cc","64b032edeade55cc3d9b3c40","null","null","<p style=""font-size: 60px; font-family: BACS"">MTdYAPEM</p>","","","","","","","",""
"html-keyboard-response","119","293395","0.0-9.0-0.31","60ddf71e95896d2595f0e1a5","64b003020eef62ee308107cc","64b032edeade55cc3d9b3c40","null","null","<p style=""font-size: 60px; font-family: BACS"">hlkTBCAd</p>","","","","","","","",""
"html-keyboard-response","120","294411","0.0-9.0-0.32","60ddf71e95896d2595f0e1a5","64b003020eef62ee308107cc","64b032edeade55cc3d9b3c40","null","null","<p style=""font-size: 60px; font-family: BACS"">cuOJbrkra</p>","","","","","","","",""
"html-keyboard-response","121","295411","0.0-9.0-0.33","60ddf71e95896d2595f0e1a5","64b003020eef62ee308107cc","64b032edeade55cc3d9b3c40","null","null","<p style=""font-size: 60px; font-family: BACS"">KAERMBCAd</p>","","","","","","","",""
"html-keyboard-response","122","296412","0.0-9.0-0.34","60ddf71e95896d2595f0e1a5","64b003020eef62ee308107cc","64b032edeade55cc3d9b3c40","null","null","<p style=""font-size: 60px; font-family: BACS"">OLJblrGl</p>","","","","","","","",""
"html-keyboard-response","123","297413","0.0-9.0-0.35","60ddf71e95896d2595f0e1a5","64b003020eef62ee308107cc","64b032edeade55cc3d9b3c40","null","null","<p style=""font-size: 60px; font-family: BACS"">kGlUuUmb</p>","","","","","","","",""
"html-keyboard-response","124","298427","0.0-9.0-0.36","60ddf71e95896d2595f0e1a5","64b003020eef62ee308107cc","64b032edeade55cc3d9b3c40","null","null","<p style=""font-size: 60px; font-family: BACS"">tRdMAPEM</p>","","","","","","","",""
"html-keyboard-response","125","299428","0.0-9.0-0.37","60ddf71e95896d2595f0e1a5","64b003020eef62ee308107cc","64b032edeade55cc3d9b3c40","null","null","<p style=""font-size: 60px; font-family: BACS"">hTtBbEAO</p>","","","","","","","",""
"html-keyboard-response","126","300429","0.0-9.0-0.38","60ddf71e95896d2595f0e1a5","64b003020eef62ee308107cc","64b032edeade55cc3d9b3c40","null","null","<p style=""font-size: 60px; font-family: BACS"">TObCOCdt</p>","","","","","","","",""
"html-keyboard-response","127","301430","0.0-9.0-0.39","60ddf71e95896d2595f0e1a5","64b003020eef62ee308107cc","64b032edeade55cc3d9b3c40","null","null","<p style=""font-size: 60px; font-family: BACS"">NLQGmYZUZ</p>","","","","","","","",""
"html-keyboard-response","128","302437","0.0-9.0-0.40","60ddf71e95896d2595f0e1a5","64b003020eef62ee308107cc","64b032edeade55cc3d9b3c40","null","null","<p style=""font-size: 60px; font-family: BACS"">TObCOEKBO</p>","","","","","","","",""
"html-keyboard-response","129","303438","0.0-9.0-0.41","60ddf71e95896d2595f0e1a5","64b003020eef62ee308107cc","64b032edeade55cc3d9b3c40","null","null","<p style=""font-size: 60px; font-family: BACS"">BlmclBCAd</p>","","","","","","","",""
"html-keyboard-response","130","304440","0.0-9.0-0.42","60ddf71e95896d2595f0e1a5","64b003020eef62ee308107cc","64b032edeade55cc3d9b3c40","null","null","<p style=""font-size: 60px; font-family: BACS"">TObCOAPEM</p>","","","","","","","",""
"html-keyboard-response","131","305449","0.0-9.0-0.43","60ddf71e95896d2595f0e1a5","64b003020eef62ee308107cc","64b032edeade55cc3d9b3c40","null","null","<p style=""font-size: 60px; font-family: BACS"">cuOJbkbu</p>","","","","","","","",""
"html-keyboard-response","132","306450","0.0-9.0-0.44","60ddf71e95896d2595f0e1a5","64b003020eef62ee308107cc","64b032edeade55cc3d9b3c40","null","null","<p style=""font-size: 60px; font-family: BACS"">TObCOEAO</p>","","","","","","","",""
"html-keyboard-response","133","307453","0.0-9.0-0.45","60ddf71e95896d2595f0e1a5","64b003020eef62ee308107cc","64b032edeade55cc3d9b3c40","null","null","<p style=""font-size: 60px; font-family: BACS"">MTdYCdt</p>","","","","","","","",""
"html-keyboard-response","134","308455","0.0-9.0-0.46","60ddf71e95896d2595f0e1a5","64b003020eef62ee308107cc","64b032edeade55cc3d9b3c40","null","null","<p style=""font-size: 60px; font-family: BACS"">vmuLlYZUZ</p>","","","","","","","",""
"html-keyboard-response","135","309458","0.0-9.0-0.47","60ddf71e95896d2595f0e1a5","64b003020eef62ee308107cc","64b032edeade55cc3d9b3c40","null","null","<p style=""font-size: 60px; font-family: BACS"">BOckPAPEM</p>","","","","","","","",""
"html-keyboard-response","136","310460","0.0-9.0-0.48","60ddf71e95896d2595f0e1a5","64b003020eef62ee308107cc","64b032edeade55cc3d9b3c40","null","null","<p style=""font-size: 60px; font-family: BACS"">kGlUrkra</p>","","","","","","","",""
"html-keyboard-response","137","311461","0.0-9.0-0.49","60ddf71e95896d2595f0e1a5","64b003020eef62ee308107cc","64b032edeade55cc3d9b3c40","null","null","<p style=""font-size: 60px; font-family: BACS"">hTtBbAPEM</p>","","","","","","","",""
"html-keyboard-response","138","312462","0.0-9.0-0.50","60ddf71e95896d2595f0e1a5","64b003020eef62ee308107cc","64b032edeade55cc3d9b3c40","null","null","<p style=""font-size: 60px; font-family: BACS"">RtRhEAO</p>","","","","","","","",""
"html-keyboard-response","139","313468","0.0-9.0-0.51","60ddf71e95896d2595f0e1a5","64b003020eef62ee308107cc","64b032edeade55cc3d9b3c40","null","null","<p style=""font-size: 60px; font-family: BACS"">KAERMEKBO</p>","","","","","","","",""
"html-keyboard-response","140","314469","0.0-9.0-0.52","60ddf71e95896d2595f0e1a5","64b003020eef62ee308107cc","64b032edeade55cc3d9b3c40","null","null","<p style=""font-size: 60px; font-family: BACS"">BOckPCdt</p>","","","","","","","",""
"html-keyboard-response","141","315479","0.0-9.0-0.53","60ddf71e95896d2595f0e1a5","64b003020eef62ee308107cc","64b032edeade55cc3d9b3c40","null","null","<p style=""font-size: 60px; font-family: BACS"">YJkbuUmb</p>","","","","","","","",""
"html-keyboard-response","142","316480","0.0-9.0-0.54","60ddf71e95896d2595f0e1a5","64b003020eef62ee308107cc","64b032edeade55cc3d9b3c40","null","null","<p style=""font-size: 60px; font-family: BACS"">advYOYZUZ</p>","","","","","","","",""
"html-keyboard-response","143","317492","0.0-9.0-0.55","60ddf71e95896d2595f0e1a5","64b003020eef62ee308107cc","64b032edeade55cc3d9b3c40","null","null","<p style=""font-size: 60px; font-family: BACS"">tRdMEAO</p>","","","","","","","",""
"html-keyboard-response","144","318503","0.0-9.0-0.56","60ddf71e95896d2595f0e1a5","64b003020eef62ee308107cc","64b032edeade55cc3d9b3c40","null","null","<p style=""font-size: 60px; font-family: BACS"">hTtBbEKBO</p>","","","","","","","",""
"html-keyboard-response","145","319508","0.0-9.0-0.57","60ddf71e95896d2595f0e1a5","64b003020eef62ee308107cc","64b032edeade55cc3d9b3c40","null","null","<p style=""font-size: 60px; font-family: BACS"">cuOJbYZUZ</p>","","","","","","","",""
"html-keyboard-response","146","320521","0.0-9.0-0.58","60ddf71e95896d2595f0e1a5","64b003020eef62ee308107cc","64b032edeade55cc3d9b3c40","null","null","<p style=""font-size: 60px; font-family: BACS"">dmZvmrkra</p>","","","","","","","",""
"html-keyboard-response","147","321523","0.0-9.0-0.59","60ddf71e95896d2595f0e1a5","64b003020eef62ee308107cc","64b032edeade55cc3d9b3c40","null","null","<p style=""font-size: 60px; font-family: BACS"">YJkbrGl</p>","","","","","","","",""
"html-keyboard-response","148","322523","0.0-9.0-0.60","60ddf71e95896d2595f0e1a5","64b003020eef62ee308107cc","64b032edeade55cc3d9b3c40","null","null","<p style=""font-size: 60px; font-family: BACS"">ZcGdNrkra</p>","","","","","","","",""
"html-keyboard-response","149","323525","0.0-9.0-0.61","60ddf71e95896d2595f0e1a5","64b003020eef62ee308107cc","64b032edeade55cc3d9b3c40","null","null","<p style=""font-size: 60px; font-family: BACS"">tRdMCdt</p>","","","","","","","",""
"html-keyboard-response","150","324525","0.0-9.0-0.62","60ddf71e95896d2595f0e1a5","64b003020eef62ee308107cc","64b032edeade55cc3d9b3c40","null","null","<p style=""font-size: 60px; font-family: BACS"">NLQGmkbu</p>","","","","","","","",""
"html-keyboard-response","151","325527","0.0-9.0-0.63","60ddf71e95896d2595f0e1a5","64b003020eef62ee308107cc","64b032edeade55cc3d9b3c40","null","null","<p style=""font-size: 60px; font-family: BACS"">BlmclCdt</p>","","","","","","","",""
"html-keyboard-response","152","326528","0.0-9.0-0.64","60ddf71e95896d2595f0e1a5","64b003020eef62ee308107cc","64b032edeade55cc3d9b3c40","null","null","<p style=""font-size: 60px; font-family: BACS"">hlkTAPEM</p>","","","","","","","",""
"html-keyboard-response","153","327529","0.0-9.0-0.65","60ddf71e95896d2595f0e1a5","64b003020eef62ee308107cc","64b032edeade55cc3d9b3c40","null","null","<p style=""font-size: 60px; font-family: BACS"">UaYLuUmb</p>","","","","","","","",""
"html-keyboard-response","154","328541","0.0-9.0-0.66","60ddf71e95896d2595f0e1a5","64b003020eef62ee308107cc","64b032edeade55cc3d9b3c40","null","null","<p style=""font-size: 60px; font-family: BACS"">kGlUkbu</p>","","","","","","","",""
"html-keyboard-response","155","329541","0.0-9.0-0.67","60ddf71e95896d2595f0e1a5","64b003020eef62ee308107cc","64b032edeade55cc3d9b3c40","null","null","<p style=""font-size: 60px; font-family: BACS"">UaYLYZUZ</p>","","","","","","","",""
"html-keyboard-response","156","330545","0.0-9.0-0.68","60ddf71e95896d2595f0e1a5","64b003020eef62ee308107cc","64b032edeade55cc3d9b3c40","null","null","<p style=""font-size: 60px; font-family: BACS"">BlmclEAO</p>","","","","","","","",""
"html-keyboard-response","157","331546","0.0-9.0-0.69","60ddf71e95896d2595f0e1a5","64b003020eef62ee308107cc","64b032edeade55cc3d9b3c40","null","null","<p style=""font-size: 60px; font-family: BACS"">BOckPEKBO</p>","","","","","","","",""
"html-keyboard-response","158","332552","0.0-9.0-0.70","60ddf71e95896d2595f0e1a5","64b003020eef62ee308107cc","64b032edeade55cc3d9b3c40","null","null","<p style=""font-size: 60px; font-family: BACS"">dmZvmkbu</p>","","","","","","","",""
"html-keyboard-response","159","333553","0.0-9.0-0.71","60ddf71e95896d2595f0e1a5","64b003020eef62ee308107cc","64b032edeade55cc3d9b3c40","null","null","<p style=""font-size: 60px; font-family: BACS"">BOckPBCAd</p>","","","","","","","",""
"html-keyboard-response","160","334554","0.0-9.0-0.72","60ddf71e95896d2595f0e1a5","64b003020eef62ee308107cc","64b032edeade55cc3d9b3c40","null","null","<p style=""font-size: 60px; font-family: BACS"">YJkbkbu</p>","","","","","","","",""
"html-keyboard-response","161","335555","0.0-9.0-0.73","60ddf71e95896d2595f0e1a5","64b003020eef62ee308107cc","64b032edeade55cc3d9b3c40","null","null","<p style=""font-size: 60px; font-family: BACS"">MTdYEAO</p>","","","","","","","",""
"html-keyboard-response","162","336569","0.0-9.0-0.74","60ddf71e95896d2595f0e1a5","64b003020eef62ee308107cc","64b032edeade55cc3d9b3c40","null","null","<p style=""font-size: 60px; font-family: BACS"">advYOuUmb</p>","","","","","","","",""
"html-keyboard-response","163","337570","0.0-9.0-0.75","60ddf71e95896d2595f0e1a5","64b003020eef62ee308107cc","64b032edeade55cc3d9b3c40","null","null","<p style=""font-size: 60px; font-family: BACS"">ZcGdNYZUZ</p>","","","","","","","",""
"html-keyboard-response","164","338586","0.0-9.0-0.76","60ddf71e95896d2595f0e1a5","64b003020eef62ee308107cc","64b032edeade55cc3d9b3c40","null","null","<p style=""font-size: 60px; font-family: BACS"">RtRhBCAd</p>","","","","","","","",""
"html-keyboard-response","165","339587","0.0-9.0-0.77","60ddf71e95896d2595f0e1a5","64b003020eef62ee308107cc","64b032edeade55cc3d9b3c40","null","null","<p style=""font-size: 60px; font-family: BACS"">ECtbDEKBO</p>","","","","","","","",""
"html-keyboard-response","166","340593","0.0-9.0-0.78","60ddf71e95896d2595f0e1a5","64b003020eef62ee308107cc","64b032edeade55cc3d9b3c40","null","null","<p style=""font-size: 60px; font-family: BACS"">MTdYBCAd</p>","","","","","","","",""
"html-keyboard-response","167","341604","0.0-9.0-0.79","60ddf71e95896d2595f0e1a5","64b003020eef62ee308107cc","64b032edeade55cc3d9b3c40","null","null","<p style=""font-size: 60px; font-family: BACS"">OLJbluUmb</p>","","","","","","","",""
"html-keyboard-response","168","363413","0.0-10.0","60ddf71e95896d2595f0e1a5","64b003020eef62ee308107cc","64b032edeade55cc3d9b3c40","21809"," ","<p>Ottimo, hai visto il secondo blocco di parole. Ora puoi prenderti una piccola pausa.</p>
      <p>Premi la barra quando sei pronta/o per riprendere.</p>","","","","","","","",""
"html-keyboard-response","169","364415","0.0-11.0-0.0","60ddf71e95896d2595f0e1a5","64b003020eef62ee308107cc","64b032edeade55cc3d9b3c40","null","null","<p style=""font-size: 60px; font-family: BACS"">cuOJbrkra</p>","","","","","","","",""
"html-keyboard-response","170","365416","0.0-11.0-0.1","60ddf71e95896d2595f0e1a5","64b003020eef62ee308107cc","64b032edeade55cc3d9b3c40","null","null","<p style=""font-size: 60px; font-family: BACS"">hTtBbEAO</p>","","","","","","","",""
"html-keyboard-response","171","366416","0.0-11.0-0.2","60ddf71e95896d2595f0e1a5","64b003020eef62ee308107cc","64b032edeade55cc3d9b3c40","null","null","<p style=""font-size: 60px; font-family: BACS"">ECtbDEKBO</p>","","","","","","","",""
"html-keyboard-response","172","367424","0.0-11.0-0.3","60ddf71e95896d2595f0e1a5","64b003020eef62ee308107cc","64b032edeade55cc3d9b3c40","null","null","<p style=""font-size: 60px; font-family: BACS"">ZcGdNuUmb</p>","","","","","","","",""
"html-keyboard-response","173","368425","0.0-11.0-0.4","60ddf71e95896d2595f0e1a5","64b003020eef62ee308107cc","64b032edeade55cc3d9b3c40","null","null","<p style=""font-size: 60px; font-family: BACS"">kGlUkbu</p>","","","","","","","",""
"html-keyboard-response","174","369427","0.0-11.0-0.5","60ddf71e95896d2595f0e1a5","64b003020eef62ee308107cc","64b032edeade55cc3d9b3c40","null","null","<p style=""font-size: 60px; font-family: BACS"">MTdYEAO</p>","","","","","","","",""
"html-keyboard-response","175","370429","0.0-11.0-0.6","60ddf71e95896d2595f0e1a5","64b003020eef62ee308107cc","64b032edeade55cc3d9b3c40","null","null","<p style=""font-size: 60px; font-family: BACS"">OLJblkbu</p>","","","","","","","",""
"html-keyboard-response","176","371430","0.0-11.0-0.7","60ddf71e95896d2595f0e1a5","64b003020eef62ee308107cc","64b032edeade55cc3d9b3c40","null","null","<p style=""font-size: 60px; font-family: BACS"">hlkTBCAd</p>","","","","","","","",""
"html-keyboard-response","177","372431","0.0-11.0-0.8","60ddf71e95896d2595f0e1a5","64b003020eef62ee308107cc","64b032edeade55cc3d9b3c40","null","null","<p style=""font-size: 60px; font-family: BACS"">dmZvmuUmb</p>","","","","","","","",""
"html-keyboard-response","178","373434","0.0-11.0-0.9","60ddf71e95896d2595f0e1a5","64b003020eef62ee308107cc","64b032edeade55cc3d9b3c40","null","null","<p style=""font-size: 60px; font-family: BACS"">advYOkbu</p>","","","","","","","",""
"html-keyboard-response","179","374435","0.0-11.0-0.10","60ddf71e95896d2595f0e1a5","64b003020eef62ee308107cc","64b032edeade55cc3d9b3c40","null","null","<p style=""font-size: 60px; font-family: BACS"">hTtBbEKBO</p>","","","","","","","",""
"html-keyboard-response","180","375440","0.0-11.0-0.11","60ddf71e95896d2595f0e1a5","64b003020eef62ee308107cc","64b032edeade55cc3d9b3c40","null","null","<p style=""font-size: 60px; font-family: BACS"">vmuLlrGl</p>","","","","","","","",""
"html-keyboard-response","181","376452","0.0-11.0-0.12","60ddf71e95896d2595f0e1a5","64b003020eef62ee308107cc","64b032edeade55cc3d9b3c40","null","null","<p style=""font-size: 60px; font-family: BACS"">kGlUuUmb</p>","","","","","","","",""
"html-keyboard-response","182","377453","0.0-11.0-0.13","60ddf71e95896d2595f0e1a5","64b003020eef62ee308107cc","64b032edeade55cc3d9b3c40","null","null","<p style=""font-size: 60px; font-family: BACS"">TObCOAPEM</p>","","","","","","","",""
"html-keyboard-response","183","378454","0.0-11.0-0.14","60ddf71e95896d2595f0e1a5","64b003020eef62ee308107cc","64b032edeade55cc3d9b3c40","null","null","<p style=""font-size: 60px; font-family: BACS"">cuOJbrGl</p>","","","","","","","",""
"html-keyboard-response","184","379457","0.0-11.0-0.15","60ddf71e95896d2595f0e1a5","64b003020eef62ee308107cc","64b032edeade55cc3d9b3c40","null","null","<p style=""font-size: 60px; font-family: BACS"">BlmclEKBO</p>","","","","","","","",""
"html-keyboard-response","185","380458","0.0-11.0-0.16","60ddf71e95896d2595f0e1a5","64b003020eef62ee308107cc","64b032edeade55cc3d9b3c40","null","null","<p style=""font-size: 60px; font-family: BACS"">NLQGmrkra</p>","","","","","","","",""
"html-keyboard-response","186","381466","0.0-11.0-0.17","60ddf71e95896d2595f0e1a5","64b003020eef62ee308107cc","64b032edeade55cc3d9b3c40","null","null","<p style=""font-size: 60px; font-family: BACS"">tRdMEAO</p>","","","","","","","",""
"html-keyboard-response","187","382482","0.0-11.0-0.18","60ddf71e95896d2595f0e1a5","64b003020eef62ee308107cc","64b032edeade55cc3d9b3c40","null","null","<p style=""font-size: 60px; font-family: BACS"">OLJblrkra</p>","","","","","","","",""
"html-keyboard-response","188","383496","0.0-11.0-0.19","60ddf71e95896d2595f0e1a5","64b003020eef62ee308107cc","64b032edeade55cc3d9b3c40","null","null","<p style=""font-size: 60px; font-family: BACS"">UaYLYZUZ</p>","","","","","","","",""
"html-keyboard-response","189","384496","0.0-11.0-0.20","60ddf71e95896d2595f0e1a5","64b003020eef62ee308107cc","64b032edeade55cc3d9b3c40","null","null","<p style=""font-size: 60px; font-family: BACS"">RtRhEAO</p>","","","","","","","",""
"html-keyboard-response","190","385497","0.0-11.0-0.21","60ddf71e95896d2595f0e1a5","64b003020eef62ee308107cc","64b032edeade55cc3d9b3c40","null","null","<p style=""font-size: 60px; font-family: BACS"">hlkTEKBO</p>","","","","","","","",""
"html-keyboard-response","191","386503","0.0-11.0-0.22","60ddf71e95896d2595f0e1a5","64b003020eef62ee308107cc","64b032edeade55cc3d9b3c40","null","null","<p style=""font-size: 60px; font-family: BACS"">UaYLrkra</p>","","","","","","","",""
"html-keyboard-response","192","387505","0.0-11.0-0.23","60ddf71e95896d2595f0e1a5","64b003020eef62ee308107cc","64b032edeade55cc3d9b3c40","null","null","<p style=""font-size: 60px; font-family: BACS"">cuOJbYZUZ</p>","","","","","","","",""
"html-keyboard-response","193","388516","0.0-11.0-0.24","60ddf71e95896d2595f0e1a5","64b003020eef62ee308107cc","64b032edeade55cc3d9b3c40","null","null","<p style=""font-size: 60px; font-family: BACS"">hlkTCdt</p>","","","","","","","",""
"html-keyboard-response","194","389527","0.0-11.0-0.25","60ddf71e95896d2595f0e1a5","64b003020eef62ee308107cc","64b032edeade55cc3d9b3c40","null","null","<p style=""font-size: 60px; font-family: BACS"">YJkbrGl</p>","","","","","","","",""
"html-keyboard-response","195","390540","0.0-11.0-0.26","60ddf71e95896d2595f0e1a5","64b003020eef62ee308107cc","64b032edeade55cc3d9b3c40","null","null","<p style=""font-size: 60px; font-family: BACS"">ZcGdNYZUZ</p>","","","","","","","",""
"html-keyboard-response","196","391541","0.0-11.0-0.27","60ddf71e95896d2595f0e1a5","64b003020eef62ee308107cc","64b032edeade55cc3d9b3c40","null","null","<p style=""font-size: 60px; font-family: BACS"">TObCOCdt</p>","","","","","","","",""
"html-keyboard-response","197","392543","0.0-11.0-0.28","60ddf71e95896d2595f0e1a5","64b003020eef62ee308107cc","64b032edeade55cc3d9b3c40","null","null","<p style=""font-size: 60px; font-family: BACS"">tRdMAPEM</p>","","","","","","","",""
"html-keyboard-response","198","393558","0.0-11.0-0.29","60ddf71e95896d2595f0e1a5","64b003020eef62ee308107cc","64b032edeade55cc3d9b3c40","null","null","<p style=""font-size: 60px; font-family: BACS"">advYOYZUZ</p>","","","","","","","",""
"html-keyboard-response","199","394560","0.0-11.0-0.30","60ddf71e95896d2595f0e1a5","64b003020eef62ee308107cc","64b032edeade55cc3d9b3c40","null","null","<p style=""font-size: 60px; font-family: BACS"">hTtBbAPEM</p>","","","","","","","",""
"html-keyboard-response","200","395561","0.0-11.0-0.31","60ddf71e95896d2595f0e1a5","64b003020eef62ee308107cc","64b032edeade55cc3d9b3c40","null","null","<p style=""font-size: 60px; font-family: BACS"">KAERMEKBO</p>","","","","","","","",""
"html-keyboard-response","201","396562","0.0-11.0-0.32","60ddf71e95896d2595f0e1a5","64b003020eef62ee308107cc","64b032edeade55cc3d9b3c40","null","null","<p style=""font-size: 60px; font-family: BACS"">YJkbuUmb</p>","","","","","","","",""
"html-keyboard-response","202","397565","0.0-11.0-0.33","60ddf71e95896d2595f0e1a5","64b003020eef62ee308107cc","64b032edeade55cc3d9b3c40","null","null","<p style=""font-size: 60px; font-family: BACS"">BlmclCdt</p>","","","","","","","",""
"html-keyboard-response","203","398566","0.0-11.0-0.34","60ddf71e95896d2595f0e1a5","64b003020eef62ee308107cc","64b032edeade55cc3d9b3c40","null","null","<p style=""font-size: 60px; font-family: BACS"">UaYLuUmb</p>","","","","","","","",""
"html-keyboard-response","204","399568","0.0-11.0-0.35","60ddf71e95896d2595f0e1a5","64b003020eef62ee308107cc","64b032edeade55cc3d9b3c40","null","null","<p style=""font-size: 60px; font-family: BACS"">TObCOEKBO</p>","","","","","","","",""
"html-keyboard-response","205","400569","0.0-11.0-0.36","60ddf71e95896d2595f0e1a5","64b003020eef62ee308107cc","64b032edeade55cc3d9b3c40","null","null","<p style=""font-size: 60px; font-family: BACS"">MTdYBCAd</p>","","","","","","","",""
"html-keyboard-response","206","401576","0.0-11.0-0.37","60ddf71e95896d2595f0e1a5","64b003020eef62ee308107cc","64b032edeade55cc3d9b3c40","null","null","<p style=""font-size: 60px; font-family: BACS"">kGlUrkra</p>","","","","","","","",""
"html-keyboard-response","207","402588","0.0-11.0-0.38","60ddf71e95896d2595f0e1a5","64b003020eef62ee308107cc","64b032edeade55cc3d9b3c40","null","null","<p style=""font-size: 60px; font-family: BACS"">YJkbkbu</p>","","","","","","","",""
"html-keyboard-response","208","403589","0.0-11.0-0.39","60ddf71e95896d2595f0e1a5","64b003020eef62ee308107cc","64b032edeade55cc3d9b3c40","null","null","<p style=""font-size: 60px; font-family: BACS"">MTdYAPEM</p>","","","","","","","",""
"html-keyboard-response","209","404590","0.0-11.0-0.40","60ddf71e95896d2595f0e1a5","64b003020eef62ee308107cc","64b032edeade55cc3d9b3c40","null","null","<p style=""font-size: 60px; font-family: BACS"">KAERMBCAd</p>","","","","","","","",""
"html-keyboard-response","210","405595","0.0-11.0-0.41","60ddf71e95896d2595f0e1a5","64b003020eef62ee308107cc","64b032edeade55cc3d9b3c40","null","null","<p style=""font-size: 60px; font-family: BACS"">BlmclEAO</p>","","","","","","","",""
"html-keyboard-response","211","406596","0.0-11.0-0.42","60ddf71e95896d2595f0e1a5","64b003020eef62ee308107cc","64b032edeade55cc3d9b3c40","null","null","<p style=""font-size: 60px; font-family: BACS"">MTdYCdt</p>","","","","","","","",""
"html-keyboard-response","212","407606","0.0-11.0-0.43","60ddf71e95896d2595f0e1a5","64b003020eef62ee308107cc","64b032edeade55cc3d9b3c40","null","null","<p style=""font-size: 60px; font-family: BACS"">BOckPEKBO</p>","","","","","","","",""
"html-keyboard-response","213","408607","0.0-11.0-0.44","60ddf71e95896d2595f0e1a5","64b003020eef62ee308107cc","64b032edeade55cc3d9b3c40","null","null","<p style=""font-size: 60px; font-family: BACS"">hTtBbCdt</p>","","","","","","","",""
"html-keyboard-response","214","409613","0.0-11.0-0.45","60ddf71e95896d2595f0e1a5","64b003020eef62ee308107cc","64b032edeade55cc3d9b3c40","null","null","<p style=""font-size: 60px; font-family: BACS"">dmZvmYZUZ</p>","","","","","","","",""
"html-keyboard-response","215","410614","0.0-11.0-0.46","60ddf71e95896d2595f0e1a5","64b003020eef62ee308107cc","64b032edeade55cc3d9b3c40","null","null","<p style=""font-size: 60px; font-family: BACS"">TObCOEAO</p>","","","","","","","",""
"html-keyboard-response","216","411615","0.0-11.0-0.47","60ddf71e95896d2595f0e1a5","64b003020eef62ee308107cc","64b032edeade55cc3d9b3c40","null","null","<p style=""font-size: 60px; font-family: BACS"">RtRhBCAd</p>","","","","","","","",""
"html-keyboard-response","217","412616","0.0-11.0-0.48","60ddf71e95896d2595f0e1a5","64b003020eef62ee308107cc","64b032edeade55cc3d9b3c40","null","null","<p style=""font-size: 60px; font-family: BACS"">NLQGmkbu</p>","","","","","","","",""
"html-keyboard-response","218","413621","0.0-11.0-0.49","60ddf71e95896d2595f0e1a5","64b003020eef62ee308107cc","64b032edeade55cc3d9b3c40","null","null","<p style=""font-size: 60px; font-family: BACS"">BOckPAPEM</p>","","","","","","","",""
"html-keyboard-response","219","414623","0.0-11.0-0.50","60ddf71e95896d2595f0e1a5","64b003020eef62ee308107cc","64b032edeade55cc3d9b3c40","null","null","<p style=""font-size: 60px; font-family: BACS"">OLJbluUmb</p>","","","","","","","",""
"html-keyboard-response","220","415624","0.0-11.0-0.51","60ddf71e95896d2595f0e1a5","64b003020eef62ee308107cc","64b032edeade55cc3d9b3c40","null","null","<p style=""font-size: 60px; font-family: BACS"">hlkTAPEM</p>","","","","","","","",""
"html-keyboard-response","221","416625","0.0-11.0-0.52","60ddf71e95896d2595f0e1a5","64b003020eef62ee308107cc","64b032edeade55cc3d9b3c40","null","null","<p style=""font-size: 60px; font-family: BACS"">kGlUrGl</p>","","","","","","","",""
"html-keyboard-response","222","417626","0.0-11.0-0.53","60ddf71e95896d2595f0e1a5","64b003020eef62ee308107cc","64b032edeade55cc3d9b3c40","null","null","<p style=""font-size: 60px; font-family: BACS"">RtRhCdt</p>","","","","","","","",""
"html-keyboard-response","223","418627","0.0-11.0-0.54","60ddf71e95896d2595f0e1a5","64b003020eef62ee308107cc","64b032edeade55cc3d9b3c40","null","null","<p style=""font-size: 60px; font-family: BACS"">BOckPBCAd</p>","","","","","","","",""
"html-keyboard-response","224","419637","0.0-11.0-0.55","60ddf71e95896d2595f0e1a5","64b003020eef62ee308107cc","64b032edeade55cc3d9b3c40","null","null","<p style=""font-size: 60px; font-family: BACS"">ZcGdNrkra</p>","","","","","","","",""
"html-keyboard-response","225","420638","0.0-11.0-0.56","60ddf71e95896d2595f0e1a5","64b003020eef62ee308107cc","64b032edeade55cc3d9b3c40","null","null","<p style=""font-size: 60px; font-family: BACS"">KAERMEAO</p>","","","","","","","",""
"html-keyboard-response","226","421652","0.0-11.0-0.57","60ddf71e95896d2595f0e1a5","64b003020eef62ee308107cc","64b032edeade55cc3d9b3c40","null","null","<p style=""font-size: 60px; font-family: BACS"">OLJblrGl</p>","","","","","","","",""
"html-keyboard-response","227","422653","0.0-11.0-0.58","60ddf71e95896d2595f0e1a5","64b003020eef62ee308107cc","64b032edeade55cc3d9b3c40","null","null","<p style=""font-size: 60px; font-family: BACS"">advYOuUmb</p>","","","","","","","",""
"html-keyboard-response","228","423662","0.0-11.0-0.59","60ddf71e95896d2595f0e1a5","64b003020eef62ee308107cc","64b032edeade55cc3d9b3c40","null","null","<p style=""font-size: 60px; font-family: BACS"">NLQGmYZUZ</p>","","","","","","","",""
"html-keyboard-response","229","424663","0.0-11.0-0.60","60ddf71e95896d2595f0e1a5","64b003020eef62ee308107cc","64b032edeade55cc3d9b3c40","null","null","<p style=""font-size: 60px; font-family: BACS"">RtRhEKBO</p>","","","","","","","",""
"html-keyboard-response","230","425664","0.0-11.0-0.61","60ddf71e95896d2595f0e1a5","64b003020eef62ee308107cc","64b032edeade55cc3d9b3c40","null","null","<p style=""font-size: 60px; font-family: BACS"">ECtbDEAO</p>","","","","","","","",""
"html-keyboard-response","231","426672","0.0-11.0-0.62","60ddf71e95896d2595f0e1a5","64b003020eef62ee308107cc","64b032edeade55cc3d9b3c40","null","null","<p style=""font-size: 60px; font-family: BACS"">ZcGdNrGl</p>","","","","","","","",""
"html-keyboard-response","232","427673","0.0-11.0-0.63","60ddf71e95896d2595f0e1a5","64b003020eef62ee308107cc","64b032edeade55cc3d9b3c40","null","null","<p style=""font-size: 60px; font-family: BACS"">YJkbYZUZ</p>","","","","","","","",""
"html-keyboard-response","233","428686","0.0-11.0-0.64","60ddf71e95896d2595f0e1a5","64b003020eef62ee308107cc","64b032edeade55cc3d9b3c40","null","null","<p style=""font-size: 60px; font-family: BACS"">ECtbDBCAd</p>","","","","","","","",""
"html-keyboard-response","234","429701","0.0-11.0-0.65","60ddf71e95896d2595f0e1a5","64b003020eef62ee308107cc","64b032edeade55cc3d9b3c40","null","null","<p style=""font-size: 60px; font-family: BACS"">NLQGmrGl</p>","","","","","","","",""
"html-keyboard-response","235","430716","0.0-11.0-0.66","60ddf71e95896d2595f0e1a5","64b003020eef62ee308107cc","64b032edeade55cc3d9b3c40","null","null","<p style=""font-size: 60px; font-family: BACS"">vmuLlYZUZ</p>","","","","","","","",""
"html-keyboard-response","236","431717","0.0-11.0-0.67","60ddf71e95896d2595f0e1a5","64b003020eef62ee308107cc","64b032edeade55cc3d9b3c40","null","null","<p style=""font-size: 60px; font-family: BACS"">UaYLkbu</p>","","","","","","","",""
"html-keyboard-response","237","432718","0.0-11.0-0.68","60ddf71e95896d2595f0e1a5","64b003020eef62ee308107cc","64b032edeade55cc3d9b3c40","null","null","<p style=""font-size: 60px; font-family: BACS"">BlmclBCAd</p>","","","","","","","",""
"html-keyboard-response","238","433731","0.0-11.0-0.69","60ddf71e95896d2595f0e1a5","64b003020eef62ee308107cc","64b032edeade55cc3d9b3c40","null","null","<p style=""font-size: 60px; font-family: BACS"">KAERMAPEM</p>","","","","","","","",""
"html-keyboard-response","239","434733","0.0-11.0-0.70","60ddf71e95896d2595f0e1a5","64b003020eef62ee308107cc","64b032edeade55cc3d9b3c40","null","null","<p style=""font-size: 60px; font-family: BACS"">tRdMBCAd</p>","","","","","","","",""
"html-keyboard-response","240","435734","0.0-11.0-0.71","60ddf71e95896d2595f0e1a5","64b003020eef62ee308107cc","64b032edeade55cc3d9b3c40","null","null","<p style=""font-size: 60px; font-family: BACS"">dmZvmkbu</p>","","","","","","","",""
"html-keyboard-response","241","436736","0.0-11.0-0.72","60ddf71e95896d2595f0e1a5","64b003020eef62ee308107cc","64b032edeade55cc3d9b3c40","null","null","<p style=""font-size: 60px; font-family: BACS"">advYOrGl</p>","","","","","","","",""
"html-keyboard-response","242","437747","0.0-11.0-0.73","60ddf71e95896d2595f0e1a5","64b003020eef62ee308107cc","64b032edeade55cc3d9b3c40","null","null","<p style=""font-size: 60px; font-family: BACS"">vmuLlrkra</p>","","","","","","","",""
"html-keyboard-response","243","438759","0.0-11.0-0.74","60ddf71e95896d2595f0e1a5","64b003020eef62ee308107cc","64b032edeade55cc3d9b3c40","null","null","<p style=""font-size: 60px; font-family: BACS"">BOckPCdt</p>","","","","","","","",""
"html-keyboard-response","244","439761","0.0-11.0-0.75","60ddf71e95896d2595f0e1a5","64b003020eef62ee308107cc","64b032edeade55cc3d9b3c40","null","null","<p style=""font-size: 60px; font-family: BACS"">dmZvmrkra</p>","","","","","","","",""
"html-keyboard-response","245","440774","0.0-11.0-0.76","60ddf71e95896d2595f0e1a5","64b003020eef62ee308107cc","64b032edeade55cc3d9b3c40","null","null","<p style=""font-size: 60px; font-family: BACS"">cuOJbkbu</p>","","","","","","","",""
"html-keyboard-response","246","441775","0.0-11.0-0.77","60ddf71e95896d2595f0e1a5","64b003020eef62ee308107cc","64b032edeade55cc3d9b3c40","null","null","<p style=""font-size: 60px; font-family: BACS"">ECtbDAPEM</p>","","","","","","","",""
"html-keyboard-response","247","442776","0.0-11.0-0.78","60ddf71e95896d2595f0e1a5","64b003020eef62ee308107cc","64b032edeade55cc3d9b3c40","null","null","<p style=""font-size: 60px; font-family: BACS"">tRdMCdt</p>","","","","","","","",""
"html-keyboard-response","248","443777","0.0-11.0-0.79","60ddf71e95896d2595f0e1a5","64b003020eef62ee308107cc","64b032edeade55cc3d9b3c40","null","null","<p style=""font-size: 60px; font-family: BACS"">vmuLluUmb</p>","","","","","","","",""
"html-keyboard-response","249","458876","0.0-12.0","60ddf71e95896d2595f0e1a5","64b003020eef62ee308107cc","64b032edeade55cc3d9b3c40","15099"," ","<p>Ottimo, hai visto il terzo blocco di parole. Ora puoi prenderti una piccola pausa.</p>
      <p>Premi la barra quando sei pronta/o per riprendere.</p>","","","","","","","",""
"html-keyboard-response","250","459883","0.0-13.0-0.0","60ddf71e95896d2595f0e1a5","64b003020eef62ee308107cc","64b032edeade55cc3d9b3c40","null","null","<p style=""font-size: 60px; font-family: BACS"">tRdMAPEM</p>","","","","","","","",""
"html-keyboard-response","251","460895","0.0-13.0-0.1","60ddf71e95896d2595f0e1a5","64b003020eef62ee308107cc","64b032edeade55cc3d9b3c40","null","null","<p style=""font-size: 60px; font-family: BACS"">kGlUrGl</p>","","","","","","","",""
"html-keyboard-response","252","461896","0.0-13.0-0.2","60ddf71e95896d2595f0e1a5","64b003020eef62ee308107cc","64b032edeade55cc3d9b3c40","null","null","<p style=""font-size: 60px; font-family: BACS"">advYOYZUZ</p>","","","","","","","",""
"html-keyboard-response","253","462897","0.0-13.0-0.3","60ddf71e95896d2595f0e1a5","64b003020eef62ee308107cc","64b032edeade55cc3d9b3c40","null","null","<p style=""font-size: 60px; font-family: BACS"">kGlUrkra</p>","","","","","","","",""
"html-keyboard-response","254","463914","0.0-13.0-0.4","60ddf71e95896d2595f0e1a5","64b003020eef62ee308107cc","64b032edeade55cc3d9b3c40","null","null","<p style=""font-size: 60px; font-family: BACS"">RtRhEKBO</p>","","","","","","","",""
"html-keyboard-response","255","464915","0.0-13.0-0.5","60ddf71e95896d2595f0e1a5","64b003020eef62ee308107cc","64b032edeade55cc3d9b3c40","null","null","<p style=""font-size: 60px; font-family: BACS"">cuOJbrGl</p>","","","","","","","",""
"html-keyboard-response","256","465922","0.0-13.0-0.6","60ddf71e95896d2595f0e1a5","64b003020eef62ee308107cc","64b032edeade55cc3d9b3c40","null","null","<p style=""font-size: 60px; font-family: BACS"">dmZvmuUmb</p>","","","","","","","",""
"html-keyboard-response","257","466923","0.0-13.0-0.7","60ddf71e95896d2595f0e1a5","64b003020eef62ee308107cc","64b032edeade55cc3d9b3c40","null","null","<p style=""font-size: 60px; font-family: BACS"">NLQGmrGl</p>","","","","","","","",""
"html-keyboard-response","258","467924","0.0-13.0-0.8","60ddf71e95896d2595f0e1a5","64b003020eef62ee308107cc","64b032edeade55cc3d9b3c40","null","null","<p style=""font-size: 60px; font-family: BACS"">OLJblrkra</p>","","","","","","","",""
"html-keyboard-response","259","468927","0.0-13.0-0.9","60ddf71e95896d2595f0e1a5","64b003020eef62ee308107cc","64b032edeade55cc3d9b3c40","null","null","<p style=""font-size: 60px; font-family: BACS"">advYOkbu</p>","","","","","","","",""
"html-keyboard-response","260","469928","0.0-13.0-0.10","60ddf71e95896d2595f0e1a5","64b003020eef62ee308107cc","64b032edeade55cc3d9b3c40","null","null","<p style=""font-size: 60px; font-family: BACS"">KAERMAPEM</p>","","","","","","","",""
"html-keyboard-response","261","470930","0.0-13.0-0.11","60ddf71e95896d2595f0e1a5","64b003020eef62ee308107cc","64b032edeade55cc3d9b3c40","null","null","<p style=""font-size: 60px; font-family: BACS"">cuOJbYZUZ</p>","","","","","","","",""
"html-keyboard-response","262","471932","0.0-13.0-0.12","60ddf71e95896d2595f0e1a5","64b003020eef62ee308107cc","64b032edeade55cc3d9b3c40","null","null","<p style=""font-size: 60px; font-family: BACS"">BlmclBCAd</p>","","","","","","","",""
"html-keyboard-response","263","472932","0.0-13.0-0.13","60ddf71e95896d2595f0e1a5","64b003020eef62ee308107cc","64b032edeade55cc3d9b3c40","null","null","<p style=""font-size: 60px; font-family: BACS"">hlkTCdt</p>","","","","","","","",""
"html-keyboard-response","264","473933","0.0-13.0-0.14","60ddf71e95896d2595f0e1a5","64b003020eef62ee308107cc","64b032edeade55cc3d9b3c40","null","null","<p style=""font-size: 60px; font-family: BACS"">RtRhBCAd</p>","","","","","","","",""
"html-keyboard-response","265","474935","0.0-13.0-0.15","60ddf71e95896d2595f0e1a5","64b003020eef62ee308107cc","64b032edeade55cc3d9b3c40","null","null","<p style=""font-size: 60px; font-family: BACS"">kGlUuUmb</p>","","","","","","","",""
"html-keyboard-response","266","475936","0.0-13.0-0.16","60ddf71e95896d2595f0e1a5","64b003020eef62ee308107cc","64b032edeade55cc3d9b3c40","null","null","<p style=""font-size: 60px; font-family: BACS"">tRdMCdt</p>","","","","","","","",""
"html-keyboard-response","267","476946","0.0-13.0-0.17","60ddf71e95896d2595f0e1a5","64b003020eef62ee308107cc","64b032edeade55cc3d9b3c40","null","null","<p style=""font-size: 60px; font-family: BACS"">cuOJbkbu</p>","","","","","","","",""
"html-keyboard-response","268","477954","0.0-13.0-0.18","60ddf71e95896d2595f0e1a5","64b003020eef62ee308107cc","64b032edeade55cc3d9b3c40","null","null","<p style=""font-size: 60px; font-family: BACS"">UaYLYZUZ</p>","","","","","","","",""
"html-keyboard-response","269","478956","0.0-13.0-0.19","60ddf71e95896d2595f0e1a5","64b003020eef62ee308107cc","64b032edeade55cc3d9b3c40","null","null","<p style=""font-size: 60px; font-family: BACS"">KAERMEKBO</p>","","","","","","","",""
"html-keyboard-response","270","479957","0.0-13.0-0.20","60ddf71e95896d2595f0e1a5","64b003020eef62ee308107cc","64b032edeade55cc3d9b3c40","null","null","<p style=""font-size: 60px; font-family: BACS"">NLQGmYZUZ</p>","","","","","","","",""
"html-keyboard-response","271","480958","0.0-13.0-0.21","60ddf71e95896d2595f0e1a5","64b003020eef62ee308107cc","64b032edeade55cc3d9b3c40","null","null","<p style=""font-size: 60px; font-family: BACS"">vmuLlrkra</p>","","","","","","","",""
"html-keyboard-response","272","481959","0.0-13.0-0.22","60ddf71e95896d2595f0e1a5","64b003020eef62ee308107cc","64b032edeade55cc3d9b3c40","null","null","<p style=""font-size: 60px; font-family: BACS"">ZcGdNYZUZ</p>","","","","","","","",""
"html-keyboard-response","273","482960","0.0-13.0-0.23","60ddf71e95896d2595f0e1a5","64b003020eef62ee308107cc","64b032edeade55cc3d9b3c40","null","null","<p style=""font-size: 60px; font-family: BACS"">MTdYCdt</p>","","","","","","","",""
"html-keyboard-response","274","483961","0.0-13.0-0.24","60ddf71e95896d2595f0e1a5","64b003020eef62ee308107cc","64b032edeade55cc3d9b3c40","null","null","<p style=""font-size: 60px; font-family: BACS"">NLQGmrkra</p>","","","","","","","",""
"html-keyboard-response","275","484962","0.0-13.0-0.25","60ddf71e95896d2595f0e1a5","64b003020eef62ee308107cc","64b032edeade55cc3d9b3c40","null","null","<p style=""font-size: 60px; font-family: BACS"">RtRhEAO</p>","","","","","","","",""
"html-keyboard-response","276","485963","0.0-13.0-0.26","60ddf71e95896d2595f0e1a5","64b003020eef62ee308107cc","64b032edeade55cc3d9b3c40","null","null","<p style=""font-size: 60px; font-family: BACS"">dmZvmkbu</p>","","","","","","","",""
"html-keyboard-response","277","486965","0.0-13.0-0.27","60ddf71e95896d2595f0e1a5","64b003020eef62ee308107cc","64b032edeade55cc3d9b3c40","null","null","<p style=""font-size: 60px; font-family: BACS"">ECtbDAPEM</p>","","","","","","","",""
"html-keyboard-response","278","487966","0.0-13.0-0.28","60ddf71e95896d2595f0e1a5","64b003020eef62ee308107cc","64b032edeade55cc3d9b3c40","null","null","<p style=""font-size: 60px; font-family: BACS"">dmZvmYZUZ</p>","","","","","","","",""
"html-keyboard-response","279","488981","0.0-13.0-0.29","60ddf71e95896d2595f0e1a5","64b003020eef62ee308107cc","64b032edeade55cc3d9b3c40","null","null","<p style=""font-size: 60px; font-family: BACS"">hTtBbAPEM</p>","","","","","","","",""
"html-keyboard-response","280","489982","0.0-13.0-0.30","60ddf71e95896d2595f0e1a5","64b003020eef62ee308107cc","64b032edeade55cc3d9b3c40","null","null","<p style=""font-size: 60px; font-family: BACS"">BlmclEKBO</p>","","","","","","","",""
"html-keyboard-response","281","490989","0.0-13.0-0.31","60ddf71e95896d2595f0e1a5","64b003020eef62ee308107cc","64b032edeade55cc3d9b3c40","null","null","<p style=""font-size: 60px; font-family: BACS"">YJkbuUmb</p>","","","","","","","",""
"html-keyboard-response","282","491995","0.0-13.0-0.32","60ddf71e95896d2595f0e1a5","64b003020eef62ee308107cc","64b032edeade55cc3d9b3c40","null","null","<p style=""font-size: 60px; font-family: BACS"">TObCOAPEM</p>","","","","","","","",""
"html-keyboard-response","283","492997","0.0-13.0-0.33","60ddf71e95896d2595f0e1a5","64b003020eef62ee308107cc","64b032edeade55cc3d9b3c40","null","null","<p style=""font-size: 60px; font-family: BACS"">OLJbluUmb</p>","","","","","","","",""
"html-keyboard-response","284","493999","0.0-13.0-0.34","60ddf71e95896d2595f0e1a5","64b003020eef62ee308107cc","64b032edeade55cc3d9b3c40","null","null","<p style=""font-size: 60px; font-family: BACS"">advYOrGl</p>","","","","","","","",""
"html-keyboard-response","285","495000","0.0-13.0-0.35","60ddf71e95896d2595f0e1a5","64b003020eef62ee308107cc","64b032edeade55cc3d9b3c40","null","null","<p style=""font-size: 60px; font-family: BACS"">hlkTAPEM</p>","","","","","","","",""
"html-keyboard-response","286","496001","0.0-13.0-0.36","60ddf71e95896d2595f0e1a5","64b003020eef62ee308107cc","64b032edeade55cc3d9b3c40","null","null","<p style=""font-size: 60px; font-family: BACS"">tRdMBCAd</p>","","","","","","","",""
"html-keyboard-response","287","497002","0.0-13.0-0.37","60ddf71e95896d2595f0e1a5","64b003020eef62ee308107cc","64b032edeade55cc3d9b3c40","null","null","<p style=""font-size: 60px; font-family: BACS"">KAERMEAO</p>","","","","","","","",""
"html-keyboard-response","288","498002","0.0-13.0-0.38","60ddf71e95896d2595f0e1a5","64b003020eef62ee308107cc","64b032edeade55cc3d9b3c40","null","null","<p style=""font-size: 60px; font-family: BACS"">RtRhCdt</p>","","","","","","","",""
"html-keyboard-response","289","499019","0.0-13.0-0.39","60ddf71e95896d2595f0e1a5","64b003020eef62ee308107cc","64b032edeade55cc3d9b3c40","null","null","<p style=""font-size: 60px; font-family: BACS"">OLJblkbu</p>","","","","","","","",""
"html-keyboard-response","290","500020","0.0-13.0-0.40","60ddf71e95896d2595f0e1a5","64b003020eef62ee308107cc","64b032edeade55cc3d9b3c40","null","null","<p style=""font-size: 60px; font-family: BACS"">hlkTBCAd</p>","","","","","","","",""
"html-keyboard-response","291","501021","0.0-13.0-0.41","60ddf71e95896d2595f0e1a5","64b003020eef62ee308107cc","64b032edeade55cc3d9b3c40","null","null","<p style=""font-size: 60px; font-family: BACS"">advYOuUmb</p>","","","","","","","",""
"html-keyboard-response","292","502028","0.0-13.0-0.42","60ddf71e95896d2595f0e1a5","64b003020eef62ee308107cc","64b032edeade55cc3d9b3c40","null","null","<p style=""font-size: 60px; font-family: BACS"">ECtbDEKBO</p>","","","","","","","",""
"html-keyboard-response","293","503029","0.0-13.0-0.43","60ddf71e95896d2595f0e1a5","64b003020eef62ee308107cc","64b032edeade55cc3d9b3c40","null","null","<p style=""font-size: 60px; font-family: BACS"">UaYLrkra</p>","","","","","","","",""
"html-keyboard-response","294","504032","0.0-13.0-0.44","60ddf71e95896d2595f0e1a5","64b003020eef62ee308107cc","64b032edeade55cc3d9b3c40","null","null","<p style=""font-size: 60px; font-family: BACS"">ECtbDEAO</p>","","","","","","","",""
"html-keyboard-response","295","505035","0.0-13.0-0.45","60ddf71e95896d2595f0e1a5","64b003020eef62ee308107cc","64b032edeade55cc3d9b3c40","null","null","<p style=""font-size: 60px; font-family: BACS"">YJkbrGl</p>","","","","","","","",""
"html-keyboard-response","296","506050","0.0-13.0-0.46","60ddf71e95896d2595f0e1a5","64b003020eef62ee308107cc","64b032edeade55cc3d9b3c40","null","null","<p style=""font-size: 60px; font-family: BACS"">BOckPBCAd</p>","","","","","","","",""
"html-keyboard-response","297","507063","0.0-13.0-0.47","60ddf71e95896d2595f0e1a5","64b003020eef62ee308107cc","64b032edeade55cc3d9b3c40","null","null","<p style=""font-size: 60px; font-family: BACS"">ZcGdNrkra</p>","","","","","","","",""
"html-keyboard-response","298","508064","0.0-13.0-0.48","60ddf71e95896d2595f0e1a5","64b003020eef62ee308107cc","64b032edeade55cc3d9b3c40","null","null","<p style=""font-size: 60px; font-family: BACS"">BOckPCdt</p>","","","","","","","",""
"html-keyboard-response","299","509072","0.0-13.0-0.49","60ddf71e95896d2595f0e1a5","64b003020eef62ee308107cc","64b032edeade55cc3d9b3c40","null","null","<p style=""font-size: 60px; font-family: BACS"">hTtBbEAO</p>","","","","","","","",""
"html-keyboard-response","300","510083","0.0-13.0-0.50","60ddf71e95896d2595f0e1a5","64b003020eef62ee308107cc","64b032edeade55cc3d9b3c40","null","null","<p style=""font-size: 60px; font-family: BACS"">vmuLlYZUZ</p>","","","","","","","",""
"html-keyboard-response","301","511084","0.0-13.0-0.51","60ddf71e95896d2595f0e1a5","64b003020eef62ee308107cc","64b032edeade55cc3d9b3c40","null","null","<p style=""font-size: 60px; font-family: BACS"">ZcGdNuUmb</p>","","","","","","","",""
"html-keyboard-response","302","512092","0.0-13.0-0.52","60ddf71e95896d2595f0e1a5","64b003020eef62ee308107cc","64b032edeade55cc3d9b3c40","null","null","<p style=""font-size: 60px; font-family: BACS"">hlkTEKBO</p>","","","","","","","",""
"html-keyboard-response","303","513105","0.0-13.0-0.53","60ddf71e95896d2595f0e1a5","64b003020eef62ee308107cc","64b032edeade55cc3d9b3c40","null","null","<p style=""font-size: 60px; font-family: BACS"">MTdYEAO</p>","","","","","","","",""
"html-keyboard-response","304","514106","0.0-13.0-0.54","60ddf71e95896d2595f0e1a5","64b003020eef62ee308107cc","64b032edeade55cc3d9b3c40","null","null","<p style=""font-size: 60px; font-family: BACS"">vmuLluUmb</p>","","","","","","","",""
"html-keyboard-response","305","515112","0.0-13.0-0.55","60ddf71e95896d2595f0e1a5","64b003020eef62ee308107cc","64b032edeade55cc3d9b3c40","null","null","<p style=""font-size: 60px; font-family: BACS"">hTtBbEKBO</p>","","","","","","","",""
"html-keyboard-response","306","516113","0.0-13.0-0.56","60ddf71e95896d2595f0e1a5","64b003020eef62ee308107cc","64b032edeade55cc3d9b3c40","null","null","<p style=""font-size: 60px; font-family: BACS"">BlmclEAO</p>","","","","","","","",""
"html-keyboard-response","307","517122","0.0-13.0-0.57","60ddf71e95896d2595f0e1a5","64b003020eef62ee308107cc","64b032edeade55cc3d9b3c40","null","null","<p style=""font-size: 60px; font-family: BACS"">YJkbkbu</p>","","","","","","","",""
"html-keyboard-response","308","518123","0.0-13.0-0.58","60ddf71e95896d2595f0e1a5","64b003020eef62ee308107cc","64b032edeade55cc3d9b3c40","null","null","<p style=""font-size: 60px; font-family: BACS"">MTdYBCAd</p>","","","","","","","",""
"html-keyboard-response","309","519124","0.0-13.0-0.59","60ddf71e95896d2595f0e1a5","64b003020eef62ee308107cc","64b032edeade55cc3d9b3c40","null","null","<p style=""font-size: 60px; font-family: BACS"">BlmclCdt</p>","","","","","","","",""
"html-keyboard-response","310","520125","0.0-13.0-0.60","60ddf71e95896d2595f0e1a5","64b003020eef62ee308107cc","64b032edeade55cc3d9b3c40","null","null","<p style=""font-size: 60px; font-family: BACS"">KAERMBCAd</p>","","","","","","","",""
"html-keyboard-response","311","521125","0.0-13.0-0.61","60ddf71e95896d2595f0e1a5","64b003020eef62ee308107cc","64b032edeade55cc3d9b3c40","null","null","<p style=""font-size: 60px; font-family: BACS"">kGlUkbu</p>","","","","","","","",""
"html-keyboard-response","312","522127","0.0-13.0-0.62","60ddf71e95896d2595f0e1a5","64b003020eef62ee308107cc","64b032edeade55cc3d9b3c40","null","null","<p style=""font-size: 60px; font-family: BACS"">TObCOCdt</p>","","","","","","","",""
"html-keyboard-response","313","523128","0.0-13.0-0.63","60ddf71e95896d2595f0e1a5","64b003020eef62ee308107cc","64b032edeade55cc3d9b3c40","null","null","<p style=""font-size: 60px; font-family: BACS"">BOckPEKBO</p>","","","","","","","",""
"html-keyboard-response","314","524136","0.0-13.0-0.64","60ddf71e95896d2595f0e1a5","64b003020eef62ee308107cc","64b032edeade55cc3d9b3c40","null","null","<p style=""font-size: 60px; font-family: BACS"">MTdYAPEM</p>","","","","","","","",""
"html-keyboard-response","315","525137","0.0-13.0-0.65","60ddf71e95896d2595f0e1a5","64b003020eef62ee308107cc","64b032edeade55cc3d9b3c40","null","null","<p style=""font-size: 60px; font-family: BACS"">dmZvmrkra</p>","","","","","","","",""
"html-keyboard-response","316","526150","0.0-13.0-0.66","60ddf71e95896d2595f0e1a5","64b003020eef62ee308107cc","64b032edeade55cc3d9b3c40","null","null","<p style=""font-size: 60px; font-family: BACS"">UaYLkbu</p>","","","","","","","",""
"html-keyboard-response","317","527151","0.0-13.0-0.67","60ddf71e95896d2595f0e1a5","64b003020eef62ee308107cc","64b032edeade55cc3d9b3c40","null","null","<p style=""font-size: 60px; font-family: BACS"">cuOJbrkra</p>","","","","","","","",""
"html-keyboard-response","318","528166","0.0-13.0-0.68","60ddf71e95896d2595f0e1a5","64b003020eef62ee308107cc","64b032edeade55cc3d9b3c40","null","null","<p style=""font-size: 60px; font-family: BACS"">ECtbDBCAd</p>","","","","","","","",""
"html-keyboard-response","319","529177","0.0-13.0-0.69","60ddf71e95896d2595f0e1a5","64b003020eef62ee308107cc","64b032edeade55cc3d9b3c40","null","null","<p style=""font-size: 60px; font-family: BACS"">NLQGmkbu</p>","","","","","","","",""
"html-keyboard-response","320","530179","0.0-13.0-0.70","60ddf71e95896d2595f0e1a5","64b003020eef62ee308107cc","64b032edeade55cc3d9b3c40","null","null","<p style=""font-size: 60px; font-family: BACS"">ZcGdNrGl</p>","","","","","","","",""
"html-keyboard-response","321","531183","0.0-13.0-0.71","60ddf71e95896d2595f0e1a5","64b003020eef62ee308107cc","64b032edeade55cc3d9b3c40","null","null","<p style=""font-size: 60px; font-family: BACS"">UaYLuUmb</p>","","","","","","","",""
"html-keyboard-response","322","532184","0.0-13.0-0.72","60ddf71e95896d2595f0e1a5","64b003020eef62ee308107cc","64b032edeade55cc3d9b3c40","null","null","<p style=""font-size: 60px; font-family: BACS"">vmuLlrGl</p>","","","","","","","",""
"html-keyboard-response","323","533185","0.0-13.0-0.73","60ddf71e95896d2595f0e1a5","64b003020eef62ee308107cc","64b032edeade55cc3d9b3c40","null","null","<p style=""font-size: 60px; font-family: BACS"">TObCOEAO</p>","","","","","","","",""
"html-keyboard-response","324","534186","0.0-13.0-0.74","60ddf71e95896d2595f0e1a5","64b003020eef62ee308107cc","64b032edeade55cc3d9b3c40","null","null","<p style=""font-size: 60px; font-family: BACS"">hTtBbCdt</p>","","","","","","","",""
"html-keyboard-response","325","535187","0.0-13.0-0.75","60ddf71e95896d2595f0e1a5","64b003020eef62ee308107cc","64b032edeade55cc3d9b3c40","null","null","<p style=""font-size: 60px; font-family: BACS"">TObCOEKBO</p>","","","","","","","",""
"html-keyboard-response","326","536188","0.0-13.0-0.76","60ddf71e95896d2595f0e1a5","64b003020eef62ee308107cc","64b032edeade55cc3d9b3c40","null","null","<p style=""font-size: 60px; font-family: BACS"">tRdMEAO</p>","","","","","","","",""
"html-keyboard-response","327","537193","0.0-13.0-0.77","60ddf71e95896d2595f0e1a5","64b003020eef62ee308107cc","64b032edeade55cc3d9b3c40","null","null","<p style=""font-size: 60px; font-family: BACS"">OLJblrGl</p>","","","","","","","",""
"html-keyboard-response","328","538194","0.0-13.0-0.78","60ddf71e95896d2595f0e1a5","64b003020eef62ee308107cc","64b032edeade55cc3d9b3c40","null","null","<p style=""font-size: 60px; font-family: BACS"">BOckPAPEM</p>","","","","","","","",""
"html-keyboard-response","329","539195","0.0-13.0-0.79","60ddf71e95896d2595f0e1a5","64b003020eef62ee308107cc","64b032edeade55cc3d9b3c40","null","null","<p style=""font-size: 60px; font-family: BACS"">YJkbYZUZ</p>","","","","","","","",""
"html-keyboard-response","330","555208","0.0-14.0","60ddf71e95896d2595f0e1a5","64b003020eef62ee308107cc","64b032edeade55cc3d9b3c40","16012"," ","<p>Ottimo, hai visto il quarto blocco di parole. Ora puoi prenderti una piccola pausa.</p>
      <p>Premi la barra quando sei pronta/o per riprendere.</p>","","","","","","","",""
"html-keyboard-response","331","556209","0.0-15.0-0.0","60ddf71e95896d2595f0e1a5","64b003020eef62ee308107cc","64b032edeade55cc3d9b3c40","null","null","<p style=""font-size: 60px; font-family: BACS"">KAERMBCAd</p>","","","","","","","",""
"html-keyboard-response","332","557211","0.0-15.0-0.1","60ddf71e95896d2595f0e1a5","64b003020eef62ee308107cc","64b032edeade55cc3d9b3c40","null","null","<p style=""font-size: 60px; font-family: BACS"">KAERMBCAd</p>","","","","","","","",""
"html-keyboard-response","333","558213","0.0-15.0-0.2","60ddf71e95896d2595f0e1a5","64b003020eef62ee308107cc","64b032edeade55cc3d9b3c40","null","null","<p style=""font-size: 60px; font-family: BACS"">KAERMBCAd</p>","","","","","","","",""
"html-keyboard-response","334","559217","0.0-15.0-0.3","60ddf71e95896d2595f0e1a5","64b003020eef62ee308107cc","64b032edeade55cc3d9b3c40","null","null","<p style=""font-size: 60px; font-family: BACS"">KAERMBCAd</p>","","","","","","","",""
"html-keyboard-response","335","560233","0.0-15.0-0.4","60ddf71e95896d2595f0e1a5","64b003020eef62ee308107cc","64b032edeade55cc3d9b3c40","null","null","<p style=""font-size: 60px; font-family: BACS"">KAERMBCAd</p>","","","","","","","",""
"html-keyboard-response","336","561234","0.0-15.0-0.5","60ddf71e95896d2595f0e1a5","64b003020eef62ee308107cc","64b032edeade55cc3d9b3c40","null","null","<p style=""font-size: 60px; font-family: BACS"">KAERMBCAd</p>","","","","","","","",""
"html-keyboard-response","337","562236","0.0-15.0-0.6","60ddf71e95896d2595f0e1a5","64b003020eef62ee308107cc","64b032edeade55cc3d9b3c40","null","null","<p style=""font-size: 60px; font-family: BACS"">KAERMBCAd</p>","","","","","","","",""
"html-keyboard-response","338","563237","0.0-15.0-0.7","60ddf71e95896d2595f0e1a5","64b003020eef62ee308107cc","64b032edeade55cc3d9b3c40","null","null","<p style=""font-size: 60px; font-family: BACS"">KAERMBCAd</p>","","","","","","","",""
"html-keyboard-response","339","564238","0.0-15.0-0.8","60ddf71e95896d2595f0e1a5","64b003020eef62ee308107cc","64b032edeade55cc3d9b3c40","null","null","<p style=""font-size: 60px; font-family: BACS"">KAERMBCAd</p>","","","","","","","",""
"html-keyboard-response","340","565239","0.0-15.0-0.9","60ddf71e95896d2595f0e1a5","64b003020eef62ee308107cc","64b032edeade55cc3d9b3c40","null","null","<p style=""font-size: 60px; font-family: BACS"">KAERMBCAd</p>","","","","","","","",""
"html-keyboard-response","341","566243","0.0-15.0-0.10","60ddf71e95896d2595f0e1a5","64b003020eef62ee308107cc","64b032edeade55cc3d9b3c40","null","null","<p style=""font-size: 60px; font-family: BACS"">KAERMBCAd</p>","","","","","","","",""
"html-keyboard-response","342","567244","0.0-15.0-0.11","60ddf71e95896d2595f0e1a5","64b003020eef62ee308107cc","64b032edeade55cc3d9b3c40","null","null","<p style=""font-size: 60px; font-family: BACS"">KAERMBCAd</p>","","","","","","","",""
"html-keyboard-response","343","568250","0.0-15.0-0.12","60ddf71e95896d2595f0e1a5","64b003020eef62ee308107cc","64b032edeade55cc3d9b3c40","null","null","<p style=""font-size: 60px; font-family: BACS"">KAERMBCAd</p>","","","","","","","",""
"html-keyboard-response","344","569251","0.0-15.0-0.13","60ddf71e95896d2595f0e1a5","64b003020eef62ee308107cc","64b032edeade55cc3d9b3c40","null","null","<p style=""font-size: 60px; font-family: BACS"">KAERMBCAd</p>","","","","","","","",""
"html-keyboard-response","345","570253","0.0-15.0-0.14","60ddf71e95896d2595f0e1a5","64b003020eef62ee308107cc","64b032edeade55cc3d9b3c40","null","null","<p style=""font-size: 60px; font-family: BACS"">KAERMBCAd</p>","","","","","","","",""
"html-keyboard-response","346","571260","0.0-15.0-0.15","60ddf71e95896d2595f0e1a5","64b003020eef62ee308107cc","64b032edeade55cc3d9b3c40","null","null","<p style=""font-size: 60px; font-family: BACS"">KAERMBCAd</p>","","","","","","","",""
"html-keyboard-response","347","572262","0.0-15.0-0.16","60ddf71e95896d2595f0e1a5","64b003020eef62ee308107cc","64b032edeade55cc3d9b3c40","null","null","<p style=""font-size: 60px; font-family: BACS"">KAERMBCAd</p>","","","","","","","",""
"html-keyboard-response","348","573263","0.0-15.0-0.17","60ddf71e95896d2595f0e1a5","64b003020eef62ee308107cc","64b032edeade55cc3d9b3c40","null","null","<p style=""font-size: 60px; font-family: BACS"">KAERMBCAd</p>","","","","","","","",""
"html-keyboard-response","349","574266","0.0-15.0-0.18","60ddf71e95896d2595f0e1a5","64b003020eef62ee308107cc","64b032edeade55cc3d9b3c40","null","null","<p style=""font-size: 60px; font-family: BACS"">KAERMBCAd</p>","","","","","","","",""
"html-keyboard-response","350","575268","0.0-15.0-0.19","60ddf71e95896d2595f0e1a5","64b003020eef62ee308107cc","64b032edeade55cc3d9b3c40","null","null","<p style=""font-size: 60px; font-family: BACS"">KAERMBCAd</p>","","","","","","","",""
"html-keyboard-response","351","576269","0.0-15.0-0.20","60ddf71e95896d2595f0e1a5","64b003020eef62ee308107cc","64b032edeade55cc3d9b3c40","null","null","<p style=""font-size: 60px; font-family: BACS"">KAERMBCAd</p>","","","","","","","",""
"html-keyboard-response","352","577285","0.0-15.0-0.21","60ddf71e95896d2595f0e1a5","64b003020eef62ee308107cc","64b032edeade55cc3d9b3c40","null","null","<p style=""font-size: 60px; font-family: BACS"">KAERMBCAd</p>","","","","","","","",""
"html-keyboard-response","353","578286","0.0-15.0-0.22","60ddf71e95896d2595f0e1a5","64b003020eef62ee308107cc","64b032edeade55cc3d9b3c40","null","null","<p style=""font-size: 60px; font-family: BACS"">KAERMBCAd</p>","","","","","","","",""
"html-keyboard-response","354","579288","0.0-15.0-0.23","60ddf71e95896d2595f0e1a5","64b003020eef62ee308107cc","64b032edeade55cc3d9b3c40","null","null","<p style=""font-size: 60px; font-family: BACS"">KAERMBCAd</p>","","","","","","","",""
"html-keyboard-response","355","580288","0.0-15.0-0.24","60ddf71e95896d2595f0e1a5","64b003020eef62ee308107cc","64b032edeade55cc3d9b3c40","null","null","<p style=""font-size: 60px; font-family: BACS"">KAERMBCAd</p>","","","","","","","",""
"html-keyboard-response","356","581289","0.0-15.0-0.25","60ddf71e95896d2595f0e1a5","64b003020eef62ee308107cc","64b032edeade55cc3d9b3c40","null","null","<p style=""font-size: 60px; font-family: BACS"">KAERMBCAd</p>","","","","","","","",""
"html-keyboard-response","357","582300","0.0-15.0-0.26","60ddf71e95896d2595f0e1a5","64b003020eef62ee308107cc","64b032edeade55cc3d9b3c40","null","null","<p style=""font-size: 60px; font-family: BACS"">KAERMBCAd</p>","","","","","","","",""
"html-keyboard-response","358","583310","0.0-15.0-0.27","60ddf71e95896d2595f0e1a5","64b003020eef62ee308107cc","64b032edeade55cc3d9b3c40","null","null","<p style=""font-size: 60px; font-family: BACS"">KAERMBCAd</p>","","","","","","","",""
"html-keyboard-response","359","584312","0.0-15.0-0.28","60ddf71e95896d2595f0e1a5","64b003020eef62ee308107cc","64b032edeade55cc3d9b3c40","null","null","<p style=""font-size: 60px; font-family: BACS"">KAERMBCAd</p>","","","","","","","",""
"html-keyboard-response","360","585315","0.0-15.0-0.29","60ddf71e95896d2595f0e1a5","64b003020eef62ee308107cc","64b032edeade55cc3d9b3c40","null","null","<p style=""font-size: 60px; font-family: BACS"">KAERMBCAd</p>","","","","","","","",""
"html-keyboard-response","361","586317","0.0-15.0-0.30","60ddf71e95896d2595f0e1a5","64b003020eef62ee308107cc","64b032edeade55cc3d9b3c40","null","null","<p style=""font-size: 60px; font-family: BACS"">KAERMBCAd</p>","","","","","","","",""
"html-keyboard-response","362","587325","0.0-15.0-0.31","60ddf71e95896d2595f0e1a5","64b003020eef62ee308107cc","64b032edeade55cc3d9b3c40","null","null","<p style=""font-size: 60px; font-family: BACS"">KAERMBCAd</p>","","","","","","","",""
"html-keyboard-response","363","588326","0.0-15.0-0.32","60ddf71e95896d2595f0e1a5","64b003020eef62ee308107cc","64b032edeade55cc3d9b3c40","null","null","<p style=""font-size: 60px; font-family: BACS"">KAERMBCAd</p>","","","","","","","",""
"html-keyboard-response","364","589327","0.0-15.0-0.33","60ddf71e95896d2595f0e1a5","64b003020eef62ee308107cc","64b032edeade55cc3d9b3c40","null","null","<p style=""font-size: 60px; font-family: BACS"">KAERMBCAd</p>","","","","","","","",""
"html-keyboard-response","365","590335","0.0-15.0-0.34","60ddf71e95896d2595f0e1a5","64b003020eef62ee308107cc","64b032edeade55cc3d9b3c40","null","null","<p style=""font-size: 60px; font-family: BACS"">KAERMBCAd</p>","","","","","","","",""
"html-keyboard-response","366","591336","0.0-15.0-0.35","60ddf71e95896d2595f0e1a5","64b003020eef62ee308107cc","64b032edeade55cc3d9b3c40","null","null","<p style=""font-size: 60px; font-family: BACS"">KAERMBCAd</p>","","","","","","","",""
"html-keyboard-response","367","592337","0.0-15.0-0.36","60ddf71e95896d2595f0e1a5","64b003020eef62ee308107cc","64b032edeade55cc3d9b3c40","null","null","<p style=""font-size: 60px; font-family: BACS"">KAERMBCAd</p>","","","","","","","",""
"html-keyboard-response","368","593339","0.0-15.0-0.37","60ddf71e95896d2595f0e1a5","64b003020eef62ee308107cc","64b032edeade55cc3d9b3c40","null","null","<p style=""font-size: 60px; font-family: BACS"">KAERMBCAd</p>","","","","","","","",""
"html-keyboard-response","369","594345","0.0-15.0-0.38","60ddf71e95896d2595f0e1a5","64b003020eef62ee308107cc","64b032edeade55cc3d9b3c40","null","null","<p style=""font-size: 60px; font-family: BACS"">KAERMBCAd</p>","","","","","","","",""
"html-keyboard-response","370","595356","0.0-15.0-0.39","60ddf71e95896d2595f0e1a5","64b003020eef62ee308107cc","64b032edeade55cc3d9b3c40","null","null","<p style=""font-size: 60px; font-family: BACS"">KAERMBCAd</p>","","","","","","","",""
"html-keyboard-response","371","596371","0.0-15.0-0.40","60ddf71e95896d2595f0e1a5","64b003020eef62ee308107cc","64b032edeade55cc3d9b3c40","null","null","<p style=""font-size: 60px; font-family: BACS"">KAERMBCAd</p>","","","","","","","",""
"html-keyboard-response","372","597373","0.0-15.0-0.41","60ddf71e95896d2595f0e1a5","64b003020eef62ee308107cc","64b032edeade55cc3d9b3c40","null","null","<p style=""font-size: 60px; font-family: BACS"">KAERMBCAd</p>","","","","","","","",""
"html-keyboard-response","373","598386","0.0-15.0-0.42","60ddf71e95896d2595f0e1a5","64b003020eef62ee308107cc","64b032edeade55cc3d9b3c40","null","null","<p style=""font-size: 60px; font-family: BACS"">KAERMBCAd</p>","","","","","","","",""
"html-keyboard-response","374","599388","0.0-15.0-0.43","60ddf71e95896d2595f0e1a5","64b003020eef62ee308107cc","64b032edeade55cc3d9b3c40","null","null","<p style=""font-size: 60px; font-family: BACS"">KAERMBCAd</p>","","","","","","","",""
"html-keyboard-response","375","600390","0.0-15.0-0.44","60ddf71e95896d2595f0e1a5","64b003020eef62ee308107cc","64b032edeade55cc3d9b3c40","null","null","<p style=""font-size: 60px; font-family: BACS"">KAERMBCAd</p>","","","","","","","",""
"html-keyboard-response","376","601401","0.0-15.0-0.45","60ddf71e95896d2595f0e1a5","64b003020eef62ee308107cc","64b032edeade55cc3d9b3c40","null","null","<p style=""font-size: 60px; font-family: BACS"">KAERMBCAd</p>","","","","","","","",""
"html-keyboard-response","377","602402","0.0-15.0-0.46","60ddf71e95896d2595f0e1a5","64b003020eef62ee308107cc","64b032edeade55cc3d9b3c40","null","null","<p style=""font-size: 60px; font-family: BACS"">KAERMBCAd</p>","","","","","","","",""
"html-keyboard-response","378","603407","0.0-15.0-0.47","60ddf71e95896d2595f0e1a5","64b003020eef62ee308107cc","64b032edeade55cc3d9b3c40","null","null","<p style=""font-size: 60px; font-family: BACS"">KAERMBCAd</p>","","","","","","","",""
"html-keyboard-response","379","604408","0.0-15.0-0.48","60ddf71e95896d2595f0e1a5","64b003020eef62ee308107cc","64b032edeade55cc3d9b3c40","null","null","<p style=""font-size: 60px; font-family: BACS"">KAERMBCAd</p>","","","","","","","",""
"html-keyboard-response","380","605418","0.0-15.0-0.49","60ddf71e95896d2595f0e1a5","64b003020eef62ee308107cc","64b032edeade55cc3d9b3c40","null","null","<p style=""font-size: 60px; font-family: BACS"">KAERMBCAd</p>","","","","","","","",""
"html-keyboard-response","381","606430","0.0-15.0-0.50","60ddf71e95896d2595f0e1a5","64b003020eef62ee308107cc","64b032edeade55cc3d9b3c40","null","null","<p style=""font-size: 60px; font-family: BACS"">KAERMBCAd</p>","","","","","","","",""
"html-keyboard-response","382","607433","0.0-15.0-0.51","60ddf71e95896d2595f0e1a5","64b003020eef62ee308107cc","64b032edeade55cc3d9b3c40","null","null","<p style=""font-size: 60px; font-family: BACS"">KAERMBCAd</p>","","","","","","","",""
"html-keyboard-response","383","608448","0.0-15.0-0.52","60ddf71e95896d2595f0e1a5","64b003020eef62ee308107cc","64b032edeade55cc3d9b3c40","null","null","<p style=""font-size: 60px; font-family: BACS"">KAERMBCAd</p>","","","","","","","",""
"html-keyboard-response","384","609450","0.0-15.0-0.53","60ddf71e95896d2595f0e1a5","64b003020eef62ee308107cc","64b032edeade55cc3d9b3c40","null","null","<p style=""font-size: 60px; font-family: BACS"">KAERMBCAd</p>","","","","","","","",""
"html-keyboard-response","385","610458","0.0-15.0-0.54","60ddf71e95896d2595f0e1a5","64b003020eef62ee308107cc","64b032edeade55cc3d9b3c40","null","null","<p style=""font-size: 60px; font-family: BACS"">KAERMBCAd</p>","","","","","","","",""
"html-keyboard-response","386","611459","0.0-15.0-0.55","60ddf71e95896d2595f0e1a5","64b003020eef62ee308107cc","64b032edeade55cc3d9b3c40","null","null","<p style=""font-size: 60px; font-family: BACS"">KAERMBCAd</p>","","","","","","","",""
"html-keyboard-response","387","612460","0.0-15.0-0.56","60ddf71e95896d2595f0e1a5","64b003020eef62ee308107cc","64b032edeade55cc3d9b3c40","null","null","<p style=""font-size: 60px; font-family: BACS"">KAERMBCAd</p>","","","","","","","",""
"html-keyboard-response","388","613469","0.0-15.0-0.57","60ddf71e95896d2595f0e1a5","64b003020eef62ee308107cc","64b032edeade55cc3d9b3c40","null","null","<p style=""font-size: 60px; font-family: BACS"">KAERMBCAd</p>","","","","","","","",""
"html-keyboard-response","389","614484","0.0-15.0-0.58","60ddf71e95896d2595f0e1a5","64b003020eef62ee308107cc","64b032edeade55cc3d9b3c40","null","null","<p style=""font-size: 60px; font-family: BACS"">KAERMBCAd</p>","","","","","","","",""
"html-keyboard-response","390","615486","0.0-15.0-0.59","60ddf71e95896d2595f0e1a5","64b003020eef62ee308107cc","64b032edeade55cc3d9b3c40","null","null","<p style=""font-size: 60px; font-family: BACS"">KAERMBCAd</p>","","","","","","","",""
"html-keyboard-response","391","616487","0.0-15.0-0.60","60ddf71e95896d2595f0e1a5","64b003020eef62ee308107cc","64b032edeade55cc3d9b3c40","null","null","<p style=""font-size: 60px; font-family: BACS"">KAERMBCAd</p>","","","","","","","",""
"html-keyboard-response","392","617492","0.0-15.0-0.61","60ddf71e95896d2595f0e1a5","64b003020eef62ee308107cc","64b032edeade55cc3d9b3c40","null","null","<p style=""font-size: 60px; font-family: BACS"">KAERMBCAd</p>","","","","","","","",""
"html-keyboard-response","393","618492","0.0-15.0-0.62","60ddf71e95896d2595f0e1a5","64b003020eef62ee308107cc","64b032edeade55cc3d9b3c40","null","null","<p style=""font-size: 60px; font-family: BACS"">KAERMBCAd</p>","","","","","","","",""
"html-keyboard-response","394","619494","0.0-15.0-0.63","60ddf71e95896d2595f0e1a5","64b003020eef62ee308107cc","64b032edeade55cc3d9b3c40","null","null","<p style=""font-size: 60px; font-family: BACS"">KAERMBCAd</p>","","","","","","","",""
"html-keyboard-response","395","620494","0.0-15.0-0.64","60ddf71e95896d2595f0e1a5","64b003020eef62ee308107cc","64b032edeade55cc3d9b3c40","null","null","<p style=""font-size: 60px; font-family: BACS"">KAERMBCAd</p>","","","","","","","",""
"html-keyboard-response","396","621495","0.0-15.0-0.65","60ddf71e95896d2595f0e1a5","64b003020eef62ee308107cc","64b032edeade55cc3d9b3c40","null","null","<p style=""font-size: 60px; font-family: BACS"">KAERMBCAd</p>","","","","","","","",""
"html-keyboard-response","397","622496","0.0-15.0-0.66","60ddf71e95896d2595f0e1a5","64b003020eef62ee308107cc","64b032edeade55cc3d9b3c40","null","null","<p style=""font-size: 60px; font-family: BACS"">KAERMBCAd</p>","","","","","","","",""
"html-keyboard-response","398","623497","0.0-15.0-0.67","60ddf71e95896d2595f0e1a5","64b003020eef62ee308107cc","64b032edeade55cc3d9b3c40","null","null","<p style=""font-size: 60px; font-family: BACS"">KAERMBCAd</p>","","","","","","","",""
"html-keyboard-response","399","624497","0.0-15.0-0.68","60ddf71e95896d2595f0e1a5","64b003020eef62ee308107cc","64b032edeade55cc3d9b3c40","null","null","<p style=""font-size: 60px; font-family: BACS"">KAERMBCAd</p>","","","","","","","",""
