"trial_type","trial_index","time_elapsed","internal_node_id","subject_id","study_id","session_id","rt","response","stimulus","success","item","task","correct_response","testing_condition","correct","target","confound","name"
"pavlovia","0","739","0.0-0.0","5e89e89bf025be000c01eead","650c16f0f2faf8d7a0d14c09","651c1ce47596cda8cdc9a6a5","","","","","","","","","","","",""
"survey-html-form","1","8518","0.0-1.0","5e89e89bf025be000c01eead","650c16f0f2faf8d7a0d14c09","651c1ce47596cda8cdc9a6a5","7779","{""ID"":""5e89e89bf025be000c01eead""}","","","","","","","","","",""
"html-keyboard-response","2","12260","0.0-2.0","5e89e89bf025be000c01eead","650c16f0f2faf8d7a0d14c09","651c1ce47596cda8cdc9a6a5","3740"," ","<p style=""font-size: 15px;"">Before beginning, we ask that you read the consent information and confirm your agreement to participate in the experiment.</p>
      <p style=""font-size: 15px;""> We ask that you remember that this is a research project and that your participation is entirely voluntary. You can stop your participation at any time, without needing to provide any explanation. The study we're asking you to participate in aims at examining how readers process written words. You will be engaged in a session of apprximately 20 minutes, followed by a brief questionnaire. You will have the opportunity to take a few breaks during the experiment. You will be paid £4 for your participation, corresponding to a rate of £8/hour. While this experiment looks at cognitive faculties, this experiment doesn't constitute clinical proof of eventual pathologies.</p>
      <p style=""font-size: 15px;"">All of the information collected thanks to yours and others' participation will be held in a secure password-protected server, and will not be shared with anyone not authorised to view it. Your personal information will be kept with an arbitrary participant ID. Thanks to this data anonymity process, any researcher analysing the data won't be able to track the information back to a specific participant. Therefore, this process will make identifying you impossibile, even when results from the study will be published in scientific reviews, presented at congresses, or at any other public forum. More generally, the collected data will be treated in accordance with the laws on privacy and conformity to the Legislative Degree n. 196 ""Code regarding the protection of personal data"" of the 30th of June 2003 and to the European Regulation 2016/670 (General Data Protection Regulation - GDPR). The Data Protection Officer is Avv. Valentina Carollo, who can be contacted at the following email addresses: <a href=""mailto:dpo@sissa.it"">dpo@sissa.it</a> or <a href=""mailto:rpd@sissa.it"">rpd@sissa.it</a> - PEC: <a href=""mailto:protocollo@pec.sissa.it"">protocollo@pec.sissa.it</a>.</p>
      <p style=""font-size: 15px;""> Before expressing your consent to participate, we would like to remind you again that in case you need explanations on any aspect of the experimental procedure, the researcher is at your disposition (<a href=""mailto:aliebelt@sissa.it"">aliebelt@sissa.it</a>, <a href=""mailto:davide.crepaldi@sissa.it"">davide.crepaldi@sissa.it</a>).</p>
      <p style=""font-size: 15px;"">If you would like to download the informed consent form, you can do so here: <a href=""BASL-Informed_Consent.pdf"" download>informed consent form</a>.</p>
      <p style=""font-size: 15px;"">We ask that you press the spacebar to proceed to the consent section.</p>","","","","","","","","",""
"survey-html-form","3","26049","0.0-3.0","5e89e89bf025be000c01eead","650c16f0f2faf8d7a0d14c09","651c1ce47596cda8cdc9a6a5","13789","{""consent1"":""YES"",""consent2"":""YES"",""consent3"":""YES"",""consent4"":""YES"",""consent5"":""YES"",""consent6"":""YES""}","","","","","","","","","",""
"fullscreen","4","31574","0.0-4.0","5e89e89bf025be000c01eead","650c16f0f2faf8d7a0d14c09","651c1ce47596cda8cdc9a6a5","","","","true","","","","","","","",""
"html-keyboard-response","5","48219","0.0-5.0","5e89e89bf025be000c01eead","650c16f0f2faf8d7a0d14c09","651c1ce47596cda8cdc9a6a5","16644"," ","<p>Welcome, and thank you very much for your time!</p>
      <p>In this experiment, you'll be a language expert who's been asked to take a look at words that Earth has received in its first communication with aliens. Your task, in this first part of the experiment, is to pay close attention to the words you'll be shown; later, world leaders will ask you questions on what you saw. The words will be shown to you quite quickly; it seems that the aliens were in a hurry :-)</p>
      <p>Press the spacebar to continue.<p>","","","","","","","","",""
"html-keyboard-response","6","48269","0.0-6.0","5e89e89bf025be000c01eead","650c16f0f2faf8d7a0d14c09","651c1ce47596cda8cdc9a6a5","null","null","<p style=""font-size: 120px; font-family: BACS""> </p>","","","","","","","","",""
"html-keyboard-response","7","53603","0.0-7.0","5e89e89bf025be000c01eead","650c16f0f2faf8d7a0d14c09","651c1ce47596cda8cdc9a6a5","5334"," ","<p>Here is an example of the words you'll see:</p>
      <img src='esempio.png' height='400px'>
      <p>When you're ready to begin, press the spacebar.</p></div>","","","","","","","","",""
"html-keyboard-response","8","54608","0.0-8.0-0.0","5e89e89bf025be000c01eead","650c16f0f2faf8d7a0d14c09","651c1ce47596cda8cdc9a6a5","null","null","<p style=""font-size: 60px; font-family: BACS"">ORbkhRKm</p>","","","","","","","","",""
"html-keyboard-response","9","55622","0.0-8.0-0.1","5e89e89bf025be000c01eead","650c16f0f2faf8d7a0d14c09","651c1ce47596cda8cdc9a6a5","null","null","<p style=""font-size: 60px; font-family: BACS"">DdckBCD</p>","","","","","","","","",""
"html-keyboard-response","10","56623","0.0-8.0-0.2","5e89e89bf025be000c01eead","650c16f0f2faf8d7a0d14c09","651c1ce47596cda8cdc9a6a5","null","null","<p style=""font-size: 60px; font-family: BACS"">dClOCBCAd</p>","","","","","","","","",""
"html-keyboard-response","11","57636","0.0-8.0-0.3","5e89e89bf025be000c01eead","650c16f0f2faf8d7a0d14c09","651c1ce47596cda8cdc9a6a5","null","null","<p style=""font-size: 60px; font-family: BACS"">JAaGrZYd</p>","","","","","","","","",""
"html-keyboard-response","12","58640","0.0-8.0-0.4","5e89e89bf025be000c01eead","650c16f0f2faf8d7a0d14c09","651c1ce47596cda8cdc9a6a5","null","null","<p style=""font-size: 60px; font-family: BACS"">CkBOPBbM</p>","","","","","","","","",""
"html-keyboard-response","13","59642","0.0-8.0-0.5","5e89e89bf025be000c01eead","650c16f0f2faf8d7a0d14c09","651c1ce47596cda8cdc9a6a5","null","null","<p style=""font-size: 60px; font-family: BACS"">UaYLYZJO</p>","","","","","","","","",""
"html-keyboard-response","14","60644","0.0-8.0-0.6","5e89e89bf025be000c01eead","650c16f0f2faf8d7a0d14c09","651c1ce47596cda8cdc9a6a5","null","null","<p style=""font-size: 60px; font-family: BACS"">ZdNmUrZYd</p>","","","","","","","","",""
"html-keyboard-response","15","61648","0.0-8.0-0.7","5e89e89bf025be000c01eead","650c16f0f2faf8d7a0d14c09","651c1ce47596cda8cdc9a6a5","null","null","<p style=""font-size: 60px; font-family: BACS"">KMOcBCD</p>","","","","","","","","",""
"html-keyboard-response","16","62650","0.0-8.0-0.8","5e89e89bf025be000c01eead","650c16f0f2faf8d7a0d14c09","651c1ce47596cda8cdc9a6a5","null","null","<p style=""font-size: 60px; font-family: BACS"">ctktBCAd</p>","","","","","","","","",""
"html-keyboard-response","17","63652","0.0-8.0-0.9","5e89e89bf025be000c01eead","650c16f0f2faf8d7a0d14c09","651c1ce47596cda8cdc9a6a5","null","null","<p style=""font-size: 60px; font-family: BACS"">dClOChRKm</p>","","","","","","","","",""
"html-keyboard-response","18","64655","0.0-8.0-0.10","5e89e89bf025be000c01eead","650c16f0f2faf8d7a0d14c09","651c1ce47596cda8cdc9a6a5","null","null","<p style=""font-size: 60px; font-family: BACS"">AdDbBCD</p>","","","","","","","","",""
"html-keyboard-response","19","65656","0.0-8.0-0.11","5e89e89bf025be000c01eead","650c16f0f2faf8d7a0d14c09","651c1ce47596cda8cdc9a6a5","null","null","<p style=""font-size: 60px; font-family: BACS"">JAaGYZJO</p>","","","","","","","","",""
"html-keyboard-response","20","66664","0.0-8.0-0.12","5e89e89bf025be000c01eead","650c16f0f2faf8d7a0d14c09","651c1ce47596cda8cdc9a6a5","null","null","<p style=""font-size: 60px; font-family: BACS"">UaYLrZYd</p>","","","","","","","","",""
"html-keyboard-response","21","67668","0.0-8.0-0.13","5e89e89bf025be000c01eead","650c16f0f2faf8d7a0d14c09","651c1ce47596cda8cdc9a6a5","null","null","<p style=""font-size: 60px; font-family: BACS"">dOYmlBbM</p>","","","","","","","","",""
"html-keyboard-response","22","68672","0.0-8.0-0.14","5e89e89bf025be000c01eead","650c16f0f2faf8d7a0d14c09","651c1ce47596cda8cdc9a6a5","null","null","<p style=""font-size: 60px; font-family: BACS"">NAacQrZYd</p>","","","","","","","","",""
"html-keyboard-response","23","69694","0.0-8.0-0.15","5e89e89bf025be000c01eead","650c16f0f2faf8d7a0d14c09","651c1ce47596cda8cdc9a6a5","null","null","<p style=""font-size: 60px; font-family: BACS"">KMOchRKm</p>","","","","","","","","",""
"html-keyboard-response","24","70706","0.0-8.0-0.16","5e89e89bf025be000c01eead","650c16f0f2faf8d7a0d14c09","651c1ce47596cda8cdc9a6a5","null","null","<p style=""font-size: 60px; font-family: BACS"">KRARmBCAd</p>","","","","","","","","",""
"html-keyboard-response","25","71708","0.0-8.0-0.17","5e89e89bf025be000c01eead","650c16f0f2faf8d7a0d14c09","651c1ce47596cda8cdc9a6a5","null","null","<p style=""font-size: 60px; font-family: BACS"">DdckYbBT</p>","","","","","","","","",""
"html-keyboard-response","26","72712","0.0-8.0-0.18","5e89e89bf025be000c01eead","650c16f0f2faf8d7a0d14c09","651c1ce47596cda8cdc9a6a5","null","null","<p style=""font-size: 60px; font-family: BACS"">ZdNmUcUN</p>","","","","","","","","",""
"html-keyboard-response","27","73714","0.0-8.0-0.19","5e89e89bf025be000c01eead","650c16f0f2faf8d7a0d14c09","651c1ce47596cda8cdc9a6a5","null","null","<p style=""font-size: 60px; font-family: BACS"">CkBOPBCAd</p>","","","","","","","","",""
"html-keyboard-response","28","74720","0.0-8.0-0.20","5e89e89bf025be000c01eead","650c16f0f2faf8d7a0d14c09","651c1ce47596cda8cdc9a6a5","null","null","<p style=""font-size: 60px; font-family: BACS"">GJZmrZYd</p>","","","","","","","","",""
"html-keyboard-response","29","75722","0.0-8.0-0.21","5e89e89bf025be000c01eead","650c16f0f2faf8d7a0d14c09","651c1ce47596cda8cdc9a6a5","null","null","<p style=""font-size: 60px; font-family: BACS"">ORbkBCAd</p>","","","","","","","","",""
"html-keyboard-response","30","76723","0.0-8.0-0.22","5e89e89bf025be000c01eead","650c16f0f2faf8d7a0d14c09","651c1ce47596cda8cdc9a6a5","null","null","<p style=""font-size: 60px; font-family: BACS"">kbmZOrZYd</p>","","","","","","","","",""
"html-keyboard-response","31","77728","0.0-8.0-0.23","5e89e89bf025be000c01eead","650c16f0f2faf8d7a0d14c09","651c1ce47596cda8cdc9a6a5","null","null","<p style=""font-size: 60px; font-family: BACS"">dClOCBbM</p>","","","","","","","","",""
"html-keyboard-response","32","78743","0.0-8.0-0.24","5e89e89bf025be000c01eead","650c16f0f2faf8d7a0d14c09","651c1ce47596cda8cdc9a6a5","null","null","<p style=""font-size: 60px; font-family: BACS"">ZdNmUYZJO</p>","","","","","","","","",""
"html-keyboard-response","33","79745","0.0-8.0-0.25","5e89e89bf025be000c01eead","650c16f0f2faf8d7a0d14c09","651c1ce47596cda8cdc9a6a5","null","null","<p style=""font-size: 60px; font-family: BACS"">JNkaAld</p>","","","","","","","","",""
"html-keyboard-response","34","80749","0.0-8.0-0.26","5e89e89bf025be000c01eead","650c16f0f2faf8d7a0d14c09","651c1ce47596cda8cdc9a6a5","null","null","<p style=""font-size: 60px; font-family: BACS"">ORbkBbM</p>","","","","","","","","",""
"html-keyboard-response","35","81753","0.0-8.0-0.27","5e89e89bf025be000c01eead","650c16f0f2faf8d7a0d14c09","651c1ce47596cda8cdc9a6a5","null","null","<p style=""font-size: 60px; font-family: BACS"">YNrAmYZJO</p>","","","","","","","","",""
"html-keyboard-response","36","82755","0.0-8.0-0.28","5e89e89bf025be000c01eead","650c16f0f2faf8d7a0d14c09","651c1ce47596cda8cdc9a6a5","null","null","<p style=""font-size: 60px; font-family: BACS"">GJZmcUN</p>","","","","","","","","",""
"html-keyboard-response","37","83760","0.0-8.0-0.29","5e89e89bf025be000c01eead","650c16f0f2faf8d7a0d14c09","651c1ce47596cda8cdc9a6a5","null","null","<p style=""font-size: 60px; font-family: BACS"">KRARmYbBT</p>","","","","","","","","",""
"html-keyboard-response","38","84766","0.0-8.0-0.30","5e89e89bf025be000c01eead","650c16f0f2faf8d7a0d14c09","651c1ce47596cda8cdc9a6a5","null","null","<p style=""font-size: 60px; font-family: BACS"">JNkarZYd</p>","","","","","","","","",""
"html-keyboard-response","39","85781","0.0-8.0-0.31","5e89e89bf025be000c01eead","650c16f0f2faf8d7a0d14c09","651c1ce47596cda8cdc9a6a5","null","null","<p style=""font-size: 60px; font-family: BACS"">YNrAmcbm</p>","","","","","","","","",""
"html-keyboard-response","40","86789","0.0-8.0-0.32","5e89e89bf025be000c01eead","650c16f0f2faf8d7a0d14c09","651c1ce47596cda8cdc9a6a5","null","null","<p style=""font-size: 60px; font-family: BACS"">ctktBCD</p>","","","","","","","","",""
"html-keyboard-response","41","87791","0.0-8.0-0.33","5e89e89bf025be000c01eead","650c16f0f2faf8d7a0d14c09","651c1ce47596cda8cdc9a6a5","null","null","<p style=""font-size: 60px; font-family: BACS"">EdBbBbM</p>","","","","","","","","",""
"html-keyboard-response","42","88796","0.0-8.0-0.34","5e89e89bf025be000c01eead","650c16f0f2faf8d7a0d14c09","651c1ce47596cda8cdc9a6a5","null","null","<p style=""font-size: 60px; font-family: BACS"">dClOCBCD</p>","","","","","","","","",""
"html-keyboard-response","43","89800","0.0-8.0-0.35","5e89e89bf025be000c01eead","650c16f0f2faf8d7a0d14c09","651c1ce47596cda8cdc9a6a5","null","null","<p style=""font-size: 60px; font-family: BACS"">KMOcBCAd</p>","","","","","","","","",""
"html-keyboard-response","44","90804","0.0-8.0-0.36","5e89e89bf025be000c01eead","650c16f0f2faf8d7a0d14c09","651c1ce47596cda8cdc9a6a5","null","null","<p style=""font-size: 60px; font-family: BACS"">vAuNlcbm</p>","","","","","","","","",""
"html-keyboard-response","45","91808","0.0-8.0-0.37","5e89e89bf025be000c01eead","650c16f0f2faf8d7a0d14c09","651c1ce47596cda8cdc9a6a5","null","null","<p style=""font-size: 60px; font-family: BACS"">AdDbhRKm</p>","","","","","","","","",""
"html-keyboard-response","46","92813","0.0-8.0-0.38","5e89e89bf025be000c01eead","650c16f0f2faf8d7a0d14c09","651c1ce47596cda8cdc9a6a5","null","null","<p style=""font-size: 60px; font-family: BACS"">JNkacUN</p>","","","","","","","","",""
"html-keyboard-response","47","93820","0.0-8.0-0.39","5e89e89bf025be000c01eead","650c16f0f2faf8d7a0d14c09","651c1ce47596cda8cdc9a6a5","null","null","<p style=""font-size: 60px; font-family: BACS"">NAacQcbm</p>","","","","","","","","",""
"html-keyboard-response","48","94824","0.0-8.0-0.40","5e89e89bf025be000c01eead","650c16f0f2faf8d7a0d14c09","651c1ce47596cda8cdc9a6a5","null","null","<p style=""font-size: 60px; font-family: BACS"">GJZmYZJO</p>","","","","","","","","",""
"html-keyboard-response","49","95837","0.0-8.0-0.41","5e89e89bf025be000c01eead","650c16f0f2faf8d7a0d14c09","651c1ce47596cda8cdc9a6a5","null","null","<p style=""font-size: 60px; font-family: BACS"">ctktBbM</p>","","","","","","","","",""
"html-keyboard-response","50","96852","0.0-8.0-0.42","5e89e89bf025be000c01eead","650c16f0f2faf8d7a0d14c09","651c1ce47596cda8cdc9a6a5","null","null","<p style=""font-size: 60px; font-family: BACS"">KRARmhRKm</p>","","","","","","","","",""
"html-keyboard-response","51","97853","0.0-8.0-0.43","5e89e89bf025be000c01eead","650c16f0f2faf8d7a0d14c09","651c1ce47596cda8cdc9a6a5","null","null","<p style=""font-size: 60px; font-family: BACS"">NAacQcUN</p>","","","","","","","","",""
"html-keyboard-response","52","98855","0.0-8.0-0.44","5e89e89bf025be000c01eead","650c16f0f2faf8d7a0d14c09","651c1ce47596cda8cdc9a6a5","null","null","<p style=""font-size: 60px; font-family: BACS"">kGlUrZYd</p>","","","","","","","","",""
"html-keyboard-response","53","99857","0.0-8.0-0.45","5e89e89bf025be000c01eead","650c16f0f2faf8d7a0d14c09","651c1ce47596cda8cdc9a6a5","null","null","<p style=""font-size: 60px; font-family: BACS"">vAuNlcUN</p>","","","","","","","","",""
"html-keyboard-response","54","100858","0.0-8.0-0.46","5e89e89bf025be000c01eead","650c16f0f2faf8d7a0d14c09","651c1ce47596cda8cdc9a6a5","null","null","<p style=""font-size: 60px; font-family: BACS"">KRARmBbM</p>","","","","","","","","",""
"html-keyboard-response","55","101866","0.0-8.0-0.47","5e89e89bf025be000c01eead","650c16f0f2faf8d7a0d14c09","651c1ce47596cda8cdc9a6a5","null","null","<p style=""font-size: 60px; font-family: BACS"">JNkaYZJO</p>","","","","","","","","",""
"html-keyboard-response","56","102870","0.0-8.0-0.48","5e89e89bf025be000c01eead","650c16f0f2faf8d7a0d14c09","651c1ce47596cda8cdc9a6a5","null","null","<p style=""font-size: 60px; font-family: BACS"">dOYmlBCAd</p>","","","","","","","","",""
"html-keyboard-response","57","103879","0.0-8.0-0.49","5e89e89bf025be000c01eead","650c16f0f2faf8d7a0d14c09","651c1ce47596cda8cdc9a6a5","null","null","<p style=""font-size: 60px; font-family: BACS"">JAaGcbm</p>","","","","","","","","",""
"html-keyboard-response","58","104885","0.0-8.0-0.50","5e89e89bf025be000c01eead","650c16f0f2faf8d7a0d14c09","651c1ce47596cda8cdc9a6a5","null","null","<p style=""font-size: 60px; font-family: BACS"">ctktYbBT</p>","","","","","","","","",""
"html-keyboard-response","59","105890","0.0-8.0-0.51","5e89e89bf025be000c01eead","650c16f0f2faf8d7a0d14c09","651c1ce47596cda8cdc9a6a5","null","null","<p style=""font-size: 60px; font-family: BACS"">DdckhRKm</p>","","","","","","","","",""
"html-keyboard-response","60","106892","0.0-8.0-0.52","5e89e89bf025be000c01eead","650c16f0f2faf8d7a0d14c09","651c1ce47596cda8cdc9a6a5","null","null","<p style=""font-size: 60px; font-family: BACS"">dOYmlBCD</p>","","","","","","","","",""
"html-keyboard-response","61","107894","0.0-8.0-0.53","5e89e89bf025be000c01eead","650c16f0f2faf8d7a0d14c09","651c1ce47596cda8cdc9a6a5","null","null","<p style=""font-size: 60px; font-family: BACS"">vAuNlAld</p>","","","","","","","","",""
"html-keyboard-response","62","108909","0.0-8.0-0.54","5e89e89bf025be000c01eead","650c16f0f2faf8d7a0d14c09","651c1ce47596cda8cdc9a6a5","null","null","<p style=""font-size: 60px; font-family: BACS"">kbmZOcbm</p>","","","","","","","","",""
"html-keyboard-response","63","109924","0.0-8.0-0.55","5e89e89bf025be000c01eead","650c16f0f2faf8d7a0d14c09","651c1ce47596cda8cdc9a6a5","null","null","<p style=""font-size: 60px; font-family: BACS"">DdckBCAd</p>","","","","","","","","",""
"html-keyboard-response","64","110927","0.0-8.0-0.56","5e89e89bf025be000c01eead","650c16f0f2faf8d7a0d14c09","651c1ce47596cda8cdc9a6a5","null","null","<p style=""font-size: 60px; font-family: BACS"">CkBOPhRKm</p>","","","","","","","","",""
"html-keyboard-response","65","111934","0.0-8.0-0.57","5e89e89bf025be000c01eead","650c16f0f2faf8d7a0d14c09","651c1ce47596cda8cdc9a6a5","null","null","<p style=""font-size: 60px; font-family: BACS"">AdDbBbM</p>","","","","","","","","",""
"html-keyboard-response","66","112935","0.0-8.0-0.58","5e89e89bf025be000c01eead","650c16f0f2faf8d7a0d14c09","651c1ce47596cda8cdc9a6a5","null","null","<p style=""font-size: 60px; font-family: BACS"">GJZmcbm</p>","","","","","","","","",""
"html-keyboard-response","67","113951","0.0-8.0-0.59","5e89e89bf025be000c01eead","650c16f0f2faf8d7a0d14c09","651c1ce47596cda8cdc9a6a5","null","null","<p style=""font-size: 60px; font-family: BACS"">dOYmlYbBT</p>","","","","","","","","",""
"html-keyboard-response","68","114953","0.0-8.0-0.60","5e89e89bf025be000c01eead","650c16f0f2faf8d7a0d14c09","651c1ce47596cda8cdc9a6a5","null","null","<p style=""font-size: 60px; font-family: BACS"">kbmZOAld</p>","","","","","","","","",""
"html-keyboard-response","69","115968","0.0-8.0-0.61","5e89e89bf025be000c01eead","650c16f0f2faf8d7a0d14c09","651c1ce47596cda8cdc9a6a5","null","null","<p style=""font-size: 60px; font-family: BACS"">EdBbBCD</p>","","","","","","","","",""
"html-keyboard-response","70","116983","0.0-8.0-0.62","5e89e89bf025be000c01eead","650c16f0f2faf8d7a0d14c09","651c1ce47596cda8cdc9a6a5","null","null","<p style=""font-size: 60px; font-family: BACS"">ZdNmUAld</p>","","","","","","","","",""
"html-keyboard-response","71","117986","0.0-8.0-0.63","5e89e89bf025be000c01eead","650c16f0f2faf8d7a0d14c09","651c1ce47596cda8cdc9a6a5","null","null","<p style=""font-size: 60px; font-family: BACS"">kbmZOcUN</p>","","","","","","","","",""
"html-keyboard-response","72","118994","0.0-8.0-0.64","5e89e89bf025be000c01eead","650c16f0f2faf8d7a0d14c09","651c1ce47596cda8cdc9a6a5","null","null","<p style=""font-size: 60px; font-family: BACS"">JAaGAld</p>","","","","","","","","",""
"html-keyboard-response","73","120008","0.0-8.0-0.65","5e89e89bf025be000c01eead","650c16f0f2faf8d7a0d14c09","651c1ce47596cda8cdc9a6a5","null","null","<p style=""font-size: 60px; font-family: BACS"">vAuNlYZJO</p>","","","","","","","","",""
"html-keyboard-response","74","121024","0.0-8.0-0.66","5e89e89bf025be000c01eead","650c16f0f2faf8d7a0d14c09","651c1ce47596cda8cdc9a6a5","null","null","<p style=""font-size: 60px; font-family: BACS"">AdDbYbBT</p>","","","","","","","","",""
"html-keyboard-response","75","122031","0.0-8.0-0.67","5e89e89bf025be000c01eead","650c16f0f2faf8d7a0d14c09","651c1ce47596cda8cdc9a6a5","null","null","<p style=""font-size: 60px; font-family: BACS"">ORbkBCD</p>","","","","","","","","",""
"html-keyboard-response","76","123046","0.0-8.0-0.68","5e89e89bf025be000c01eead","650c16f0f2faf8d7a0d14c09","651c1ce47596cda8cdc9a6a5","null","null","<p style=""font-size: 60px; font-family: BACS"">kGlUcUN</p>","","","","","","","","",""
"html-keyboard-response","77","124051","0.0-8.0-0.69","5e89e89bf025be000c01eead","650c16f0f2faf8d7a0d14c09","651c1ce47596cda8cdc9a6a5","null","null","<p style=""font-size: 60px; font-family: BACS"">CkBOPYbBT</p>","","","","","","","","",""
"html-keyboard-response","78","125056","0.0-8.0-0.70","5e89e89bf025be000c01eead","650c16f0f2faf8d7a0d14c09","651c1ce47596cda8cdc9a6a5","null","null","<p style=""font-size: 60px; font-family: BACS"">EdBbhRKm</p>","","","","","","","","",""
"html-keyboard-response","79","126058","0.0-8.0-0.71","5e89e89bf025be000c01eead","650c16f0f2faf8d7a0d14c09","651c1ce47596cda8cdc9a6a5","null","null","<p style=""font-size: 60px; font-family: BACS"">UaYLAld</p>","","","","","","","","",""
"html-keyboard-response","80","127061","0.0-8.0-0.72","5e89e89bf025be000c01eead","650c16f0f2faf8d7a0d14c09","651c1ce47596cda8cdc9a6a5","null","null","<p style=""font-size: 60px; font-family: BACS"">kGlUcbm</p>","","","","","","","","",""
"html-keyboard-response","81","128063","0.0-8.0-0.73","5e89e89bf025be000c01eead","650c16f0f2faf8d7a0d14c09","651c1ce47596cda8cdc9a6a5","null","null","<p style=""font-size: 60px; font-family: BACS"">YNrAmcUN</p>","","","","","","","","",""
"html-keyboard-response","82","129064","0.0-8.0-0.74","5e89e89bf025be000c01eead","650c16f0f2faf8d7a0d14c09","651c1ce47596cda8cdc9a6a5","null","null","<p style=""font-size: 60px; font-family: BACS"">KMOcYbBT</p>","","","","","","","","",""
"html-keyboard-response","83","130074","0.0-8.0-0.75","5e89e89bf025be000c01eead","650c16f0f2faf8d7a0d14c09","651c1ce47596cda8cdc9a6a5","null","null","<p style=""font-size: 60px; font-family: BACS"">NAacQAld</p>","","","","","","","","",""
"html-keyboard-response","84","131081","0.0-8.0-0.76","5e89e89bf025be000c01eead","650c16f0f2faf8d7a0d14c09","651c1ce47596cda8cdc9a6a5","null","null","<p style=""font-size: 60px; font-family: BACS"">kGlUYZJO</p>","","","","","","","","",""
"html-keyboard-response","85","132086","0.0-8.0-0.77","5e89e89bf025be000c01eead","650c16f0f2faf8d7a0d14c09","651c1ce47596cda8cdc9a6a5","null","null","<p style=""font-size: 60px; font-family: BACS"">EdBbYbBT</p>","","","","","","","","",""
"html-keyboard-response","86","133089","0.0-8.0-0.78","5e89e89bf025be000c01eead","650c16f0f2faf8d7a0d14c09","651c1ce47596cda8cdc9a6a5","null","null","<p style=""font-size: 60px; font-family: BACS"">YNrAmAld</p>","","","","","","","","",""
"html-keyboard-response","87","134090","0.0-8.0-0.79","5e89e89bf025be000c01eead","650c16f0f2faf8d7a0d14c09","651c1ce47596cda8cdc9a6a5","null","null","<p style=""font-size: 60px; font-family: BACS"">UaYLcbm</p>","","","","","","","","",""
"html-keyboard-response","88","138039","0.0-9.0","5e89e89bf025be000c01eead","650c16f0f2faf8d7a0d14c09","651c1ce47596cda8cdc9a6a5","3948"," ","<p>Great, you've seen the first block of words. You may now take a short break.</p>
      <p>Press the spacebar when you're ready to continue.</p>","","","","","","","","",""
"html-keyboard-response","89","139049","0.0-10.0-0.0","5e89e89bf025be000c01eead","650c16f0f2faf8d7a0d14c09","651c1ce47596cda8cdc9a6a5","null","null","<p style=""font-size: 60px; font-family: BACS"">kbmZOAld</p>","","","","","","","","",""
"html-keyboard-response","90","140053","0.0-10.0-0.1","5e89e89bf025be000c01eead","650c16f0f2faf8d7a0d14c09","651c1ce47596cda8cdc9a6a5","null","null","<p style=""font-size: 60px; font-family: BACS"">UaYLYZJO</p>","","","","","","","","",""
"html-keyboard-response","91","141057","0.0-10.0-0.2","5e89e89bf025be000c01eead","650c16f0f2faf8d7a0d14c09","651c1ce47596cda8cdc9a6a5","null","null","<p style=""font-size: 60px; font-family: BACS"">ctktYbBT</p>","","","","","","","","",""
"html-keyboard-response","92","142060","0.0-10.0-0.3","5e89e89bf025be000c01eead","650c16f0f2faf8d7a0d14c09","651c1ce47596cda8cdc9a6a5","null","null","<p style=""font-size: 60px; font-family: BACS"">JNkaYZJO</p>","","","","","","","","",""
"html-keyboard-response","93","143065","0.0-10.0-0.4","5e89e89bf025be000c01eead","650c16f0f2faf8d7a0d14c09","651c1ce47596cda8cdc9a6a5","null","null","<p style=""font-size: 60px; font-family: BACS"">KMOchRKm</p>","","","","","","","","",""
"html-keyboard-response","94","144065","0.0-10.0-0.5","5e89e89bf025be000c01eead","650c16f0f2faf8d7a0d14c09","651c1ce47596cda8cdc9a6a5","null","null","<p style=""font-size: 60px; font-family: BACS"">JNkarZYd</p>","","","","","","","","",""
"html-keyboard-response","95","145068","0.0-10.0-0.6","5e89e89bf025be000c01eead","650c16f0f2faf8d7a0d14c09","651c1ce47596cda8cdc9a6a5","null","null","<p style=""font-size: 60px; font-family: BACS"">ctktBCD</p>","","","","","","","","",""
"html-keyboard-response","96","146073","0.0-10.0-0.7","5e89e89bf025be000c01eead","650c16f0f2faf8d7a0d14c09","651c1ce47596cda8cdc9a6a5","null","null","<p style=""font-size: 60px; font-family: BACS"">GJZmcbm</p>","","","","","","","","",""
"html-keyboard-response","97","147089","0.0-10.0-0.8","5e89e89bf025be000c01eead","650c16f0f2faf8d7a0d14c09","651c1ce47596cda8cdc9a6a5","null","null","<p style=""font-size: 60px; font-family: BACS"">kbmZOrZYd</p>","","","","","","","","",""
"html-keyboard-response","98","148091","0.0-10.0-0.9","5e89e89bf025be000c01eead","650c16f0f2faf8d7a0d14c09","651c1ce47596cda8cdc9a6a5","null","null","<p style=""font-size: 60px; font-family: BACS"">AdDbBCD</p>","","","","","","","","",""
"html-keyboard-response","99","149103","0.0-10.0-0.10","5e89e89bf025be000c01eead","650c16f0f2faf8d7a0d14c09","651c1ce47596cda8cdc9a6a5","null","null","<p style=""font-size: 60px; font-family: BACS"">EdBbYbBT</p>","","","","","","","","",""
"html-keyboard-response","100","150110","0.0-10.0-0.11","5e89e89bf025be000c01eead","650c16f0f2faf8d7a0d14c09","651c1ce47596cda8cdc9a6a5","null","null","<p style=""font-size: 60px; font-family: BACS"">UaYLrZYd</p>","","","","","","","","",""
"html-keyboard-response","101","151114","0.0-10.0-0.12","5e89e89bf025be000c01eead","650c16f0f2faf8d7a0d14c09","651c1ce47596cda8cdc9a6a5","null","null","<p style=""font-size: 60px; font-family: BACS"">YNrAmcbm</p>","","","","","","","","",""
"html-keyboard-response","102","152120","0.0-10.0-0.13","5e89e89bf025be000c01eead","650c16f0f2faf8d7a0d14c09","651c1ce47596cda8cdc9a6a5","null","null","<p style=""font-size: 60px; font-family: BACS"">AdDbhRKm</p>","","","","","","","","",""
"html-keyboard-response","103","153122","0.0-10.0-0.14","5e89e89bf025be000c01eead","650c16f0f2faf8d7a0d14c09","651c1ce47596cda8cdc9a6a5","null","null","<p style=""font-size: 60px; font-family: BACS"">dOYmlBCD</p>","","","","","","","","",""
"html-keyboard-response","104","154124","0.0-10.0-0.15","5e89e89bf025be000c01eead","650c16f0f2faf8d7a0d14c09","651c1ce47596cda8cdc9a6a5","null","null","<p style=""font-size: 60px; font-family: BACS"">ZdNmUAld</p>","","","","","","","","",""
"html-keyboard-response","105","155131","0.0-10.0-0.16","5e89e89bf025be000c01eead","650c16f0f2faf8d7a0d14c09","651c1ce47596cda8cdc9a6a5","null","null","<p style=""font-size: 60px; font-family: BACS"">kGlUcbm</p>","","","","","","","","",""
"html-keyboard-response","106","156132","0.0-10.0-0.17","5e89e89bf025be000c01eead","650c16f0f2faf8d7a0d14c09","651c1ce47596cda8cdc9a6a5","null","null","<p style=""font-size: 60px; font-family: BACS"">JAaGYZJO</p>","","","","","","","","",""
"html-keyboard-response","107","157134","0.0-10.0-0.18","5e89e89bf025be000c01eead","650c16f0f2faf8d7a0d14c09","651c1ce47596cda8cdc9a6a5","null","null","<p style=""font-size: 60px; font-family: BACS"">EdBbhRKm</p>","","","","","","","","",""
"html-keyboard-response","108","158143","0.0-10.0-0.19","5e89e89bf025be000c01eead","650c16f0f2faf8d7a0d14c09","651c1ce47596cda8cdc9a6a5","null","null","<p style=""font-size: 60px; font-family: BACS"">CkBOPYbBT</p>","","","","","","","","",""
"html-keyboard-response","109","159149","0.0-10.0-0.20","5e89e89bf025be000c01eead","650c16f0f2faf8d7a0d14c09","651c1ce47596cda8cdc9a6a5","null","null","<p style=""font-size: 60px; font-family: BACS"">NAacQAld</p>","","","","","","","","",""
"html-keyboard-response","110","160150","0.0-10.0-0.21","5e89e89bf025be000c01eead","650c16f0f2faf8d7a0d14c09","651c1ce47596cda8cdc9a6a5","null","null","<p style=""font-size: 60px; font-family: BACS"">GJZmYZJO</p>","","","","","","","","",""
"html-keyboard-response","111","161162","0.0-10.0-0.22","5e89e89bf025be000c01eead","650c16f0f2faf8d7a0d14c09","651c1ce47596cda8cdc9a6a5","null","null","<p style=""font-size: 60px; font-family: BACS"">vAuNlAld</p>","","","","","","","","",""
"html-keyboard-response","112","162164","0.0-10.0-0.23","5e89e89bf025be000c01eead","650c16f0f2faf8d7a0d14c09","651c1ce47596cda8cdc9a6a5","null","null","<p style=""font-size: 60px; font-family: BACS"">AdDbBbM</p>","","","","","","","","",""
"html-keyboard-response","113","163171","0.0-10.0-0.24","5e89e89bf025be000c01eead","650c16f0f2faf8d7a0d14c09","651c1ce47596cda8cdc9a6a5","null","null","<p style=""font-size: 60px; font-family: BACS"">KRARmhRKm</p>","","","","","","","","",""
"html-keyboard-response","114","164176","0.0-10.0-0.25","5e89e89bf025be000c01eead","650c16f0f2faf8d7a0d14c09","651c1ce47596cda8cdc9a6a5","null","null","<p style=""font-size: 60px; font-family: BACS"">kbmZOcbm</p>","","","","","","","","",""
"html-keyboard-response","115","165179","0.0-10.0-0.26","5e89e89bf025be000c01eead","650c16f0f2faf8d7a0d14c09","651c1ce47596cda8cdc9a6a5","null","null","<p style=""font-size: 60px; font-family: BACS"">ORbkBCD</p>","","","","","","","","",""
"html-keyboard-response","116","166193","0.0-10.0-0.27","5e89e89bf025be000c01eead","650c16f0f2faf8d7a0d14c09","651c1ce47596cda8cdc9a6a5","null","null","<p style=""font-size: 60px; font-family: BACS"">CkBOPBbM</p>","","","","","","","","",""
"html-keyboard-response","117","167194","0.0-10.0-0.28","5e89e89bf025be000c01eead","650c16f0f2faf8d7a0d14c09","651c1ce47596cda8cdc9a6a5","null","null","<p style=""font-size: 60px; font-family: BACS"">dClOCBCD</p>","","","","","","","","",""
"html-keyboard-response","118","168209","0.0-10.0-0.29","5e89e89bf025be000c01eead","650c16f0f2faf8d7a0d14c09","651c1ce47596cda8cdc9a6a5","null","null","<p style=""font-size: 60px; font-family: BACS"">KMOcBCAd</p>","","","","","","","","",""
"html-keyboard-response","119","169225","0.0-10.0-0.30","5e89e89bf025be000c01eead","650c16f0f2faf8d7a0d14c09","651c1ce47596cda8cdc9a6a5","null","null","<p style=""font-size: 60px; font-family: BACS"">NAacQcUN</p>","","","","","","","","",""
"html-keyboard-response","120","170235","0.0-10.0-0.31","5e89e89bf025be000c01eead","650c16f0f2faf8d7a0d14c09","651c1ce47596cda8cdc9a6a5","null","null","<p style=""font-size: 60px; font-family: BACS"">KMOcYbBT</p>","","","","","","","","",""
"html-keyboard-response","121","171252","0.0-10.0-0.32","5e89e89bf025be000c01eead","650c16f0f2faf8d7a0d14c09","651c1ce47596cda8cdc9a6a5","null","null","<p style=""font-size: 60px; font-family: BACS"">ZdNmUYZJO</p>","","","","","","","","",""
"html-keyboard-response","122","172256","0.0-10.0-0.33","5e89e89bf025be000c01eead","650c16f0f2faf8d7a0d14c09","651c1ce47596cda8cdc9a6a5","null","null","<p style=""font-size: 60px; font-family: BACS"">vAuNlcbm</p>","","","","","","","","",""
"html-keyboard-response","123","173270","0.0-10.0-0.34","5e89e89bf025be000c01eead","650c16f0f2faf8d7a0d14c09","651c1ce47596cda8cdc9a6a5","null","null","<p style=""font-size: 60px; font-family: BACS"">KRARmBCAd</p>","","","","","","","","",""
"html-keyboard-response","124","174282","0.0-10.0-0.35","5e89e89bf025be000c01eead","650c16f0f2faf8d7a0d14c09","651c1ce47596cda8cdc9a6a5","null","null","<p style=""font-size: 60px; font-family: BACS"">JAaGcbm</p>","","","","","","","","",""
"html-keyboard-response","125","175297","0.0-10.0-0.36","5e89e89bf025be000c01eead","650c16f0f2faf8d7a0d14c09","651c1ce47596cda8cdc9a6a5","null","null","<p style=""font-size: 60px; font-family: BACS"">KRARmBbM</p>","","","","","","","","",""
"html-keyboard-response","126","176301","0.0-10.0-0.37","5e89e89bf025be000c01eead","650c16f0f2faf8d7a0d14c09","651c1ce47596cda8cdc9a6a5","null","null","<p style=""font-size: 60px; font-family: BACS"">kGlUrZYd</p>","","","","","","","","",""
"html-keyboard-response","127","177316","0.0-10.0-0.38","5e89e89bf025be000c01eead","650c16f0f2faf8d7a0d14c09","651c1ce47596cda8cdc9a6a5","null","null","<p style=""font-size: 60px; font-family: BACS"">YNrAmAld</p>","","","","","","","","",""
"html-keyboard-response","128","178332","0.0-10.0-0.39","5e89e89bf025be000c01eead","650c16f0f2faf8d7a0d14c09","651c1ce47596cda8cdc9a6a5","null","null","<p style=""font-size: 60px; font-family: BACS"">ctktBCAd</p>","","","","","","","","",""
"html-keyboard-response","129","179341","0.0-10.0-0.40","5e89e89bf025be000c01eead","650c16f0f2faf8d7a0d14c09","651c1ce47596cda8cdc9a6a5","null","null","<p style=""font-size: 60px; font-family: BACS"">DdckBCD</p>","","","","","","","","",""
"html-keyboard-response","130","180348","0.0-10.0-0.41","5e89e89bf025be000c01eead","650c16f0f2faf8d7a0d14c09","651c1ce47596cda8cdc9a6a5","null","null","<p style=""font-size: 60px; font-family: BACS"">ctktBbM</p>","","","","","","","","",""
"html-keyboard-response","131","181363","0.0-10.0-0.42","5e89e89bf025be000c01eead","650c16f0f2faf8d7a0d14c09","651c1ce47596cda8cdc9a6a5","null","null","<p style=""font-size: 60px; font-family: BACS"">CkBOPBCAd</p>","","","","","","","","",""
"html-keyboard-response","132","182367","0.0-10.0-0.43","5e89e89bf025be000c01eead","650c16f0f2faf8d7a0d14c09","651c1ce47596cda8cdc9a6a5","null","null","<p style=""font-size: 60px; font-family: BACS"">KRARmYbBT</p>","","","","","","","","",""
"html-keyboard-response","133","183376","0.0-10.0-0.44","5e89e89bf025be000c01eead","650c16f0f2faf8d7a0d14c09","651c1ce47596cda8cdc9a6a5","null","null","<p style=""font-size: 60px; font-family: BACS"">JAaGAld</p>","","","","","","","","",""
"html-keyboard-response","134","184386","0.0-10.0-0.45","5e89e89bf025be000c01eead","650c16f0f2faf8d7a0d14c09","651c1ce47596cda8cdc9a6a5","null","null","<p style=""font-size: 60px; font-family: BACS"">kGlUcUN</p>","","","","","","","","",""
"html-keyboard-response","135","185402","0.0-10.0-0.46","5e89e89bf025be000c01eead","650c16f0f2faf8d7a0d14c09","651c1ce47596cda8cdc9a6a5","null","null","<p style=""font-size: 60px; font-family: BACS"">DdckYbBT</p>","","","","","","","","",""
"html-keyboard-response","136","186416","0.0-10.0-0.47","5e89e89bf025be000c01eead","650c16f0f2faf8d7a0d14c09","651c1ce47596cda8cdc9a6a5","null","null","<p style=""font-size: 60px; font-family: BACS"">dClOCBCAd</p>","","","","","","","","",""
"html-keyboard-response","137","187417","0.0-10.0-0.48","5e89e89bf025be000c01eead","650c16f0f2faf8d7a0d14c09","651c1ce47596cda8cdc9a6a5","null","null","<p style=""font-size: 60px; font-family: BACS"">AdDbYbBT</p>","","","","","","","","",""
"html-keyboard-response","138","188426","0.0-10.0-0.49","5e89e89bf025be000c01eead","650c16f0f2faf8d7a0d14c09","651c1ce47596cda8cdc9a6a5","null","null","<p style=""font-size: 60px; font-family: BACS"">dClOChRKm</p>","","","","","","","","",""
"html-keyboard-response","139","189430","0.0-10.0-0.50","5e89e89bf025be000c01eead","650c16f0f2faf8d7a0d14c09","651c1ce47596cda8cdc9a6a5","null","null","<p style=""font-size: 60px; font-family: BACS"">dOYmlBbM</p>","","","","","","","","",""
"html-keyboard-response","140","190431","0.0-10.0-0.51","5e89e89bf025be000c01eead","650c16f0f2faf8d7a0d14c09","651c1ce47596cda8cdc9a6a5","null","null","<p style=""font-size: 60px; font-family: BACS"">JNkacUN</p>","","","","","","","","",""
"html-keyboard-response","141","191436","0.0-10.0-0.52","5e89e89bf025be000c01eead","650c16f0f2faf8d7a0d14c09","651c1ce47596cda8cdc9a6a5","null","null","<p style=""font-size: 60px; font-family: BACS"">EdBbBbM</p>","","","","","","","","",""
"html-keyboard-response","142","192440","0.0-10.0-0.53","5e89e89bf025be000c01eead","650c16f0f2faf8d7a0d14c09","651c1ce47596cda8cdc9a6a5","null","null","<p style=""font-size: 60px; font-family: BACS"">vAuNlYZJO</p>","","","","","","","","",""
"html-keyboard-response","143","193444","0.0-10.0-0.54","5e89e89bf025be000c01eead","650c16f0f2faf8d7a0d14c09","651c1ce47596cda8cdc9a6a5","null","null","<p style=""font-size: 60px; font-family: BACS"">NAacQrZYd</p>","","","","","","","","",""
"html-keyboard-response","144","194449","0.0-10.0-0.55","5e89e89bf025be000c01eead","650c16f0f2faf8d7a0d14c09","651c1ce47596cda8cdc9a6a5","null","null","<p style=""font-size: 60px; font-family: BACS"">YNrAmYZJO</p>","","","","","","","","",""
"html-keyboard-response","145","195451","0.0-10.0-0.56","5e89e89bf025be000c01eead","650c16f0f2faf8d7a0d14c09","651c1ce47596cda8cdc9a6a5","null","null","<p style=""font-size: 60px; font-family: BACS"">JAaGrZYd</p>","","","","","","","","",""
"html-keyboard-response","146","196454","0.0-10.0-0.57","5e89e89bf025be000c01eead","650c16f0f2faf8d7a0d14c09","651c1ce47596cda8cdc9a6a5","null","null","<p style=""font-size: 60px; font-family: BACS"">GJZmcUN</p>","","","","","","","","",""
"html-keyboard-response","147","197459","0.0-10.0-0.58","5e89e89bf025be000c01eead","650c16f0f2faf8d7a0d14c09","651c1ce47596cda8cdc9a6a5","null","null","<p style=""font-size: 60px; font-family: BACS"">ORbkhRKm</p>","","","","","","","","",""
"html-keyboard-response","148","198463","0.0-10.0-0.59","5e89e89bf025be000c01eead","650c16f0f2faf8d7a0d14c09","651c1ce47596cda8cdc9a6a5","null","null","<p style=""font-size: 60px; font-family: BACS"">NAacQcbm</p>","","","","","","","","",""
"html-keyboard-response","149","199466","0.0-10.0-0.60","5e89e89bf025be000c01eead","650c16f0f2faf8d7a0d14c09","651c1ce47596cda8cdc9a6a5","null","null","<p style=""font-size: 60px; font-family: BACS"">CkBOPhRKm</p>","","","","","","","","",""
"html-keyboard-response","150","200472","0.0-10.0-0.61","5e89e89bf025be000c01eead","650c16f0f2faf8d7a0d14c09","651c1ce47596cda8cdc9a6a5","null","null","<p style=""font-size: 60px; font-family: BACS"">ORbkBbM</p>","","","","","","","","",""
"html-keyboard-response","151","201474","0.0-10.0-0.62","5e89e89bf025be000c01eead","650c16f0f2faf8d7a0d14c09","651c1ce47596cda8cdc9a6a5","null","null","<p style=""font-size: 60px; font-family: BACS"">YNrAmcUN</p>","","","","","","","","",""
"html-keyboard-response","152","202476","0.0-10.0-0.63","5e89e89bf025be000c01eead","650c16f0f2faf8d7a0d14c09","651c1ce47596cda8cdc9a6a5","null","null","<p style=""font-size: 60px; font-family: BACS"">GJZmrZYd</p>","","","","","","","","",""
"html-keyboard-response","153","203478","0.0-10.0-0.64","5e89e89bf025be000c01eead","650c16f0f2faf8d7a0d14c09","651c1ce47596cda8cdc9a6a5","null","null","<p style=""font-size: 60px; font-family: BACS"">dClOCBbM</p>","","","","","","","","",""
"html-keyboard-response","154","204481","0.0-10.0-0.65","5e89e89bf025be000c01eead","650c16f0f2faf8d7a0d14c09","651c1ce47596cda8cdc9a6a5","null","null","<p style=""font-size: 60px; font-family: BACS"">KMOcBCD</p>","","","","","","","","",""
"html-keyboard-response","155","205483","0.0-10.0-0.66","5e89e89bf025be000c01eead","650c16f0f2faf8d7a0d14c09","651c1ce47596cda8cdc9a6a5","null","null","<p style=""font-size: 60px; font-family: BACS"">ORbkBCAd</p>","","","","","","","","",""
"html-keyboard-response","156","206494","0.0-10.0-0.67","5e89e89bf025be000c01eead","650c16f0f2faf8d7a0d14c09","651c1ce47596cda8cdc9a6a5","null","null","<p style=""font-size: 60px; font-family: BACS"">kGlUYZJO</p>","","","","","","","","",""
"html-keyboard-response","157","207499","0.0-10.0-0.68","5e89e89bf025be000c01eead","650c16f0f2faf8d7a0d14c09","651c1ce47596cda8cdc9a6a5","null","null","<p style=""font-size: 60px; font-family: BACS"">ZdNmUrZYd</p>","","","","","","","","",""
"html-keyboard-response","158","208502","0.0-10.0-0.69","5e89e89bf025be000c01eead","650c16f0f2faf8d7a0d14c09","651c1ce47596cda8cdc9a6a5","null","null","<p style=""font-size: 60px; font-family: BACS"">EdBbBCD</p>","","","","","","","","",""
"html-keyboard-response","159","209514","0.0-10.0-0.70","5e89e89bf025be000c01eead","650c16f0f2faf8d7a0d14c09","651c1ce47596cda8cdc9a6a5","null","null","<p style=""font-size: 60px; font-family: BACS"">DdckhRKm</p>","","","","","","","","",""
"html-keyboard-response","160","210521","0.0-10.0-0.71","5e89e89bf025be000c01eead","650c16f0f2faf8d7a0d14c09","651c1ce47596cda8cdc9a6a5","null","null","<p style=""font-size: 60px; font-family: BACS"">dOYmlYbBT</p>","","","","","","","","",""
"html-keyboard-response","161","211525","0.0-10.0-0.72","5e89e89bf025be000c01eead","650c16f0f2faf8d7a0d14c09","651c1ce47596cda8cdc9a6a5","null","null","<p style=""font-size: 60px; font-family: BACS"">ZdNmUcUN</p>","","","","","","","","",""
"html-keyboard-response","162","212529","0.0-10.0-0.73","5e89e89bf025be000c01eead","650c16f0f2faf8d7a0d14c09","651c1ce47596cda8cdc9a6a5","null","null","<p style=""font-size: 60px; font-family: BACS"">DdckBCAd</p>","","","","","","","","",""
"html-keyboard-response","163","213532","0.0-10.0-0.74","5e89e89bf025be000c01eead","650c16f0f2faf8d7a0d14c09","651c1ce47596cda8cdc9a6a5","null","null","<p style=""font-size: 60px; font-family: BACS"">UaYLcbm</p>","","","","","","","","",""
"html-keyboard-response","164","214533","0.0-10.0-0.75","5e89e89bf025be000c01eead","650c16f0f2faf8d7a0d14c09","651c1ce47596cda8cdc9a6a5","null","null","<p style=""font-size: 60px; font-family: BACS"">kbmZOcUN</p>","","","","","","","","",""
"html-keyboard-response","165","215534","0.0-10.0-0.76","5e89e89bf025be000c01eead","650c16f0f2faf8d7a0d14c09","651c1ce47596cda8cdc9a6a5","null","null","<p style=""font-size: 60px; font-family: BACS"">UaYLAld</p>","","","","","","","","",""
"html-keyboard-response","166","216545","0.0-10.0-0.77","5e89e89bf025be000c01eead","650c16f0f2faf8d7a0d14c09","651c1ce47596cda8cdc9a6a5","null","null","<p style=""font-size: 60px; font-family: BACS"">vAuNlcUN</p>","","","","","","","","",""
"html-keyboard-response","167","217552","0.0-10.0-0.78","5e89e89bf025be000c01eead","650c16f0f2faf8d7a0d14c09","651c1ce47596cda8cdc9a6a5","null","null","<p style=""font-size: 60px; font-family: BACS"">dOYmlBCAd</p>","","","","","","","","",""
"html-keyboard-response","168","218553","0.0-10.0-0.79","5e89e89bf025be000c01eead","650c16f0f2faf8d7a0d14c09","651c1ce47596cda8cdc9a6a5","null","null","<p style=""font-size: 60px; font-family: BACS"">JNkaAld</p>","","","","","","","","",""
"html-keyboard-response","169","259407","0.0-11.0","5e89e89bf025be000c01eead","650c16f0f2faf8d7a0d14c09","651c1ce47596cda8cdc9a6a5","40854"," ","<p>Great, you've seen the second block of words. You may now take a short break.</p>
      <p>Press the spacebar when you're ready to continue.</p>","","","","","","","","",""
"html-keyboard-response","170","260418","0.0-12.0-0.0","5e89e89bf025be000c01eead","650c16f0f2faf8d7a0d14c09","651c1ce47596cda8cdc9a6a5","null","null","<p style=""font-size: 60px; font-family: BACS"">KRARmYbBT</p>","","","","","","","","",""
"html-keyboard-response","171","261426","0.0-12.0-0.1","5e89e89bf025be000c01eead","650c16f0f2faf8d7a0d14c09","651c1ce47596cda8cdc9a6a5","null","null","<p style=""font-size: 60px; font-family: BACS"">ORbkBCAd</p>","","","","","","","","",""
"html-keyboard-response","172","262432","0.0-12.0-0.2","5e89e89bf025be000c01eead","650c16f0f2faf8d7a0d14c09","651c1ce47596cda8cdc9a6a5","null","null","<p style=""font-size: 60px; font-family: BACS"">dClOCBCD</p>","","","","","","","","",""
"html-keyboard-response","173","263436","0.0-12.0-0.3","5e89e89bf025be000c01eead","650c16f0f2faf8d7a0d14c09","651c1ce47596cda8cdc9a6a5","null","null","<p style=""font-size: 60px; font-family: BACS"">GJZmrZYd</p>","","","","","","","","",""
"html-keyboard-response","174","264440","0.0-12.0-0.4","5e89e89bf025be000c01eead","650c16f0f2faf8d7a0d14c09","651c1ce47596cda8cdc9a6a5","null","null","<p style=""font-size: 60px; font-family: BACS"">KRARmBCAd</p>","","","","","","","","",""
"html-keyboard-response","175","265441","0.0-12.0-0.5","5e89e89bf025be000c01eead","650c16f0f2faf8d7a0d14c09","651c1ce47596cda8cdc9a6a5","null","null","<p style=""font-size: 60px; font-family: BACS"">NAacQrZYd</p>","","","","","","","","",""
"html-keyboard-response","176","266442","0.0-12.0-0.6","5e89e89bf025be000c01eead","650c16f0f2faf8d7a0d14c09","651c1ce47596cda8cdc9a6a5","null","null","<p style=""font-size: 60px; font-family: BACS"">DdckBCAd</p>","","","","","","","","",""
"html-keyboard-response","177","267456","0.0-12.0-0.7","5e89e89bf025be000c01eead","650c16f0f2faf8d7a0d14c09","651c1ce47596cda8cdc9a6a5","null","null","<p style=""font-size: 60px; font-family: BACS"">UaYLrZYd</p>","","","","","","","","",""
"html-keyboard-response","178","268465","0.0-12.0-0.8","5e89e89bf025be000c01eead","650c16f0f2faf8d7a0d14c09","651c1ce47596cda8cdc9a6a5","null","null","<p style=""font-size: 60px; font-family: BACS"">AdDbBCD</p>","","","","","","","","",""
"html-keyboard-response","179","269476","0.0-12.0-0.9","5e89e89bf025be000c01eead","650c16f0f2faf8d7a0d14c09","651c1ce47596cda8cdc9a6a5","null","null","<p style=""font-size: 60px; font-family: BACS"">dClOChRKm</p>","","","","","","","","",""
"html-keyboard-response","180","270489","0.0-12.0-0.10","5e89e89bf025be000c01eead","650c16f0f2faf8d7a0d14c09","651c1ce47596cda8cdc9a6a5","null","null","<p style=""font-size: 60px; font-family: BACS"">NAacQcbm</p>","","","","","","","","",""
"html-keyboard-response","181","271491","0.0-12.0-0.11","5e89e89bf025be000c01eead","650c16f0f2faf8d7a0d14c09","651c1ce47596cda8cdc9a6a5","null","null","<p style=""font-size: 60px; font-family: BACS"">dOYmlBCAd</p>","","","","","","","","",""
"html-keyboard-response","182","272493","0.0-12.0-0.12","5e89e89bf025be000c01eead","650c16f0f2faf8d7a0d14c09","651c1ce47596cda8cdc9a6a5","null","null","<p style=""font-size: 60px; font-family: BACS"">NAacQAld</p>","","","","","","","","",""
"html-keyboard-response","183","273508","0.0-12.0-0.13","5e89e89bf025be000c01eead","650c16f0f2faf8d7a0d14c09","651c1ce47596cda8cdc9a6a5","null","null","<p style=""font-size: 60px; font-family: BACS"">kGlUcUN</p>","","","","","","","","",""
"html-keyboard-response","184","274509","0.0-12.0-0.14","5e89e89bf025be000c01eead","650c16f0f2faf8d7a0d14c09","651c1ce47596cda8cdc9a6a5","null","null","<p style=""font-size: 60px; font-family: BACS"">GJZmYZJO</p>","","","","","","","","",""
"html-keyboard-response","185","275522","0.0-12.0-0.15","5e89e89bf025be000c01eead","650c16f0f2faf8d7a0d14c09","651c1ce47596cda8cdc9a6a5","null","null","<p style=""font-size: 60px; font-family: BACS"">kbmZOcUN</p>","","","","","","","","",""
"html-keyboard-response","186","276532","0.0-12.0-0.16","5e89e89bf025be000c01eead","650c16f0f2faf8d7a0d14c09","651c1ce47596cda8cdc9a6a5","null","null","<p style=""font-size: 60px; font-family: BACS"">kGlUYZJO</p>","","","","","","","","",""
"html-keyboard-response","187","277542","0.0-12.0-0.17","5e89e89bf025be000c01eead","650c16f0f2faf8d7a0d14c09","651c1ce47596cda8cdc9a6a5","null","null","<p style=""font-size: 60px; font-family: BACS"">ORbkBbM</p>","","","","","","","","",""
"html-keyboard-response","188","278552","0.0-12.0-0.18","5e89e89bf025be000c01eead","650c16f0f2faf8d7a0d14c09","651c1ce47596cda8cdc9a6a5","null","null","<p style=""font-size: 60px; font-family: BACS"">kbmZOcbm</p>","","","","","","","","",""
"html-keyboard-response","189","279553","0.0-12.0-0.19","5e89e89bf025be000c01eead","650c16f0f2faf8d7a0d14c09","651c1ce47596cda8cdc9a6a5","null","null","<p style=""font-size: 60px; font-family: BACS"">KMOchRKm</p>","","","","","","","","",""
"html-keyboard-response","190","280564","0.0-12.0-0.20","5e89e89bf025be000c01eead","650c16f0f2faf8d7a0d14c09","651c1ce47596cda8cdc9a6a5","null","null","<p style=""font-size: 60px; font-family: BACS"">ctktBCD</p>","","","","","","","","",""
"html-keyboard-response","191","281574","0.0-12.0-0.21","5e89e89bf025be000c01eead","650c16f0f2faf8d7a0d14c09","651c1ce47596cda8cdc9a6a5","null","null","<p style=""font-size: 60px; font-family: BACS"">JNkaYZJO</p>","","","","","","","","",""
"html-keyboard-response","192","282576","0.0-12.0-0.22","5e89e89bf025be000c01eead","650c16f0f2faf8d7a0d14c09","651c1ce47596cda8cdc9a6a5","null","null","<p style=""font-size: 60px; font-family: BACS"">GJZmcUN</p>","","","","","","","","",""
"html-keyboard-response","193","283582","0.0-12.0-0.23","5e89e89bf025be000c01eead","650c16f0f2faf8d7a0d14c09","651c1ce47596cda8cdc9a6a5","null","null","<p style=""font-size: 60px; font-family: BACS"">ctktBCAd</p>","","","","","","","","",""
"html-keyboard-response","194","284590","0.0-12.0-0.24","5e89e89bf025be000c01eead","650c16f0f2faf8d7a0d14c09","651c1ce47596cda8cdc9a6a5","null","null","<p style=""font-size: 60px; font-family: BACS"">vAuNlYZJO</p>","","","","","","","","",""
"html-keyboard-response","195","285597","0.0-12.0-0.25","5e89e89bf025be000c01eead","650c16f0f2faf8d7a0d14c09","651c1ce47596cda8cdc9a6a5","null","null","<p style=""font-size: 60px; font-family: BACS"">DdckBCD</p>","","","","","","","","",""
"html-keyboard-response","196","286605","0.0-12.0-0.26","5e89e89bf025be000c01eead","650c16f0f2faf8d7a0d14c09","651c1ce47596cda8cdc9a6a5","null","null","<p style=""font-size: 60px; font-family: BACS"">ctktYbBT</p>","","","","","","","","",""
"html-keyboard-response","197","287609","0.0-12.0-0.27","5e89e89bf025be000c01eead","650c16f0f2faf8d7a0d14c09","651c1ce47596cda8cdc9a6a5","null","null","<p style=""font-size: 60px; font-family: BACS"">JNkaAld</p>","","","","","","","","",""
"html-keyboard-response","198","288610","0.0-12.0-0.28","5e89e89bf025be000c01eead","650c16f0f2faf8d7a0d14c09","651c1ce47596cda8cdc9a6a5","null","null","<p style=""font-size: 60px; font-family: BACS"">EdBbYbBT</p>","","","","","","","","",""
"html-keyboard-response","199","289624","0.0-12.0-0.29","5e89e89bf025be000c01eead","650c16f0f2faf8d7a0d14c09","651c1ce47596cda8cdc9a6a5","null","null","<p style=""font-size: 60px; font-family: BACS"">ZdNmUcUN</p>","","","","","","","","",""
"html-keyboard-response","200","290639","0.0-12.0-0.30","5e89e89bf025be000c01eead","650c16f0f2faf8d7a0d14c09","651c1ce47596cda8cdc9a6a5","null","null","<p style=""font-size: 60px; font-family: BACS"">vAuNlcbm</p>","","","","","","","","",""
"html-keyboard-response","201","291642","0.0-12.0-0.31","5e89e89bf025be000c01eead","650c16f0f2faf8d7a0d14c09","651c1ce47596cda8cdc9a6a5","null","null","<p style=""font-size: 60px; font-family: BACS"">AdDbhRKm</p>","","","","","","","","",""
"html-keyboard-response","202","292652","0.0-12.0-0.32","5e89e89bf025be000c01eead","650c16f0f2faf8d7a0d14c09","651c1ce47596cda8cdc9a6a5","null","null","<p style=""font-size: 60px; font-family: BACS"">CkBOPYbBT</p>","","","","","","","","",""
"html-keyboard-response","203","293659","0.0-12.0-0.33","5e89e89bf025be000c01eead","650c16f0f2faf8d7a0d14c09","651c1ce47596cda8cdc9a6a5","null","null","<p style=""font-size: 60px; font-family: BACS"">ctktBbM</p>","","","","","","","","",""
"html-keyboard-response","204","294667","0.0-12.0-0.34","5e89e89bf025be000c01eead","650c16f0f2faf8d7a0d14c09","651c1ce47596cda8cdc9a6a5","null","null","<p style=""font-size: 60px; font-family: BACS"">YNrAmAld</p>","","","","","","","","",""
"html-keyboard-response","205","295679","0.0-12.0-0.35","5e89e89bf025be000c01eead","650c16f0f2faf8d7a0d14c09","651c1ce47596cda8cdc9a6a5","null","null","<p style=""font-size: 60px; font-family: BACS"">dOYmlYbBT</p>","","","","","","","","",""
"html-keyboard-response","206","296682","0.0-12.0-0.36","5e89e89bf025be000c01eead","650c16f0f2faf8d7a0d14c09","651c1ce47596cda8cdc9a6a5","null","null","<p style=""font-size: 60px; font-family: BACS"">KRARmhRKm</p>","","","","","","","","",""
"html-keyboard-response","207","297685","0.0-12.0-0.37","5e89e89bf025be000c01eead","650c16f0f2faf8d7a0d14c09","651c1ce47596cda8cdc9a6a5","null","null","<p style=""font-size: 60px; font-family: BACS"">EdBbBCD</p>","","","","","","","","",""
"html-keyboard-response","208","298702","0.0-12.0-0.38","5e89e89bf025be000c01eead","650c16f0f2faf8d7a0d14c09","651c1ce47596cda8cdc9a6a5","null","null","<p style=""font-size: 60px; font-family: BACS"">kbmZOrZYd</p>","","","","","","","","",""
"html-keyboard-response","209","299709","0.0-12.0-0.39","5e89e89bf025be000c01eead","650c16f0f2faf8d7a0d14c09","651c1ce47596cda8cdc9a6a5","null","null","<p style=""font-size: 60px; font-family: BACS"">ZdNmUAld</p>","","","","","","","","",""
"html-keyboard-response","210","300713","0.0-12.0-0.40","5e89e89bf025be000c01eead","650c16f0f2faf8d7a0d14c09","651c1ce47596cda8cdc9a6a5","null","null","<p style=""font-size: 60px; font-family: BACS"">JNkarZYd</p>","","","","","","","","",""
"html-keyboard-response","211","301717","0.0-12.0-0.41","5e89e89bf025be000c01eead","650c16f0f2faf8d7a0d14c09","651c1ce47596cda8cdc9a6a5","null","null","<p style=""font-size: 60px; font-family: BACS"">JAaGYZJO</p>","","","","","","","","",""
"html-keyboard-response","212","302718","0.0-12.0-0.42","5e89e89bf025be000c01eead","650c16f0f2faf8d7a0d14c09","651c1ce47596cda8cdc9a6a5","null","null","<p style=""font-size: 60px; font-family: BACS"">kbmZOAld</p>","","","","","","","","",""
"html-keyboard-response","213","303725","0.0-12.0-0.43","5e89e89bf025be000c01eead","650c16f0f2faf8d7a0d14c09","651c1ce47596cda8cdc9a6a5","null","null","<p style=""font-size: 60px; font-family: BACS"">dOYmlBCD</p>","","","","","","","","",""
"html-keyboard-response","214","304738","0.0-12.0-0.44","5e89e89bf025be000c01eead","650c16f0f2faf8d7a0d14c09","651c1ce47596cda8cdc9a6a5","null","null","<p style=""font-size: 60px; font-family: BACS"">DdckhRKm</p>","","","","","","","","",""
"html-keyboard-response","215","305752","0.0-12.0-0.45","5e89e89bf025be000c01eead","650c16f0f2faf8d7a0d14c09","651c1ce47596cda8cdc9a6a5","null","null","<p style=""font-size: 60px; font-family: BACS"">kGlUcbm</p>","","","","","","","","",""
"html-keyboard-response","216","306753","0.0-12.0-0.46","5e89e89bf025be000c01eead","650c16f0f2faf8d7a0d14c09","651c1ce47596cda8cdc9a6a5","null","null","<p style=""font-size: 60px; font-family: BACS"">UaYLYZJO</p>","","","","","","","","",""
"html-keyboard-response","217","307764","0.0-12.0-0.47","5e89e89bf025be000c01eead","650c16f0f2faf8d7a0d14c09","651c1ce47596cda8cdc9a6a5","null","null","<p style=""font-size: 60px; font-family: BACS"">dClOCBbM</p>","","","","","","","","",""
"html-keyboard-response","218","308765","0.0-12.0-0.48","5e89e89bf025be000c01eead","650c16f0f2faf8d7a0d14c09","651c1ce47596cda8cdc9a6a5","null","null","<p style=""font-size: 60px; font-family: BACS"">ORbkhRKm</p>","","","","","","","","",""
"html-keyboard-response","219","309776","0.0-12.0-0.49","5e89e89bf025be000c01eead","650c16f0f2faf8d7a0d14c09","651c1ce47596cda8cdc9a6a5","null","null","<p style=""font-size: 60px; font-family: BACS"">NAacQcUN</p>","","","","","","","","",""
"html-keyboard-response","220","310781","0.0-12.0-0.50","5e89e89bf025be000c01eead","650c16f0f2faf8d7a0d14c09","651c1ce47596cda8cdc9a6a5","null","null","<p style=""font-size: 60px; font-family: BACS"">CkBOPBCAd</p>","","","","","","","","",""
"html-keyboard-response","221","311789","0.0-12.0-0.51","5e89e89bf025be000c01eead","650c16f0f2faf8d7a0d14c09","651c1ce47596cda8cdc9a6a5","null","null","<p style=""font-size: 60px; font-family: BACS"">DdckYbBT</p>","","","","","","","","",""
"html-keyboard-response","222","312801","0.0-12.0-0.52","5e89e89bf025be000c01eead","650c16f0f2faf8d7a0d14c09","651c1ce47596cda8cdc9a6a5","null","null","<p style=""font-size: 60px; font-family: BACS"">vAuNlAld</p>","","","","","","","","",""
"html-keyboard-response","223","313805","0.0-12.0-0.53","5e89e89bf025be000c01eead","650c16f0f2faf8d7a0d14c09","651c1ce47596cda8cdc9a6a5","null","null","<p style=""font-size: 60px; font-family: BACS"">JAaGcbm</p>","","","","","","","","",""
"html-keyboard-response","224","314812","0.0-12.0-0.54","5e89e89bf025be000c01eead","650c16f0f2faf8d7a0d14c09","651c1ce47596cda8cdc9a6a5","null","null","<p style=""font-size: 60px; font-family: BACS"">UaYLAld</p>","","","","","","","","",""
"html-keyboard-response","225","315821","0.0-12.0-0.55","5e89e89bf025be000c01eead","650c16f0f2faf8d7a0d14c09","651c1ce47596cda8cdc9a6a5","null","null","<p style=""font-size: 60px; font-family: BACS"">YNrAmYZJO</p>","","","","","","","","",""
"html-keyboard-response","226","316836","0.0-12.0-0.56","5e89e89bf025be000c01eead","650c16f0f2faf8d7a0d14c09","651c1ce47596cda8cdc9a6a5","null","null","<p style=""font-size: 60px; font-family: BACS"">kGlUrZYd</p>","","","","","","","","",""
"html-keyboard-response","227","317850","0.0-12.0-0.57","5e89e89bf025be000c01eead","650c16f0f2faf8d7a0d14c09","651c1ce47596cda8cdc9a6a5","null","null","<p style=""font-size: 60px; font-family: BACS"">YNrAmcbm</p>","","","","","","","","",""
"html-keyboard-response","228","318865","0.0-12.0-0.58","5e89e89bf025be000c01eead","650c16f0f2faf8d7a0d14c09","651c1ce47596cda8cdc9a6a5","null","null","<p style=""font-size: 60px; font-family: BACS"">ZdNmUYZJO</p>","","","","","","","","",""
"html-keyboard-response","229","319880","0.0-12.0-0.59","5e89e89bf025be000c01eead","650c16f0f2faf8d7a0d14c09","651c1ce47596cda8cdc9a6a5","null","null","<p style=""font-size: 60px; font-family: BACS"">KRARmBbM</p>","","","","","","","","",""
"html-keyboard-response","230","320890","0.0-12.0-0.60","5e89e89bf025be000c01eead","650c16f0f2faf8d7a0d14c09","651c1ce47596cda8cdc9a6a5","null","null","<p style=""font-size: 60px; font-family: BACS"">ORbkBCD</p>","","","","","","","","",""
"html-keyboard-response","231","321895","0.0-12.0-0.61","5e89e89bf025be000c01eead","650c16f0f2faf8d7a0d14c09","651c1ce47596cda8cdc9a6a5","null","null","<p style=""font-size: 60px; font-family: BACS"">AdDbBbM</p>","","","","","","","","",""
"html-keyboard-response","232","322895","0.0-12.0-0.62","5e89e89bf025be000c01eead","650c16f0f2faf8d7a0d14c09","651c1ce47596cda8cdc9a6a5","null","null","<p style=""font-size: 60px; font-family: BACS"">YNrAmcUN</p>","","","","","","","","",""
"html-keyboard-response","233","323897","0.0-12.0-0.63","5e89e89bf025be000c01eead","650c16f0f2faf8d7a0d14c09","651c1ce47596cda8cdc9a6a5","null","null","<p style=""font-size: 60px; font-family: BACS"">dClOCBCAd</p>","","","","","","","","",""
"html-keyboard-response","234","324898","0.0-12.0-0.64","5e89e89bf025be000c01eead","650c16f0f2faf8d7a0d14c09","651c1ce47596cda8cdc9a6a5","null","null","<p style=""font-size: 60px; font-family: BACS"">UaYLcbm</p>","","","","","","","","",""
"html-keyboard-response","235","325903","0.0-12.0-0.65","5e89e89bf025be000c01eead","650c16f0f2faf8d7a0d14c09","651c1ce47596cda8cdc9a6a5","null","null","<p style=""font-size: 60px; font-family: BACS"">JAaGrZYd</p>","","","","","","","","",""
"html-keyboard-response","236","326919","0.0-12.0-0.66","5e89e89bf025be000c01eead","650c16f0f2faf8d7a0d14c09","651c1ce47596cda8cdc9a6a5","null","null","<p style=""font-size: 60px; font-family: BACS"">EdBbhRKm</p>","","","","","","","","",""
"html-keyboard-response","237","327930","0.0-12.0-0.67","5e89e89bf025be000c01eead","650c16f0f2faf8d7a0d14c09","651c1ce47596cda8cdc9a6a5","null","null","<p style=""font-size: 60px; font-family: BACS"">JNkacUN</p>","","","","","","","","",""
"html-keyboard-response","238","328944","0.0-12.0-0.68","5e89e89bf025be000c01eead","650c16f0f2faf8d7a0d14c09","651c1ce47596cda8cdc9a6a5","null","null","<p style=""font-size: 60px; font-family: BACS"">KMOcBCD</p>","","","","","","","","",""
"html-keyboard-response","239","329949","0.0-12.0-0.69","5e89e89bf025be000c01eead","650c16f0f2faf8d7a0d14c09","651c1ce47596cda8cdc9a6a5","null","null","<p style=""font-size: 60px; font-family: BACS"">AdDbYbBT</p>","","","","","","","","",""
"html-keyboard-response","240","330955","0.0-12.0-0.70","5e89e89bf025be000c01eead","650c16f0f2faf8d7a0d14c09","651c1ce47596cda8cdc9a6a5","null","null","<p style=""font-size: 60px; font-family: BACS"">JAaGAld</p>","","","","","","","","",""
"html-keyboard-response","241","331962","0.0-12.0-0.71","5e89e89bf025be000c01eead","650c16f0f2faf8d7a0d14c09","651c1ce47596cda8cdc9a6a5","null","null","<p style=""font-size: 60px; font-family: BACS"">CkBOPhRKm</p>","","","","","","","","",""
"html-keyboard-response","242","332964","0.0-12.0-0.72","5e89e89bf025be000c01eead","650c16f0f2faf8d7a0d14c09","651c1ce47596cda8cdc9a6a5","null","null","<p style=""font-size: 60px; font-family: BACS"">KMOcYbBT</p>","","","","","","","","",""
"html-keyboard-response","243","333966","0.0-12.0-0.73","5e89e89bf025be000c01eead","650c16f0f2faf8d7a0d14c09","651c1ce47596cda8cdc9a6a5","null","null","<p style=""font-size: 60px; font-family: BACS"">vAuNlcUN</p>","","","","","","","","",""
"html-keyboard-response","244","334967","0.0-12.0-0.74","5e89e89bf025be000c01eead","650c16f0f2faf8d7a0d14c09","651c1ce47596cda8cdc9a6a5","null","null","<p style=""font-size: 60px; font-family: BACS"">GJZmcbm</p>","","","","","","","","",""
"html-keyboard-response","245","335972","0.0-12.0-0.75","5e89e89bf025be000c01eead","650c16f0f2faf8d7a0d14c09","651c1ce47596cda8cdc9a6a5","null","null","<p style=""font-size: 60px; font-family: BACS"">dOYmlBbM</p>","","","","","","","","",""
"html-keyboard-response","246","336985","0.0-12.0-0.76","5e89e89bf025be000c01eead","650c16f0f2faf8d7a0d14c09","651c1ce47596cda8cdc9a6a5","null","null","<p style=""font-size: 60px; font-family: BACS"">KMOcBCAd</p>","","","","","","","","",""
"html-keyboard-response","247","337993","0.0-12.0-0.77","5e89e89bf025be000c01eead","650c16f0f2faf8d7a0d14c09","651c1ce47596cda8cdc9a6a5","null","null","<p style=""font-size: 60px; font-family: BACS"">EdBbBbM</p>","","","","","","","","",""
"html-keyboard-response","248","339008","0.0-12.0-0.78","5e89e89bf025be000c01eead","650c16f0f2faf8d7a0d14c09","651c1ce47596cda8cdc9a6a5","null","null","<p style=""font-size: 60px; font-family: BACS"">ZdNmUrZYd</p>","","","","","","","","",""
"html-keyboard-response","249","340022","0.0-12.0-0.79","5e89e89bf025be000c01eead","650c16f0f2faf8d7a0d14c09","651c1ce47596cda8cdc9a6a5","null","null","<p style=""font-size: 60px; font-family: BACS"">CkBOPBbM</p>","","","","","","","","",""
"html-keyboard-response","250","342137","0.0-13.0","5e89e89bf025be000c01eead","650c16f0f2faf8d7a0d14c09","651c1ce47596cda8cdc9a6a5","2114"," ","<p>Great, you've seen the third block of words. You may now take a short break.</p>
      <p>Press the spacebar when you're ready to continue.</p>","","","","","","","","",""
"html-keyboard-response","251","343150","0.0-14.0-0.0","5e89e89bf025be000c01eead","650c16f0f2faf8d7a0d14c09","651c1ce47596cda8cdc9a6a5","null","null","<p style=""font-size: 60px; font-family: BACS"">JNkaAld</p>","","","","","","","","",""
"html-keyboard-response","252","344152","0.0-14.0-0.1","5e89e89bf025be000c01eead","650c16f0f2faf8d7a0d14c09","651c1ce47596cda8cdc9a6a5","null","null","<p style=""font-size: 60px; font-family: BACS"">DdckhRKm</p>","","","","","","","","",""
"html-keyboard-response","253","345166","0.0-14.0-0.2","5e89e89bf025be000c01eead","650c16f0f2faf8d7a0d14c09","651c1ce47596cda8cdc9a6a5","null","null","<p style=""font-size: 60px; font-family: BACS"">ORbkBCAd</p>","","","","","","","","",""
"html-keyboard-response","254","346168","0.0-14.0-0.3","5e89e89bf025be000c01eead","650c16f0f2faf8d7a0d14c09","651c1ce47596cda8cdc9a6a5","null","null","<p style=""font-size: 60px; font-family: BACS"">NAacQrZYd</p>","","","","","","","","",""
"html-keyboard-response","255","347169","0.0-14.0-0.4","5e89e89bf025be000c01eead","650c16f0f2faf8d7a0d14c09","651c1ce47596cda8cdc9a6a5","null","null","<p style=""font-size: 60px; font-family: BACS"">KRARmYbBT</p>","","","","","","","","",""
"html-keyboard-response","256","348183","0.0-14.0-0.5","5e89e89bf025be000c01eead","650c16f0f2faf8d7a0d14c09","651c1ce47596cda8cdc9a6a5","null","null","<p style=""font-size: 60px; font-family: BACS"">kbmZOAld</p>","","","","","","","","",""
"html-keyboard-response","257","349186","0.0-14.0-0.6","5e89e89bf025be000c01eead","650c16f0f2faf8d7a0d14c09","651c1ce47596cda8cdc9a6a5","null","null","<p style=""font-size: 60px; font-family: BACS"">YNrAmcUN</p>","","","","","","","","",""
"html-keyboard-response","258","350189","0.0-14.0-0.7","5e89e89bf025be000c01eead","650c16f0f2faf8d7a0d14c09","651c1ce47596cda8cdc9a6a5","null","null","<p style=""font-size: 60px; font-family: BACS"">UaYLYZJO</p>","","","","","","","","",""
"html-keyboard-response","259","351199","0.0-14.0-0.8","5e89e89bf025be000c01eead","650c16f0f2faf8d7a0d14c09","651c1ce47596cda8cdc9a6a5","null","null","<p style=""font-size: 60px; font-family: BACS"">vAuNlcUN</p>","","","","","","","","",""
"html-keyboard-response","260","352204","0.0-14.0-0.9","5e89e89bf025be000c01eead","650c16f0f2faf8d7a0d14c09","651c1ce47596cda8cdc9a6a5","null","null","<p style=""font-size: 60px; font-family: BACS"">ctktBCAd</p>","","","","","","","","",""
"html-keyboard-response","261","353210","0.0-14.0-0.10","5e89e89bf025be000c01eead","650c16f0f2faf8d7a0d14c09","651c1ce47596cda8cdc9a6a5","null","null","<p style=""font-size: 60px; font-family: BACS"">GJZmcUN</p>","","","","","","","","",""
"html-keyboard-response","262","354217","0.0-14.0-0.11","5e89e89bf025be000c01eead","650c16f0f2faf8d7a0d14c09","651c1ce47596cda8cdc9a6a5","null","null","<p style=""font-size: 60px; font-family: BACS"">dOYmlBCAd</p>","","","","","","","","",""
"html-keyboard-response","263","355221","0.0-14.0-0.12","5e89e89bf025be000c01eead","650c16f0f2faf8d7a0d14c09","651c1ce47596cda8cdc9a6a5","null","null","<p style=""font-size: 60px; font-family: BACS"">DdckBCD</p>","","","","","","","","",""
"html-keyboard-response","264","356224","0.0-14.0-0.13","5e89e89bf025be000c01eead","650c16f0f2faf8d7a0d14c09","651c1ce47596cda8cdc9a6a5","null","null","<p style=""font-size: 60px; font-family: BACS"">kGlUcUN</p>","","","","","","","","",""
"html-keyboard-response","265","357225","0.0-14.0-0.14","5e89e89bf025be000c01eead","650c16f0f2faf8d7a0d14c09","651c1ce47596cda8cdc9a6a5","null","null","<p style=""font-size: 60px; font-family: BACS"">KRARmBbM</p>","","","","","","","","",""
"html-keyboard-response","266","358240","0.0-14.0-0.15","5e89e89bf025be000c01eead","650c16f0f2faf8d7a0d14c09","651c1ce47596cda8cdc9a6a5","null","null","<p style=""font-size: 60px; font-family: BACS"">UaYLcbm</p>","","","","","","","","",""
"html-keyboard-response","267","359240","0.0-14.0-0.16","5e89e89bf025be000c01eead","650c16f0f2faf8d7a0d14c09","651c1ce47596cda8cdc9a6a5","null","null","<p style=""font-size: 60px; font-family: BACS"">AdDbYbBT</p>","","","","","","","","",""
"html-keyboard-response","268","360254","0.0-14.0-0.17","5e89e89bf025be000c01eead","650c16f0f2faf8d7a0d14c09","651c1ce47596cda8cdc9a6a5","null","null","<p style=""font-size: 60px; font-family: BACS"">NAacQAld</p>","","","","","","","","",""
"html-keyboard-response","269","361267","0.0-14.0-0.18","5e89e89bf025be000c01eead","650c16f0f2faf8d7a0d14c09","651c1ce47596cda8cdc9a6a5","null","null","<p style=""font-size: 60px; font-family: BACS"">vAuNlYZJO</p>","","","","","","","","",""
"html-keyboard-response","270","362268","0.0-14.0-0.19","5e89e89bf025be000c01eead","650c16f0f2faf8d7a0d14c09","651c1ce47596cda8cdc9a6a5","null","null","<p style=""font-size: 60px; font-family: BACS"">GJZmrZYd</p>","","","","","","","","",""
"html-keyboard-response","271","363269","0.0-14.0-0.20","5e89e89bf025be000c01eead","650c16f0f2faf8d7a0d14c09","651c1ce47596cda8cdc9a6a5","null","null","<p style=""font-size: 60px; font-family: BACS"">ZdNmUYZJO</p>","","","","","","","","",""
"html-keyboard-response","272","364276","0.0-14.0-0.21","5e89e89bf025be000c01eead","650c16f0f2faf8d7a0d14c09","651c1ce47596cda8cdc9a6a5","null","null","<p style=""font-size: 60px; font-family: BACS"">vAuNlcbm</p>","","","","","","","","",""
"html-keyboard-response","273","365280","0.0-14.0-0.22","5e89e89bf025be000c01eead","650c16f0f2faf8d7a0d14c09","651c1ce47596cda8cdc9a6a5","null","null","<p style=""font-size: 60px; font-family: BACS"">ZdNmUcUN</p>","","","","","","","","",""
"html-keyboard-response","274","366280","0.0-14.0-0.23","5e89e89bf025be000c01eead","650c16f0f2faf8d7a0d14c09","651c1ce47596cda8cdc9a6a5","null","null","<p style=""font-size: 60px; font-family: BACS"">dClOChRKm</p>","","","","","","","","",""
"html-keyboard-response","275","367281","0.0-14.0-0.24","5e89e89bf025be000c01eead","650c16f0f2faf8d7a0d14c09","651c1ce47596cda8cdc9a6a5","null","null","<p style=""font-size: 60px; font-family: BACS"">DdckYbBT</p>","","","","","","","","",""
"html-keyboard-response","276","368288","0.0-14.0-0.25","5e89e89bf025be000c01eead","650c16f0f2faf8d7a0d14c09","651c1ce47596cda8cdc9a6a5","null","null","<p style=""font-size: 60px; font-family: BACS"">EdBbhRKm</p>","","","","","","","","",""
"html-keyboard-response","277","369290","0.0-14.0-0.26","5e89e89bf025be000c01eead","650c16f0f2faf8d7a0d14c09","651c1ce47596cda8cdc9a6a5","null","null","<p style=""font-size: 60px; font-family: BACS"">kbmZOrZYd</p>","","","","","","","","",""
"html-keyboard-response","278","370302","0.0-14.0-0.27","5e89e89bf025be000c01eead","650c16f0f2faf8d7a0d14c09","651c1ce47596cda8cdc9a6a5","null","null","<p style=""font-size: 60px; font-family: BACS"">KMOcBCD</p>","","","","","","","","",""
"html-keyboard-response","279","371309","0.0-14.0-0.28","5e89e89bf025be000c01eead","650c16f0f2faf8d7a0d14c09","651c1ce47596cda8cdc9a6a5","null","null","<p style=""font-size: 60px; font-family: BACS"">JNkacUN</p>","","","","","","","","",""
"html-keyboard-response","280","372315","0.0-14.0-0.29","5e89e89bf025be000c01eead","650c16f0f2faf8d7a0d14c09","651c1ce47596cda8cdc9a6a5","null","null","<p style=""font-size: 60px; font-family: BACS"">AdDbBbM</p>","","","","","","","","",""
"html-keyboard-response","281","373319","0.0-14.0-0.30","5e89e89bf025be000c01eead","650c16f0f2faf8d7a0d14c09","651c1ce47596cda8cdc9a6a5","null","null","<p style=""font-size: 60px; font-family: BACS"">EdBbBCD</p>","","","","","","","","",""
"html-keyboard-response","282","374323","0.0-14.0-0.31","5e89e89bf025be000c01eead","650c16f0f2faf8d7a0d14c09","651c1ce47596cda8cdc9a6a5","null","null","<p style=""font-size: 60px; font-family: BACS"">kGlUYZJO</p>","","","","","","","","",""
"html-keyboard-response","283","375335","0.0-14.0-0.32","5e89e89bf025be000c01eead","650c16f0f2faf8d7a0d14c09","651c1ce47596cda8cdc9a6a5","null","null","<p style=""font-size: 60px; font-family: BACS"">KRARmhRKm</p>","","","","","","","","",""
"html-keyboard-response","284","376338","0.0-14.0-0.33","5e89e89bf025be000c01eead","650c16f0f2faf8d7a0d14c09","651c1ce47596cda8cdc9a6a5","null","null","<p style=""font-size: 60px; font-family: BACS"">CkBOPBbM</p>","","","","","","","","",""
"html-keyboard-response","285","377351","0.0-14.0-0.34","5e89e89bf025be000c01eead","650c16f0f2faf8d7a0d14c09","651c1ce47596cda8cdc9a6a5","null","null","<p style=""font-size: 60px; font-family: BACS"">JAaGAld</p>","","","","","","","","",""
"html-keyboard-response","286","378357","0.0-14.0-0.35","5e89e89bf025be000c01eead","650c16f0f2faf8d7a0d14c09","651c1ce47596cda8cdc9a6a5","null","null","<p style=""font-size: 60px; font-family: BACS"">KMOcYbBT</p>","","","","","","","","",""
"html-keyboard-response","287","379366","0.0-14.0-0.36","5e89e89bf025be000c01eead","650c16f0f2faf8d7a0d14c09","651c1ce47596cda8cdc9a6a5","null","null","<p style=""font-size: 60px; font-family: BACS"">UaYLrZYd</p>","","","","","","","","",""
"html-keyboard-response","288","380382","0.0-14.0-0.37","5e89e89bf025be000c01eead","650c16f0f2faf8d7a0d14c09","651c1ce47596cda8cdc9a6a5","null","null","<p style=""font-size: 60px; font-family: BACS"">ORbkhRKm</p>","","","","","","","","",""
"html-keyboard-response","289","381388","0.0-14.0-0.38","5e89e89bf025be000c01eead","650c16f0f2faf8d7a0d14c09","651c1ce47596cda8cdc9a6a5","null","null","<p style=""font-size: 60px; font-family: BACS"">CkBOPBCAd</p>","","","","","","","","",""
"html-keyboard-response","290","382400","0.0-14.0-0.39","5e89e89bf025be000c01eead","650c16f0f2faf8d7a0d14c09","651c1ce47596cda8cdc9a6a5","null","null","<p style=""font-size: 60px; font-family: BACS"">AdDbBCD</p>","","","","","","","","",""
"html-keyboard-response","291","383407","0.0-14.0-0.40","5e89e89bf025be000c01eead","650c16f0f2faf8d7a0d14c09","651c1ce47596cda8cdc9a6a5","null","null","<p style=""font-size: 60px; font-family: BACS"">JNkaYZJO</p>","","","","","","","","",""
"html-keyboard-response","292","384415","0.0-14.0-0.41","5e89e89bf025be000c01eead","650c16f0f2faf8d7a0d14c09","651c1ce47596cda8cdc9a6a5","null","null","<p style=""font-size: 60px; font-family: BACS"">dOYmlBbM</p>","","","","","","","","",""
"html-keyboard-response","293","385423","0.0-14.0-0.42","5e89e89bf025be000c01eead","650c16f0f2faf8d7a0d14c09","651c1ce47596cda8cdc9a6a5","null","null","<p style=""font-size: 60px; font-family: BACS"">GJZmYZJO</p>","","","","","","","","",""
"html-keyboard-response","294","386434","0.0-14.0-0.43","5e89e89bf025be000c01eead","650c16f0f2faf8d7a0d14c09","651c1ce47596cda8cdc9a6a5","null","null","<p style=""font-size: 60px; font-family: BACS"">NAacQcUN</p>","","","","","","","","",""
"html-keyboard-response","295","387449","0.0-14.0-0.44","5e89e89bf025be000c01eead","650c16f0f2faf8d7a0d14c09","651c1ce47596cda8cdc9a6a5","null","null","<p style=""font-size: 60px; font-family: BACS"">ORbkBCD</p>","","","","","","","","",""
"html-keyboard-response","296","388454","0.0-14.0-0.45","5e89e89bf025be000c01eead","650c16f0f2faf8d7a0d14c09","651c1ce47596cda8cdc9a6a5","null","null","<p style=""font-size: 60px; font-family: BACS"">NAacQcbm</p>","","","","","","","","",""
"html-keyboard-response","297","389461","0.0-14.0-0.46","5e89e89bf025be000c01eead","650c16f0f2faf8d7a0d14c09","651c1ce47596cda8cdc9a6a5","null","null","<p style=""font-size: 60px; font-family: BACS"">KRARmBCAd</p>","","","","","","","","",""
"html-keyboard-response","298","390463","0.0-14.0-0.47","5e89e89bf025be000c01eead","650c16f0f2faf8d7a0d14c09","651c1ce47596cda8cdc9a6a5","null","null","<p style=""font-size: 60px; font-family: BACS"">UaYLAld</p>","","","","","","","","",""
"html-keyboard-response","299","391475","0.0-14.0-0.48","5e89e89bf025be000c01eead","650c16f0f2faf8d7a0d14c09","651c1ce47596cda8cdc9a6a5","null","null","<p style=""font-size: 60px; font-family: BACS"">ctktBbM</p>","","","","","","","","",""
"html-keyboard-response","300","392477","0.0-14.0-0.49","5e89e89bf025be000c01eead","650c16f0f2faf8d7a0d14c09","651c1ce47596cda8cdc9a6a5","null","null","<p style=""font-size: 60px; font-family: BACS"">ZdNmUrZYd</p>","","","","","","","","",""
"html-keyboard-response","301","393487","0.0-14.0-0.50","5e89e89bf025be000c01eead","650c16f0f2faf8d7a0d14c09","651c1ce47596cda8cdc9a6a5","null","null","<p style=""font-size: 60px; font-family: BACS"">kbmZOcUN</p>","","","","","","","","",""
"html-keyboard-response","302","394491","0.0-14.0-0.51","5e89e89bf025be000c01eead","650c16f0f2faf8d7a0d14c09","651c1ce47596cda8cdc9a6a5","null","null","<p style=""font-size: 60px; font-family: BACS"">ORbkBbM</p>","","","","","","","","",""
"html-keyboard-response","303","395498","0.0-14.0-0.52","5e89e89bf025be000c01eead","650c16f0f2faf8d7a0d14c09","651c1ce47596cda8cdc9a6a5","null","null","<p style=""font-size: 60px; font-family: BACS"">dClOCBCAd</p>","","","","","","","","",""
"html-keyboard-response","304","396512","0.0-14.0-0.53","5e89e89bf025be000c01eead","650c16f0f2faf8d7a0d14c09","651c1ce47596cda8cdc9a6a5","null","null","<p style=""font-size: 60px; font-family: BACS"">ctktYbBT</p>","","","","","","","","",""
"html-keyboard-response","305","397516","0.0-14.0-0.54","5e89e89bf025be000c01eead","650c16f0f2faf8d7a0d14c09","651c1ce47596cda8cdc9a6a5","null","null","<p style=""font-size: 60px; font-family: BACS"">kbmZOcbm</p>","","","","","","","","",""
"html-keyboard-response","306","398522","0.0-14.0-0.55","5e89e89bf025be000c01eead","650c16f0f2faf8d7a0d14c09","651c1ce47596cda8cdc9a6a5","null","null","<p style=""font-size: 60px; font-family: BACS"">CkBOPYbBT</p>","","","","","","","","",""
"html-keyboard-response","307","399524","0.0-14.0-0.56","5e89e89bf025be000c01eead","650c16f0f2faf8d7a0d14c09","651c1ce47596cda8cdc9a6a5","null","null","<p style=""font-size: 60px; font-family: BACS"">GJZmcbm</p>","","","","","","","","",""
"html-keyboard-response","308","400532","0.0-14.0-0.57","5e89e89bf025be000c01eead","650c16f0f2faf8d7a0d14c09","651c1ce47596cda8cdc9a6a5","null","null","<p style=""font-size: 60px; font-family: BACS"">KMOchRKm</p>","","","","","","","","",""
"html-keyboard-response","309","401542","0.0-14.0-0.58","5e89e89bf025be000c01eead","650c16f0f2faf8d7a0d14c09","651c1ce47596cda8cdc9a6a5","null","null","<p style=""font-size: 60px; font-family: BACS"">ZdNmUAld</p>","","","","","","","","",""
"html-keyboard-response","310","402545","0.0-14.0-0.59","5e89e89bf025be000c01eead","650c16f0f2faf8d7a0d14c09","651c1ce47596cda8cdc9a6a5","null","null","<p style=""font-size: 60px; font-family: BACS"">kGlUcbm</p>","","","","","","","","",""
"html-keyboard-response","311","403546","0.0-14.0-0.60","5e89e89bf025be000c01eead","650c16f0f2faf8d7a0d14c09","651c1ce47596cda8cdc9a6a5","null","null","<p style=""font-size: 60px; font-family: BACS"">YNrAmYZJO</p>","","","","","","","","",""
"html-keyboard-response","312","404547","0.0-14.0-0.61","5e89e89bf025be000c01eead","650c16f0f2faf8d7a0d14c09","651c1ce47596cda8cdc9a6a5","null","null","<p style=""font-size: 60px; font-family: BACS"">KMOcBCAd</p>","","","","","","","","",""
"html-keyboard-response","313","405549","0.0-14.0-0.62","5e89e89bf025be000c01eead","650c16f0f2faf8d7a0d14c09","651c1ce47596cda8cdc9a6a5","null","null","<p style=""font-size: 60px; font-family: BACS"">dOYmlBCD</p>","","","","","","","","",""
"html-keyboard-response","314","406562","0.0-14.0-0.63","5e89e89bf025be000c01eead","650c16f0f2faf8d7a0d14c09","651c1ce47596cda8cdc9a6a5","null","null","<p style=""font-size: 60px; font-family: BACS"">JNkarZYd</p>","","","","","","","","",""
"html-keyboard-response","315","407572","0.0-14.0-0.64","5e89e89bf025be000c01eead","650c16f0f2faf8d7a0d14c09","651c1ce47596cda8cdc9a6a5","null","null","<p style=""font-size: 60px; font-family: BACS"">dClOCBCD</p>","","","","","","","","",""
"html-keyboard-response","316","408578","0.0-14.0-0.65","5e89e89bf025be000c01eead","650c16f0f2faf8d7a0d14c09","651c1ce47596cda8cdc9a6a5","null","null","<p style=""font-size: 60px; font-family: BACS"">JAaGcbm</p>","","","","","","","","",""
"html-keyboard-response","317","409579","0.0-14.0-0.66","5e89e89bf025be000c01eead","650c16f0f2faf8d7a0d14c09","651c1ce47596cda8cdc9a6a5","null","null","<p style=""font-size: 60px; font-family: BACS"">EdBbYbBT</p>","","","","","","","","",""
"html-keyboard-response","318","410595","0.0-14.0-0.67","5e89e89bf025be000c01eead","650c16f0f2faf8d7a0d14c09","651c1ce47596cda8cdc9a6a5","null","null","<p style=""font-size: 60px; font-family: BACS"">YNrAmAld</p>","","","","","","","","",""
"html-keyboard-response","319","411610","0.0-14.0-0.68","5e89e89bf025be000c01eead","650c16f0f2faf8d7a0d14c09","651c1ce47596cda8cdc9a6a5","null","null","<p style=""font-size: 60px; font-family: BACS"">AdDbhRKm</p>","","","","","","","","",""
"html-keyboard-response","320","412611","0.0-14.0-0.69","5e89e89bf025be000c01eead","650c16f0f2faf8d7a0d14c09","651c1ce47596cda8cdc9a6a5","null","null","<p style=""font-size: 60px; font-family: BACS"">dOYmlYbBT</p>","","","","","","","","",""
"html-keyboard-response","321","413625","0.0-14.0-0.70","5e89e89bf025be000c01eead","650c16f0f2faf8d7a0d14c09","651c1ce47596cda8cdc9a6a5","null","null","<p style=""font-size: 60px; font-family: BACS"">CkBOPhRKm</p>","","","","","","","","",""
"html-keyboard-response","322","414626","0.0-14.0-0.71","5e89e89bf025be000c01eead","650c16f0f2faf8d7a0d14c09","651c1ce47596cda8cdc9a6a5","null","null","<p style=""font-size: 60px; font-family: BACS"">JAaGYZJO</p>","","","","","","","","",""
"html-keyboard-response","323","415628","0.0-14.0-0.72","5e89e89bf025be000c01eead","650c16f0f2faf8d7a0d14c09","651c1ce47596cda8cdc9a6a5","null","null","<p style=""font-size: 60px; font-family: BACS"">EdBbBbM</p>","","","","","","","","",""
"html-keyboard-response","324","416632","0.0-14.0-0.73","5e89e89bf025be000c01eead","650c16f0f2faf8d7a0d14c09","651c1ce47596cda8cdc9a6a5","null","null","<p style=""font-size: 60px; font-family: BACS"">vAuNlAld</p>","","","","","","","","",""
"html-keyboard-response","325","417633","0.0-14.0-0.74","5e89e89bf025be000c01eead","650c16f0f2faf8d7a0d14c09","651c1ce47596cda8cdc9a6a5","null","null","<p style=""font-size: 60px; font-family: BACS"">kGlUrZYd</p>","","","","","","","","",""
"html-keyboard-response","326","418637","0.0-14.0-0.75","5e89e89bf025be000c01eead","650c16f0f2faf8d7a0d14c09","651c1ce47596cda8cdc9a6a5","null","null","<p style=""font-size: 60px; font-family: BACS"">ctktBCD</p>","","","","","","","","",""
"html-keyboard-response","327","419644","0.0-14.0-0.76","5e89e89bf025be000c01eead","650c16f0f2faf8d7a0d14c09","651c1ce47596cda8cdc9a6a5","null","null","<p style=""font-size: 60px; font-family: BACS"">JAaGrZYd</p>","","","","","","","","",""
"html-keyboard-response","328","420645","0.0-14.0-0.77","5e89e89bf025be000c01eead","650c16f0f2faf8d7a0d14c09","651c1ce47596cda8cdc9a6a5","null","null","<p style=""font-size: 60px; font-family: BACS"">dClOCBbM</p>","","","","","","","","",""
"html-keyboard-response","329","421661","0.0-14.0-0.78","5e89e89bf025be000c01eead","650c16f0f2faf8d7a0d14c09","651c1ce47596cda8cdc9a6a5","null","null","<p style=""font-size: 60px; font-family: BACS"">DdckBCAd</p>","","","","","","","","",""
"html-keyboard-response","330","422672","0.0-14.0-0.79","5e89e89bf025be000c01eead","650c16f0f2faf8d7a0d14c09","651c1ce47596cda8cdc9a6a5","null","null","<p style=""font-size: 60px; font-family: BACS"">YNrAmcbm</p>","","","","","","","","",""
"html-keyboard-response","331","424050","0.0-15.0","5e89e89bf025be000c01eead","650c16f0f2faf8d7a0d14c09","651c1ce47596cda8cdc9a6a5","1378"," ","<p>Great, you've seen the fourth block of words. You may now take a short break.</p>
      <p>Press the spacebar when you're ready to continue.</p>","","","","","","","","",""
"html-keyboard-response","332","425060","0.0-16.0-0.0","5e89e89bf025be000c01eead","650c16f0f2faf8d7a0d14c09","651c1ce47596cda8cdc9a6a5","null","null","<p style=""font-size: 60px; font-family: BACS"">UaYLcbm</p>","","","","","","","","",""
"html-keyboard-response","333","426074","0.0-16.0-0.1","5e89e89bf025be000c01eead","650c16f0f2faf8d7a0d14c09","651c1ce47596cda8cdc9a6a5","null","null","<p style=""font-size: 60px; font-family: BACS"">UaYLcbm</p>","","","","","","","","",""
"html-keyboard-response","334","427075","0.0-16.0-0.2","5e89e89bf025be000c01eead","650c16f0f2faf8d7a0d14c09","651c1ce47596cda8cdc9a6a5","null","null","<p style=""font-size: 60px; font-family: BACS"">UaYLcbm</p>","","","","","","","","",""
"html-keyboard-response","335","428083","0.0-16.0-0.3","5e89e89bf025be000c01eead","650c16f0f2faf8d7a0d14c09","651c1ce47596cda8cdc9a6a5","null","null","<p style=""font-size: 60px; font-family: BACS"">UaYLcbm</p>","","","","","","","","",""
"html-keyboard-response","336","429084","0.0-16.0-0.4","5e89e89bf025be000c01eead","650c16f0f2faf8d7a0d14c09","651c1ce47596cda8cdc9a6a5","null","null","<p style=""font-size: 60px; font-family: BACS"">UaYLcbm</p>","","","","","","","","",""
"html-keyboard-response","337","430086","0.0-16.0-0.5","5e89e89bf025be000c01eead","650c16f0f2faf8d7a0d14c09","651c1ce47596cda8cdc9a6a5","null","null","<p style=""font-size: 60px; font-family: BACS"">UaYLcbm</p>","","","","","","","","",""
"html-keyboard-response","338","431098","0.0-16.0-0.6","5e89e89bf025be000c01eead","650c16f0f2faf8d7a0d14c09","651c1ce47596cda8cdc9a6a5","null","null","<p style=""font-size: 60px; font-family: BACS"">UaYLcbm</p>","","","","","","","","",""
"html-keyboard-response","339","432099","0.0-16.0-0.7","5e89e89bf025be000c01eead","650c16f0f2faf8d7a0d14c09","651c1ce47596cda8cdc9a6a5","null","null","<p style=""font-size: 60px; font-family: BACS"">UaYLcbm</p>","","","","","","","","",""
"html-keyboard-response","340","433108","0.0-16.0-0.8","5e89e89bf025be000c01eead","650c16f0f2faf8d7a0d14c09","651c1ce47596cda8cdc9a6a5","null","null","<p style=""font-size: 60px; font-family: BACS"">UaYLcbm</p>","","","","","","","","",""
"html-keyboard-response","341","434111","0.0-16.0-0.9","5e89e89bf025be000c01eead","650c16f0f2faf8d7a0d14c09","651c1ce47596cda8cdc9a6a5","null","null","<p style=""font-size: 60px; font-family: BACS"">UaYLcbm</p>","","","","","","","","",""
"html-keyboard-response","342","435121","0.0-16.0-0.10","5e89e89bf025be000c01eead","650c16f0f2faf8d7a0d14c09","651c1ce47596cda8cdc9a6a5","null","null","<p style=""font-size: 60px; font-family: BACS"">UaYLcbm</p>","","","","","","","","",""
"html-keyboard-response","343","436132","0.0-16.0-0.11","5e89e89bf025be000c01eead","650c16f0f2faf8d7a0d14c09","651c1ce47596cda8cdc9a6a5","null","null","<p style=""font-size: 60px; font-family: BACS"">UaYLcbm</p>","","","","","","","","",""
"html-keyboard-response","344","437142","0.0-16.0-0.12","5e89e89bf025be000c01eead","650c16f0f2faf8d7a0d14c09","651c1ce47596cda8cdc9a6a5","null","null","<p style=""font-size: 60px; font-family: BACS"">UaYLcbm</p>","","","","","","","","",""
"html-keyboard-response","345","438145","0.0-16.0-0.13","5e89e89bf025be000c01eead","650c16f0f2faf8d7a0d14c09","651c1ce47596cda8cdc9a6a5","null","null","<p style=""font-size: 60px; font-family: BACS"">UaYLcbm</p>","","","","","","","","",""
"html-keyboard-response","346","439151","0.0-16.0-0.14","5e89e89bf025be000c01eead","650c16f0f2faf8d7a0d14c09","651c1ce47596cda8cdc9a6a5","null","null","<p style=""font-size: 60px; font-family: BACS"">UaYLcbm</p>","","","","","","","","",""
"html-keyboard-response","347","440161","0.0-16.0-0.15","5e89e89bf025be000c01eead","650c16f0f2faf8d7a0d14c09","651c1ce47596cda8cdc9a6a5","null","null","<p style=""font-size: 60px; font-family: BACS"">UaYLcbm</p>","","","","","","","","",""
"html-keyboard-response","348","441162","0.0-16.0-0.16","5e89e89bf025be000c01eead","650c16f0f2faf8d7a0d14c09","651c1ce47596cda8cdc9a6a5","null","null","<p style=""font-size: 60px; font-family: BACS"">UaYLcbm</p>","","","","","","","","",""
"html-keyboard-response","349","442163","0.0-16.0-0.17","5e89e89bf025be000c01eead","650c16f0f2faf8d7a0d14c09","651c1ce47596cda8cdc9a6a5","null","null","<p style=""font-size: 60px; font-family: BACS"">UaYLcbm</p>","","","","","","","","",""
"html-keyboard-response","350","443166","0.0-16.0-0.18","5e89e89bf025be000c01eead","650c16f0f2faf8d7a0d14c09","651c1ce47596cda8cdc9a6a5","null","null","<p style=""font-size: 60px; font-family: BACS"">UaYLcbm</p>","","","","","","","","",""
"html-keyboard-response","351","444170","0.0-16.0-0.19","5e89e89bf025be000c01eead","650c16f0f2faf8d7a0d14c09","651c1ce47596cda8cdc9a6a5","null","null","<p style=""font-size: 60px; font-family: BACS"">UaYLcbm</p>","","","","","","","","",""
"html-keyboard-response","352","445171","0.0-16.0-0.20","5e89e89bf025be000c01eead","650c16f0f2faf8d7a0d14c09","651c1ce47596cda8cdc9a6a5","null","null","<p style=""font-size: 60px; font-family: BACS"">UaYLcbm</p>","","","","","","","","",""
"html-keyboard-response","353","446182","0.0-16.0-0.21","5e89e89bf025be000c01eead","650c16f0f2faf8d7a0d14c09","651c1ce47596cda8cdc9a6a5","null","null","<p style=""font-size: 60px; font-family: BACS"">UaYLcbm</p>","","","","","","","","",""
"html-keyboard-response","354","447187","0.0-16.0-0.22","5e89e89bf025be000c01eead","650c16f0f2faf8d7a0d14c09","651c1ce47596cda8cdc9a6a5","null","null","<p style=""font-size: 60px; font-family: BACS"">UaYLcbm</p>","","","","","","","","",""
"html-keyboard-response","355","448189","0.0-16.0-0.23","5e89e89bf025be000c01eead","650c16f0f2faf8d7a0d14c09","651c1ce47596cda8cdc9a6a5","null","null","<p style=""font-size: 60px; font-family: BACS"">UaYLcbm</p>","","","","","","","","",""
"html-keyboard-response","356","449202","0.0-16.0-0.24","5e89e89bf025be000c01eead","650c16f0f2faf8d7a0d14c09","651c1ce47596cda8cdc9a6a5","null","null","<p style=""font-size: 60px; font-family: BACS"">UaYLcbm</p>","","","","","","","","",""
"html-keyboard-response","357","450206","0.0-16.0-0.25","5e89e89bf025be000c01eead","650c16f0f2faf8d7a0d14c09","651c1ce47596cda8cdc9a6a5","null","null","<p style=""font-size: 60px; font-family: BACS"">UaYLcbm</p>","","","","","","","","",""
"html-keyboard-response","358","451207","0.0-16.0-0.26","5e89e89bf025be000c01eead","650c16f0f2faf8d7a0d14c09","651c1ce47596cda8cdc9a6a5","null","null","<p style=""font-size: 60px; font-family: BACS"">UaYLcbm</p>","","","","","","","","",""
"html-keyboard-response","359","452208","0.0-16.0-0.27","5e89e89bf025be000c01eead","650c16f0f2faf8d7a0d14c09","651c1ce47596cda8cdc9a6a5","null","null","<p style=""font-size: 60px; font-family: BACS"">UaYLcbm</p>","","","","","","","","",""
"html-keyboard-response","360","453209","0.0-16.0-0.28","5e89e89bf025be000c01eead","650c16f0f2faf8d7a0d14c09","651c1ce47596cda8cdc9a6a5","null","null","<p style=""font-size: 60px; font-family: BACS"">UaYLcbm</p>","","","","","","","","",""
"html-keyboard-response","361","454214","0.0-16.0-0.29","5e89e89bf025be000c01eead","650c16f0f2faf8d7a0d14c09","651c1ce47596cda8cdc9a6a5","null","null","<p style=""font-size: 60px; font-family: BACS"">UaYLcbm</p>","","","","","","","","",""
"html-keyboard-response","362","455224","0.0-16.0-0.30","5e89e89bf025be000c01eead","650c16f0f2faf8d7a0d14c09","651c1ce47596cda8cdc9a6a5","null","null","<p style=""font-size: 60px; font-family: BACS"">UaYLcbm</p>","","","","","","","","",""
"html-keyboard-response","363","456230","0.0-16.0-0.31","5e89e89bf025be000c01eead","650c16f0f2faf8d7a0d14c09","651c1ce47596cda8cdc9a6a5","null","null","<p style=""font-size: 60px; font-family: BACS"">UaYLcbm</p>","","","","","","","","",""
"html-keyboard-response","364","457240","0.0-16.0-0.32","5e89e89bf025be000c01eead","650c16f0f2faf8d7a0d14c09","651c1ce47596cda8cdc9a6a5","null","null","<p style=""font-size: 60px; font-family: BACS"">UaYLcbm</p>","","","","","","","","",""
"html-keyboard-response","365","458250","0.0-16.0-0.33","5e89e89bf025be000c01eead","650c16f0f2faf8d7a0d14c09","651c1ce47596cda8cdc9a6a5","null","null","<p style=""font-size: 60px; font-family: BACS"">UaYLcbm</p>","","","","","","","","",""
"html-keyboard-response","366","459253","0.0-16.0-0.34","5e89e89bf025be000c01eead","650c16f0f2faf8d7a0d14c09","651c1ce47596cda8cdc9a6a5","null","null","<p style=""font-size: 60px; font-family: BACS"">UaYLcbm</p>","","","","","","","","",""
"html-keyboard-response","367","460266","0.0-16.0-0.35","5e89e89bf025be000c01eead","650c16f0f2faf8d7a0d14c09","651c1ce47596cda8cdc9a6a5","null","null","<p style=""font-size: 60px; font-family: BACS"">UaYLcbm</p>","","","","","","","","",""
"html-keyboard-response","368","461276","0.0-16.0-0.36","5e89e89bf025be000c01eead","650c16f0f2faf8d7a0d14c09","651c1ce47596cda8cdc9a6a5","null","null","<p style=""font-size: 60px; font-family: BACS"">UaYLcbm</p>","","","","","","","","",""
"html-keyboard-response","369","462277","0.0-16.0-0.37","5e89e89bf025be000c01eead","650c16f0f2faf8d7a0d14c09","651c1ce47596cda8cdc9a6a5","null","null","<p style=""font-size: 60px; font-family: BACS"">UaYLcbm</p>","","","","","","","","",""
"html-keyboard-response","370","463289","0.0-16.0-0.38","5e89e89bf025be000c01eead","650c16f0f2faf8d7a0d14c09","651c1ce47596cda8cdc9a6a5","null","null","<p style=""font-size: 60px; font-family: BACS"">UaYLcbm</p>","","","","","","","","",""
"html-keyboard-response","371","464297","0.0-16.0-0.39","5e89e89bf025be000c01eead","650c16f0f2faf8d7a0d14c09","651c1ce47596cda8cdc9a6a5","null","null","<p style=""font-size: 60px; font-family: BACS"">UaYLcbm</p>","","","","","","","","",""
"html-keyboard-response","372","465300","0.0-16.0-0.40","5e89e89bf025be000c01eead","650c16f0f2faf8d7a0d14c09","651c1ce47596cda8cdc9a6a5","null","null","<p style=""font-size: 60px; font-family: BACS"">UaYLcbm</p>","","","","","","","","",""
"html-keyboard-response","373","466308","0.0-16.0-0.41","5e89e89bf025be000c01eead","650c16f0f2faf8d7a0d14c09","651c1ce47596cda8cdc9a6a5","null","null","<p style=""font-size: 60px; font-family: BACS"">UaYLcbm</p>","","","","","","","","",""
"html-keyboard-response","374","467325","0.0-16.0-0.42","5e89e89bf025be000c01eead","650c16f0f2faf8d7a0d14c09","651c1ce47596cda8cdc9a6a5","null","null","<p style=""font-size: 60px; font-family: BACS"">UaYLcbm</p>","","","","","","","","",""
"html-keyboard-response","375","468329","0.0-16.0-0.43","5e89e89bf025be000c01eead","650c16f0f2faf8d7a0d14c09","651c1ce47596cda8cdc9a6a5","null","null","<p style=""font-size: 60px; font-family: BACS"">UaYLcbm</p>","","","","","","","","",""
"html-keyboard-response","376","469338","0.0-16.0-0.44","5e89e89bf025be000c01eead","650c16f0f2faf8d7a0d14c09","651c1ce47596cda8cdc9a6a5","null","null","<p style=""font-size: 60px; font-family: BACS"">UaYLcbm</p>","","","","","","","","",""
"html-keyboard-response","377","470344","0.0-16.0-0.45","5e89e89bf025be000c01eead","650c16f0f2faf8d7a0d14c09","651c1ce47596cda8cdc9a6a5","null","null","<p style=""font-size: 60px; font-family: BACS"">UaYLcbm</p>","","","","","","","","",""
"html-keyboard-response","378","471356","0.0-16.0-0.46","5e89e89bf025be000c01eead","650c16f0f2faf8d7a0d14c09","651c1ce47596cda8cdc9a6a5","null","null","<p style=""font-size: 60px; font-family: BACS"">UaYLcbm</p>","","","","","","","","",""
"html-keyboard-response","379","472364","0.0-16.0-0.47","5e89e89bf025be000c01eead","650c16f0f2faf8d7a0d14c09","651c1ce47596cda8cdc9a6a5","null","null","<p style=""font-size: 60px; font-family: BACS"">UaYLcbm</p>","","","","","","","","",""
"html-keyboard-response","380","473370","0.0-16.0-0.48","5e89e89bf025be000c01eead","650c16f0f2faf8d7a0d14c09","651c1ce47596cda8cdc9a6a5","null","null","<p style=""font-size: 60px; font-family: BACS"">UaYLcbm</p>","","","","","","","","",""
"html-keyboard-response","381","474388","0.0-16.0-0.49","5e89e89bf025be000c01eead","650c16f0f2faf8d7a0d14c09","651c1ce47596cda8cdc9a6a5","null","null","<p style=""font-size: 60px; font-family: BACS"">UaYLcbm</p>","","","","","","","","",""
"html-keyboard-response","382","475397","0.0-16.0-0.50","5e89e89bf025be000c01eead","650c16f0f2faf8d7a0d14c09","651c1ce47596cda8cdc9a6a5","null","null","<p style=""font-size: 60px; font-family: BACS"">UaYLcbm</p>","","","","","","","","",""
"html-keyboard-response","383","476412","0.0-16.0-0.51","5e89e89bf025be000c01eead","650c16f0f2faf8d7a0d14c09","651c1ce47596cda8cdc9a6a5","null","null","<p style=""font-size: 60px; font-family: BACS"">UaYLcbm</p>","","","","","","","","",""
"html-keyboard-response","384","477417","0.0-16.0-0.52","5e89e89bf025be000c01eead","650c16f0f2faf8d7a0d14c09","651c1ce47596cda8cdc9a6a5","null","null","<p style=""font-size: 60px; font-family: BACS"">UaYLcbm</p>","","","","","","","","",""
"html-keyboard-response","385","478428","0.0-16.0-0.53","5e89e89bf025be000c01eead","650c16f0f2faf8d7a0d14c09","651c1ce47596cda8cdc9a6a5","null","null","<p style=""font-size: 60px; font-family: BACS"">UaYLcbm</p>","","","","","","","","",""
"html-keyboard-response","386","479436","0.0-16.0-0.54","5e89e89bf025be000c01eead","650c16f0f2faf8d7a0d14c09","651c1ce47596cda8cdc9a6a5","null","null","<p style=""font-size: 60px; font-family: BACS"">UaYLcbm</p>","","","","","","","","",""
"html-keyboard-response","387","480447","0.0-16.0-0.55","5e89e89bf025be000c01eead","650c16f0f2faf8d7a0d14c09","651c1ce47596cda8cdc9a6a5","null","null","<p style=""font-size: 60px; font-family: BACS"">UaYLcbm</p>","","","","","","","","",""
"html-keyboard-response","388","481458","0.0-16.0-0.56","5e89e89bf025be000c01eead","650c16f0f2faf8d7a0d14c09","651c1ce47596cda8cdc9a6a5","null","null","<p style=""font-size: 60px; font-family: BACS"">UaYLcbm</p>","","","","","","","","",""
"html-keyboard-response","389","482467","0.0-16.0-0.57","5e89e89bf025be000c01eead","650c16f0f2faf8d7a0d14c09","651c1ce47596cda8cdc9a6a5","null","null","<p style=""font-size: 60px; font-family: BACS"">UaYLcbm</p>","","","","","","","","",""
"html-keyboard-response","390","483477","0.0-16.0-0.58","5e89e89bf025be000c01eead","650c16f0f2faf8d7a0d14c09","651c1ce47596cda8cdc9a6a5","null","null","<p style=""font-size: 60px; font-family: BACS"">UaYLcbm</p>","","","","","","","","",""
"html-keyboard-response","391","484487","0.0-16.0-0.59","5e89e89bf025be000c01eead","650c16f0f2faf8d7a0d14c09","651c1ce47596cda8cdc9a6a5","null","null","<p style=""font-size: 60px; font-family: BACS"">UaYLcbm</p>","","","","","","","","",""
"html-keyboard-response","392","485508","0.0-16.0-0.60","5e89e89bf025be000c01eead","650c16f0f2faf8d7a0d14c09","651c1ce47596cda8cdc9a6a5","null","null","<p style=""font-size: 60px; font-family: BACS"">UaYLcbm</p>","","","","","","","","",""
"html-keyboard-response","393","486517","0.0-16.0-0.61","5e89e89bf025be000c01eead","650c16f0f2faf8d7a0d14c09","651c1ce47596cda8cdc9a6a5","null","null","<p style=""font-size: 60px; font-family: BACS"">UaYLcbm</p>","","","","","","","","",""
"html-keyboard-response","394","487538","0.0-16.0-0.62","5e89e89bf025be000c01eead","650c16f0f2faf8d7a0d14c09","651c1ce47596cda8cdc9a6a5","null","null","<p style=""font-size: 60px; font-family: BACS"">UaYLcbm</p>","","","","","","","","",""
"html-keyboard-response","395","488548","0.0-16.0-0.63","5e89e89bf025be000c01eead","650c16f0f2faf8d7a0d14c09","651c1ce47596cda8cdc9a6a5","null","null","<p style=""font-size: 60px; font-family: BACS"">UaYLcbm</p>","","","","","","","","",""
"html-keyboard-response","396","489557","0.0-16.0-0.64","5e89e89bf025be000c01eead","650c16f0f2faf8d7a0d14c09","651c1ce47596cda8cdc9a6a5","null","null","<p style=""font-size: 60px; font-family: BACS"">UaYLcbm</p>","","","","","","","","",""
"html-keyboard-response","397","490558","0.0-16.0-0.65","5e89e89bf025be000c01eead","650c16f0f2faf8d7a0d14c09","651c1ce47596cda8cdc9a6a5","null","null","<p style=""font-size: 60px; font-family: BACS"">UaYLcbm</p>","","","","","","","","",""
"html-keyboard-response","398","491563","0.0-16.0-0.66","5e89e89bf025be000c01eead","650c16f0f2faf8d7a0d14c09","651c1ce47596cda8cdc9a6a5","null","null","<p style=""font-size: 60px; font-family: BACS"">UaYLcbm</p>","","","","","","","","",""
