"trial_type","trial_index","time_elapsed","internal_node_id","subject_id","study_id","session_id","rt","response","stimulus","success","item","task","correct_response","testing_condition","correct","target","confound","name"
"pavlovia","0","1210","0.0-0.0","5e12048c7605fe8839180a14","650c16f0f2faf8d7a0d14c09","651c1b91cfbc2f97ca17c7b2","","","","","","","","","","","",""
"survey-html-form","1","56735","0.0-1.0","5e12048c7605fe8839180a14","650c16f0f2faf8d7a0d14c09","651c1b91cfbc2f97ca17c7b2","55523","{""ID"":""5e12048c7605fe8839180a14""}","","","","","","","","","",""
"html-keyboard-response","2","304991","0.0-2.0","5e12048c7605fe8839180a14","650c16f0f2faf8d7a0d14c09","651c1b91cfbc2f97ca17c7b2","248254"," ","<p style=""font-size: 15px;"">Before beginning, we ask that you read the consent information and confirm your agreement to participate in the experiment.</p>
      <p style=""font-size: 15px;""> We ask that you remember that this is a research project and that your participation is entirely voluntary. You can stop your participation at any time, without needing to provide any explanation. The study we're asking you to participate in aims at examining how readers process written words. You will be engaged in a session of apprximately 20 minutes, followed by a brief questionnaire. You will have the opportunity to take a few breaks during the experiment. You will be paid £4 for your participation, corresponding to a rate of £8/hour. While this experiment looks at cognitive faculties, this experiment doesn't constitute clinical proof of eventual pathologies.</p>
      <p style=""font-size: 15px;"">All of the information collected thanks to yours and others' participation will be held in a secure password-protected server, and will not be shared with anyone not authorised to view it. Your personal information will be kept with an arbitrary participant ID. Thanks to this data anonymity process, any researcher analysing the data won't be able to track the information back to a specific participant. Therefore, this process will make identifying you impossibile, even when results from the study will be published in scientific reviews, presented at congresses, or at any other public forum. More generally, the collected data will be treated in accordance with the laws on privacy and conformity to the Legislative Degree n. 196 ""Code regarding the protection of personal data"" of the 30th of June 2003 and to the European Regulation 2016/670 (General Data Protection Regulation - GDPR). The Data Protection Officer is Avv. Valentina Carollo, who can be contacted at the following email addresses: <a href=""mailto:dpo@sissa.it"">dpo@sissa.it</a> or <a href=""mailto:rpd@sissa.it"">rpd@sissa.it</a> - PEC: <a href=""mailto:protocollo@pec.sissa.it"">protocollo@pec.sissa.it</a>.</p>
      <p style=""font-size: 15px;""> Before expressing your consent to participate, we would like to remind you again that in case you need explanations on any aspect of the experimental procedure, the researcher is at your disposition (<a href=""mailto:aliebelt@sissa.it"">aliebelt@sissa.it</a>, <a href=""mailto:davide.crepaldi@sissa.it"">davide.crepaldi@sissa.it</a>).</p>
      <p style=""font-size: 15px;"">If you would like to download the informed consent form, you can do so here: <a href=""BASL-Informed_Consent.pdf"" download>informed consent form</a>.</p>
      <p style=""font-size: 15px;"">We ask that you press the spacebar to proceed to the consent section.</p>","","","","","","","","",""
"survey-html-form","3","310834","0.0-3.0","5e12048c7605fe8839180a14","650c16f0f2faf8d7a0d14c09","651c1b91cfbc2f97ca17c7b2","5842","{""consent1"":""YES"",""consent2"":""YES"",""consent3"":""YES"",""consent4"":""YES"",""consent5"":""YES"",""consent6"":""YES""}","","","","","","","","","",""
"fullscreen","4","314816","0.0-4.0","5e12048c7605fe8839180a14","650c16f0f2faf8d7a0d14c09","651c1b91cfbc2f97ca17c7b2","","","","true","","","","","","","",""
"html-keyboard-response","5","327590","0.0-5.0","5e12048c7605fe8839180a14","650c16f0f2faf8d7a0d14c09","651c1b91cfbc2f97ca17c7b2","12770"," ","<p>Welcome, and thank you very much for your time!</p>
      <p>In this experiment, you'll be a language expert who's been asked to take a look at words that Earth has received in its first communication with aliens. Your task, in this first part of the experiment, is to pay close attention to the words you'll be shown; later, world leaders will ask you questions on what you saw. The words will be shown to you quite quickly; it seems that the aliens were in a hurry :-)</p>
      <p>Press the spacebar to continue.<p>","","","","","","","","",""
"html-keyboard-response","6","327651","0.0-6.0","5e12048c7605fe8839180a14","650c16f0f2faf8d7a0d14c09","651c1b91cfbc2f97ca17c7b2","null","null","<p style=""font-size: 120px; font-family: BACS""> </p>","","","","","","","","",""
"html-keyboard-response","7","333326","0.0-7.0","5e12048c7605fe8839180a14","650c16f0f2faf8d7a0d14c09","651c1b91cfbc2f97ca17c7b2","5674"," ","<p>Here is an example of the words you'll see:</p>
      <img src='esempio.png' height='400px'>
      <p>When you're ready to begin, press the spacebar.</p></div>","","","","","","","","",""
"html-keyboard-response","8","334339","0.0-8.0-0.0","5e12048c7605fe8839180a14","650c16f0f2faf8d7a0d14c09","651c1b91cfbc2f97ca17c7b2","null","null","<p style=""font-size: 60px; font-family: BACS"">ZYcQUkdrO</p>","","","","","","","","",""
"html-keyboard-response","9","335342","0.0-8.0-0.1","5e12048c7605fe8839180a14","650c16f0f2faf8d7a0d14c09","651c1b91cfbc2f97ca17c7b2","null","null","<p style=""font-size: 60px; font-family: BACS"">YlYclRE</p>","","","","","","","","",""
"html-keyboard-response","10","336348","0.0-8.0-0.2","5e12048c7605fe8839180a14","650c16f0f2faf8d7a0d14c09","651c1b91cfbc2f97ca17c7b2","null","null","<p style=""font-size: 60px; font-family: BACS"">dGLAlQvlZ</p>","","","","","","","","",""
"html-keyboard-response","11","337357","0.0-8.0-0.3","5e12048c7605fe8839180a14","650c16f0f2faf8d7a0d14c09","651c1b91cfbc2f97ca17c7b2","null","null","<p style=""font-size: 60px; font-family: BACS"">YKRkEKBO</p>","","","","","","","","",""
"html-keyboard-response","12","338369","0.0-8.0-0.4","5e12048c7605fe8839180a14","650c16f0f2faf8d7a0d14c09","651c1b91cfbc2f97ca17c7b2","null","null","<p style=""font-size: 60px; font-family: BACS"">dGLAlkdrO</p>","","","","","","","","",""
"html-keyboard-response","13","339376","0.0-8.0-0.5","5e12048c7605fe8839180a14","650c16f0f2faf8d7a0d14c09","651c1b91cfbc2f97ca17c7b2","null","null","<p style=""font-size: 60px; font-family: BACS"">tmAKDKP</p>","","","","","","","","",""
"html-keyboard-response","14","340402","0.0-8.0-0.6","5e12048c7605fe8839180a14","650c16f0f2faf8d7a0d14c09","651c1b91cfbc2f97ca17c7b2","null","null","<p style=""font-size: 60px; font-family: BACS"">bAdklRE</p>","","","","","","","","",""
"html-keyboard-response","15","341409","0.0-8.0-0.7","5e12048c7605fe8839180a14","650c16f0f2faf8d7a0d14c09","651c1b91cfbc2f97ca17c7b2","null","null","<p style=""font-size: 60px; font-family: BACS"">MDKPEKBO</p>","","","","","","","","",""
"html-keyboard-response","16","342416","0.0-8.0-0.8","5e12048c7605fe8839180a14","650c16f0f2faf8d7a0d14c09","651c1b91cfbc2f97ca17c7b2","null","null","<p style=""font-size: 60px; font-family: BACS"">advYOukbY</p>","","","","","","","","",""
"html-keyboard-response","17","343431","0.0-8.0-0.9","5e12048c7605fe8839180a14","650c16f0f2faf8d7a0d14c09","651c1b91cfbc2f97ca17c7b2","null","null","<p style=""font-size: 60px; font-family: BACS"">PCPDhlRE</p>","","","","","","","","",""
"html-keyboard-response","18","344446","0.0-8.0-0.10","5e12048c7605fe8839180a14","650c16f0f2faf8d7a0d14c09","651c1b91cfbc2f97ca17c7b2","null","null","<p style=""font-size: 60px; font-family: BACS"">bvuZLaA</p>","","","","","","","","",""
"html-keyboard-response","19","345459","0.0-8.0-0.11","5e12048c7605fe8839180a14","650c16f0f2faf8d7a0d14c09","651c1b91cfbc2f97ca17c7b2","null","null","<p style=""font-size: 60px; font-family: BACS"">tmAKTAm</p>","","","","","","","","",""
"html-keyboard-response","20","346461","0.0-8.0-0.12","5e12048c7605fe8839180a14","650c16f0f2faf8d7a0d14c09","651c1b91cfbc2f97ca17c7b2","null","null","<p style=""font-size: 60px; font-family: BACS"">YOZNkdrO</p>","","","","","","","","",""
"html-keyboard-response","21","347464","0.0-8.0-0.13","5e12048c7605fe8839180a14","650c16f0f2faf8d7a0d14c09","651c1b91cfbc2f97ca17c7b2","null","null","<p style=""font-size: 60px; font-family: BACS"">advYOLaA</p>","","","","","","","","",""
"html-keyboard-response","22","348492","0.0-8.0-0.14","5e12048c7605fe8839180a14","650c16f0f2faf8d7a0d14c09","651c1b91cfbc2f97ca17c7b2","null","null","<p style=""font-size: 60px; font-family: BACS"">ZYcQUQvlZ</p>","","","","","","","","",""
"html-keyboard-response","23","349505","0.0-8.0-0.15","5e12048c7605fe8839180a14","650c16f0f2faf8d7a0d14c09","651c1b91cfbc2f97ca17c7b2","null","null","<p style=""font-size: 60px; font-family: BACS"">hmKPMDKP</p>","","","","","","","","",""
"html-keyboard-response","24","350508","0.0-8.0-0.16","5e12048c7605fe8839180a14","650c16f0f2faf8d7a0d14c09","651c1b91cfbc2f97ca17c7b2","null","null","<p style=""font-size: 60px; font-family: BACS"">dGLAldUr</p>","","","","","","","","",""
"html-keyboard-response","25","351529","0.0-8.0-0.17","5e12048c7605fe8839180a14","650c16f0f2faf8d7a0d14c09","651c1b91cfbc2f97ca17c7b2","null","null","<p style=""font-size: 60px; font-family: BACS"">ldAaLaA</p>","","","","","","","","",""
"html-keyboard-response","26","352551","0.0-8.0-0.18","5e12048c7605fe8839180a14","650c16f0f2faf8d7a0d14c09","651c1b91cfbc2f97ca17c7b2","null","null","<p style=""font-size: 60px; font-family: BACS"">chEDOTAm</p>","","","","","","","","",""
"html-keyboard-response","27","353565","0.0-8.0-0.19","5e12048c7605fe8839180a14","650c16f0f2faf8d7a0d14c09","651c1b91cfbc2f97ca17c7b2","null","null","<p style=""font-size: 60px; font-family: BACS"">KElBCkbd</p>","","","","","","","","",""
"html-keyboard-response","28","354566","0.0-8.0-0.20","5e12048c7605fe8839180a14","650c16f0f2faf8d7a0d14c09","651c1b91cfbc2f97ca17c7b2","null","null","<p style=""font-size: 60px; font-family: BACS"">kRCkOEKBO</p>","","","","","","","","",""
"html-keyboard-response","29","355570","0.0-8.0-0.21","5e12048c7605fe8839180a14","650c16f0f2faf8d7a0d14c09","651c1b91cfbc2f97ca17c7b2","null","null","<p style=""font-size: 60px; font-family: BACS"">vYLUkdrO</p>","","","","","","","","",""
"html-keyboard-response","30","356591","0.0-8.0-0.22","5e12048c7605fe8839180a14","650c16f0f2faf8d7a0d14c09","651c1b91cfbc2f97ca17c7b2","null","null","<p style=""font-size: 60px; font-family: BACS"">hmKPMEKBO</p>","","","","","","","","",""
"html-keyboard-response","31","357603","0.0-8.0-0.23","5e12048c7605fe8839180a14","650c16f0f2faf8d7a0d14c09","651c1b91cfbc2f97ca17c7b2","null","null","<p style=""font-size: 60px; font-family: BACS"">vYLUdUr</p>","","","","","","","","",""
"html-keyboard-response","32","358629","0.0-8.0-0.24","5e12048c7605fe8839180a14","650c16f0f2faf8d7a0d14c09","651c1b91cfbc2f97ca17c7b2","null","null","<p style=""font-size: 60px; font-family: BACS"">chEDOCkbd</p>","","","","","","","","",""
"html-keyboard-response","33","359636","0.0-8.0-0.25","5e12048c7605fe8839180a14","650c16f0f2faf8d7a0d14c09","651c1b91cfbc2f97ca17c7b2","null","null","<p style=""font-size: 60px; font-family: BACS"">YKRkTAm</p>","","","","","","","","",""
"html-keyboard-response","34","360638","0.0-8.0-0.26","5e12048c7605fe8839180a14","650c16f0f2faf8d7a0d14c09","651c1b91cfbc2f97ca17c7b2","null","null","<p style=""font-size: 60px; font-family: BACS"">bvuZQvlZ</p>","","","","","","","","",""
"html-keyboard-response","35","361654","0.0-8.0-0.27","5e12048c7605fe8839180a14","650c16f0f2faf8d7a0d14c09","651c1b91cfbc2f97ca17c7b2","null","null","<p style=""font-size: 60px; font-family: BACS"">advYOkdrO</p>","","","","","","","","",""
"html-keyboard-response","36","362683","0.0-8.0-0.28","5e12048c7605fe8839180a14","650c16f0f2faf8d7a0d14c09","651c1b91cfbc2f97ca17c7b2","null","null","<p style=""font-size: 60px; font-family: BACS"">ldAaQvlZ</p>","","","","","","","","",""
"html-keyboard-response","37","363699","0.0-8.0-0.29","5e12048c7605fe8839180a14","650c16f0f2faf8d7a0d14c09","651c1b91cfbc2f97ca17c7b2","null","null","<p style=""font-size: 60px; font-family: BACS"">ZYcQUukbY</p>","","","","","","","","",""
"html-keyboard-response","38","364714","0.0-8.0-0.30","5e12048c7605fe8839180a14","650c16f0f2faf8d7a0d14c09","651c1b91cfbc2f97ca17c7b2","null","null","<p style=""font-size: 60px; font-family: BACS"">PCPDhTAm</p>","","","","","","","","",""
"html-keyboard-response","39","365743","0.0-8.0-0.31","5e12048c7605fe8839180a14","650c16f0f2faf8d7a0d14c09","651c1b91cfbc2f97ca17c7b2","null","null","<p style=""font-size: 60px; font-family: BACS"">ZdNmUkdrO</p>","","","","","","","","",""
"html-keyboard-response","40","366765","0.0-8.0-0.32","5e12048c7605fe8839180a14","650c16f0f2faf8d7a0d14c09","651c1b91cfbc2f97ca17c7b2","null","null","<p style=""font-size: 60px; font-family: BACS"">kRCkOlRE</p>","","","","","","","","",""
"html-keyboard-response","41","367779","0.0-8.0-0.33","5e12048c7605fe8839180a14","650c16f0f2faf8d7a0d14c09","651c1b91cfbc2f97ca17c7b2","null","null","<p style=""font-size: 60px; font-family: BACS"">YKRkCkbd</p>","","","","","","","","",""
"html-keyboard-response","42","368790","0.0-8.0-0.34","5e12048c7605fe8839180a14","650c16f0f2faf8d7a0d14c09","651c1b91cfbc2f97ca17c7b2","null","null","<p style=""font-size: 60px; font-family: BACS"">dGLAlukbY</p>","","","","","","","","",""
"html-keyboard-response","43","369793","0.0-8.0-0.35","5e12048c7605fe8839180a14","650c16f0f2faf8d7a0d14c09","651c1b91cfbc2f97ca17c7b2","null","null","<p style=""font-size: 60px; font-family: BACS"">ZdNmULaA</p>","","","","","","","","",""
"html-keyboard-response","44","370808","0.0-8.0-0.36","5e12048c7605fe8839180a14","650c16f0f2faf8d7a0d14c09","651c1b91cfbc2f97ca17c7b2","null","null","<p style=""font-size: 60px; font-family: BACS"">MDKPTAm</p>","","","","","","","","",""
"html-keyboard-response","45","371815","0.0-8.0-0.37","5e12048c7605fe8839180a14","650c16f0f2faf8d7a0d14c09","651c1b91cfbc2f97ca17c7b2","null","null","<p style=""font-size: 60px; font-family: BACS"">bvkrLaA</p>","","","","","","","","",""
"html-keyboard-response","46","372836","0.0-8.0-0.38","5e12048c7605fe8839180a14","650c16f0f2faf8d7a0d14c09","651c1b91cfbc2f97ca17c7b2","null","null","<p style=""font-size: 60px; font-family: BACS"">chEDOEKBO</p>","","","","","","","","",""
"html-keyboard-response","47","373850","0.0-8.0-0.39","5e12048c7605fe8839180a14","650c16f0f2faf8d7a0d14c09","651c1b91cfbc2f97ca17c7b2","null","null","<p style=""font-size: 60px; font-family: BACS"">KElBDKP</p>","","","","","","","","",""
"html-keyboard-response","48","374875","0.0-8.0-0.40","5e12048c7605fe8839180a14","650c16f0f2faf8d7a0d14c09","651c1b91cfbc2f97ca17c7b2","null","null","<p style=""font-size: 60px; font-family: BACS"">YOZNLaA</p>","","","","","","","","",""
"html-keyboard-response","49","375883","0.0-8.0-0.41","5e12048c7605fe8839180a14","650c16f0f2faf8d7a0d14c09","651c1b91cfbc2f97ca17c7b2","null","null","<p style=""font-size: 60px; font-family: BACS"">ZdNmUdUr</p>","","","","","","","","",""
"html-keyboard-response","50","376906","0.0-8.0-0.42","5e12048c7605fe8839180a14","650c16f0f2faf8d7a0d14c09","651c1b91cfbc2f97ca17c7b2","null","null","<p style=""font-size: 60px; font-family: BACS"">YlYcTAm</p>","","","","","","","","",""
"html-keyboard-response","51","377936","0.0-8.0-0.43","5e12048c7605fe8839180a14","650c16f0f2faf8d7a0d14c09","651c1b91cfbc2f97ca17c7b2","null","null","<p style=""font-size: 60px; font-family: BACS"">ldAakdrO</p>","","","","","","","","",""
"html-keyboard-response","52","378964","0.0-8.0-0.44","5e12048c7605fe8839180a14","650c16f0f2faf8d7a0d14c09","651c1b91cfbc2f97ca17c7b2","null","null","<p style=""font-size: 60px; font-family: BACS"">KElBlRE</p>","","","","","","","","",""
"html-keyboard-response","53","379994","0.0-8.0-0.45","5e12048c7605fe8839180a14","650c16f0f2faf8d7a0d14c09","651c1b91cfbc2f97ca17c7b2","null","null","<p style=""font-size: 60px; font-family: BACS"">bAdkEKBO</p>","","","","","","","","",""
"html-keyboard-response","54","381025","0.0-8.0-0.46","5e12048c7605fe8839180a14","650c16f0f2faf8d7a0d14c09","651c1b91cfbc2f97ca17c7b2","null","null","<p style=""font-size: 60px; font-family: BACS"">NQZvLaA</p>","","","","","","","","",""
"html-keyboard-response","55","382046","0.0-8.0-0.47","5e12048c7605fe8839180a14","650c16f0f2faf8d7a0d14c09","651c1b91cfbc2f97ca17c7b2","null","null","<p style=""font-size: 60px; font-family: BACS"">YlYcCkbd</p>","","","","","","","","",""
"html-keyboard-response","56","383068","0.0-8.0-0.48","5e12048c7605fe8839180a14","650c16f0f2faf8d7a0d14c09","651c1b91cfbc2f97ca17c7b2","null","null","<p style=""font-size: 60px; font-family: BACS"">NQZvukbY</p>","","","","","","","","",""
"html-keyboard-response","57","384070","0.0-8.0-0.49","5e12048c7605fe8839180a14","650c16f0f2faf8d7a0d14c09","651c1b91cfbc2f97ca17c7b2","null","null","<p style=""font-size: 60px; font-family: BACS"">vYLUQvlZ</p>","","","","","","","","",""
"html-keyboard-response","58","385074","0.0-8.0-0.50","5e12048c7605fe8839180a14","650c16f0f2faf8d7a0d14c09","651c1b91cfbc2f97ca17c7b2","null","null","<p style=""font-size: 60px; font-family: BACS"">ZYcQULaA</p>","","","","","","","","",""
"html-keyboard-response","59","386086","0.0-8.0-0.51","5e12048c7605fe8839180a14","650c16f0f2faf8d7a0d14c09","651c1b91cfbc2f97ca17c7b2","null","null","<p style=""font-size: 60px; font-family: BACS"">PCPDhDKP</p>","","","","","","","","",""
"html-keyboard-response","60","387110","0.0-8.0-0.52","5e12048c7605fe8839180a14","650c16f0f2faf8d7a0d14c09","651c1b91cfbc2f97ca17c7b2","null","null","<p style=""font-size: 60px; font-family: BACS"">bAdkCkbd</p>","","","","","","","","",""
"html-keyboard-response","61","388126","0.0-8.0-0.53","5e12048c7605fe8839180a14","650c16f0f2faf8d7a0d14c09","651c1b91cfbc2f97ca17c7b2","null","null","<p style=""font-size: 60px; font-family: BACS"">bvkrukbY</p>","","","","","","","","",""
"html-keyboard-response","62","389133","0.0-8.0-0.54","5e12048c7605fe8839180a14","650c16f0f2faf8d7a0d14c09","651c1b91cfbc2f97ca17c7b2","null","null","<p style=""font-size: 60px; font-family: BACS"">ZdNmUQvlZ</p>","","","","","","","","",""
"html-keyboard-response","63","390159","0.0-8.0-0.55","5e12048c7605fe8839180a14","650c16f0f2faf8d7a0d14c09","651c1b91cfbc2f97ca17c7b2","null","null","<p style=""font-size: 60px; font-family: BACS"">NQZvkdrO</p>","","","","","","","","",""
"html-keyboard-response","64","391181","0.0-8.0-0.56","5e12048c7605fe8839180a14","650c16f0f2faf8d7a0d14c09","651c1b91cfbc2f97ca17c7b2","null","null","<p style=""font-size: 60px; font-family: BACS"">MDKPlRE</p>","","","","","","","","",""
"html-keyboard-response","65","392203","0.0-8.0-0.57","5e12048c7605fe8839180a14","650c16f0f2faf8d7a0d14c09","651c1b91cfbc2f97ca17c7b2","null","null","<p style=""font-size: 60px; font-family: BACS"">ldAaukbY</p>","","","","","","","","",""
"html-keyboard-response","66","393233","0.0-8.0-0.58","5e12048c7605fe8839180a14","650c16f0f2faf8d7a0d14c09","651c1b91cfbc2f97ca17c7b2","null","null","<p style=""font-size: 60px; font-family: BACS"">bvuZdUr</p>","","","","","","","","",""
"html-keyboard-response","67","394236","0.0-8.0-0.59","5e12048c7605fe8839180a14","650c16f0f2faf8d7a0d14c09","651c1b91cfbc2f97ca17c7b2","null","null","<p style=""font-size: 60px; font-family: BACS"">kRCkOCkbd</p>","","","","","","","","",""
"html-keyboard-response","68","395240","0.0-8.0-0.60","5e12048c7605fe8839180a14","650c16f0f2faf8d7a0d14c09","651c1b91cfbc2f97ca17c7b2","null","null","<p style=""font-size: 60px; font-family: BACS"">KElBEKBO</p>","","","","","","","","",""
"html-keyboard-response","69","396250","0.0-8.0-0.61","5e12048c7605fe8839180a14","650c16f0f2faf8d7a0d14c09","651c1b91cfbc2f97ca17c7b2","null","null","<p style=""font-size: 60px; font-family: BACS"">YlYcDKP</p>","","","","","","","","",""
"html-keyboard-response","70","397272","0.0-8.0-0.62","5e12048c7605fe8839180a14","650c16f0f2faf8d7a0d14c09","651c1b91cfbc2f97ca17c7b2","null","null","<p style=""font-size: 60px; font-family: BACS"">advYOdUr</p>","","","","","","","","",""
"html-keyboard-response","71","398280","0.0-8.0-0.63","5e12048c7605fe8839180a14","650c16f0f2faf8d7a0d14c09","651c1b91cfbc2f97ca17c7b2","null","null","<p style=""font-size: 60px; font-family: BACS"">PCPDhCkbd</p>","","","","","","","","",""
"html-keyboard-response","72","399289","0.0-8.0-0.64","5e12048c7605fe8839180a14","650c16f0f2faf8d7a0d14c09","651c1b91cfbc2f97ca17c7b2","null","null","<p style=""font-size: 60px; font-family: BACS"">bAdkTAm</p>","","","","","","","","",""
"html-keyboard-response","73","400293","0.0-8.0-0.65","5e12048c7605fe8839180a14","650c16f0f2faf8d7a0d14c09","651c1b91cfbc2f97ca17c7b2","null","null","<p style=""font-size: 60px; font-family: BACS"">bvkrQvlZ</p>","","","","","","","","",""
"html-keyboard-response","74","401293","0.0-8.0-0.66","5e12048c7605fe8839180a14","650c16f0f2faf8d7a0d14c09","651c1b91cfbc2f97ca17c7b2","null","null","<p style=""font-size: 60px; font-family: BACS"">kRCkODKP</p>","","","","","","","","",""
"html-keyboard-response","75","402299","0.0-8.0-0.67","5e12048c7605fe8839180a14","650c16f0f2faf8d7a0d14c09","651c1b91cfbc2f97ca17c7b2","null","null","<p style=""font-size: 60px; font-family: BACS"">tmAKCkbd</p>","","","","","","","","",""
"html-keyboard-response","76","403305","0.0-8.0-0.68","5e12048c7605fe8839180a14","650c16f0f2faf8d7a0d14c09","651c1b91cfbc2f97ca17c7b2","null","null","<p style=""font-size: 60px; font-family: BACS"">bvuZukbY</p>","","","","","","","","",""
"html-keyboard-response","77","404328","0.0-8.0-0.69","5e12048c7605fe8839180a14","650c16f0f2faf8d7a0d14c09","651c1b91cfbc2f97ca17c7b2","null","null","<p style=""font-size: 60px; font-family: BACS"">hmKPMTAm</p>","","","","","","","","",""
"html-keyboard-response","78","405349","0.0-8.0-0.70","5e12048c7605fe8839180a14","650c16f0f2faf8d7a0d14c09","651c1b91cfbc2f97ca17c7b2","null","null","<p style=""font-size: 60px; font-family: BACS"">chEDOlRE</p>","","","","","","","","",""
"html-keyboard-response","79","406364","0.0-8.0-0.71","5e12048c7605fe8839180a14","650c16f0f2faf8d7a0d14c09","651c1b91cfbc2f97ca17c7b2","null","null","<p style=""font-size: 60px; font-family: BACS"">vYLUukbY</p>","","","","","","","","",""
"html-keyboard-response","80","407368","0.0-8.0-0.72","5e12048c7605fe8839180a14","650c16f0f2faf8d7a0d14c09","651c1b91cfbc2f97ca17c7b2","null","null","<p style=""font-size: 60px; font-family: BACS"">YOZNQvlZ</p>","","","","","","","","",""
"html-keyboard-response","81","408379","0.0-8.0-0.73","5e12048c7605fe8839180a14","650c16f0f2faf8d7a0d14c09","651c1b91cfbc2f97ca17c7b2","null","null","<p style=""font-size: 60px; font-family: BACS"">MDKPDKP</p>","","","","","","","","",""
"html-keyboard-response","82","409389","0.0-8.0-0.74","5e12048c7605fe8839180a14","650c16f0f2faf8d7a0d14c09","651c1b91cfbc2f97ca17c7b2","null","null","<p style=""font-size: 60px; font-family: BACS"">NQZvdUr</p>","","","","","","","","",""
"html-keyboard-response","83","410403","0.0-8.0-0.75","5e12048c7605fe8839180a14","650c16f0f2faf8d7a0d14c09","651c1b91cfbc2f97ca17c7b2","null","null","<p style=""font-size: 60px; font-family: BACS"">YKRkDKP</p>","","","","","","","","",""
"html-keyboard-response","84","411405","0.0-8.0-0.76","5e12048c7605fe8839180a14","650c16f0f2faf8d7a0d14c09","651c1b91cfbc2f97ca17c7b2","null","null","<p style=""font-size: 60px; font-family: BACS"">hmKPMlRE</p>","","","","","","","","",""
"html-keyboard-response","85","412409","0.0-8.0-0.77","5e12048c7605fe8839180a14","650c16f0f2faf8d7a0d14c09","651c1b91cfbc2f97ca17c7b2","null","null","<p style=""font-size: 60px; font-family: BACS"">bvkrdUr</p>","","","","","","","","",""
"html-keyboard-response","86","413435","0.0-8.0-0.78","5e12048c7605fe8839180a14","650c16f0f2faf8d7a0d14c09","651c1b91cfbc2f97ca17c7b2","null","null","<p style=""font-size: 60px; font-family: BACS"">tmAKEKBO</p>","","","","","","","","",""
"html-keyboard-response","87","414444","0.0-8.0-0.79","5e12048c7605fe8839180a14","650c16f0f2faf8d7a0d14c09","651c1b91cfbc2f97ca17c7b2","null","null","<p style=""font-size: 60px; font-family: BACS"">YOZNdUr</p>","","","","","","","","",""
"html-keyboard-response","88","417388","0.0-9.0","5e12048c7605fe8839180a14","650c16f0f2faf8d7a0d14c09","651c1b91cfbc2f97ca17c7b2","2944"," ","<p>Great, you've seen the first block of words. You may now take a short break.</p>
      <p>Press the spacebar when you're ready to continue.</p>","","","","","","","","",""
"html-keyboard-response","89","418403","0.0-10.0-0.0","5e12048c7605fe8839180a14","650c16f0f2faf8d7a0d14c09","651c1b91cfbc2f97ca17c7b2","null","null","<p style=""font-size: 60px; font-family: BACS"">advYOukbY</p>","","","","","","","","",""
"html-keyboard-response","90","419421","0.0-10.0-0.1","5e12048c7605fe8839180a14","650c16f0f2faf8d7a0d14c09","651c1b91cfbc2f97ca17c7b2","null","null","<p style=""font-size: 60px; font-family: BACS"">chEDOCkbd</p>","","","","","","","","",""
"html-keyboard-response","91","420434","0.0-10.0-0.2","5e12048c7605fe8839180a14","650c16f0f2faf8d7a0d14c09","651c1b91cfbc2f97ca17c7b2","null","null","<p style=""font-size: 60px; font-family: BACS"">hmKPMDKP</p>","","","","","","","","",""
"html-keyboard-response","92","421446","0.0-10.0-0.3","5e12048c7605fe8839180a14","650c16f0f2faf8d7a0d14c09","651c1b91cfbc2f97ca17c7b2","null","null","<p style=""font-size: 60px; font-family: BACS"">YlYcCkbd</p>","","","","","","","","",""
"html-keyboard-response","93","422457","0.0-10.0-0.4","5e12048c7605fe8839180a14","650c16f0f2faf8d7a0d14c09","651c1b91cfbc2f97ca17c7b2","null","null","<p style=""font-size: 60px; font-family: BACS"">chEDOEKBO</p>","","","","","","","","",""
"html-keyboard-response","94","423463","0.0-10.0-0.5","5e12048c7605fe8839180a14","650c16f0f2faf8d7a0d14c09","651c1b91cfbc2f97ca17c7b2","null","null","<p style=""font-size: 60px; font-family: BACS"">YKRkTAm</p>","","","","","","","","",""
"html-keyboard-response","95","424467","0.0-10.0-0.6","5e12048c7605fe8839180a14","650c16f0f2faf8d7a0d14c09","651c1b91cfbc2f97ca17c7b2","null","null","<p style=""font-size: 60px; font-family: BACS"">kRCkOlRE</p>","","","","","","","","",""
"html-keyboard-response","96","425494","0.0-10.0-0.7","5e12048c7605fe8839180a14","650c16f0f2faf8d7a0d14c09","651c1b91cfbc2f97ca17c7b2","null","null","<p style=""font-size: 60px; font-family: BACS"">PCPDhCkbd</p>","","","","","","","","",""
"html-keyboard-response","97","426503","0.0-10.0-0.8","5e12048c7605fe8839180a14","650c16f0f2faf8d7a0d14c09","651c1b91cfbc2f97ca17c7b2","null","null","<p style=""font-size: 60px; font-family: BACS"">YKRkDKP</p>","","","","","","","","",""
"html-keyboard-response","98","427509","0.0-10.0-0.9","5e12048c7605fe8839180a14","650c16f0f2faf8d7a0d14c09","651c1b91cfbc2f97ca17c7b2","null","null","<p style=""font-size: 60px; font-family: BACS"">bvuZQvlZ</p>","","","","","","","","",""
"html-keyboard-response","99","428523","0.0-10.0-0.10","5e12048c7605fe8839180a14","650c16f0f2faf8d7a0d14c09","651c1b91cfbc2f97ca17c7b2","null","null","<p style=""font-size: 60px; font-family: BACS"">PCPDhDKP</p>","","","","","","","","",""
"html-keyboard-response","100","429548","0.0-10.0-0.11","5e12048c7605fe8839180a14","650c16f0f2faf8d7a0d14c09","651c1b91cfbc2f97ca17c7b2","null","null","<p style=""font-size: 60px; font-family: BACS"">advYOkdrO</p>","","","","","","","","",""
"html-keyboard-response","101","430550","0.0-10.0-0.12","5e12048c7605fe8839180a14","650c16f0f2faf8d7a0d14c09","651c1b91cfbc2f97ca17c7b2","null","null","<p style=""font-size: 60px; font-family: BACS"">ldAaukbY</p>","","","","","","","","",""
"html-keyboard-response","102","431557","0.0-10.0-0.13","5e12048c7605fe8839180a14","650c16f0f2faf8d7a0d14c09","651c1b91cfbc2f97ca17c7b2","null","null","<p style=""font-size: 60px; font-family: BACS"">KElBlRE</p>","","","","","","","","",""
"html-keyboard-response","103","432569","0.0-10.0-0.14","5e12048c7605fe8839180a14","650c16f0f2faf8d7a0d14c09","651c1b91cfbc2f97ca17c7b2","null","null","<p style=""font-size: 60px; font-family: BACS"">vYLUkdrO</p>","","","","","","","","",""
"html-keyboard-response","104","433572","0.0-10.0-0.15","5e12048c7605fe8839180a14","650c16f0f2faf8d7a0d14c09","651c1b91cfbc2f97ca17c7b2","null","null","<p style=""font-size: 60px; font-family: BACS"">bvuZLaA</p>","","","","","","","","",""
"html-keyboard-response","105","434573","0.0-10.0-0.16","5e12048c7605fe8839180a14","650c16f0f2faf8d7a0d14c09","651c1b91cfbc2f97ca17c7b2","null","null","<p style=""font-size: 60px; font-family: BACS"">tmAKCkbd</p>","","","","","","","","",""
"html-keyboard-response","106","435578","0.0-10.0-0.17","5e12048c7605fe8839180a14","650c16f0f2faf8d7a0d14c09","651c1b91cfbc2f97ca17c7b2","null","null","<p style=""font-size: 60px; font-family: BACS"">ldAaQvlZ</p>","","","","","","","","",""
"html-keyboard-response","107","436589","0.0-10.0-0.18","5e12048c7605fe8839180a14","650c16f0f2faf8d7a0d14c09","651c1b91cfbc2f97ca17c7b2","null","null","<p style=""font-size: 60px; font-family: BACS"">YlYclRE</p>","","","","","","","","",""
"html-keyboard-response","108","437598","0.0-10.0-0.19","5e12048c7605fe8839180a14","650c16f0f2faf8d7a0d14c09","651c1b91cfbc2f97ca17c7b2","null","null","<p style=""font-size: 60px; font-family: BACS"">dGLAlQvlZ</p>","","","","","","","","",""
"html-keyboard-response","109","438623","0.0-10.0-0.20","5e12048c7605fe8839180a14","650c16f0f2faf8d7a0d14c09","651c1b91cfbc2f97ca17c7b2","null","null","<p style=""font-size: 60px; font-family: BACS"">kRCkOEKBO</p>","","","","","","","","",""
"html-keyboard-response","110","439635","0.0-10.0-0.21","5e12048c7605fe8839180a14","650c16f0f2faf8d7a0d14c09","651c1b91cfbc2f97ca17c7b2","null","null","<p style=""font-size: 60px; font-family: BACS"">ZdNmUdUr</p>","","","","","","","","",""
"html-keyboard-response","111","440665","0.0-10.0-0.22","5e12048c7605fe8839180a14","650c16f0f2faf8d7a0d14c09","651c1b91cfbc2f97ca17c7b2","null","null","<p style=""font-size: 60px; font-family: BACS"">KElBCkbd</p>","","","","","","","","",""
"html-keyboard-response","112","441679","0.0-10.0-0.23","5e12048c7605fe8839180a14","650c16f0f2faf8d7a0d14c09","651c1b91cfbc2f97ca17c7b2","null","null","<p style=""font-size: 60px; font-family: BACS"">bvuZdUr</p>","","","","","","","","",""
"html-keyboard-response","113","442701","0.0-10.0-0.24","5e12048c7605fe8839180a14","650c16f0f2faf8d7a0d14c09","651c1b91cfbc2f97ca17c7b2","null","null","<p style=""font-size: 60px; font-family: BACS"">ZYcQULaA</p>","","","","","","","","",""
"html-keyboard-response","114","443704","0.0-10.0-0.25","5e12048c7605fe8839180a14","650c16f0f2faf8d7a0d14c09","651c1b91cfbc2f97ca17c7b2","null","null","<p style=""font-size: 60px; font-family: BACS"">YKRkCkbd</p>","","","","","","","","",""
"html-keyboard-response","115","444717","0.0-10.0-0.26","5e12048c7605fe8839180a14","650c16f0f2faf8d7a0d14c09","651c1b91cfbc2f97ca17c7b2","null","null","<p style=""font-size: 60px; font-family: BACS"">YOZNdUr</p>","","","","","","","","",""
"html-keyboard-response","116","445725","0.0-10.0-0.27","5e12048c7605fe8839180a14","650c16f0f2faf8d7a0d14c09","651c1b91cfbc2f97ca17c7b2","null","null","<p style=""font-size: 60px; font-family: BACS"">KElBDKP</p>","","","","","","","","",""
"html-keyboard-response","117","446728","0.0-10.0-0.28","5e12048c7605fe8839180a14","650c16f0f2faf8d7a0d14c09","651c1b91cfbc2f97ca17c7b2","null","null","<p style=""font-size: 60px; font-family: BACS"">MDKPTAm</p>","","","","","","","","",""
"html-keyboard-response","118","447740","0.0-10.0-0.29","5e12048c7605fe8839180a14","650c16f0f2faf8d7a0d14c09","651c1b91cfbc2f97ca17c7b2","null","null","<p style=""font-size: 60px; font-family: BACS"">YlYcDKP</p>","","","","","","","","",""
"html-keyboard-response","119","448770","0.0-10.0-0.30","5e12048c7605fe8839180a14","650c16f0f2faf8d7a0d14c09","651c1b91cfbc2f97ca17c7b2","null","null","<p style=""font-size: 60px; font-family: BACS"">MDKPEKBO</p>","","","","","","","","",""
"html-keyboard-response","120","449800","0.0-10.0-0.31","5e12048c7605fe8839180a14","650c16f0f2faf8d7a0d14c09","651c1b91cfbc2f97ca17c7b2","null","null","<p style=""font-size: 60px; font-family: BACS"">bvkrukbY</p>","","","","","","","","",""
"html-keyboard-response","121","450826","0.0-10.0-0.32","5e12048c7605fe8839180a14","650c16f0f2faf8d7a0d14c09","651c1b91cfbc2f97ca17c7b2","null","null","<p style=""font-size: 60px; font-family: BACS"">kRCkODKP</p>","","","","","","","","",""
"html-keyboard-response","122","451859","0.0-10.0-0.33","5e12048c7605fe8839180a14","650c16f0f2faf8d7a0d14c09","651c1b91cfbc2f97ca17c7b2","null","null","<p style=""font-size: 60px; font-family: BACS"">NQZvdUr</p>","","","","","","","","",""
"html-keyboard-response","123","452863","0.0-10.0-0.34","5e12048c7605fe8839180a14","650c16f0f2faf8d7a0d14c09","651c1b91cfbc2f97ca17c7b2","null","null","<p style=""font-size: 60px; font-family: BACS"">ZYcQUQvlZ</p>","","","","","","","","",""
"html-keyboard-response","124","453876","0.0-10.0-0.35","5e12048c7605fe8839180a14","650c16f0f2faf8d7a0d14c09","651c1b91cfbc2f97ca17c7b2","null","null","<p style=""font-size: 60px; font-family: BACS"">bAdkTAm</p>","","","","","","","","",""
"html-keyboard-response","125","454879","0.0-10.0-0.36","5e12048c7605fe8839180a14","650c16f0f2faf8d7a0d14c09","651c1b91cfbc2f97ca17c7b2","null","null","<p style=""font-size: 60px; font-family: BACS"">dGLAlukbY</p>","","","","","","","","",""
"html-keyboard-response","126","455893","0.0-10.0-0.37","5e12048c7605fe8839180a14","650c16f0f2faf8d7a0d14c09","651c1b91cfbc2f97ca17c7b2","null","null","<p style=""font-size: 60px; font-family: BACS"">ZdNmUQvlZ</p>","","","","","","","","",""
"html-keyboard-response","127","456896","0.0-10.0-0.38","5e12048c7605fe8839180a14","650c16f0f2faf8d7a0d14c09","651c1b91cfbc2f97ca17c7b2","null","null","<p style=""font-size: 60px; font-family: BACS"">PCPDhTAm</p>","","","","","","","","",""
"html-keyboard-response","128","457897","0.0-10.0-0.39","5e12048c7605fe8839180a14","650c16f0f2faf8d7a0d14c09","651c1b91cfbc2f97ca17c7b2","null","null","<p style=""font-size: 60px; font-family: BACS"">tmAKEKBO</p>","","","","","","","","",""
"html-keyboard-response","129","458910","0.0-10.0-0.40","5e12048c7605fe8839180a14","650c16f0f2faf8d7a0d14c09","651c1b91cfbc2f97ca17c7b2","null","null","<p style=""font-size: 60px; font-family: BACS"">YOZNLaA</p>","","","","","","","","",""
"html-keyboard-response","130","459914","0.0-10.0-0.41","5e12048c7605fe8839180a14","650c16f0f2faf8d7a0d14c09","651c1b91cfbc2f97ca17c7b2","null","null","<p style=""font-size: 60px; font-family: BACS"">YKRkEKBO</p>","","","","","","","","",""
"html-keyboard-response","131","460945","0.0-10.0-0.42","5e12048c7605fe8839180a14","650c16f0f2faf8d7a0d14c09","651c1b91cfbc2f97ca17c7b2","null","null","<p style=""font-size: 60px; font-family: BACS"">bvkrQvlZ</p>","","","","","","","","",""
"html-keyboard-response","132","461947","0.0-10.0-0.43","5e12048c7605fe8839180a14","650c16f0f2faf8d7a0d14c09","651c1b91cfbc2f97ca17c7b2","null","null","<p style=""font-size: 60px; font-family: BACS"">chEDOTAm</p>","","","","","","","","",""
"html-keyboard-response","133","462958","0.0-10.0-0.44","5e12048c7605fe8839180a14","650c16f0f2faf8d7a0d14c09","651c1b91cfbc2f97ca17c7b2","null","null","<p style=""font-size: 60px; font-family: BACS"">kRCkOCkbd</p>","","","","","","","","",""
"html-keyboard-response","134","463967","0.0-10.0-0.45","5e12048c7605fe8839180a14","650c16f0f2faf8d7a0d14c09","651c1b91cfbc2f97ca17c7b2","null","null","<p style=""font-size: 60px; font-family: BACS"">MDKPlRE</p>","","","","","","","","",""
"html-keyboard-response","135","464967","0.0-10.0-0.46","5e12048c7605fe8839180a14","650c16f0f2faf8d7a0d14c09","651c1b91cfbc2f97ca17c7b2","null","null","<p style=""font-size: 60px; font-family: BACS"">bAdkCkbd</p>","","","","","","","","",""
"html-keyboard-response","136","465996","0.0-10.0-0.47","5e12048c7605fe8839180a14","650c16f0f2faf8d7a0d14c09","651c1b91cfbc2f97ca17c7b2","null","null","<p style=""font-size: 60px; font-family: BACS"">NQZvukbY</p>","","","","","","","","",""
"html-keyboard-response","137","467012","0.0-10.0-0.48","5e12048c7605fe8839180a14","650c16f0f2faf8d7a0d14c09","651c1b91cfbc2f97ca17c7b2","null","null","<p style=""font-size: 60px; font-family: BACS"">YOZNQvlZ</p>","","","","","","","","",""
"html-keyboard-response","138","468013","0.0-10.0-0.49","5e12048c7605fe8839180a14","650c16f0f2faf8d7a0d14c09","651c1b91cfbc2f97ca17c7b2","null","null","<p style=""font-size: 60px; font-family: BACS"">dGLAlkdrO</p>","","","","","","","","",""
"html-keyboard-response","139","469035","0.0-10.0-0.50","5e12048c7605fe8839180a14","650c16f0f2faf8d7a0d14c09","651c1b91cfbc2f97ca17c7b2","null","null","<p style=""font-size: 60px; font-family: BACS"">chEDOlRE</p>","","","","","","","","",""
"html-keyboard-response","140","470047","0.0-10.0-0.51","5e12048c7605fe8839180a14","650c16f0f2faf8d7a0d14c09","651c1b91cfbc2f97ca17c7b2","null","null","<p style=""font-size: 60px; font-family: BACS"">bAdkEKBO</p>","","","","","","","","",""
"html-keyboard-response","141","471077","0.0-10.0-0.52","5e12048c7605fe8839180a14","650c16f0f2faf8d7a0d14c09","651c1b91cfbc2f97ca17c7b2","null","null","<p style=""font-size: 60px; font-family: BACS"">vYLUQvlZ</p>","","","","","","","","",""
"html-keyboard-response","142","472082","0.0-10.0-0.53","5e12048c7605fe8839180a14","650c16f0f2faf8d7a0d14c09","651c1b91cfbc2f97ca17c7b2","null","null","<p style=""font-size: 60px; font-family: BACS"">tmAKTAm</p>","","","","","","","","",""
"html-keyboard-response","143","473112","0.0-10.0-0.54","5e12048c7605fe8839180a14","650c16f0f2faf8d7a0d14c09","651c1b91cfbc2f97ca17c7b2","null","null","<p style=""font-size: 60px; font-family: BACS"">bAdklRE</p>","","","","","","","","",""
"html-keyboard-response","144","474143","0.0-10.0-0.55","5e12048c7605fe8839180a14","650c16f0f2faf8d7a0d14c09","651c1b91cfbc2f97ca17c7b2","null","null","<p style=""font-size: 60px; font-family: BACS"">KElBEKBO</p>","","","","","","","","",""
"html-keyboard-response","145","475174","0.0-10.0-0.56","5e12048c7605fe8839180a14","650c16f0f2faf8d7a0d14c09","651c1b91cfbc2f97ca17c7b2","null","null","<p style=""font-size: 60px; font-family: BACS"">YlYcTAm</p>","","","","","","","","",""
"html-keyboard-response","146","476189","0.0-10.0-0.57","5e12048c7605fe8839180a14","650c16f0f2faf8d7a0d14c09","651c1b91cfbc2f97ca17c7b2","null","null","<p style=""font-size: 60px; font-family: BACS"">bvuZukbY</p>","","","","","","","","",""
"html-keyboard-response","147","477207","0.0-10.0-0.58","5e12048c7605fe8839180a14","650c16f0f2faf8d7a0d14c09","651c1b91cfbc2f97ca17c7b2","null","null","<p style=""font-size: 60px; font-family: BACS"">NQZvLaA</p>","","","","","","","","",""
"html-keyboard-response","148","478212","0.0-10.0-0.59","5e12048c7605fe8839180a14","650c16f0f2faf8d7a0d14c09","651c1b91cfbc2f97ca17c7b2","null","null","<p style=""font-size: 60px; font-family: BACS"">ZdNmUkdrO</p>","","","","","","","","",""
"html-keyboard-response","149","479224","0.0-10.0-0.60","5e12048c7605fe8839180a14","650c16f0f2faf8d7a0d14c09","651c1b91cfbc2f97ca17c7b2","null","null","<p style=""font-size: 60px; font-family: BACS"">tmAKDKP</p>","","","","","","","","",""
"html-keyboard-response","150","480256","0.0-10.0-0.61","5e12048c7605fe8839180a14","650c16f0f2faf8d7a0d14c09","651c1b91cfbc2f97ca17c7b2","null","null","<p style=""font-size: 60px; font-family: BACS"">hmKPMlRE</p>","","","","","","","","",""
"html-keyboard-response","151","481271","0.0-10.0-0.62","5e12048c7605fe8839180a14","650c16f0f2faf8d7a0d14c09","651c1b91cfbc2f97ca17c7b2","null","null","<p style=""font-size: 60px; font-family: BACS"">ZYcQUukbY</p>","","","","","","","","",""
"html-keyboard-response","152","482302","0.0-10.0-0.63","5e12048c7605fe8839180a14","650c16f0f2faf8d7a0d14c09","651c1b91cfbc2f97ca17c7b2","null","null","<p style=""font-size: 60px; font-family: BACS"">hmKPMTAm</p>","","","","","","","","",""
"html-keyboard-response","153","483305","0.0-10.0-0.64","5e12048c7605fe8839180a14","650c16f0f2faf8d7a0d14c09","651c1b91cfbc2f97ca17c7b2","null","null","<p style=""font-size: 60px; font-family: BACS"">ZYcQUkdrO</p>","","","","","","","","",""
"html-keyboard-response","154","484333","0.0-10.0-0.65","5e12048c7605fe8839180a14","650c16f0f2faf8d7a0d14c09","651c1b91cfbc2f97ca17c7b2","null","null","<p style=""font-size: 60px; font-family: BACS"">bvkrLaA</p>","","","","","","","","",""
"html-keyboard-response","155","485348","0.0-10.0-0.66","5e12048c7605fe8839180a14","650c16f0f2faf8d7a0d14c09","651c1b91cfbc2f97ca17c7b2","null","null","<p style=""font-size: 60px; font-family: BACS"">dGLAldUr</p>","","","","","","","","",""
"html-keyboard-response","156","486377","0.0-10.0-0.67","5e12048c7605fe8839180a14","650c16f0f2faf8d7a0d14c09","651c1b91cfbc2f97ca17c7b2","null","null","<p style=""font-size: 60px; font-family: BACS"">YOZNkdrO</p>","","","","","","","","",""
"html-keyboard-response","157","487380","0.0-10.0-0.68","5e12048c7605fe8839180a14","650c16f0f2faf8d7a0d14c09","651c1b91cfbc2f97ca17c7b2","null","null","<p style=""font-size: 60px; font-family: BACS"">MDKPDKP</p>","","","","","","","","",""
"html-keyboard-response","158","488402","0.0-10.0-0.69","5e12048c7605fe8839180a14","650c16f0f2faf8d7a0d14c09","651c1b91cfbc2f97ca17c7b2","null","null","<p style=""font-size: 60px; font-family: BACS"">advYOLaA</p>","","","","","","","","",""
"html-keyboard-response","159","489433","0.0-10.0-0.70","5e12048c7605fe8839180a14","650c16f0f2faf8d7a0d14c09","651c1b91cfbc2f97ca17c7b2","null","null","<p style=""font-size: 60px; font-family: BACS"">bvkrdUr</p>","","","","","","","","",""
"html-keyboard-response","160","490472","0.0-10.0-0.71","5e12048c7605fe8839180a14","650c16f0f2faf8d7a0d14c09","651c1b91cfbc2f97ca17c7b2","null","null","<p style=""font-size: 60px; font-family: BACS"">vYLUukbY</p>","","","","","","","","",""
"html-keyboard-response","161","491476","0.0-10.0-0.72","5e12048c7605fe8839180a14","650c16f0f2faf8d7a0d14c09","651c1b91cfbc2f97ca17c7b2","null","null","<p style=""font-size: 60px; font-family: BACS"">ldAaLaA</p>","","","","","","","","",""
"html-keyboard-response","162","492504","0.0-10.0-0.73","5e12048c7605fe8839180a14","650c16f0f2faf8d7a0d14c09","651c1b91cfbc2f97ca17c7b2","null","null","<p style=""font-size: 60px; font-family: BACS"">NQZvkdrO</p>","","","","","","","","",""
"html-keyboard-response","163","493516","0.0-10.0-0.74","5e12048c7605fe8839180a14","650c16f0f2faf8d7a0d14c09","651c1b91cfbc2f97ca17c7b2","null","null","<p style=""font-size: 60px; font-family: BACS"">hmKPMEKBO</p>","","","","","","","","",""
"html-keyboard-response","164","494544","0.0-10.0-0.75","5e12048c7605fe8839180a14","650c16f0f2faf8d7a0d14c09","651c1b91cfbc2f97ca17c7b2","null","null","<p style=""font-size: 60px; font-family: BACS"">vYLUdUr</p>","","","","","","","","",""
"html-keyboard-response","165","495558","0.0-10.0-0.76","5e12048c7605fe8839180a14","650c16f0f2faf8d7a0d14c09","651c1b91cfbc2f97ca17c7b2","null","null","<p style=""font-size: 60px; font-family: BACS"">ZdNmULaA</p>","","","","","","","","",""
"html-keyboard-response","166","496586","0.0-10.0-0.77","5e12048c7605fe8839180a14","650c16f0f2faf8d7a0d14c09","651c1b91cfbc2f97ca17c7b2","null","null","<p style=""font-size: 60px; font-family: BACS"">advYOdUr</p>","","","","","","","","",""
"html-keyboard-response","167","497597","0.0-10.0-0.78","5e12048c7605fe8839180a14","650c16f0f2faf8d7a0d14c09","651c1b91cfbc2f97ca17c7b2","null","null","<p style=""font-size: 60px; font-family: BACS"">PCPDhlRE</p>","","","","","","","","",""
"html-keyboard-response","168","498604","0.0-10.0-0.79","5e12048c7605fe8839180a14","650c16f0f2faf8d7a0d14c09","651c1b91cfbc2f97ca17c7b2","null","null","<p style=""font-size: 60px; font-family: BACS"">ldAakdrO</p>","","","","","","","","",""
"html-keyboard-response","169","502550","0.0-11.0","5e12048c7605fe8839180a14","650c16f0f2faf8d7a0d14c09","651c1b91cfbc2f97ca17c7b2","3946"," ","<p>Great, you've seen the second block of words. You may now take a short break.</p>
      <p>Press the spacebar when you're ready to continue.</p>","","","","","","","","",""
"html-keyboard-response","170","503552","0.0-12.0-0.0","5e12048c7605fe8839180a14","650c16f0f2faf8d7a0d14c09","651c1b91cfbc2f97ca17c7b2","null","null","<p style=""font-size: 60px; font-family: BACS"">NQZvLaA</p>","","","","","","","","",""
"html-keyboard-response","171","504576","0.0-12.0-0.1","5e12048c7605fe8839180a14","650c16f0f2faf8d7a0d14c09","651c1b91cfbc2f97ca17c7b2","null","null","<p style=""font-size: 60px; font-family: BACS"">MDKPlRE</p>","","","","","","","","",""
"html-keyboard-response","172","505585","0.0-12.0-0.2","5e12048c7605fe8839180a14","650c16f0f2faf8d7a0d14c09","651c1b91cfbc2f97ca17c7b2","null","null","<p style=""font-size: 60px; font-family: BACS"">KElBEKBO</p>","","","","","","","","",""
"html-keyboard-response","173","506600","0.0-12.0-0.3","5e12048c7605fe8839180a14","650c16f0f2faf8d7a0d14c09","651c1b91cfbc2f97ca17c7b2","null","null","<p style=""font-size: 60px; font-family: BACS"">YKRkTAm</p>","","","","","","","","",""
"html-keyboard-response","174","507631","0.0-12.0-0.4","5e12048c7605fe8839180a14","650c16f0f2faf8d7a0d14c09","651c1b91cfbc2f97ca17c7b2","null","null","<p style=""font-size: 60px; font-family: BACS"">YOZNdUr</p>","","","","","","","","",""
"html-keyboard-response","175","508643","0.0-12.0-0.5","5e12048c7605fe8839180a14","650c16f0f2faf8d7a0d14c09","651c1b91cfbc2f97ca17c7b2","null","null","<p style=""font-size: 60px; font-family: BACS"">chEDOlRE</p>","","","","","","","","",""
"html-keyboard-response","176","509645","0.0-12.0-0.6","5e12048c7605fe8839180a14","650c16f0f2faf8d7a0d14c09","651c1b91cfbc2f97ca17c7b2","null","null","<p style=""font-size: 60px; font-family: BACS"">ZdNmUkdrO</p>","","","","","","","","",""
"html-keyboard-response","177","510657","0.0-12.0-0.7","5e12048c7605fe8839180a14","650c16f0f2faf8d7a0d14c09","651c1b91cfbc2f97ca17c7b2","null","null","<p style=""font-size: 60px; font-family: BACS"">dGLAldUr</p>","","","","","","","","",""
"html-keyboard-response","178","511688","0.0-12.0-0.8","5e12048c7605fe8839180a14","650c16f0f2faf8d7a0d14c09","651c1b91cfbc2f97ca17c7b2","null","null","<p style=""font-size: 60px; font-family: BACS"">YKRkCkbd</p>","","","","","","","","",""
"html-keyboard-response","179","512708","0.0-12.0-0.9","5e12048c7605fe8839180a14","650c16f0f2faf8d7a0d14c09","651c1b91cfbc2f97ca17c7b2","null","null","<p style=""font-size: 60px; font-family: BACS"">dGLAlkdrO</p>","","","","","","","","",""
"html-keyboard-response","180","513721","0.0-12.0-0.10","5e12048c7605fe8839180a14","650c16f0f2faf8d7a0d14c09","651c1b91cfbc2f97ca17c7b2","null","null","<p style=""font-size: 60px; font-family: BACS"">YKRkDKP</p>","","","","","","","","",""
"html-keyboard-response","181","514725","0.0-12.0-0.11","5e12048c7605fe8839180a14","650c16f0f2faf8d7a0d14c09","651c1b91cfbc2f97ca17c7b2","null","null","<p style=""font-size: 60px; font-family: BACS"">ldAaukbY</p>","","","","","","","","",""
"html-keyboard-response","182","515753","0.0-12.0-0.12","5e12048c7605fe8839180a14","650c16f0f2faf8d7a0d14c09","651c1b91cfbc2f97ca17c7b2","null","null","<p style=""font-size: 60px; font-family: BACS"">bAdklRE</p>","","","","","","","","",""
"html-keyboard-response","183","516759","0.0-12.0-0.13","5e12048c7605fe8839180a14","650c16f0f2faf8d7a0d14c09","651c1b91cfbc2f97ca17c7b2","null","null","<p style=""font-size: 60px; font-family: BACS"">NQZvdUr</p>","","","","","","","","",""
"html-keyboard-response","184","517773","0.0-12.0-0.14","5e12048c7605fe8839180a14","650c16f0f2faf8d7a0d14c09","651c1b91cfbc2f97ca17c7b2","null","null","<p style=""font-size: 60px; font-family: BACS"">bvkrukbY</p>","","","","","","","","",""
"html-keyboard-response","185","518802","0.0-12.0-0.15","5e12048c7605fe8839180a14","650c16f0f2faf8d7a0d14c09","651c1b91cfbc2f97ca17c7b2","null","null","<p style=""font-size: 60px; font-family: BACS"">hmKPMTAm</p>","","","","","","","","",""
"html-keyboard-response","186","519808","0.0-12.0-0.16","5e12048c7605fe8839180a14","650c16f0f2faf8d7a0d14c09","651c1b91cfbc2f97ca17c7b2","null","null","<p style=""font-size: 60px; font-family: BACS"">YlYclRE</p>","","","","","","","","",""
"html-keyboard-response","187","520817","0.0-12.0-0.17","5e12048c7605fe8839180a14","650c16f0f2faf8d7a0d14c09","651c1b91cfbc2f97ca17c7b2","null","null","<p style=""font-size: 60px; font-family: BACS"">kRCkOCkbd</p>","","","","","","","","",""
"html-keyboard-response","188","521845","0.0-12.0-0.18","5e12048c7605fe8839180a14","650c16f0f2faf8d7a0d14c09","651c1b91cfbc2f97ca17c7b2","null","null","<p style=""font-size: 60px; font-family: BACS"">advYOdUr</p>","","","","","","","","",""
"html-keyboard-response","189","522859","0.0-12.0-0.19","5e12048c7605fe8839180a14","650c16f0f2faf8d7a0d14c09","651c1b91cfbc2f97ca17c7b2","null","null","<p style=""font-size: 60px; font-family: BACS"">PCPDhlRE</p>","","","","","","","","",""
"html-keyboard-response","190","523889","0.0-12.0-0.20","5e12048c7605fe8839180a14","650c16f0f2faf8d7a0d14c09","651c1b91cfbc2f97ca17c7b2","null","null","<p style=""font-size: 60px; font-family: BACS"">KElBDKP</p>","","","","","","","","",""
"html-keyboard-response","191","524904","0.0-12.0-0.21","5e12048c7605fe8839180a14","650c16f0f2faf8d7a0d14c09","651c1b91cfbc2f97ca17c7b2","null","null","<p style=""font-size: 60px; font-family: BACS"">YlYcTAm</p>","","","","","","","","",""
"html-keyboard-response","192","525936","0.0-12.0-0.22","5e12048c7605fe8839180a14","650c16f0f2faf8d7a0d14c09","651c1b91cfbc2f97ca17c7b2","null","null","<p style=""font-size: 60px; font-family: BACS"">dGLAlukbY</p>","","","","","","","","",""
"html-keyboard-response","193","526961","0.0-12.0-0.23","5e12048c7605fe8839180a14","650c16f0f2faf8d7a0d14c09","651c1b91cfbc2f97ca17c7b2","null","null","<p style=""font-size: 60px; font-family: BACS"">ZdNmUdUr</p>","","","","","","","","",""
"html-keyboard-response","194","527992","0.0-12.0-0.24","5e12048c7605fe8839180a14","650c16f0f2faf8d7a0d14c09","651c1b91cfbc2f97ca17c7b2","null","null","<p style=""font-size: 60px; font-family: BACS"">bvuZukbY</p>","","","","","","","","",""
"html-keyboard-response","195","528999","0.0-12.0-0.25","5e12048c7605fe8839180a14","650c16f0f2faf8d7a0d14c09","651c1b91cfbc2f97ca17c7b2","null","null","<p style=""font-size: 60px; font-family: BACS"">tmAKTAm</p>","","","","","","","","",""
"html-keyboard-response","196","530003","0.0-12.0-0.26","5e12048c7605fe8839180a14","650c16f0f2faf8d7a0d14c09","651c1b91cfbc2f97ca17c7b2","null","null","<p style=""font-size: 60px; font-family: BACS"">vYLUQvlZ</p>","","","","","","","","",""
"html-keyboard-response","197","531012","0.0-12.0-0.27","5e12048c7605fe8839180a14","650c16f0f2faf8d7a0d14c09","651c1b91cfbc2f97ca17c7b2","null","null","<p style=""font-size: 60px; font-family: BACS"">bAdkCkbd</p>","","","","","","","","",""
"html-keyboard-response","198","532023","0.0-12.0-0.28","5e12048c7605fe8839180a14","650c16f0f2faf8d7a0d14c09","651c1b91cfbc2f97ca17c7b2","null","null","<p style=""font-size: 60px; font-family: BACS"">PCPDhTAm</p>","","","","","","","","",""
"html-keyboard-response","199","533031","0.0-12.0-0.29","5e12048c7605fe8839180a14","650c16f0f2faf8d7a0d14c09","651c1b91cfbc2f97ca17c7b2","null","null","<p style=""font-size: 60px; font-family: BACS"">kRCkOlRE</p>","","","","","","","","",""
"html-keyboard-response","200","534030","0.0-12.0-0.30","5e12048c7605fe8839180a14","650c16f0f2faf8d7a0d14c09","651c1b91cfbc2f97ca17c7b2","null","null","<p style=""font-size: 60px; font-family: BACS"">tmAKDKP</p>","","","","","","","","",""
"html-keyboard-response","201","535044","0.0-12.0-0.31","5e12048c7605fe8839180a14","650c16f0f2faf8d7a0d14c09","651c1b91cfbc2f97ca17c7b2","null","null","<p style=""font-size: 60px; font-family: BACS"">bAdkEKBO</p>","","","","","","","","",""
"html-keyboard-response","202","536057","0.0-12.0-0.32","5e12048c7605fe8839180a14","650c16f0f2faf8d7a0d14c09","651c1b91cfbc2f97ca17c7b2","null","null","<p style=""font-size: 60px; font-family: BACS"">bvkrLaA</p>","","","","","","","","",""
"html-keyboard-response","203","537060","0.0-12.0-0.33","5e12048c7605fe8839180a14","650c16f0f2faf8d7a0d14c09","651c1b91cfbc2f97ca17c7b2","null","null","<p style=""font-size: 60px; font-family: BACS"">kRCkODKP</p>","","","","","","","","",""
"html-keyboard-response","204","538091","0.0-12.0-0.34","5e12048c7605fe8839180a14","650c16f0f2faf8d7a0d14c09","651c1b91cfbc2f97ca17c7b2","null","null","<p style=""font-size: 60px; font-family: BACS"">MDKPTAm</p>","","","","","","","","",""
"html-keyboard-response","205","539094","0.0-12.0-0.35","5e12048c7605fe8839180a14","650c16f0f2faf8d7a0d14c09","651c1b91cfbc2f97ca17c7b2","null","null","<p style=""font-size: 60px; font-family: BACS"">YOZNkdrO</p>","","","","","","","","",""
"html-keyboard-response","206","540099","0.0-12.0-0.36","5e12048c7605fe8839180a14","650c16f0f2faf8d7a0d14c09","651c1b91cfbc2f97ca17c7b2","null","null","<p style=""font-size: 60px; font-family: BACS"">PCPDhDKP</p>","","","","","","","","",""
"html-keyboard-response","207","541128","0.0-12.0-0.37","5e12048c7605fe8839180a14","650c16f0f2faf8d7a0d14c09","651c1b91cfbc2f97ca17c7b2","null","null","<p style=""font-size: 60px; font-family: BACS"">bvuZLaA</p>","","","","","","","","",""
"html-keyboard-response","208","542151","0.0-12.0-0.38","5e12048c7605fe8839180a14","650c16f0f2faf8d7a0d14c09","651c1b91cfbc2f97ca17c7b2","null","null","<p style=""font-size: 60px; font-family: BACS"">hmKPMEKBO</p>","","","","","","","","",""
"html-keyboard-response","209","543165","0.0-12.0-0.39","5e12048c7605fe8839180a14","650c16f0f2faf8d7a0d14c09","651c1b91cfbc2f97ca17c7b2","null","null","<p style=""font-size: 60px; font-family: BACS"">KElBlRE</p>","","","","","","","","",""
"html-keyboard-response","210","544178","0.0-12.0-0.40","5e12048c7605fe8839180a14","650c16f0f2faf8d7a0d14c09","651c1b91cfbc2f97ca17c7b2","null","null","<p style=""font-size: 60px; font-family: BACS"">chEDOCkbd</p>","","","","","","","","",""
"html-keyboard-response","211","545193","0.0-12.0-0.41","5e12048c7605fe8839180a14","650c16f0f2faf8d7a0d14c09","651c1b91cfbc2f97ca17c7b2","null","null","<p style=""font-size: 60px; font-family: BACS"">kRCkOEKBO</p>","","","","","","","","",""
"html-keyboard-response","212","546224","0.0-12.0-0.42","5e12048c7605fe8839180a14","650c16f0f2faf8d7a0d14c09","651c1b91cfbc2f97ca17c7b2","null","null","<p style=""font-size: 60px; font-family: BACS"">ldAakdrO</p>","","","","","","","","",""
"html-keyboard-response","213","547234","0.0-12.0-0.43","5e12048c7605fe8839180a14","650c16f0f2faf8d7a0d14c09","651c1b91cfbc2f97ca17c7b2","null","null","<p style=""font-size: 60px; font-family: BACS"">bvuZdUr</p>","","","","","","","","",""
"html-keyboard-response","214","548260","0.0-12.0-0.44","5e12048c7605fe8839180a14","650c16f0f2faf8d7a0d14c09","651c1b91cfbc2f97ca17c7b2","null","null","<p style=""font-size: 60px; font-family: BACS"">hmKPMlRE</p>","","","","","","","","",""
"html-keyboard-response","215","549267","0.0-12.0-0.45","5e12048c7605fe8839180a14","650c16f0f2faf8d7a0d14c09","651c1b91cfbc2f97ca17c7b2","null","null","<p style=""font-size: 60px; font-family: BACS"">NQZvukbY</p>","","","","","","","","",""
"html-keyboard-response","216","550290","0.0-12.0-0.46","5e12048c7605fe8839180a14","650c16f0f2faf8d7a0d14c09","651c1b91cfbc2f97ca17c7b2","null","null","<p style=""font-size: 60px; font-family: BACS"">vYLUkdrO</p>","","","","","","","","",""
"html-keyboard-response","217","551323","0.0-12.0-0.47","5e12048c7605fe8839180a14","650c16f0f2faf8d7a0d14c09","651c1b91cfbc2f97ca17c7b2","null","null","<p style=""font-size: 60px; font-family: BACS"">ZdNmULaA</p>","","","","","","","","",""
"html-keyboard-response","218","552350","0.0-12.0-0.48","5e12048c7605fe8839180a14","650c16f0f2faf8d7a0d14c09","651c1b91cfbc2f97ca17c7b2","null","null","<p style=""font-size: 60px; font-family: BACS"">tmAKEKBO</p>","","","","","","","","",""
"html-keyboard-response","219","553353","0.0-12.0-0.49","5e12048c7605fe8839180a14","650c16f0f2faf8d7a0d14c09","651c1b91cfbc2f97ca17c7b2","null","null","<p style=""font-size: 60px; font-family: BACS"">vYLUukbY</p>","","","","","","","","",""
"html-keyboard-response","220","554369","0.0-12.0-0.50","5e12048c7605fe8839180a14","650c16f0f2faf8d7a0d14c09","651c1b91cfbc2f97ca17c7b2","null","null","<p style=""font-size: 60px; font-family: BACS"">ZYcQULaA</p>","","","","","","","","",""
"html-keyboard-response","221","555397","0.0-12.0-0.51","5e12048c7605fe8839180a14","650c16f0f2faf8d7a0d14c09","651c1b91cfbc2f97ca17c7b2","null","null","<p style=""font-size: 60px; font-family: BACS"">YOZNQvlZ</p>","","","","","","","","",""
"html-keyboard-response","222","556403","0.0-12.0-0.52","5e12048c7605fe8839180a14","650c16f0f2faf8d7a0d14c09","651c1b91cfbc2f97ca17c7b2","null","null","<p style=""font-size: 60px; font-family: BACS"">YlYcCkbd</p>","","","","","","","","",""
"html-keyboard-response","223","557410","0.0-12.0-0.53","5e12048c7605fe8839180a14","650c16f0f2faf8d7a0d14c09","651c1b91cfbc2f97ca17c7b2","null","null","<p style=""font-size: 60px; font-family: BACS"">ldAaQvlZ</p>","","","","","","","","",""
"html-keyboard-response","224","558411","0.0-12.0-0.54","5e12048c7605fe8839180a14","650c16f0f2faf8d7a0d14c09","651c1b91cfbc2f97ca17c7b2","null","null","<p style=""font-size: 60px; font-family: BACS"">bvkrdUr</p>","","","","","","","","",""
"html-keyboard-response","225","559415","0.0-12.0-0.55","5e12048c7605fe8839180a14","650c16f0f2faf8d7a0d14c09","651c1b91cfbc2f97ca17c7b2","null","null","<p style=""font-size: 60px; font-family: BACS"">ZYcQUQvlZ</p>","","","","","","","","",""
"html-keyboard-response","226","560418","0.0-12.0-0.56","5e12048c7605fe8839180a14","650c16f0f2faf8d7a0d14c09","651c1b91cfbc2f97ca17c7b2","null","null","<p style=""font-size: 60px; font-family: BACS"">chEDOEKBO</p>","","","","","","","","",""
"html-keyboard-response","227","561431","0.0-12.0-0.57","5e12048c7605fe8839180a14","650c16f0f2faf8d7a0d14c09","651c1b91cfbc2f97ca17c7b2","null","null","<p style=""font-size: 60px; font-family: BACS"">hmKPMDKP</p>","","","","","","","","",""
"html-keyboard-response","228","562446","0.0-12.0-0.58","5e12048c7605fe8839180a14","650c16f0f2faf8d7a0d14c09","651c1b91cfbc2f97ca17c7b2","null","null","<p style=""font-size: 60px; font-family: BACS"">bAdkTAm</p>","","","","","","","","",""
"html-keyboard-response","229","563460","0.0-12.0-0.59","5e12048c7605fe8839180a14","650c16f0f2faf8d7a0d14c09","651c1b91cfbc2f97ca17c7b2","null","null","<p style=""font-size: 60px; font-family: BACS"">bvuZQvlZ</p>","","","","","","","","",""
"html-keyboard-response","230","564469","0.0-12.0-0.60","5e12048c7605fe8839180a14","650c16f0f2faf8d7a0d14c09","651c1b91cfbc2f97ca17c7b2","null","null","<p style=""font-size: 60px; font-family: BACS"">YKRkEKBO</p>","","","","","","","","",""
"html-keyboard-response","231","565491","0.0-12.0-0.61","5e12048c7605fe8839180a14","650c16f0f2faf8d7a0d14c09","651c1b91cfbc2f97ca17c7b2","null","null","<p style=""font-size: 60px; font-family: BACS"">MDKPDKP</p>","","","","","","","","",""
"html-keyboard-response","232","566502","0.0-12.0-0.62","5e12048c7605fe8839180a14","650c16f0f2faf8d7a0d14c09","651c1b91cfbc2f97ca17c7b2","null","null","<p style=""font-size: 60px; font-family: BACS"">ZdNmUQvlZ</p>","","","","","","","","",""
"html-keyboard-response","233","567504","0.0-12.0-0.63","5e12048c7605fe8839180a14","650c16f0f2faf8d7a0d14c09","651c1b91cfbc2f97ca17c7b2","null","null","<p style=""font-size: 60px; font-family: BACS"">ZYcQUukbY</p>","","","","","","","","",""
"html-keyboard-response","234","568535","0.0-12.0-0.64","5e12048c7605fe8839180a14","650c16f0f2faf8d7a0d14c09","651c1b91cfbc2f97ca17c7b2","null","null","<p style=""font-size: 60px; font-family: BACS"">NQZvkdrO</p>","","","","","","","","",""
"html-keyboard-response","235","569565","0.0-12.0-0.65","5e12048c7605fe8839180a14","650c16f0f2faf8d7a0d14c09","651c1b91cfbc2f97ca17c7b2","null","null","<p style=""font-size: 60px; font-family: BACS"">tmAKCkbd</p>","","","","","","","","",""
"html-keyboard-response","236","570594","0.0-12.0-0.66","5e12048c7605fe8839180a14","650c16f0f2faf8d7a0d14c09","651c1b91cfbc2f97ca17c7b2","null","null","<p style=""font-size: 60px; font-family: BACS"">YlYcDKP</p>","","","","","","","","",""
"html-keyboard-response","237","571624","0.0-12.0-0.67","5e12048c7605fe8839180a14","650c16f0f2faf8d7a0d14c09","651c1b91cfbc2f97ca17c7b2","null","null","<p style=""font-size: 60px; font-family: BACS"">advYOukbY</p>","","","","","","","","",""
"html-keyboard-response","238","572628","0.0-12.0-0.68","5e12048c7605fe8839180a14","650c16f0f2faf8d7a0d14c09","651c1b91cfbc2f97ca17c7b2","null","null","<p style=""font-size: 60px; font-family: BACS"">ldAaLaA</p>","","","","","","","","",""
"html-keyboard-response","239","573649","0.0-12.0-0.69","5e12048c7605fe8839180a14","650c16f0f2faf8d7a0d14c09","651c1b91cfbc2f97ca17c7b2","null","null","<p style=""font-size: 60px; font-family: BACS"">vYLUdUr</p>","","","","","","","","",""
"html-keyboard-response","240","574652","0.0-12.0-0.70","5e12048c7605fe8839180a14","650c16f0f2faf8d7a0d14c09","651c1b91cfbc2f97ca17c7b2","null","null","<p style=""font-size: 60px; font-family: BACS"">advYOLaA</p>","","","","","","","","",""
"html-keyboard-response","241","575682","0.0-12.0-0.71","5e12048c7605fe8839180a14","650c16f0f2faf8d7a0d14c09","651c1b91cfbc2f97ca17c7b2","null","null","<p style=""font-size: 60px; font-family: BACS"">chEDOTAm</p>","","","","","","","","",""
"html-keyboard-response","242","576697","0.0-12.0-0.72","5e12048c7605fe8839180a14","650c16f0f2faf8d7a0d14c09","651c1b91cfbc2f97ca17c7b2","null","null","<p style=""font-size: 60px; font-family: BACS"">YOZNLaA</p>","","","","","","","","",""
"html-keyboard-response","243","577723","0.0-12.0-0.73","5e12048c7605fe8839180a14","650c16f0f2faf8d7a0d14c09","651c1b91cfbc2f97ca17c7b2","null","null","<p style=""font-size: 60px; font-family: BACS"">advYOkdrO</p>","","","","","","","","",""
"html-keyboard-response","244","578733","0.0-12.0-0.74","5e12048c7605fe8839180a14","650c16f0f2faf8d7a0d14c09","651c1b91cfbc2f97ca17c7b2","null","null","<p style=""font-size: 60px; font-family: BACS"">KElBCkbd</p>","","","","","","","","",""
"html-keyboard-response","245","579766","0.0-12.0-0.75","5e12048c7605fe8839180a14","650c16f0f2faf8d7a0d14c09","651c1b91cfbc2f97ca17c7b2","null","null","<p style=""font-size: 60px; font-family: BACS"">dGLAlQvlZ</p>","","","","","","","","",""
"html-keyboard-response","246","580792","0.0-12.0-0.76","5e12048c7605fe8839180a14","650c16f0f2faf8d7a0d14c09","651c1b91cfbc2f97ca17c7b2","null","null","<p style=""font-size: 60px; font-family: BACS"">ZYcQUkdrO</p>","","","","","","","","",""
"html-keyboard-response","247","581817","0.0-12.0-0.77","5e12048c7605fe8839180a14","650c16f0f2faf8d7a0d14c09","651c1b91cfbc2f97ca17c7b2","null","null","<p style=""font-size: 60px; font-family: BACS"">MDKPEKBO</p>","","","","","","","","",""
"html-keyboard-response","248","582840","0.0-12.0-0.78","5e12048c7605fe8839180a14","650c16f0f2faf8d7a0d14c09","651c1b91cfbc2f97ca17c7b2","null","null","<p style=""font-size: 60px; font-family: BACS"">bvkrQvlZ</p>","","","","","","","","",""
"html-keyboard-response","249","583844","0.0-12.0-0.79","5e12048c7605fe8839180a14","650c16f0f2faf8d7a0d14c09","651c1b91cfbc2f97ca17c7b2","null","null","<p style=""font-size: 60px; font-family: BACS"">PCPDhCkbd</p>","","","","","","","","",""
"html-keyboard-response","250","588248","0.0-13.0","5e12048c7605fe8839180a14","650c16f0f2faf8d7a0d14c09","651c1b91cfbc2f97ca17c7b2","4403"," ","<p>Great, you've seen the third block of words. You may now take a short break.</p>
      <p>Press the spacebar when you're ready to continue.</p>","","","","","","","","",""
"html-keyboard-response","251","589262","0.0-14.0-0.0","5e12048c7605fe8839180a14","650c16f0f2faf8d7a0d14c09","651c1b91cfbc2f97ca17c7b2","null","null","<p style=""font-size: 60px; font-family: BACS"">ZdNmULaA</p>","","","","","","","","",""
"html-keyboard-response","252","590277","0.0-14.0-0.1","5e12048c7605fe8839180a14","650c16f0f2faf8d7a0d14c09","651c1b91cfbc2f97ca17c7b2","null","null","<p style=""font-size: 60px; font-family: BACS"">ZYcQUkdrO</p>","","","","","","","","",""
"html-keyboard-response","253","591282","0.0-14.0-0.2","5e12048c7605fe8839180a14","650c16f0f2faf8d7a0d14c09","651c1b91cfbc2f97ca17c7b2","null","null","<p style=""font-size: 60px; font-family: BACS"">ldAaQvlZ</p>","","","","","","","","",""
"html-keyboard-response","254","592297","0.0-14.0-0.3","5e12048c7605fe8839180a14","650c16f0f2faf8d7a0d14c09","651c1b91cfbc2f97ca17c7b2","null","null","<p style=""font-size: 60px; font-family: BACS"">KElBCkbd</p>","","","","","","","","",""
"html-keyboard-response","255","593309","0.0-14.0-0.4","5e12048c7605fe8839180a14","650c16f0f2faf8d7a0d14c09","651c1b91cfbc2f97ca17c7b2","null","null","<p style=""font-size: 60px; font-family: BACS"">dGLAlQvlZ</p>","","","","","","","","",""
"html-keyboard-response","256","594320","0.0-14.0-0.5","5e12048c7605fe8839180a14","650c16f0f2faf8d7a0d14c09","651c1b91cfbc2f97ca17c7b2","null","null","<p style=""font-size: 60px; font-family: BACS"">advYOdUr</p>","","","","","","","","",""
"html-keyboard-response","257","595333","0.0-14.0-0.6","5e12048c7605fe8839180a14","650c16f0f2faf8d7a0d14c09","651c1b91cfbc2f97ca17c7b2","null","null","<p style=""font-size: 60px; font-family: BACS"">bvuZQvlZ</p>","","","","","","","","",""
"html-keyboard-response","258","596363","0.0-14.0-0.7","5e12048c7605fe8839180a14","650c16f0f2faf8d7a0d14c09","651c1b91cfbc2f97ca17c7b2","null","null","<p style=""font-size: 60px; font-family: BACS"">vYLUdUr</p>","","","","","","","","",""
"html-keyboard-response","259","597364","0.0-14.0-0.8","5e12048c7605fe8839180a14","650c16f0f2faf8d7a0d14c09","651c1b91cfbc2f97ca17c7b2","null","null","<p style=""font-size: 60px; font-family: BACS"">hmKPMDKP</p>","","","","","","","","",""
"html-keyboard-response","260","598372","0.0-14.0-0.9","5e12048c7605fe8839180a14","650c16f0f2faf8d7a0d14c09","651c1b91cfbc2f97ca17c7b2","null","null","<p style=""font-size: 60px; font-family: BACS"">dGLAlukbY</p>","","","","","","","","",""
"html-keyboard-response","261","599374","0.0-14.0-0.10","5e12048c7605fe8839180a14","650c16f0f2faf8d7a0d14c09","651c1b91cfbc2f97ca17c7b2","null","null","<p style=""font-size: 60px; font-family: BACS"">KElBDKP</p>","","","","","","","","",""
"html-keyboard-response","262","600388","0.0-14.0-0.11","5e12048c7605fe8839180a14","650c16f0f2faf8d7a0d14c09","651c1b91cfbc2f97ca17c7b2","null","null","<p style=""font-size: 60px; font-family: BACS"">vYLUukbY</p>","","","","","","","","",""
"html-keyboard-response","263","601420","0.0-14.0-0.12","5e12048c7605fe8839180a14","650c16f0f2faf8d7a0d14c09","651c1b91cfbc2f97ca17c7b2","null","null","<p style=""font-size: 60px; font-family: BACS"">hmKPMlRE</p>","","","","","","","","",""
"html-keyboard-response","264","602475","0.0-14.0-0.13","5e12048c7605fe8839180a14","650c16f0f2faf8d7a0d14c09","651c1b91cfbc2f97ca17c7b2","null","null","<p style=""font-size: 60px; font-family: BACS"">bvuZukbY</p>","","","","","","","","",""
"html-keyboard-response","265","603488","0.0-14.0-0.14","5e12048c7605fe8839180a14","650c16f0f2faf8d7a0d14c09","651c1b91cfbc2f97ca17c7b2","null","null","<p style=""font-size: 60px; font-family: BACS"">kRCkOlRE</p>","","","","","","","","",""
"html-keyboard-response","266","604494","0.0-14.0-0.15","5e12048c7605fe8839180a14","650c16f0f2faf8d7a0d14c09","651c1b91cfbc2f97ca17c7b2","null","null","<p style=""font-size: 60px; font-family: BACS"">ZdNmUkdrO</p>","","","","","","","","",""
"html-keyboard-response","267","605517","0.0-14.0-0.16","5e12048c7605fe8839180a14","650c16f0f2faf8d7a0d14c09","651c1b91cfbc2f97ca17c7b2","null","null","<p style=""font-size: 60px; font-family: BACS"">bvkrukbY</p>","","","","","","","","",""
"html-keyboard-response","268","606529","0.0-14.0-0.17","5e12048c7605fe8839180a14","650c16f0f2faf8d7a0d14c09","651c1b91cfbc2f97ca17c7b2","null","null","<p style=""font-size: 60px; font-family: BACS"">ZYcQULaA</p>","","","","","","","","",""
"html-keyboard-response","269","607541","0.0-14.0-0.18","5e12048c7605fe8839180a14","650c16f0f2faf8d7a0d14c09","651c1b91cfbc2f97ca17c7b2","null","null","<p style=""font-size: 60px; font-family: BACS"">ldAaukbY</p>","","","","","","","","",""
"html-keyboard-response","270","608555","0.0-14.0-0.19","5e12048c7605fe8839180a14","650c16f0f2faf8d7a0d14c09","651c1b91cfbc2f97ca17c7b2","null","null","<p style=""font-size: 60px; font-family: BACS"">MDKPDKP</p>","","","","","","","","",""
"html-keyboard-response","271","609565","0.0-14.0-0.20","5e12048c7605fe8839180a14","650c16f0f2faf8d7a0d14c09","651c1b91cfbc2f97ca17c7b2","null","null","<p style=""font-size: 60px; font-family: BACS"">bAdklRE</p>","","","","","","","","",""
"html-keyboard-response","272","610575","0.0-14.0-0.21","5e12048c7605fe8839180a14","650c16f0f2faf8d7a0d14c09","651c1b91cfbc2f97ca17c7b2","null","null","<p style=""font-size: 60px; font-family: BACS"">YOZNdUr</p>","","","","","","","","",""
"html-keyboard-response","273","611584","0.0-14.0-0.22","5e12048c7605fe8839180a14","650c16f0f2faf8d7a0d14c09","651c1b91cfbc2f97ca17c7b2","null","null","<p style=""font-size: 60px; font-family: BACS"">YlYcTAm</p>","","","","","","","","",""
"html-keyboard-response","274","612593","0.0-14.0-0.23","5e12048c7605fe8839180a14","650c16f0f2faf8d7a0d14c09","651c1b91cfbc2f97ca17c7b2","null","null","<p style=""font-size: 60px; font-family: BACS"">vYLUkdrO</p>","","","","","","","","",""
"html-keyboard-response","275","613609","0.0-14.0-0.24","5e12048c7605fe8839180a14","650c16f0f2faf8d7a0d14c09","651c1b91cfbc2f97ca17c7b2","null","null","<p style=""font-size: 60px; font-family: BACS"">advYOLaA</p>","","","","","","","","",""
"html-keyboard-response","276","614617","0.0-14.0-0.25","5e12048c7605fe8839180a14","650c16f0f2faf8d7a0d14c09","651c1b91cfbc2f97ca17c7b2","null","null","<p style=""font-size: 60px; font-family: BACS"">NQZvdUr</p>","","","","","","","","",""
"html-keyboard-response","277","615622","0.0-14.0-0.26","5e12048c7605fe8839180a14","650c16f0f2faf8d7a0d14c09","651c1b91cfbc2f97ca17c7b2","null","null","<p style=""font-size: 60px; font-family: BACS"">YOZNQvlZ</p>","","","","","","","","",""
"html-keyboard-response","278","616626","0.0-14.0-0.27","5e12048c7605fe8839180a14","650c16f0f2faf8d7a0d14c09","651c1b91cfbc2f97ca17c7b2","null","null","<p style=""font-size: 60px; font-family: BACS"">PCPDhlRE</p>","","","","","","","","",""
"html-keyboard-response","279","617660","0.0-14.0-0.28","5e12048c7605fe8839180a14","650c16f0f2faf8d7a0d14c09","651c1b91cfbc2f97ca17c7b2","null","null","<p style=""font-size: 60px; font-family: BACS"">YKRkCkbd</p>","","","","","","","","",""
"html-keyboard-response","280","618663","0.0-14.0-0.29","5e12048c7605fe8839180a14","650c16f0f2faf8d7a0d14c09","651c1b91cfbc2f97ca17c7b2","null","null","<p style=""font-size: 60px; font-family: BACS"">YlYclRE</p>","","","","","","","","",""
"html-keyboard-response","281","619685","0.0-14.0-0.30","5e12048c7605fe8839180a14","650c16f0f2faf8d7a0d14c09","651c1b91cfbc2f97ca17c7b2","null","null","<p style=""font-size: 60px; font-family: BACS"">dGLAldUr</p>","","","","","","","","",""
"html-keyboard-response","282","620697","0.0-14.0-0.31","5e12048c7605fe8839180a14","650c16f0f2faf8d7a0d14c09","651c1b91cfbc2f97ca17c7b2","null","null","<p style=""font-size: 60px; font-family: BACS"">YKRkTAm</p>","","","","","","","","",""
"html-keyboard-response","283","621700","0.0-14.0-0.32","5e12048c7605fe8839180a14","650c16f0f2faf8d7a0d14c09","651c1b91cfbc2f97ca17c7b2","null","null","<p style=""font-size: 60px; font-family: BACS"">ZYcQUQvlZ</p>","","","","","","","","",""
"html-keyboard-response","284","622731","0.0-14.0-0.33","5e12048c7605fe8839180a14","650c16f0f2faf8d7a0d14c09","651c1b91cfbc2f97ca17c7b2","null","null","<p style=""font-size: 60px; font-family: BACS"">tmAKEKBO</p>","","","","","","","","",""
"html-keyboard-response","285","623741","0.0-14.0-0.34","5e12048c7605fe8839180a14","650c16f0f2faf8d7a0d14c09","651c1b91cfbc2f97ca17c7b2","null","null","<p style=""font-size: 60px; font-family: BACS"">YlYcDKP</p>","","","","","","","","",""
"html-keyboard-response","286","624770","0.0-14.0-0.35","5e12048c7605fe8839180a14","650c16f0f2faf8d7a0d14c09","651c1b91cfbc2f97ca17c7b2","null","null","<p style=""font-size: 60px; font-family: BACS"">tmAKCkbd</p>","","","","","","","","",""
"html-keyboard-response","287","625784","0.0-14.0-0.36","5e12048c7605fe8839180a14","650c16f0f2faf8d7a0d14c09","651c1b91cfbc2f97ca17c7b2","null","null","<p style=""font-size: 60px; font-family: BACS"">kRCkOEKBO</p>","","","","","","","","",""
"html-keyboard-response","288","626798","0.0-14.0-0.37","5e12048c7605fe8839180a14","650c16f0f2faf8d7a0d14c09","651c1b91cfbc2f97ca17c7b2","null","null","<p style=""font-size: 60px; font-family: BACS"">PCPDhTAm</p>","","","","","","","","",""
"html-keyboard-response","289","627812","0.0-14.0-0.38","5e12048c7605fe8839180a14","650c16f0f2faf8d7a0d14c09","651c1b91cfbc2f97ca17c7b2","null","null","<p style=""font-size: 60px; font-family: BACS"">YOZNkdrO</p>","","","","","","","","",""
"html-keyboard-response","290","628824","0.0-14.0-0.39","5e12048c7605fe8839180a14","650c16f0f2faf8d7a0d14c09","651c1b91cfbc2f97ca17c7b2","null","null","<p style=""font-size: 60px; font-family: BACS"">bvuZdUr</p>","","","","","","","","",""
"html-keyboard-response","291","629830","0.0-14.0-0.40","5e12048c7605fe8839180a14","650c16f0f2faf8d7a0d14c09","651c1b91cfbc2f97ca17c7b2","null","null","<p style=""font-size: 60px; font-family: BACS"">dGLAlkdrO</p>","","","","","","","","",""
"html-keyboard-response","292","630851","0.0-14.0-0.41","5e12048c7605fe8839180a14","650c16f0f2faf8d7a0d14c09","651c1b91cfbc2f97ca17c7b2","null","null","<p style=""font-size: 60px; font-family: BACS"">chEDOCkbd</p>","","","","","","","","",""
"html-keyboard-response","293","631851","0.0-14.0-0.42","5e12048c7605fe8839180a14","650c16f0f2faf8d7a0d14c09","651c1b91cfbc2f97ca17c7b2","null","null","<p style=""font-size: 60px; font-family: BACS"">KElBEKBO</p>","","","","","","","","",""
"html-keyboard-response","294","632866","0.0-14.0-0.43","5e12048c7605fe8839180a14","650c16f0f2faf8d7a0d14c09","651c1b91cfbc2f97ca17c7b2","null","null","<p style=""font-size: 60px; font-family: BACS"">NQZvukbY</p>","","","","","","","","",""
"html-keyboard-response","295","633868","0.0-14.0-0.44","5e12048c7605fe8839180a14","650c16f0f2faf8d7a0d14c09","651c1b91cfbc2f97ca17c7b2","null","null","<p style=""font-size: 60px; font-family: BACS"">ZdNmUQvlZ</p>","","","","","","","","",""
"html-keyboard-response","296","634897","0.0-14.0-0.45","5e12048c7605fe8839180a14","650c16f0f2faf8d7a0d14c09","651c1b91cfbc2f97ca17c7b2","null","null","<p style=""font-size: 60px; font-family: BACS"">advYOukbY</p>","","","","","","","","",""
"html-keyboard-response","297","635897","0.0-14.0-0.46","5e12048c7605fe8839180a14","650c16f0f2faf8d7a0d14c09","651c1b91cfbc2f97ca17c7b2","null","null","<p style=""font-size: 60px; font-family: BACS"">MDKPEKBO</p>","","","","","","","","",""
"html-keyboard-response","298","636929","0.0-14.0-0.47","5e12048c7605fe8839180a14","650c16f0f2faf8d7a0d14c09","651c1b91cfbc2f97ca17c7b2","null","null","<p style=""font-size: 60px; font-family: BACS"">advYOkdrO</p>","","","","","","","","",""
"html-keyboard-response","299","637959","0.0-14.0-0.48","5e12048c7605fe8839180a14","650c16f0f2faf8d7a0d14c09","651c1b91cfbc2f97ca17c7b2","null","null","<p style=""font-size: 60px; font-family: BACS"">PCPDhCkbd</p>","","","","","","","","",""
"html-keyboard-response","300","638960","0.0-14.0-0.49","5e12048c7605fe8839180a14","650c16f0f2faf8d7a0d14c09","651c1b91cfbc2f97ca17c7b2","null","null","<p style=""font-size: 60px; font-family: BACS"">chEDOTAm</p>","","","","","","","","",""
"html-keyboard-response","301","639991","0.0-14.0-0.50","5e12048c7605fe8839180a14","650c16f0f2faf8d7a0d14c09","651c1b91cfbc2f97ca17c7b2","null","null","<p style=""font-size: 60px; font-family: BACS"">YKRkDKP</p>","","","","","","","","",""
"html-keyboard-response","302","641016","0.0-14.0-0.51","5e12048c7605fe8839180a14","650c16f0f2faf8d7a0d14c09","651c1b91cfbc2f97ca17c7b2","null","null","<p style=""font-size: 60px; font-family: BACS"">KElBlRE</p>","","","","","","","","",""
"html-keyboard-response","303","642023","0.0-14.0-0.52","5e12048c7605fe8839180a14","650c16f0f2faf8d7a0d14c09","651c1b91cfbc2f97ca17c7b2","null","null","<p style=""font-size: 60px; font-family: BACS"">bAdkEKBO</p>","","","","","","","","",""
"html-keyboard-response","304","643027","0.0-14.0-0.53","5e12048c7605fe8839180a14","650c16f0f2faf8d7a0d14c09","651c1b91cfbc2f97ca17c7b2","null","null","<p style=""font-size: 60px; font-family: BACS"">YlYcCkbd</p>","","","","","","","","",""
"html-keyboard-response","305","644035","0.0-14.0-0.54","5e12048c7605fe8839180a14","650c16f0f2faf8d7a0d14c09","651c1b91cfbc2f97ca17c7b2","null","null","<p style=""font-size: 60px; font-family: BACS"">chEDOlRE</p>","","","","","","","","",""
"html-keyboard-response","306","645039","0.0-14.0-0.55","5e12048c7605fe8839180a14","650c16f0f2faf8d7a0d14c09","651c1b91cfbc2f97ca17c7b2","null","null","<p style=""font-size: 60px; font-family: BACS"">kRCkODKP</p>","","","","","","","","",""
"html-keyboard-response","307","646068","0.0-14.0-0.56","5e12048c7605fe8839180a14","650c16f0f2faf8d7a0d14c09","651c1b91cfbc2f97ca17c7b2","null","null","<p style=""font-size: 60px; font-family: BACS"">tmAKTAm</p>","","","","","","","","",""
"html-keyboard-response","308","647089","0.0-14.0-0.57","5e12048c7605fe8839180a14","650c16f0f2faf8d7a0d14c09","651c1b91cfbc2f97ca17c7b2","null","null","<p style=""font-size: 60px; font-family: BACS"">bvkrLaA</p>","","","","","","","","",""
"html-keyboard-response","309","648100","0.0-14.0-0.58","5e12048c7605fe8839180a14","650c16f0f2faf8d7a0d14c09","651c1b91cfbc2f97ca17c7b2","null","null","<p style=""font-size: 60px; font-family: BACS"">chEDOEKBO</p>","","","","","","","","",""
"html-keyboard-response","310","649130","0.0-14.0-0.59","5e12048c7605fe8839180a14","650c16f0f2faf8d7a0d14c09","651c1b91cfbc2f97ca17c7b2","null","null","<p style=""font-size: 60px; font-family: BACS"">bAdkTAm</p>","","","","","","","","",""
"html-keyboard-response","311","650163","0.0-14.0-0.60","5e12048c7605fe8839180a14","650c16f0f2faf8d7a0d14c09","651c1b91cfbc2f97ca17c7b2","null","null","<p style=""font-size: 60px; font-family: BACS"">bvkrdUr</p>","","","","","","","","",""
"html-keyboard-response","312","651192","0.0-14.0-0.61","5e12048c7605fe8839180a14","650c16f0f2faf8d7a0d14c09","651c1b91cfbc2f97ca17c7b2","null","null","<p style=""font-size: 60px; font-family: BACS"">PCPDhDKP</p>","","","","","","","","",""
"html-keyboard-response","313","652204","0.0-14.0-0.62","5e12048c7605fe8839180a14","650c16f0f2faf8d7a0d14c09","651c1b91cfbc2f97ca17c7b2","null","null","<p style=""font-size: 60px; font-family: BACS"">ldAakdrO</p>","","","","","","","","",""
"html-keyboard-response","314","653219","0.0-14.0-0.63","5e12048c7605fe8839180a14","650c16f0f2faf8d7a0d14c09","651c1b91cfbc2f97ca17c7b2","null","null","<p style=""font-size: 60px; font-family: BACS"">bvkrQvlZ</p>","","","","","","","","",""
"html-keyboard-response","315","654244","0.0-14.0-0.64","5e12048c7605fe8839180a14","650c16f0f2faf8d7a0d14c09","651c1b91cfbc2f97ca17c7b2","null","null","<p style=""font-size: 60px; font-family: BACS"">ZdNmUdUr</p>","","","","","","","","",""
"html-keyboard-response","316","655259","0.0-14.0-0.65","5e12048c7605fe8839180a14","650c16f0f2faf8d7a0d14c09","651c1b91cfbc2f97ca17c7b2","null","null","<p style=""font-size: 60px; font-family: BACS"">YKRkEKBO</p>","","","","","","","","",""
"html-keyboard-response","317","656272","0.0-14.0-0.66","5e12048c7605fe8839180a14","650c16f0f2faf8d7a0d14c09","651c1b91cfbc2f97ca17c7b2","null","null","<p style=""font-size: 60px; font-family: BACS"">ldAaLaA</p>","","","","","","","","",""
"html-keyboard-response","318","657299","0.0-14.0-0.67","5e12048c7605fe8839180a14","650c16f0f2faf8d7a0d14c09","651c1b91cfbc2f97ca17c7b2","null","null","<p style=""font-size: 60px; font-family: BACS"">bAdkCkbd</p>","","","","","","","","",""
"html-keyboard-response","319","658303","0.0-14.0-0.68","5e12048c7605fe8839180a14","650c16f0f2faf8d7a0d14c09","651c1b91cfbc2f97ca17c7b2","null","null","<p style=""font-size: 60px; font-family: BACS"">MDKPTAm</p>","","","","","","","","",""
"html-keyboard-response","320","659319","0.0-14.0-0.69","5e12048c7605fe8839180a14","650c16f0f2faf8d7a0d14c09","651c1b91cfbc2f97ca17c7b2","null","null","<p style=""font-size: 60px; font-family: BACS"">NQZvLaA</p>","","","","","","","","",""
"html-keyboard-response","321","660331","0.0-14.0-0.70","5e12048c7605fe8839180a14","650c16f0f2faf8d7a0d14c09","651c1b91cfbc2f97ca17c7b2","null","null","<p style=""font-size: 60px; font-family: BACS"">ZYcQUukbY</p>","","","","","","","","",""
"html-keyboard-response","322","661342","0.0-14.0-0.71","5e12048c7605fe8839180a14","650c16f0f2faf8d7a0d14c09","651c1b91cfbc2f97ca17c7b2","null","null","<p style=""font-size: 60px; font-family: BACS"">kRCkOCkbd</p>","","","","","","","","",""
"html-keyboard-response","323","662357","0.0-14.0-0.72","5e12048c7605fe8839180a14","650c16f0f2faf8d7a0d14c09","651c1b91cfbc2f97ca17c7b2","null","null","<p style=""font-size: 60px; font-family: BACS"">hmKPMEKBO</p>","","","","","","","","",""
"html-keyboard-response","324","663363","0.0-14.0-0.73","5e12048c7605fe8839180a14","650c16f0f2faf8d7a0d14c09","651c1b91cfbc2f97ca17c7b2","null","null","<p style=""font-size: 60px; font-family: BACS"">MDKPlRE</p>","","","","","","","","",""
"html-keyboard-response","325","664388","0.0-14.0-0.74","5e12048c7605fe8839180a14","650c16f0f2faf8d7a0d14c09","651c1b91cfbc2f97ca17c7b2","null","null","<p style=""font-size: 60px; font-family: BACS"">YOZNLaA</p>","","","","","","","","",""
"html-keyboard-response","326","665393","0.0-14.0-0.75","5e12048c7605fe8839180a14","650c16f0f2faf8d7a0d14c09","651c1b91cfbc2f97ca17c7b2","null","null","<p style=""font-size: 60px; font-family: BACS"">NQZvkdrO</p>","","","","","","","","",""
"html-keyboard-response","327","666396","0.0-14.0-0.76","5e12048c7605fe8839180a14","650c16f0f2faf8d7a0d14c09","651c1b91cfbc2f97ca17c7b2","null","null","<p style=""font-size: 60px; font-family: BACS"">hmKPMTAm</p>","","","","","","","","",""
"html-keyboard-response","328","667426","0.0-14.0-0.77","5e12048c7605fe8839180a14","650c16f0f2faf8d7a0d14c09","651c1b91cfbc2f97ca17c7b2","null","null","<p style=""font-size: 60px; font-family: BACS"">bvuZLaA</p>","","","","","","","","",""
"html-keyboard-response","329","668427","0.0-14.0-0.78","5e12048c7605fe8839180a14","650c16f0f2faf8d7a0d14c09","651c1b91cfbc2f97ca17c7b2","null","null","<p style=""font-size: 60px; font-family: BACS"">tmAKDKP</p>","","","","","","","","",""
"html-keyboard-response","330","669460","0.0-14.0-0.79","5e12048c7605fe8839180a14","650c16f0f2faf8d7a0d14c09","651c1b91cfbc2f97ca17c7b2","null","null","<p style=""font-size: 60px; font-family: BACS"">vYLUQvlZ</p>","","","","","","","","",""
"html-keyboard-response","331","673357","0.0-15.0","5e12048c7605fe8839180a14","650c16f0f2faf8d7a0d14c09","651c1b91cfbc2f97ca17c7b2","3897"," ","<p>Great, you've seen the fourth block of words. You may now take a short break.</p>
      <p>Press the spacebar when you're ready to continue.</p>","","","","","","","","",""
"html-keyboard-response","332","674370","0.0-16.0-0.0","5e12048c7605fe8839180a14","650c16f0f2faf8d7a0d14c09","651c1b91cfbc2f97ca17c7b2","null","null","<p style=""font-size: 60px; font-family: BACS"">YOZNdUr</p>","","","","","","","","",""
"html-keyboard-response","333","675384","0.0-16.0-0.1","5e12048c7605fe8839180a14","650c16f0f2faf8d7a0d14c09","651c1b91cfbc2f97ca17c7b2","null","null","<p style=""font-size: 60px; font-family: BACS"">YOZNdUr</p>","","","","","","","","",""
"html-keyboard-response","334","676415","0.0-16.0-0.2","5e12048c7605fe8839180a14","650c16f0f2faf8d7a0d14c09","651c1b91cfbc2f97ca17c7b2","null","null","<p style=""font-size: 60px; font-family: BACS"">YOZNdUr</p>","","","","","","","","",""
"html-keyboard-response","335","677432","0.0-16.0-0.3","5e12048c7605fe8839180a14","650c16f0f2faf8d7a0d14c09","651c1b91cfbc2f97ca17c7b2","null","null","<p style=""font-size: 60px; font-family: BACS"">YOZNdUr</p>","","","","","","","","",""
"html-keyboard-response","336","678444","0.0-16.0-0.4","5e12048c7605fe8839180a14","650c16f0f2faf8d7a0d14c09","651c1b91cfbc2f97ca17c7b2","null","null","<p style=""font-size: 60px; font-family: BACS"">YOZNdUr</p>","","","","","","","","",""
"html-keyboard-response","337","679449","0.0-16.0-0.5","5e12048c7605fe8839180a14","650c16f0f2faf8d7a0d14c09","651c1b91cfbc2f97ca17c7b2","null","null","<p style=""font-size: 60px; font-family: BACS"">YOZNdUr</p>","","","","","","","","",""
"html-keyboard-response","338","680450","0.0-16.0-0.6","5e12048c7605fe8839180a14","650c16f0f2faf8d7a0d14c09","651c1b91cfbc2f97ca17c7b2","null","null","<p style=""font-size: 60px; font-family: BACS"">YOZNdUr</p>","","","","","","","","",""
"html-keyboard-response","339","681463","0.0-16.0-0.7","5e12048c7605fe8839180a14","650c16f0f2faf8d7a0d14c09","651c1b91cfbc2f97ca17c7b2","null","null","<p style=""font-size: 60px; font-family: BACS"">YOZNdUr</p>","","","","","","","","",""
"html-keyboard-response","340","682468","0.0-16.0-0.8","5e12048c7605fe8839180a14","650c16f0f2faf8d7a0d14c09","651c1b91cfbc2f97ca17c7b2","null","null","<p style=""font-size: 60px; font-family: BACS"">YOZNdUr</p>","","","","","","","","",""
"html-keyboard-response","341","683480","0.0-16.0-0.9","5e12048c7605fe8839180a14","650c16f0f2faf8d7a0d14c09","651c1b91cfbc2f97ca17c7b2","null","null","<p style=""font-size: 60px; font-family: BACS"">YOZNdUr</p>","","","","","","","","",""
"html-keyboard-response","342","684494","0.0-16.0-0.10","5e12048c7605fe8839180a14","650c16f0f2faf8d7a0d14c09","651c1b91cfbc2f97ca17c7b2","null","null","<p style=""font-size: 60px; font-family: BACS"">YOZNdUr</p>","","","","","","","","",""
"html-keyboard-response","343","685508","0.0-16.0-0.11","5e12048c7605fe8839180a14","650c16f0f2faf8d7a0d14c09","651c1b91cfbc2f97ca17c7b2","null","null","<p style=""font-size: 60px; font-family: BACS"">YOZNdUr</p>","","","","","","","","",""
"html-keyboard-response","344","686513","0.0-16.0-0.12","5e12048c7605fe8839180a14","650c16f0f2faf8d7a0d14c09","651c1b91cfbc2f97ca17c7b2","null","null","<p style=""font-size: 60px; font-family: BACS"">YOZNdUr</p>","","","","","","","","",""
"html-keyboard-response","345","687526","0.0-16.0-0.13","5e12048c7605fe8839180a14","650c16f0f2faf8d7a0d14c09","651c1b91cfbc2f97ca17c7b2","null","null","<p style=""font-size: 60px; font-family: BACS"">YOZNdUr</p>","","","","","","","","",""
"html-keyboard-response","346","688542","0.0-16.0-0.14","5e12048c7605fe8839180a14","650c16f0f2faf8d7a0d14c09","651c1b91cfbc2f97ca17c7b2","null","null","<p style=""font-size: 60px; font-family: BACS"">YOZNdUr</p>","","","","","","","","",""
"html-keyboard-response","347","689545","0.0-16.0-0.15","5e12048c7605fe8839180a14","650c16f0f2faf8d7a0d14c09","651c1b91cfbc2f97ca17c7b2","null","null","<p style=""font-size: 60px; font-family: BACS"">YOZNdUr</p>","","","","","","","","",""
"html-keyboard-response","348","690558","0.0-16.0-0.16","5e12048c7605fe8839180a14","650c16f0f2faf8d7a0d14c09","651c1b91cfbc2f97ca17c7b2","null","null","<p style=""font-size: 60px; font-family: BACS"">YOZNdUr</p>","","","","","","","","",""
"html-keyboard-response","349","691573","0.0-16.0-0.17","5e12048c7605fe8839180a14","650c16f0f2faf8d7a0d14c09","651c1b91cfbc2f97ca17c7b2","null","null","<p style=""font-size: 60px; font-family: BACS"">YOZNdUr</p>","","","","","","","","",""
"html-keyboard-response","350","692584","0.0-16.0-0.18","5e12048c7605fe8839180a14","650c16f0f2faf8d7a0d14c09","651c1b91cfbc2f97ca17c7b2","null","null","<p style=""font-size: 60px; font-family: BACS"">YOZNdUr</p>","","","","","","","","",""
"html-keyboard-response","351","693592","0.0-16.0-0.19","5e12048c7605fe8839180a14","650c16f0f2faf8d7a0d14c09","651c1b91cfbc2f97ca17c7b2","null","null","<p style=""font-size: 60px; font-family: BACS"">YOZNdUr</p>","","","","","","","","",""
"html-keyboard-response","352","694606","0.0-16.0-0.20","5e12048c7605fe8839180a14","650c16f0f2faf8d7a0d14c09","651c1b91cfbc2f97ca17c7b2","null","null","<p style=""font-size: 60px; font-family: BACS"">YOZNdUr</p>","","","","","","","","",""
"html-keyboard-response","353","695611","0.0-16.0-0.21","5e12048c7605fe8839180a14","650c16f0f2faf8d7a0d14c09","651c1b91cfbc2f97ca17c7b2","null","null","<p style=""font-size: 60px; font-family: BACS"">YOZNdUr</p>","","","","","","","","",""
"html-keyboard-response","354","696621","0.0-16.0-0.22","5e12048c7605fe8839180a14","650c16f0f2faf8d7a0d14c09","651c1b91cfbc2f97ca17c7b2","null","null","<p style=""font-size: 60px; font-family: BACS"">YOZNdUr</p>","","","","","","","","",""
"html-keyboard-response","355","697624","0.0-16.0-0.23","5e12048c7605fe8839180a14","650c16f0f2faf8d7a0d14c09","651c1b91cfbc2f97ca17c7b2","null","null","<p style=""font-size: 60px; font-family: BACS"">YOZNdUr</p>","","","","","","","","",""
"html-keyboard-response","356","698656","0.0-16.0-0.24","5e12048c7605fe8839180a14","650c16f0f2faf8d7a0d14c09","651c1b91cfbc2f97ca17c7b2","null","null","<p style=""font-size: 60px; font-family: BACS"">YOZNdUr</p>","","","","","","","","",""
"html-keyboard-response","357","699686","0.0-16.0-0.25","5e12048c7605fe8839180a14","650c16f0f2faf8d7a0d14c09","651c1b91cfbc2f97ca17c7b2","null","null","<p style=""font-size: 60px; font-family: BACS"">YOZNdUr</p>","","","","","","","","",""
"html-keyboard-response","358","700700","0.0-16.0-0.26","5e12048c7605fe8839180a14","650c16f0f2faf8d7a0d14c09","651c1b91cfbc2f97ca17c7b2","null","null","<p style=""font-size: 60px; font-family: BACS"">YOZNdUr</p>","","","","","","","","",""
"html-keyboard-response","359","701712","0.0-16.0-0.27","5e12048c7605fe8839180a14","650c16f0f2faf8d7a0d14c09","651c1b91cfbc2f97ca17c7b2","null","null","<p style=""font-size: 60px; font-family: BACS"">YOZNdUr</p>","","","","","","","","",""
"html-keyboard-response","360","702727","0.0-16.0-0.28","5e12048c7605fe8839180a14","650c16f0f2faf8d7a0d14c09","651c1b91cfbc2f97ca17c7b2","null","null","<p style=""font-size: 60px; font-family: BACS"">YOZNdUr</p>","","","","","","","","",""
"html-keyboard-response","361","703742","0.0-16.0-0.29","5e12048c7605fe8839180a14","650c16f0f2faf8d7a0d14c09","651c1b91cfbc2f97ca17c7b2","null","null","<p style=""font-size: 60px; font-family: BACS"">YOZNdUr</p>","","","","","","","","",""
"html-keyboard-response","362","704771","0.0-16.0-0.30","5e12048c7605fe8839180a14","650c16f0f2faf8d7a0d14c09","651c1b91cfbc2f97ca17c7b2","null","null","<p style=""font-size: 60px; font-family: BACS"">YOZNdUr</p>","","","","","","","","",""
"html-keyboard-response","363","705774","0.0-16.0-0.31","5e12048c7605fe8839180a14","650c16f0f2faf8d7a0d14c09","651c1b91cfbc2f97ca17c7b2","null","null","<p style=""font-size: 60px; font-family: BACS"">YOZNdUr</p>","","","","","","","","",""
"html-keyboard-response","364","706788","0.0-16.0-0.32","5e12048c7605fe8839180a14","650c16f0f2faf8d7a0d14c09","651c1b91cfbc2f97ca17c7b2","null","null","<p style=""font-size: 60px; font-family: BACS"">YOZNdUr</p>","","","","","","","","",""
"html-keyboard-response","365","707810","0.0-16.0-0.33","5e12048c7605fe8839180a14","650c16f0f2faf8d7a0d14c09","651c1b91cfbc2f97ca17c7b2","null","null","<p style=""font-size: 60px; font-family: BACS"">YOZNdUr</p>","","","","","","","","",""
"html-keyboard-response","366","708823","0.0-16.0-0.34","5e12048c7605fe8839180a14","650c16f0f2faf8d7a0d14c09","651c1b91cfbc2f97ca17c7b2","null","null","<p style=""font-size: 60px; font-family: BACS"">YOZNdUr</p>","","","","","","","","",""
"html-keyboard-response","367","709836","0.0-16.0-0.35","5e12048c7605fe8839180a14","650c16f0f2faf8d7a0d14c09","651c1b91cfbc2f97ca17c7b2","null","null","<p style=""font-size: 60px; font-family: BACS"">YOZNdUr</p>","","","","","","","","",""
"html-keyboard-response","368","710854","0.0-16.0-0.36","5e12048c7605fe8839180a14","650c16f0f2faf8d7a0d14c09","651c1b91cfbc2f97ca17c7b2","null","null","<p style=""font-size: 60px; font-family: BACS"">YOZNdUr</p>","","","","","","","","",""
"html-keyboard-response","369","711855","0.0-16.0-0.37","5e12048c7605fe8839180a14","650c16f0f2faf8d7a0d14c09","651c1b91cfbc2f97ca17c7b2","null","null","<p style=""font-size: 60px; font-family: BACS"">YOZNdUr</p>","","","","","","","","",""
"html-keyboard-response","370","712869","0.0-16.0-0.38","5e12048c7605fe8839180a14","650c16f0f2faf8d7a0d14c09","651c1b91cfbc2f97ca17c7b2","null","null","<p style=""font-size: 60px; font-family: BACS"">YOZNdUr</p>","","","","","","","","",""
"html-keyboard-response","371","713882","0.0-16.0-0.39","5e12048c7605fe8839180a14","650c16f0f2faf8d7a0d14c09","651c1b91cfbc2f97ca17c7b2","null","null","<p style=""font-size: 60px; font-family: BACS"">YOZNdUr</p>","","","","","","","","",""
"html-keyboard-response","372","714898","0.0-16.0-0.40","5e12048c7605fe8839180a14","650c16f0f2faf8d7a0d14c09","651c1b91cfbc2f97ca17c7b2","null","null","<p style=""font-size: 60px; font-family: BACS"">YOZNdUr</p>","","","","","","","","",""
"html-keyboard-response","373","715911","0.0-16.0-0.41","5e12048c7605fe8839180a14","650c16f0f2faf8d7a0d14c09","651c1b91cfbc2f97ca17c7b2","null","null","<p style=""font-size: 60px; font-family: BACS"">YOZNdUr</p>","","","","","","","","",""
"html-keyboard-response","374","716935","0.0-16.0-0.42","5e12048c7605fe8839180a14","650c16f0f2faf8d7a0d14c09","651c1b91cfbc2f97ca17c7b2","null","null","<p style=""font-size: 60px; font-family: BACS"">YOZNdUr</p>","","","","","","","","",""
"html-keyboard-response","375","717958","0.0-16.0-0.43","5e12048c7605fe8839180a14","650c16f0f2faf8d7a0d14c09","651c1b91cfbc2f97ca17c7b2","null","null","<p style=""font-size: 60px; font-family: BACS"">YOZNdUr</p>","","","","","","","","",""
"html-keyboard-response","376","718987","0.0-16.0-0.44","5e12048c7605fe8839180a14","650c16f0f2faf8d7a0d14c09","651c1b91cfbc2f97ca17c7b2","null","null","<p style=""font-size: 60px; font-family: BACS"">YOZNdUr</p>","","","","","","","","",""
"html-keyboard-response","377","719997","0.0-16.0-0.45","5e12048c7605fe8839180a14","650c16f0f2faf8d7a0d14c09","651c1b91cfbc2f97ca17c7b2","null","null","<p style=""font-size: 60px; font-family: BACS"">YOZNdUr</p>","","","","","","","","",""
"html-keyboard-response","378","721028","0.0-16.0-0.46","5e12048c7605fe8839180a14","650c16f0f2faf8d7a0d14c09","651c1b91cfbc2f97ca17c7b2","null","null","<p style=""font-size: 60px; font-family: BACS"">YOZNdUr</p>","","","","","","","","",""
"html-keyboard-response","379","722057","0.0-16.0-0.47","5e12048c7605fe8839180a14","650c16f0f2faf8d7a0d14c09","651c1b91cfbc2f97ca17c7b2","null","null","<p style=""font-size: 60px; font-family: BACS"">YOZNdUr</p>","","","","","","","","",""
"html-keyboard-response","380","723082","0.0-16.0-0.48","5e12048c7605fe8839180a14","650c16f0f2faf8d7a0d14c09","651c1b91cfbc2f97ca17c7b2","null","null","<p style=""font-size: 60px; font-family: BACS"">YOZNdUr</p>","","","","","","","","",""
"html-keyboard-response","381","724083","0.0-16.0-0.49","5e12048c7605fe8839180a14","650c16f0f2faf8d7a0d14c09","651c1b91cfbc2f97ca17c7b2","null","null","<p style=""font-size: 60px; font-family: BACS"">YOZNdUr</p>","","","","","","","","",""
"html-keyboard-response","382","725113","0.0-16.0-0.50","5e12048c7605fe8839180a14","650c16f0f2faf8d7a0d14c09","651c1b91cfbc2f97ca17c7b2","null","null","<p style=""font-size: 60px; font-family: BACS"">YOZNdUr</p>","","","","","","","","",""
"html-keyboard-response","383","726123","0.0-16.0-0.51","5e12048c7605fe8839180a14","650c16f0f2faf8d7a0d14c09","651c1b91cfbc2f97ca17c7b2","null","null","<p style=""font-size: 60px; font-family: BACS"">YOZNdUr</p>","","","","","","","","",""
"html-keyboard-response","384","727152","0.0-16.0-0.52","5e12048c7605fe8839180a14","650c16f0f2faf8d7a0d14c09","651c1b91cfbc2f97ca17c7b2","null","null","<p style=""font-size: 60px; font-family: BACS"">YOZNdUr</p>","","","","","","","","",""
"html-keyboard-response","385","728165","0.0-16.0-0.53","5e12048c7605fe8839180a14","650c16f0f2faf8d7a0d14c09","651c1b91cfbc2f97ca17c7b2","null","null","<p style=""font-size: 60px; font-family: BACS"">YOZNdUr</p>","","","","","","","","",""
"html-keyboard-response","386","729196","0.0-16.0-0.54","5e12048c7605fe8839180a14","650c16f0f2faf8d7a0d14c09","651c1b91cfbc2f97ca17c7b2","null","null","<p style=""font-size: 60px; font-family: BACS"">YOZNdUr</p>","","","","","","","","",""
"html-keyboard-response","387","730197","0.0-16.0-0.55","5e12048c7605fe8839180a14","650c16f0f2faf8d7a0d14c09","651c1b91cfbc2f97ca17c7b2","null","null","<p style=""font-size: 60px; font-family: BACS"">YOZNdUr</p>","","","","","","","","",""
"html-keyboard-response","388","731212","0.0-16.0-0.56","5e12048c7605fe8839180a14","650c16f0f2faf8d7a0d14c09","651c1b91cfbc2f97ca17c7b2","null","null","<p style=""font-size: 60px; font-family: BACS"">YOZNdUr</p>","","","","","","","","",""
"html-keyboard-response","389","732225","0.0-16.0-0.57","5e12048c7605fe8839180a14","650c16f0f2faf8d7a0d14c09","651c1b91cfbc2f97ca17c7b2","null","null","<p style=""font-size: 60px; font-family: BACS"">YOZNdUr</p>","","","","","","","","",""
"html-keyboard-response","390","733237","0.0-16.0-0.58","5e12048c7605fe8839180a14","650c16f0f2faf8d7a0d14c09","651c1b91cfbc2f97ca17c7b2","null","null","<p style=""font-size: 60px; font-family: BACS"">YOZNdUr</p>","","","","","","","","",""
"html-keyboard-response","391","734252","0.0-16.0-0.59","5e12048c7605fe8839180a14","650c16f0f2faf8d7a0d14c09","651c1b91cfbc2f97ca17c7b2","null","null","<p style=""font-size: 60px; font-family: BACS"">YOZNdUr</p>","","","","","","","","",""
"html-keyboard-response","392","735279","0.0-16.0-0.60","5e12048c7605fe8839180a14","650c16f0f2faf8d7a0d14c09","651c1b91cfbc2f97ca17c7b2","null","null","<p style=""font-size: 60px; font-family: BACS"">YOZNdUr</p>","","","","","","","","",""
"html-keyboard-response","393","736280","0.0-16.0-0.61","5e12048c7605fe8839180a14","650c16f0f2faf8d7a0d14c09","651c1b91cfbc2f97ca17c7b2","null","null","<p style=""font-size: 60px; font-family: BACS"">YOZNdUr</p>","","","","","","","","",""
"html-keyboard-response","394","737294","0.0-16.0-0.62","5e12048c7605fe8839180a14","650c16f0f2faf8d7a0d14c09","651c1b91cfbc2f97ca17c7b2","null","null","<p style=""font-size: 60px; font-family: BACS"">YOZNdUr</p>","","","","","","","","",""
"html-keyboard-response","395","738307","0.0-16.0-0.63","5e12048c7605fe8839180a14","650c16f0f2faf8d7a0d14c09","651c1b91cfbc2f97ca17c7b2","null","null","<p style=""font-size: 60px; font-family: BACS"">YOZNdUr</p>","","","","","","","","",""
"html-keyboard-response","396","739332","0.0-16.0-0.64","5e12048c7605fe8839180a14","650c16f0f2faf8d7a0d14c09","651c1b91cfbc2f97ca17c7b2","null","null","<p style=""font-size: 60px; font-family: BACS"">YOZNdUr</p>","","","","","","","","",""
"html-keyboard-response","397","740345","0.0-16.0-0.65","5e12048c7605fe8839180a14","650c16f0f2faf8d7a0d14c09","651c1b91cfbc2f97ca17c7b2","null","null","<p style=""font-size: 60px; font-family: BACS"">YOZNdUr</p>","","","","","","","","",""
"html-keyboard-response","398","741355","0.0-16.0-0.66","5e12048c7605fe8839180a14","650c16f0f2faf8d7a0d14c09","651c1b91cfbc2f97ca17c7b2","null","null","<p style=""font-size: 60px; font-family: BACS"">YOZNdUr</p>","","","","","","","","",""
