"trial_type","trial_index","time_elapsed","internal_node_id","subject_id","study_id","session_id","rt","response","stimulus","success","item","task","correct_response","correct","target","confound","name"
"pavlovia","0","3526","0.0-0.0","5fb7b8880045d6396a86c803","64afc2c9a8732ea92db0087d","64afd4da86741f149b94fe7f","","","","","","","","","","",""
"survey-html-form","1","7877","0.0-1.0","5fb7b8880045d6396a86c803","64afc2c9a8732ea92db0087d","64afd4da86741f149b94fe7f","4351","{""ID"":""5fb7b8880045d6396a86c803""}","","","","","","","","",""
"html-keyboard-response","2","8891","0.0-2.0","5fb7b8880045d6396a86c803","64afc2c9a8732ea92db0087d","64afd4da86741f149b94fe7f","1013"," ","<p style=""font-size: 15px;"">Prima di cominciare, le chiediamo di leggere il modulo di consenso informato e confermare la sua volontà di partecipare all'esperimento.</p>
      <p style=""font-size: 15px;""> La preghiamo di ricordare che questo è un progetto di ricerca e che la sua partecipazione è completamente volontaria. Lei si potra' ritirare in qualunque momento, senza necessariamente dover dare alcuna spiegazione. Lo studio al quale Le si chiede di partecipare ha lo scopo di esaminare come i lettori elaborano le parole scritte. La somministrazione delle prove è individuale. Lei sarà impegnato in una sessione di lavoro della durata media di 10 minuti, e un questionario di 10 minuti. L’ordine delle prove ed il loro svolgimento sono stabiliti in modo tale da evitare un eventuale affaticamento. Tutte le prove saranno precedute da un breve addestramento in modo tale che abbia la possibilità di familiarizzare con il compito. Sono previste alcune pause nel corso dello svolgimento dell’esperimento. Una ricompensa di £4 (£8 per ora) Le verrà consegnata al termine della sessione di testing. Nonostante il testing preveda delle prove cognitive, il presente esperimento non costituisce una prova clinica che permetta la diagnosi di eventuali patologie.</p>
      <p style=""font-size: 15px;"">Tutti i dati raccolti grazie alla partecipazione Sua e di altre persone volontarie saranno custoditi in server sicuri e protetti da password, e non sarà consentito ad alcuna persona non autorizzata di accedervi. Le Sue informazioni personali saranno conservate separatamente dai risultati della presente ricerca, cui saranno associati soltanto attraverso un ID arbitrario. Grazie a questo processo di anonimizzazione dei dati, a nessun ricercatore sarà possibile analizzare i risultati sapendo da quale specifico partecipante essi provengono. Inoltre, questa procedura renderà impossibile la Sua identificazione anche nel momento in cui i risultati della ricerca fossero pubblicati su riviste scientifiche, o presentati a congressi o in qualsiasi altro pubblico consesso. Più in generale, i dati raccolti saranno trattati in accordo con le leggi sulla privacy e in conformità al Decreto Legislativo 30 giugno 2003 n. 196 “Codice in materia di protezione dei dati personali” e al Regolamento Europeo 2016/679 (General Data Protection Regulation - GDPR). Il Responsabile della protezione dei dati (RPD) è l’Avv. Valentina Carollo che può essere contattato ai seguenti indirizzi email: <a href=""mailto:dpo@sissa.it"">dpo@sissa.it</a> oppure <a href=""mailto:rpd@sissa.it"">rpd@sissa.it</a> - PEC: <a href=""mailto:protocollo@pec.sissa.it"">protocollo@pec.sissa.it</a>.</p>
      <p style=""font-size: 15px;""> Prima di esprimere il suo consenso alla partecipazione, Le ricordiamo ancora che in caso Lei abbia bisogno di delucidazioni su qualunque aspetto della procedura sperimentale, il ricercatore è a Sua completa disposizione (<a href=""mailto:aliebelt@sissa.it"">aliebelt@sissa.it</a>, <a href=""mailto:davide.crepaldi@sissa.it"">davide.crepaldi@sissa.it</a>).</p>
      <p style=""font-size: 15px;"">Se vuole scaricare il modulo di consenso informato, clicca qui: <a href=""BASL_modulo_consenso.pdf"" download>modulo di consenso</a>.</p>
      <p style=""font-size: 15px;""> Le chiediamo di premere la barra per continuare al consenso.</p>","","","","","","","",""
"survey-html-form","3","12331","0.0-3.0","5fb7b8880045d6396a86c803","64afc2c9a8732ea92db0087d","64afd4da86741f149b94fe7f","3439","{""consent1"":""YES"",""consent2"":""YES"",""consent3"":""YES"",""consent4"":""YES"",""consent5"":""YES"",""consent6"":""YES""}","","","","","","","","",""
"fullscreen","4","14967","0.0-4.0","5fb7b8880045d6396a86c803","64afc2c9a8732ea92db0087d","64afd4da86741f149b94fe7f","","","","true","","","","","","",""
"html-keyboard-response","5","29624","0.0-5.0","5fb7b8880045d6396a86c803","64afc2c9a8732ea92db0087d","64afd4da86741f149b94fe7f","14657"," ","<p>Benvenuta/o, e grazie mille del tuo tempo!</p>
      <p>In questo esperimento sarai un esperto/un'esperta di linguaggio cui è stato chiesto di dare un'occhiata ad alcuni messaggi che la Terra ha ricevuto dallo spazio. Il tuo compito, in questa prima parte dell'esperimento, sarà di fare molta attenzione alle parole che ti verranno mostrate; più tardi, i leader del mondo ti chiederanno qualche informazione su quello che hai visto. Le parole si susseguiranno abbastanza velocemente; sembra che questi alieni abbiano una certa fretta :-) </p>
      <p>Per favore, chiama lo sperimentatore se ha qualche domanda.</p><p>Premi la barra per continuare.</p>","","","","","","","",""
"html-keyboard-response","6","32812","0.0-6.0","5fb7b8880045d6396a86c803","64afc2c9a8732ea92db0087d","64afd4da86741f149b94fe7f","3188"," ","<p>Ecco un esempio delle parole che vedrai:</p>
      <img src='esempio.png' height='400px'>
      <p>Quando sei pronti per iniziare, premi la barra.</p></div>","","","","","","","",""
"html-keyboard-response","7","33814","0.0-7.0-0.0","5fb7b8880045d6396a86c803","64afc2c9a8732ea92db0087d","64afd4da86741f149b94fe7f","null","null","<p style=""font-size: 60px; font-family: BACS"">ldAaNUZ</p>","","","","","","","",""
"html-keyboard-response","8","34822","0.0-7.0-0.1","5fb7b8880045d6396a86c803","64afc2c9a8732ea92db0087d","64afd4da86741f149b94fe7f","null","null","<p style=""font-size: 60px; font-family: BACS"">YLQmGQONk</p>","","","","","","","",""
"html-keyboard-response","9","35825","0.0-7.0-0.2","5fb7b8880045d6396a86c803","64afc2c9a8732ea92db0087d","64afd4da86741f149b94fe7f","null","null","<p style=""font-size: 60px; font-family: BACS"">YcdOcbm</p>","","","","","","","",""
"html-keyboard-response","10","36838","0.0-7.0-0.3","5fb7b8880045d6396a86c803","64afc2c9a8732ea92db0087d","64afd4da86741f149b94fe7f","null","null","<p style=""font-size: 60px; font-family: BACS"">OtlRCMdP</p>","","","","","","","",""
"html-keyboard-response","11","37839","0.0-7.0-0.4","5fb7b8880045d6396a86c803","64afc2c9a8732ea92db0087d","64afd4da86741f149b94fe7f","null","null","<p style=""font-size: 60px; font-family: BACS"">YcdOvAvb</p>","","","","","","","",""
"html-keyboard-response","12","38842","0.0-7.0-0.5","5fb7b8880045d6396a86c803","64afc2c9a8732ea92db0087d","64afd4da86741f149b94fe7f","null","null","<p style=""font-size: 60px; font-family: BACS"">YJkbcbm</p>","","","","","","","",""
"html-keyboard-response","13","39855","0.0-7.0-0.6","5fb7b8880045d6396a86c803","64afc2c9a8732ea92db0087d","64afd4da86741f149b94fe7f","null","null","<p style=""font-size: 60px; font-family: BACS"">YcdOQru</p>","","","","","","","",""
"html-keyboard-response","14","40857","0.0-7.0-0.7","5fb7b8880045d6396a86c803","64afc2c9a8732ea92db0087d","64afd4da86741f149b94fe7f","null","null","<p style=""font-size: 60px; font-family: BACS"">YJLcAQONk</p>","","","","","","","",""
"html-keyboard-response","15","41857","0.0-7.0-0.8","5fb7b8880045d6396a86c803","64afc2c9a8732ea92db0087d","64afd4da86741f149b94fe7f","null","null","<p style=""font-size: 60px; font-family: BACS"">DCmhDKP</p>","","","","","","","",""
"html-keyboard-response","16","42858","0.0-7.0-0.9","5fb7b8880045d6396a86c803","64afc2c9a8732ea92db0087d","64afd4da86741f149b94fe7f","null","null","<p style=""font-size: 60px; font-family: BACS"">uQkrdNUZ</p>","","","","","","","",""
"html-keyboard-response","17","43859","0.0-7.0-0.10","5fb7b8880045d6396a86c803","64afc2c9a8732ea92db0087d","64afd4da86741f149b94fe7f","null","null","<p style=""font-size: 60px; font-family: BACS"">EYtYRDKP</p>","","","","","","","",""
"html-keyboard-response","18","44860","0.0-7.0-0.11","5fb7b8880045d6396a86c803","64afc2c9a8732ea92db0087d","64afd4da86741f149b94fe7f","null","null","<p style=""font-size: 60px; font-family: BACS"">KMOcCdt</p>","","","","","","","",""
"html-keyboard-response","19","45862","0.0-7.0-0.12","5fb7b8880045d6396a86c803","64afc2c9a8732ea92db0087d","64afd4da86741f149b94fe7f","null","null","<p style=""font-size: 60px; font-family: BACS"">ldAaQONk</p>","","","","","","","",""
"html-keyboard-response","20","46864","0.0-7.0-0.13","5fb7b8880045d6396a86c803","64afc2c9a8732ea92db0087d","64afd4da86741f149b94fe7f","null","null","<p style=""font-size: 60px; font-family: BACS"">TPCbBCD</p>","","","","","","","",""
"html-keyboard-response","21","47864","0.0-7.0-0.14","5fb7b8880045d6396a86c803","64afc2c9a8732ea92db0087d","64afd4da86741f149b94fe7f","null","null","<p style=""font-size: 60px; font-family: BACS"">vAarvAvb</p>","","","","","","","",""
"html-keyboard-response","22","48866","0.0-7.0-0.15","5fb7b8880045d6396a86c803","64afc2c9a8732ea92db0087d","64afd4da86741f149b94fe7f","null","null","<p style=""font-size: 60px; font-family: BACS"">vuJZucbm</p>","","","","","","","",""
"html-keyboard-response","23","49878","0.0-7.0-0.16","5fb7b8880045d6396a86c803","64afc2c9a8732ea92db0087d","64afd4da86741f149b94fe7f","null","null","<p style=""font-size: 60px; font-family: BACS"">uQkrdQONk</p>","","","","","","","",""
"html-keyboard-response","24","50879","0.0-7.0-0.17","5fb7b8880045d6396a86c803","64afc2c9a8732ea92db0087d","64afd4da86741f149b94fe7f","null","null","<p style=""font-size: 60px; font-family: BACS"">UAcduvAvb</p>","","","","","","","",""
"html-keyboard-response","25","51885","0.0-7.0-0.18","5fb7b8880045d6396a86c803","64afc2c9a8732ea92db0087d","64afd4da86741f149b94fe7f","null","null","<p style=""font-size: 60px; font-family: BACS"">COTKAPT</p>","","","","","","","",""
"html-keyboard-response","26","52886","0.0-7.0-0.19","5fb7b8880045d6396a86c803","64afc2c9a8732ea92db0087d","64afd4da86741f149b94fe7f","null","null","<p style=""font-size: 60px; font-family: BACS"">lAOKMDKP</p>","","","","","","","",""
"html-keyboard-response","27","53887","0.0-7.0-0.20","5fb7b8880045d6396a86c803","64afc2c9a8732ea92db0087d","64afd4da86741f149b94fe7f","null","null","<p style=""font-size: 60px; font-family: BACS"">vAarQONk</p>","","","","","","","",""
"html-keyboard-response","28","54887","0.0-7.0-0.21","5fb7b8880045d6396a86c803","64afc2c9a8732ea92db0087d","64afd4da86741f149b94fe7f","null","null","<p style=""font-size: 60px; font-family: BACS"">DCmhAPT</p>","","","","","","","",""
"html-keyboard-response","29","55901","0.0-7.0-0.22","5fb7b8880045d6396a86c803","64afc2c9a8732ea92db0087d","64afd4da86741f149b94fe7f","null","null","<p style=""font-size: 60px; font-family: BACS"">KMOcBCD</p>","","","","","","","",""
"html-keyboard-response","30","56903","0.0-7.0-0.23","5fb7b8880045d6396a86c803","64afc2c9a8732ea92db0087d","64afd4da86741f149b94fe7f","null","null","<p style=""font-size: 60px; font-family: BACS"">lAOKMAPT</p>","","","","","","","",""
"html-keyboard-response","31","57904","0.0-7.0-0.24","5fb7b8880045d6396a86c803","64afc2c9a8732ea92db0087d","64afd4da86741f149b94fe7f","null","null","<p style=""font-size: 60px; font-family: BACS"">TPCbCMdP</p>","","","","","","","",""
"html-keyboard-response","32","58904","0.0-7.0-0.25","5fb7b8880045d6396a86c803","64afc2c9a8732ea92db0087d","64afd4da86741f149b94fe7f","null","null","<p style=""font-size: 60px; font-family: BACS"">JmvmOQONk</p>","","","","","","","",""
"html-keyboard-response","33","59905","0.0-7.0-0.26","5fb7b8880045d6396a86c803","64afc2c9a8732ea92db0087d","64afd4da86741f149b94fe7f","null","null","<p style=""font-size: 60px; font-family: BACS"">ldAaQru</p>","","","","","","","",""
"html-keyboard-response","34","60918","0.0-7.0-0.27","5fb7b8880045d6396a86c803","64afc2c9a8732ea92db0087d","64afd4da86741f149b94fe7f","null","null","<p style=""font-size: 60px; font-family: BACS"">YJkbNUZ</p>","","","","","","","",""
"html-keyboard-response","35","61919","0.0-7.0-0.28","5fb7b8880045d6396a86c803","64afc2c9a8732ea92db0087d","64afd4da86741f149b94fe7f","null","null","<p style=""font-size: 60px; font-family: BACS"">UAcducbm</p>","","","","","","","",""
"html-keyboard-response","36","62921","0.0-7.0-0.29","5fb7b8880045d6396a86c803","64afc2c9a8732ea92db0087d","64afd4da86741f149b94fe7f","null","null","<p style=""font-size: 60px; font-family: BACS"">tcYbdBCD</p>","","","","","","","",""
"html-keyboard-response","37","63922","0.0-7.0-0.30","5fb7b8880045d6396a86c803","64afc2c9a8732ea92db0087d","64afd4da86741f149b94fe7f","null","null","<p style=""font-size: 60px; font-family: BACS"">EYtYRCdt</p>","","","","","","","",""
"html-keyboard-response","38","64922","0.0-7.0-0.31","5fb7b8880045d6396a86c803","64afc2c9a8732ea92db0087d","64afd4da86741f149b94fe7f","null","null","<p style=""font-size: 60px; font-family: BACS"">OcYMAPT</p>","","","","","","","",""
"html-keyboard-response","39","65926","0.0-7.0-0.32","5fb7b8880045d6396a86c803","64afc2c9a8732ea92db0087d","64afd4da86741f149b94fe7f","null","null","<p style=""font-size: 60px; font-family: BACS"">COTKDKP</p>","","","","","","","",""
"html-keyboard-response","40","67076","0.0-7.0-0.33","5fb7b8880045d6396a86c803","64afc2c9a8732ea92db0087d","64afd4da86741f149b94fe7f","null","null","<p style=""font-size: 60px; font-family: BACS"">OcYMCMdP</p>","","","","","","","",""
"html-keyboard-response","41","68077","0.0-7.0-0.34","5fb7b8880045d6396a86c803","64afc2c9a8732ea92db0087d","64afd4da86741f149b94fe7f","null","null","<p style=""font-size: 60px; font-family: BACS"">YLQmGcbm</p>","","","","","","","",""
"html-keyboard-response","42","69086","0.0-7.0-0.35","5fb7b8880045d6396a86c803","64afc2c9a8732ea92db0087d","64afd4da86741f149b94fe7f","null","null","<p style=""font-size: 60px; font-family: BACS"">OcYMDKP</p>","","","","","","","",""
"html-keyboard-response","43","70087","0.0-7.0-0.36","5fb7b8880045d6396a86c803","64afc2c9a8732ea92db0087d","64afd4da86741f149b94fe7f","null","null","<p style=""font-size: 60px; font-family: BACS"">DCmhCMdP</p>","","","","","","","",""
"html-keyboard-response","44","71100","0.0-7.0-0.37","5fb7b8880045d6396a86c803","64afc2c9a8732ea92db0087d","64afd4da86741f149b94fe7f","null","null","<p style=""font-size: 60px; font-family: BACS"">EYtYRBCD</p>","","","","","","","",""
"html-keyboard-response","45","72116","0.0-7.0-0.38","5fb7b8880045d6396a86c803","64afc2c9a8732ea92db0087d","64afd4da86741f149b94fe7f","null","null","<p style=""font-size: 60px; font-family: BACS"">uQkrdvAvb</p>","","","","","","","",""
"html-keyboard-response","46","73123","0.0-7.0-0.39","5fb7b8880045d6396a86c803","64afc2c9a8732ea92db0087d","64afd4da86741f149b94fe7f","null","null","<p style=""font-size: 60px; font-family: BACS"">vAarcbm</p>","","","","","","","",""
"html-keyboard-response","47","74125","0.0-7.0-0.40","5fb7b8880045d6396a86c803","64afc2c9a8732ea92db0087d","64afd4da86741f149b94fe7f","null","null","<p style=""font-size: 60px; font-family: BACS"">COTKCdt</p>","","","","","","","",""
"html-keyboard-response","48","75127","0.0-7.0-0.41","5fb7b8880045d6396a86c803","64afc2c9a8732ea92db0087d","64afd4da86741f149b94fe7f","null","null","<p style=""font-size: 60px; font-family: BACS"">ldAavAvb</p>","","","","","","","",""
"html-keyboard-response","49","76143","0.0-7.0-0.42","5fb7b8880045d6396a86c803","64afc2c9a8732ea92db0087d","64afd4da86741f149b94fe7f","null","null","<p style=""font-size: 60px; font-family: BACS"">OtlRCdt</p>","","","","","","","",""
"html-keyboard-response","50","77147","0.0-7.0-0.43","5fb7b8880045d6396a86c803","64afc2c9a8732ea92db0087d","64afd4da86741f149b94fe7f","null","null","<p style=""font-size: 60px; font-family: BACS"">YJLcAQru</p>","","","","","","","",""
"html-keyboard-response","51","78149","0.0-7.0-0.44","5fb7b8880045d6396a86c803","64afc2c9a8732ea92db0087d","64afd4da86741f149b94fe7f","null","null","<p style=""font-size: 60px; font-family: BACS"">tcYbdAPT</p>","","","","","","","",""
"html-keyboard-response","52","79152","0.0-7.0-0.45","5fb7b8880045d6396a86c803","64afc2c9a8732ea92db0087d","64afd4da86741f149b94fe7f","null","null","<p style=""font-size: 60px; font-family: BACS"">OtlRDKP</p>","","","","","","","",""
"html-keyboard-response","53","80167","0.0-7.0-0.46","5fb7b8880045d6396a86c803","64afc2c9a8732ea92db0087d","64afd4da86741f149b94fe7f","null","null","<p style=""font-size: 60px; font-family: BACS"">KMOcCMdP</p>","","","","","","","",""
"html-keyboard-response","54","81180","0.0-7.0-0.47","5fb7b8880045d6396a86c803","64afc2c9a8732ea92db0087d","64afd4da86741f149b94fe7f","null","null","<p style=""font-size: 60px; font-family: BACS"">OtlRBCD</p>","","","","","","","",""
"html-keyboard-response","55","82195","0.0-7.0-0.48","5fb7b8880045d6396a86c803","64afc2c9a8732ea92db0087d","64afd4da86741f149b94fe7f","null","null","<p style=""font-size: 60px; font-family: BACS"">YJLcANUZ</p>","","","","","","","",""
"html-keyboard-response","56","83201","0.0-7.0-0.49","5fb7b8880045d6396a86c803","64afc2c9a8732ea92db0087d","64afd4da86741f149b94fe7f","null","null","<p style=""font-size: 60px; font-family: BACS"">OcYMBCD</p>","","","","","","","",""
"html-keyboard-response","57","84207","0.0-7.0-0.50","5fb7b8880045d6396a86c803","64afc2c9a8732ea92db0087d","64afd4da86741f149b94fe7f","null","null","<p style=""font-size: 60px; font-family: BACS"">lCbcmDKP</p>","","","","","","","",""
"html-keyboard-response","58","85220","0.0-7.0-0.51","5fb7b8880045d6396a86c803","64afc2c9a8732ea92db0087d","64afd4da86741f149b94fe7f","null","null","<p style=""font-size: 60px; font-family: BACS"">JmvmONUZ</p>","","","","","","","",""
"html-keyboard-response","59","86224","0.0-7.0-0.52","5fb7b8880045d6396a86c803","64afc2c9a8732ea92db0087d","64afd4da86741f149b94fe7f","null","null","<p style=""font-size: 60px; font-family: BACS"">vAarQru</p>","","","","","","","",""
"html-keyboard-response","60","87230","0.0-7.0-0.53","5fb7b8880045d6396a86c803","64afc2c9a8732ea92db0087d","64afd4da86741f149b94fe7f","null","null","<p style=""font-size: 60px; font-family: BACS"">YLQmGNUZ</p>","","","","","","","",""
"html-keyboard-response","61","88237","0.0-7.0-0.54","5fb7b8880045d6396a86c803","64afc2c9a8732ea92db0087d","64afd4da86741f149b94fe7f","null","null","<p style=""font-size: 60px; font-family: BACS"">tcYbdCdt</p>","","","","","","","",""
"html-keyboard-response","62","89244","0.0-7.0-0.55","5fb7b8880045d6396a86c803","64afc2c9a8732ea92db0087d","64afd4da86741f149b94fe7f","null","null","<p style=""font-size: 60px; font-family: BACS"">JmvmOcbm</p>","","","","","","","",""
"html-keyboard-response","63","90249","0.0-7.0-0.56","5fb7b8880045d6396a86c803","64afc2c9a8732ea92db0087d","64afd4da86741f149b94fe7f","null","null","<p style=""font-size: 60px; font-family: BACS"">DCmhCdt</p>","","","","","","","",""
"html-keyboard-response","64","91265","0.0-7.0-0.57","5fb7b8880045d6396a86c803","64afc2c9a8732ea92db0087d","64afd4da86741f149b94fe7f","null","null","<p style=""font-size: 60px; font-family: BACS"">vuJZuvAvb</p>","","","","","","","",""
"html-keyboard-response","65","92271","0.0-7.0-0.58","5fb7b8880045d6396a86c803","64afc2c9a8732ea92db0087d","64afd4da86741f149b94fe7f","null","null","<p style=""font-size: 60px; font-family: BACS"">YJkbQru</p>","","","","","","","",""
"html-keyboard-response","66","93275","0.0-7.0-0.59","5fb7b8880045d6396a86c803","64afc2c9a8732ea92db0087d","64afd4da86741f149b94fe7f","null","null","<p style=""font-size: 60px; font-family: BACS"">UAcduQONk</p>","","","","","","","",""
"html-keyboard-response","67","94277","0.0-7.0-0.60","5fb7b8880045d6396a86c803","64afc2c9a8732ea92db0087d","64afd4da86741f149b94fe7f","null","null","<p style=""font-size: 60px; font-family: BACS"">TPCbCdt</p>","","","","","","","",""
"html-keyboard-response","68","95285","0.0-7.0-0.61","5fb7b8880045d6396a86c803","64afc2c9a8732ea92db0087d","64afd4da86741f149b94fe7f","null","null","<p style=""font-size: 60px; font-family: BACS"">YLQmGQru</p>","","","","","","","",""
"html-keyboard-response","69","96289","0.0-7.0-0.62","5fb7b8880045d6396a86c803","64afc2c9a8732ea92db0087d","64afd4da86741f149b94fe7f","null","null","<p style=""font-size: 60px; font-family: BACS"">YJkbvAvb</p>","","","","","","","",""
"html-keyboard-response","70","97296","0.0-7.0-0.63","5fb7b8880045d6396a86c803","64afc2c9a8732ea92db0087d","64afd4da86741f149b94fe7f","null","null","<p style=""font-size: 60px; font-family: BACS"">lCbcmCMdP</p>","","","","","","","",""
"html-keyboard-response","71","98307","0.0-7.0-0.64","5fb7b8880045d6396a86c803","64afc2c9a8732ea92db0087d","64afd4da86741f149b94fe7f","null","null","<p style=""font-size: 60px; font-family: BACS"">TPCbAPT</p>","","","","","","","",""
"html-keyboard-response","72","99315","0.0-7.0-0.65","5fb7b8880045d6396a86c803","64afc2c9a8732ea92db0087d","64afd4da86741f149b94fe7f","null","null","<p style=""font-size: 60px; font-family: BACS"">COTKCMdP</p>","","","","","","","",""
"html-keyboard-response","73","100323","0.0-7.0-0.66","5fb7b8880045d6396a86c803","64afc2c9a8732ea92db0087d","64afd4da86741f149b94fe7f","null","null","<p style=""font-size: 60px; font-family: BACS"">KMOcAPT</p>","","","","","","","",""
"html-keyboard-response","74","101323","0.0-7.0-0.67","5fb7b8880045d6396a86c803","64afc2c9a8732ea92db0087d","64afd4da86741f149b94fe7f","null","null","<p style=""font-size: 60px; font-family: BACS"">vuJZuQru</p>","","","","","","","",""
"html-keyboard-response","75","102325","0.0-7.0-0.68","5fb7b8880045d6396a86c803","64afc2c9a8732ea92db0087d","64afd4da86741f149b94fe7f","null","null","<p style=""font-size: 60px; font-family: BACS"">lAOKMBCD</p>","","","","","","","",""
"html-keyboard-response","76","103325","0.0-7.0-0.69","5fb7b8880045d6396a86c803","64afc2c9a8732ea92db0087d","64afd4da86741f149b94fe7f","null","null","<p style=""font-size: 60px; font-family: BACS"">lCbcmAPT</p>","","","","","","","",""
"html-keyboard-response","77","104339","0.0-7.0-0.70","5fb7b8880045d6396a86c803","64afc2c9a8732ea92db0087d","64afd4da86741f149b94fe7f","null","null","<p style=""font-size: 60px; font-family: BACS"">YJLcAcbm</p>","","","","","","","",""
"html-keyboard-response","78","105348","0.0-7.0-0.71","5fb7b8880045d6396a86c803","64afc2c9a8732ea92db0087d","64afd4da86741f149b94fe7f","null","null","<p style=""font-size: 60px; font-family: BACS"">UAcduNUZ</p>","","","","","","","",""
"html-keyboard-response","79","106349","0.0-7.0-0.72","5fb7b8880045d6396a86c803","64afc2c9a8732ea92db0087d","64afd4da86741f149b94fe7f","null","null","<p style=""font-size: 60px; font-family: BACS"">lCbcmBCD</p>","","","","","","","",""
"html-keyboard-response","80","107350","0.0-7.0-0.73","5fb7b8880045d6396a86c803","64afc2c9a8732ea92db0087d","64afd4da86741f149b94fe7f","null","null","<p style=""font-size: 60px; font-family: BACS"">lAOKMCdt</p>","","","","","","","",""
"html-keyboard-response","81","108364","0.0-7.0-0.74","5fb7b8880045d6396a86c803","64afc2c9a8732ea92db0087d","64afd4da86741f149b94fe7f","null","null","<p style=""font-size: 60px; font-family: BACS"">tcYbdDKP</p>","","","","","","","",""
"html-keyboard-response","82","109364","0.0-7.0-0.75","5fb7b8880045d6396a86c803","64afc2c9a8732ea92db0087d","64afd4da86741f149b94fe7f","null","null","<p style=""font-size: 60px; font-family: BACS"">YcdONUZ</p>","","","","","","","",""
"html-keyboard-response","83","110375","0.0-7.0-0.76","5fb7b8880045d6396a86c803","64afc2c9a8732ea92db0087d","64afd4da86741f149b94fe7f","null","null","<p style=""font-size: 60px; font-family: BACS"">uQkrdQru</p>","","","","","","","",""
"html-keyboard-response","84","111384","0.0-7.0-0.77","5fb7b8880045d6396a86c803","64afc2c9a8732ea92db0087d","64afd4da86741f149b94fe7f","null","null","<p style=""font-size: 60px; font-family: BACS"">EYtYRCMdP</p>","","","","","","","",""
"html-keyboard-response","85","112385","0.0-7.0-0.78","5fb7b8880045d6396a86c803","64afc2c9a8732ea92db0087d","64afd4da86741f149b94fe7f","null","null","<p style=""font-size: 60px; font-family: BACS"">vuJZuQONk</p>","","","","","","","",""
"html-keyboard-response","86","113387","0.0-7.0-0.79","5fb7b8880045d6396a86c803","64afc2c9a8732ea92db0087d","64afd4da86741f149b94fe7f","null","null","<p style=""font-size: 60px; font-family: BACS"">JmvmOvAvb</p>","","","","","","","",""
"html-keyboard-response","87","116025","0.0-8.0","5fb7b8880045d6396a86c803","64afc2c9a8732ea92db0087d","64afd4da86741f149b94fe7f","2639"," ","<p>Ottimo, hai visto il primo blocco di parole. Ora puoi prenderti una piccola pausa.</p>
      <p>Premi la barra quando sei pronta/o per riprendere.</p>","","","","","","","",""
"html-keyboard-response","88","117026","0.0-9.0-0.0","5fb7b8880045d6396a86c803","64afc2c9a8732ea92db0087d","64afd4da86741f149b94fe7f","null","null","<p style=""font-size: 60px; font-family: BACS"">JmvmOcbm</p>","","","","","","","",""
"html-keyboard-response","89","118027","0.0-9.0-0.1","5fb7b8880045d6396a86c803","64afc2c9a8732ea92db0087d","64afd4da86741f149b94fe7f","null","null","<p style=""font-size: 60px; font-family: BACS"">COTKDKP</p>","","","","","","","",""
"html-keyboard-response","90","119028","0.0-9.0-0.2","5fb7b8880045d6396a86c803","64afc2c9a8732ea92db0087d","64afd4da86741f149b94fe7f","null","null","<p style=""font-size: 60px; font-family: BACS"">EYtYRBCD</p>","","","","","","","",""
"html-keyboard-response","91","120029","0.0-9.0-0.3","5fb7b8880045d6396a86c803","64afc2c9a8732ea92db0087d","64afd4da86741f149b94fe7f","null","null","<p style=""font-size: 60px; font-family: BACS"">vuJZuQru</p>","","","","","","","",""
"html-keyboard-response","92","121029","0.0-9.0-0.4","5fb7b8880045d6396a86c803","64afc2c9a8732ea92db0087d","64afd4da86741f149b94fe7f","null","null","<p style=""font-size: 60px; font-family: BACS"">OtlRCMdP</p>","","","","","","","",""
"html-keyboard-response","93","122030","0.0-9.0-0.5","5fb7b8880045d6396a86c803","64afc2c9a8732ea92db0087d","64afd4da86741f149b94fe7f","null","null","<p style=""font-size: 60px; font-family: BACS"">tcYbdCdt</p>","","","","","","","",""
"html-keyboard-response","94","123031","0.0-9.0-0.6","5fb7b8880045d6396a86c803","64afc2c9a8732ea92db0087d","64afd4da86741f149b94fe7f","null","null","<p style=""font-size: 60px; font-family: BACS"">YLQmGcbm</p>","","","","","","","",""
"html-keyboard-response","95","124032","0.0-9.0-0.7","5fb7b8880045d6396a86c803","64afc2c9a8732ea92db0087d","64afd4da86741f149b94fe7f","null","null","<p style=""font-size: 60px; font-family: BACS"">vAarQru</p>","","","","","","","",""
"html-keyboard-response","96","125034","0.0-9.0-0.8","5fb7b8880045d6396a86c803","64afc2c9a8732ea92db0087d","64afd4da86741f149b94fe7f","null","null","<p style=""font-size: 60px; font-family: BACS"">OcYMCMdP</p>","","","","","","","",""
"html-keyboard-response","97","126035","0.0-9.0-0.9","5fb7b8880045d6396a86c803","64afc2c9a8732ea92db0087d","64afd4da86741f149b94fe7f","null","null","<p style=""font-size: 60px; font-family: BACS"">uQkrdQru</p>","","","","","","","",""
"html-keyboard-response","98","127036","0.0-9.0-0.10","5fb7b8880045d6396a86c803","64afc2c9a8732ea92db0087d","64afd4da86741f149b94fe7f","null","null","<p style=""font-size: 60px; font-family: BACS"">OtlRDKP</p>","","","","","","","",""
"html-keyboard-response","99","128038","0.0-9.0-0.11","5fb7b8880045d6396a86c803","64afc2c9a8732ea92db0087d","64afd4da86741f149b94fe7f","null","null","<p style=""font-size: 60px; font-family: BACS"">YcdOQru</p>","","","","","","","",""
"html-keyboard-response","100","129039","0.0-9.0-0.12","5fb7b8880045d6396a86c803","64afc2c9a8732ea92db0087d","64afd4da86741f149b94fe7f","null","null","<p style=""font-size: 60px; font-family: BACS"">tcYbdAPT</p>","","","","","","","",""
"html-keyboard-response","101","130041","0.0-9.0-0.13","5fb7b8880045d6396a86c803","64afc2c9a8732ea92db0087d","64afd4da86741f149b94fe7f","null","null","<p style=""font-size: 60px; font-family: BACS"">JmvmONUZ</p>","","","","","","","",""
"html-keyboard-response","102","131042","0.0-9.0-0.14","5fb7b8880045d6396a86c803","64afc2c9a8732ea92db0087d","64afd4da86741f149b94fe7f","null","null","<p style=""font-size: 60px; font-family: BACS"">tcYbdDKP</p>","","","","","","","",""
"html-keyboard-response","103","132043","0.0-9.0-0.15","5fb7b8880045d6396a86c803","64afc2c9a8732ea92db0087d","64afd4da86741f149b94fe7f","null","null","<p style=""font-size: 60px; font-family: BACS"">YJkbvAvb</p>","","","","","","","",""
"html-keyboard-response","104","133044","0.0-9.0-0.16","5fb7b8880045d6396a86c803","64afc2c9a8732ea92db0087d","64afd4da86741f149b94fe7f","null","null","<p style=""font-size: 60px; font-family: BACS"">UAcducbm</p>","","","","","","","",""
"html-keyboard-response","105","134045","0.0-9.0-0.17","5fb7b8880045d6396a86c803","64afc2c9a8732ea92db0087d","64afd4da86741f149b94fe7f","null","null","<p style=""font-size: 60px; font-family: BACS"">JmvmOQONk</p>","","","","","","","",""
"html-keyboard-response","106","135047","0.0-9.0-0.18","5fb7b8880045d6396a86c803","64afc2c9a8732ea92db0087d","64afd4da86741f149b94fe7f","null","null","<p style=""font-size: 60px; font-family: BACS"">DCmhDKP</p>","","","","","","","",""
"html-keyboard-response","107","136047","0.0-9.0-0.19","5fb7b8880045d6396a86c803","64afc2c9a8732ea92db0087d","64afd4da86741f149b94fe7f","null","null","<p style=""font-size: 60px; font-family: BACS"">YcdONUZ</p>","","","","","","","",""
"html-keyboard-response","108","137048","0.0-9.0-0.20","5fb7b8880045d6396a86c803","64afc2c9a8732ea92db0087d","64afd4da86741f149b94fe7f","null","null","<p style=""font-size: 60px; font-family: BACS"">vAarcbm</p>","","","","","","","",""
"html-keyboard-response","109","138048","0.0-9.0-0.21","5fb7b8880045d6396a86c803","64afc2c9a8732ea92db0087d","64afd4da86741f149b94fe7f","null","null","<p style=""font-size: 60px; font-family: BACS"">YJkbQru</p>","","","","","","","",""
"html-keyboard-response","110","139050","0.0-9.0-0.22","5fb7b8880045d6396a86c803","64afc2c9a8732ea92db0087d","64afd4da86741f149b94fe7f","null","null","<p style=""font-size: 60px; font-family: BACS"">YLQmGQONk</p>","","","","","","","",""
"html-keyboard-response","111","140051","0.0-9.0-0.23","5fb7b8880045d6396a86c803","64afc2c9a8732ea92db0087d","64afd4da86741f149b94fe7f","null","null","<p style=""font-size: 60px; font-family: BACS"">KMOcBCD</p>","","","","","","","",""
"html-keyboard-response","112","141052","0.0-9.0-0.24","5fb7b8880045d6396a86c803","64afc2c9a8732ea92db0087d","64afd4da86741f149b94fe7f","null","null","<p style=""font-size: 60px; font-family: BACS"">lAOKMCdt</p>","","","","","","","",""
"html-keyboard-response","113","142054","0.0-9.0-0.25","5fb7b8880045d6396a86c803","64afc2c9a8732ea92db0087d","64afd4da86741f149b94fe7f","null","null","<p style=""font-size: 60px; font-family: BACS"">lCbcmBCD</p>","","","","","","","",""
"html-keyboard-response","114","143055","0.0-9.0-0.26","5fb7b8880045d6396a86c803","64afc2c9a8732ea92db0087d","64afd4da86741f149b94fe7f","null","null","<p style=""font-size: 60px; font-family: BACS"">DCmhCMdP</p>","","","","","","","",""
"html-keyboard-response","115","144056","0.0-9.0-0.27","5fb7b8880045d6396a86c803","64afc2c9a8732ea92db0087d","64afd4da86741f149b94fe7f","null","null","<p style=""font-size: 60px; font-family: BACS"">UAcduvAvb</p>","","","","","","","",""
"html-keyboard-response","116","145056","0.0-9.0-0.28","5fb7b8880045d6396a86c803","64afc2c9a8732ea92db0087d","64afd4da86741f149b94fe7f","null","null","<p style=""font-size: 60px; font-family: BACS"">lCbcmDKP</p>","","","","","","","",""
"html-keyboard-response","117","146057","0.0-9.0-0.29","5fb7b8880045d6396a86c803","64afc2c9a8732ea92db0087d","64afd4da86741f149b94fe7f","null","null","<p style=""font-size: 60px; font-family: BACS"">vAarQONk</p>","","","","","","","",""
"html-keyboard-response","118","147058","0.0-9.0-0.30","5fb7b8880045d6396a86c803","64afc2c9a8732ea92db0087d","64afd4da86741f149b94fe7f","null","null","<p style=""font-size: 60px; font-family: BACS"">COTKCdt</p>","","","","","","","",""
"html-keyboard-response","119","148059","0.0-9.0-0.31","5fb7b8880045d6396a86c803","64afc2c9a8732ea92db0087d","64afd4da86741f149b94fe7f","null","null","<p style=""font-size: 60px; font-family: BACS"">YJLcAcbm</p>","","","","","","","",""
"html-keyboard-response","120","149059","0.0-9.0-0.32","5fb7b8880045d6396a86c803","64afc2c9a8732ea92db0087d","64afd4da86741f149b94fe7f","null","null","<p style=""font-size: 60px; font-family: BACS"">ldAaQru</p>","","","","","","","",""
"html-keyboard-response","121","150060","0.0-9.0-0.33","5fb7b8880045d6396a86c803","64afc2c9a8732ea92db0087d","64afd4da86741f149b94fe7f","null","null","<p style=""font-size: 60px; font-family: BACS"">KMOcAPT</p>","","","","","","","",""
"html-keyboard-response","122","151061","0.0-9.0-0.34","5fb7b8880045d6396a86c803","64afc2c9a8732ea92db0087d","64afd4da86741f149b94fe7f","null","null","<p style=""font-size: 60px; font-family: BACS"">tcYbdBCD</p>","","","","","","","",""
"html-keyboard-response","123","152062","0.0-9.0-0.35","5fb7b8880045d6396a86c803","64afc2c9a8732ea92db0087d","64afd4da86741f149b94fe7f","null","null","<p style=""font-size: 60px; font-family: BACS"">YJkbNUZ</p>","","","","","","","",""
"html-keyboard-response","124","153063","0.0-9.0-0.36","5fb7b8880045d6396a86c803","64afc2c9a8732ea92db0087d","64afd4da86741f149b94fe7f","null","null","<p style=""font-size: 60px; font-family: BACS"">OtlRCdt</p>","","","","","","","",""
"html-keyboard-response","125","154063","0.0-9.0-0.37","5fb7b8880045d6396a86c803","64afc2c9a8732ea92db0087d","64afd4da86741f149b94fe7f","null","null","<p style=""font-size: 60px; font-family: BACS"">lAOKMAPT</p>","","","","","","","",""
"html-keyboard-response","126","155064","0.0-9.0-0.38","5fb7b8880045d6396a86c803","64afc2c9a8732ea92db0087d","64afd4da86741f149b94fe7f","null","null","<p style=""font-size: 60px; font-family: BACS"">OcYMBCD</p>","","","","","","","",""
"html-keyboard-response","127","156065","0.0-9.0-0.39","5fb7b8880045d6396a86c803","64afc2c9a8732ea92db0087d","64afd4da86741f149b94fe7f","null","null","<p style=""font-size: 60px; font-family: BACS"">lCbcmAPT</p>","","","","","","","",""
"html-keyboard-response","128","157067","0.0-9.0-0.40","5fb7b8880045d6396a86c803","64afc2c9a8732ea92db0087d","64afd4da86741f149b94fe7f","null","null","<p style=""font-size: 60px; font-family: BACS"">YcdOcbm</p>","","","","","","","",""
"html-keyboard-response","129","158067","0.0-9.0-0.41","5fb7b8880045d6396a86c803","64afc2c9a8732ea92db0087d","64afd4da86741f149b94fe7f","null","null","<p style=""font-size: 60px; font-family: BACS"">ldAavAvb</p>","","","","","","","",""
"html-keyboard-response","130","159068","0.0-9.0-0.42","5fb7b8880045d6396a86c803","64afc2c9a8732ea92db0087d","64afd4da86741f149b94fe7f","null","null","<p style=""font-size: 60px; font-family: BACS"">uQkrdQONk</p>","","","","","","","",""
"html-keyboard-response","131","160075","0.0-9.0-0.43","5fb7b8880045d6396a86c803","64afc2c9a8732ea92db0087d","64afd4da86741f149b94fe7f","null","null","<p style=""font-size: 60px; font-family: BACS"">KMOcCdt</p>","","","","","","","",""
"html-keyboard-response","132","161083","0.0-9.0-0.44","5fb7b8880045d6396a86c803","64afc2c9a8732ea92db0087d","64afd4da86741f149b94fe7f","null","null","<p style=""font-size: 60px; font-family: BACS"">YLQmGNUZ</p>","","","","","","","",""
"html-keyboard-response","133","162084","0.0-9.0-0.45","5fb7b8880045d6396a86c803","64afc2c9a8732ea92db0087d","64afd4da86741f149b94fe7f","null","null","<p style=""font-size: 60px; font-family: BACS"">vuJZuvAvb</p>","","","","","","","",""
"html-keyboard-response","134","163085","0.0-9.0-0.46","5fb7b8880045d6396a86c803","64afc2c9a8732ea92db0087d","64afd4da86741f149b94fe7f","null","null","<p style=""font-size: 60px; font-family: BACS"">UAcduQONk</p>","","","","","","","",""
"html-keyboard-response","135","164098","0.0-9.0-0.47","5fb7b8880045d6396a86c803","64afc2c9a8732ea92db0087d","64afd4da86741f149b94fe7f","null","null","<p style=""font-size: 60px; font-family: BACS"">vuJZucbm</p>","","","","","","","",""
"html-keyboard-response","136","165099","0.0-9.0-0.48","5fb7b8880045d6396a86c803","64afc2c9a8732ea92db0087d","64afd4da86741f149b94fe7f","null","null","<p style=""font-size: 60px; font-family: BACS"">YJLcAQru</p>","","","","","","","",""
"html-keyboard-response","137","166107","0.0-9.0-0.49","5fb7b8880045d6396a86c803","64afc2c9a8732ea92db0087d","64afd4da86741f149b94fe7f","null","null","<p style=""font-size: 60px; font-family: BACS"">uQkrdvAvb</p>","","","","","","","",""
"html-keyboard-response","138","167108","0.0-9.0-0.50","5fb7b8880045d6396a86c803","64afc2c9a8732ea92db0087d","64afd4da86741f149b94fe7f","null","null","<p style=""font-size: 60px; font-family: BACS"">vuJZuQONk</p>","","","","","","","",""
"html-keyboard-response","139","168118","0.0-9.0-0.51","5fb7b8880045d6396a86c803","64afc2c9a8732ea92db0087d","64afd4da86741f149b94fe7f","null","null","<p style=""font-size: 60px; font-family: BACS"">OcYMAPT</p>","","","","","","","",""
"html-keyboard-response","140","169119","0.0-9.0-0.52","5fb7b8880045d6396a86c803","64afc2c9a8732ea92db0087d","64afd4da86741f149b94fe7f","null","null","<p style=""font-size: 60px; font-family: BACS"">OtlRBCD</p>","","","","","","","",""
"html-keyboard-response","141","170121","0.0-9.0-0.53","5fb7b8880045d6396a86c803","64afc2c9a8732ea92db0087d","64afd4da86741f149b94fe7f","null","null","<p style=""font-size: 60px; font-family: BACS"">lAOKMDKP</p>","","","","","","","",""
"html-keyboard-response","142","171129","0.0-9.0-0.54","5fb7b8880045d6396a86c803","64afc2c9a8732ea92db0087d","64afd4da86741f149b94fe7f","null","null","<p style=""font-size: 60px; font-family: BACS"">TPCbCMdP</p>","","","","","","","",""
"html-keyboard-response","143","172130","0.0-9.0-0.55","5fb7b8880045d6396a86c803","64afc2c9a8732ea92db0087d","64afd4da86741f149b94fe7f","null","null","<p style=""font-size: 60px; font-family: BACS"">YLQmGQru</p>","","","","","","","",""
"html-keyboard-response","144","173136","0.0-9.0-0.56","5fb7b8880045d6396a86c803","64afc2c9a8732ea92db0087d","64afd4da86741f149b94fe7f","null","null","<p style=""font-size: 60px; font-family: BACS"">UAcduNUZ</p>","","","","","","","",""
"html-keyboard-response","145","174137","0.0-9.0-0.57","5fb7b8880045d6396a86c803","64afc2c9a8732ea92db0087d","64afd4da86741f149b94fe7f","null","null","<p style=""font-size: 60px; font-family: BACS"">EYtYRDKP</p>","","","","","","","",""
"html-keyboard-response","146","175141","0.0-9.0-0.58","5fb7b8880045d6396a86c803","64afc2c9a8732ea92db0087d","64afd4da86741f149b94fe7f","null","null","<p style=""font-size: 60px; font-family: BACS"">YJLcANUZ</p>","","","","","","","",""
"html-keyboard-response","147","176143","0.0-9.0-0.59","5fb7b8880045d6396a86c803","64afc2c9a8732ea92db0087d","64afd4da86741f149b94fe7f","null","null","<p style=""font-size: 60px; font-family: BACS"">TPCbAPT</p>","","","","","","","",""
"html-keyboard-response","148","177143","0.0-9.0-0.60","5fb7b8880045d6396a86c803","64afc2c9a8732ea92db0087d","64afd4da86741f149b94fe7f","null","null","<p style=""font-size: 60px; font-family: BACS"">OcYMDKP</p>","","","","","","","",""
"html-keyboard-response","149","178157","0.0-9.0-0.61","5fb7b8880045d6396a86c803","64afc2c9a8732ea92db0087d","64afd4da86741f149b94fe7f","null","null","<p style=""font-size: 60px; font-family: BACS"">YJkbcbm</p>","","","","","","","",""
"html-keyboard-response","150","179164","0.0-9.0-0.62","5fb7b8880045d6396a86c803","64afc2c9a8732ea92db0087d","64afd4da86741f149b94fe7f","null","null","<p style=""font-size: 60px; font-family: BACS"">ldAaQONk</p>","","","","","","","",""
"html-keyboard-response","151","180173","0.0-9.0-0.63","5fb7b8880045d6396a86c803","64afc2c9a8732ea92db0087d","64afd4da86741f149b94fe7f","null","null","<p style=""font-size: 60px; font-family: BACS"">COTKCMdP</p>","","","","","","","",""
"html-keyboard-response","152","181178","0.0-9.0-0.64","5fb7b8880045d6396a86c803","64afc2c9a8732ea92db0087d","64afd4da86741f149b94fe7f","null","null","<p style=""font-size: 60px; font-family: BACS"">lAOKMBCD</p>","","","","","","","",""
"html-keyboard-response","153","182181","0.0-9.0-0.65","5fb7b8880045d6396a86c803","64afc2c9a8732ea92db0087d","64afd4da86741f149b94fe7f","null","null","<p style=""font-size: 60px; font-family: BACS"">lCbcmCMdP</p>","","","","","","","",""
"html-keyboard-response","154","183185","0.0-9.0-0.66","5fb7b8880045d6396a86c803","64afc2c9a8732ea92db0087d","64afd4da86741f149b94fe7f","null","null","<p style=""font-size: 60px; font-family: BACS"">uQkrdNUZ</p>","","","","","","","",""
"html-keyboard-response","155","184189","0.0-9.0-0.67","5fb7b8880045d6396a86c803","64afc2c9a8732ea92db0087d","64afd4da86741f149b94fe7f","null","null","<p style=""font-size: 60px; font-family: BACS"">DCmhAPT</p>","","","","","","","",""
"html-keyboard-response","156","185204","0.0-9.0-0.68","5fb7b8880045d6396a86c803","64afc2c9a8732ea92db0087d","64afd4da86741f149b94fe7f","null","null","<p style=""font-size: 60px; font-family: BACS"">EYtYRCMdP</p>","","","","","","","",""
"html-keyboard-response","157","186207","0.0-9.0-0.69","5fb7b8880045d6396a86c803","64afc2c9a8732ea92db0087d","64afd4da86741f149b94fe7f","null","null","<p style=""font-size: 60px; font-family: BACS"">TPCbCdt</p>","","","","","","","",""
"html-keyboard-response","158","187211","0.0-9.0-0.70","5fb7b8880045d6396a86c803","64afc2c9a8732ea92db0087d","64afd4da86741f149b94fe7f","null","null","<p style=""font-size: 60px; font-family: BACS"">COTKAPT</p>","","","","","","","",""
"html-keyboard-response","159","188213","0.0-9.0-0.71","5fb7b8880045d6396a86c803","64afc2c9a8732ea92db0087d","64afd4da86741f149b94fe7f","null","null","<p style=""font-size: 60px; font-family: BACS"">JmvmOvAvb</p>","","","","","","","",""
"html-keyboard-response","160","189228","0.0-9.0-0.72","5fb7b8880045d6396a86c803","64afc2c9a8732ea92db0087d","64afd4da86741f149b94fe7f","null","null","<p style=""font-size: 60px; font-family: BACS"">YJLcAQONk</p>","","","","","","","",""
"html-keyboard-response","161","190233","0.0-9.0-0.73","5fb7b8880045d6396a86c803","64afc2c9a8732ea92db0087d","64afd4da86741f149b94fe7f","null","null","<p style=""font-size: 60px; font-family: BACS"">DCmhCdt</p>","","","","","","","",""
"html-keyboard-response","162","191240","0.0-9.0-0.74","5fb7b8880045d6396a86c803","64afc2c9a8732ea92db0087d","64afd4da86741f149b94fe7f","null","null","<p style=""font-size: 60px; font-family: BACS"">KMOcCMdP</p>","","","","","","","",""
"html-keyboard-response","163","192246","0.0-9.0-0.75","5fb7b8880045d6396a86c803","64afc2c9a8732ea92db0087d","64afd4da86741f149b94fe7f","null","null","<p style=""font-size: 60px; font-family: BACS"">EYtYRCdt</p>","","","","","","","",""
"html-keyboard-response","164","193251","0.0-9.0-0.76","5fb7b8880045d6396a86c803","64afc2c9a8732ea92db0087d","64afd4da86741f149b94fe7f","null","null","<p style=""font-size: 60px; font-family: BACS"">YcdOvAvb</p>","","","","","","","",""
"html-keyboard-response","165","194254","0.0-9.0-0.77","5fb7b8880045d6396a86c803","64afc2c9a8732ea92db0087d","64afd4da86741f149b94fe7f","null","null","<p style=""font-size: 60px; font-family: BACS"">TPCbBCD</p>","","","","","","","",""
"html-keyboard-response","166","195258","0.0-9.0-0.78","5fb7b8880045d6396a86c803","64afc2c9a8732ea92db0087d","64afd4da86741f149b94fe7f","null","null","<p style=""font-size: 60px; font-family: BACS"">vAarvAvb</p>","","","","","","","",""
"html-keyboard-response","167","196274","0.0-9.0-0.79","5fb7b8880045d6396a86c803","64afc2c9a8732ea92db0087d","64afd4da86741f149b94fe7f","null","null","<p style=""font-size: 60px; font-family: BACS"">ldAaNUZ</p>","","","","","","","",""
"html-keyboard-response","168","203790","0.0-10.0","5fb7b8880045d6396a86c803","64afc2c9a8732ea92db0087d","64afd4da86741f149b94fe7f","7516"," ","<p>Ottimo, hai visto il secondo blocco di parole. Ora puoi prenderti una piccola pausa.</p>
      <p>Premi la barra quando sei pronta/o per riprendere.</p>","","","","","","","",""
"html-keyboard-response","169","204804","0.0-11.0-0.0","5fb7b8880045d6396a86c803","64afc2c9a8732ea92db0087d","64afd4da86741f149b94fe7f","null","null","<p style=""font-size: 60px; font-family: BACS"">YJkbQru</p>","","","","","","","",""
"html-keyboard-response","170","205807","0.0-11.0-0.1","5fb7b8880045d6396a86c803","64afc2c9a8732ea92db0087d","64afd4da86741f149b94fe7f","null","null","<p style=""font-size: 60px; font-family: BACS"">lCbcmCMdP</p>","","","","","","","",""
"html-keyboard-response","171","206816","0.0-11.0-0.2","5fb7b8880045d6396a86c803","64afc2c9a8732ea92db0087d","64afd4da86741f149b94fe7f","null","null","<p style=""font-size: 60px; font-family: BACS"">YJkbNUZ</p>","","","","","","","",""
"html-keyboard-response","172","207819","0.0-11.0-0.3","5fb7b8880045d6396a86c803","64afc2c9a8732ea92db0087d","64afd4da86741f149b94fe7f","null","null","<p style=""font-size: 60px; font-family: BACS"">OtlRDKP</p>","","","","","","","",""
"html-keyboard-response","173","208834","0.0-11.0-0.4","5fb7b8880045d6396a86c803","64afc2c9a8732ea92db0087d","64afd4da86741f149b94fe7f","null","null","<p style=""font-size: 60px; font-family: BACS"">YLQmGQONk</p>","","","","","","","",""
"html-keyboard-response","174","209850","0.0-11.0-0.5","5fb7b8880045d6396a86c803","64afc2c9a8732ea92db0087d","64afd4da86741f149b94fe7f","null","null","<p style=""font-size: 60px; font-family: BACS"">TPCbCdt</p>","","","","","","","",""
"html-keyboard-response","175","210853","0.0-11.0-0.6","5fb7b8880045d6396a86c803","64afc2c9a8732ea92db0087d","64afd4da86741f149b94fe7f","null","null","<p style=""font-size: 60px; font-family: BACS"">EYtYRBCD</p>","","","","","","","",""
"html-keyboard-response","176","211855","0.0-11.0-0.7","5fb7b8880045d6396a86c803","64afc2c9a8732ea92db0087d","64afd4da86741f149b94fe7f","null","null","<p style=""font-size: 60px; font-family: BACS"">DCmhDKP</p>","","","","","","","",""
"html-keyboard-response","177","212869","0.0-11.0-0.8","5fb7b8880045d6396a86c803","64afc2c9a8732ea92db0087d","64afd4da86741f149b94fe7f","null","null","<p style=""font-size: 60px; font-family: BACS"">OcYMBCD</p>","","","","","","","",""
"html-keyboard-response","178","213870","0.0-11.0-0.9","5fb7b8880045d6396a86c803","64afc2c9a8732ea92db0087d","64afd4da86741f149b94fe7f","null","null","<p style=""font-size: 60px; font-family: BACS"">vuJZuvAvb</p>","","","","","","","",""
"html-keyboard-response","179","214880","0.0-11.0-0.10","5fb7b8880045d6396a86c803","64afc2c9a8732ea92db0087d","64afd4da86741f149b94fe7f","null","null","<p style=""font-size: 60px; font-family: BACS"">lCbcmBCD</p>","","","","","","","",""
"html-keyboard-response","180","215881","0.0-11.0-0.11","5fb7b8880045d6396a86c803","64afc2c9a8732ea92db0087d","64afd4da86741f149b94fe7f","null","null","<p style=""font-size: 60px; font-family: BACS"">COTKCdt</p>","","","","","","","",""
"html-keyboard-response","181","216882","0.0-11.0-0.12","5fb7b8880045d6396a86c803","64afc2c9a8732ea92db0087d","64afd4da86741f149b94fe7f","null","null","<p style=""font-size: 60px; font-family: BACS"">JmvmOcbm</p>","","","","","","","",""
"html-keyboard-response","182","217883","0.0-11.0-0.13","5fb7b8880045d6396a86c803","64afc2c9a8732ea92db0087d","64afd4da86741f149b94fe7f","null","null","<p style=""font-size: 60px; font-family: BACS"">DCmhCMdP</p>","","","","","","","",""
"html-keyboard-response","183","218884","0.0-11.0-0.14","5fb7b8880045d6396a86c803","64afc2c9a8732ea92db0087d","64afd4da86741f149b94fe7f","null","null","<p style=""font-size: 60px; font-family: BACS"">lAOKMAPT</p>","","","","","","","",""
"html-keyboard-response","184","219885","0.0-11.0-0.15","5fb7b8880045d6396a86c803","64afc2c9a8732ea92db0087d","64afd4da86741f149b94fe7f","null","null","<p style=""font-size: 60px; font-family: BACS"">YLQmGNUZ</p>","","","","","","","",""
"html-keyboard-response","185","220886","0.0-11.0-0.16","5fb7b8880045d6396a86c803","64afc2c9a8732ea92db0087d","64afd4da86741f149b94fe7f","null","null","<p style=""font-size: 60px; font-family: BACS"">UAcducbm</p>","","","","","","","",""
"html-keyboard-response","186","221902","0.0-11.0-0.17","5fb7b8880045d6396a86c803","64afc2c9a8732ea92db0087d","64afd4da86741f149b94fe7f","null","null","<p style=""font-size: 60px; font-family: BACS"">uQkrdQru</p>","","","","","","","",""
"html-keyboard-response","187","222910","0.0-11.0-0.18","5fb7b8880045d6396a86c803","64afc2c9a8732ea92db0087d","64afd4da86741f149b94fe7f","null","null","<p style=""font-size: 60px; font-family: BACS"">lCbcmDKP</p>","","","","","","","",""
"html-keyboard-response","188","223918","0.0-11.0-0.19","5fb7b8880045d6396a86c803","64afc2c9a8732ea92db0087d","64afd4da86741f149b94fe7f","null","null","<p style=""font-size: 60px; font-family: BACS"">YJLcAQONk</p>","","","","","","","",""
"html-keyboard-response","189","224922","0.0-11.0-0.20","5fb7b8880045d6396a86c803","64afc2c9a8732ea92db0087d","64afd4da86741f149b94fe7f","null","null","<p style=""font-size: 60px; font-family: BACS"">YcdOQru</p>","","","","","","","",""
"html-keyboard-response","190","225938","0.0-11.0-0.21","5fb7b8880045d6396a86c803","64afc2c9a8732ea92db0087d","64afd4da86741f149b94fe7f","null","null","<p style=""font-size: 60px; font-family: BACS"">uQkrdNUZ</p>","","","","","","","",""
"html-keyboard-response","191","226954","0.0-11.0-0.22","5fb7b8880045d6396a86c803","64afc2c9a8732ea92db0087d","64afd4da86741f149b94fe7f","null","null","<p style=""font-size: 60px; font-family: BACS"">OcYMAPT</p>","","","","","","","",""
"html-keyboard-response","192","227955","0.0-11.0-0.23","5fb7b8880045d6396a86c803","64afc2c9a8732ea92db0087d","64afd4da86741f149b94fe7f","null","null","<p style=""font-size: 60px; font-family: BACS"">JmvmONUZ</p>","","","","","","","",""
"html-keyboard-response","193","228959","0.0-11.0-0.24","5fb7b8880045d6396a86c803","64afc2c9a8732ea92db0087d","64afd4da86741f149b94fe7f","null","null","<p style=""font-size: 60px; font-family: BACS"">YLQmGQru</p>","","","","","","","",""
"html-keyboard-response","194","229960","0.0-11.0-0.25","5fb7b8880045d6396a86c803","64afc2c9a8732ea92db0087d","64afd4da86741f149b94fe7f","null","null","<p style=""font-size: 60px; font-family: BACS"">YJLcANUZ</p>","","","","","","","",""
"html-keyboard-response","195","230961","0.0-11.0-0.26","5fb7b8880045d6396a86c803","64afc2c9a8732ea92db0087d","64afd4da86741f149b94fe7f","null","null","<p style=""font-size: 60px; font-family: BACS"">OtlRCdt</p>","","","","","","","",""
"html-keyboard-response","196","231962","0.0-11.0-0.27","5fb7b8880045d6396a86c803","64afc2c9a8732ea92db0087d","64afd4da86741f149b94fe7f","null","null","<p style=""font-size: 60px; font-family: BACS"">YLQmGcbm</p>","","","","","","","",""
"html-keyboard-response","197","232963","0.0-11.0-0.28","5fb7b8880045d6396a86c803","64afc2c9a8732ea92db0087d","64afd4da86741f149b94fe7f","null","null","<p style=""font-size: 60px; font-family: BACS"">COTKDKP</p>","","","","","","","",""
"html-keyboard-response","198","233963","0.0-11.0-0.29","5fb7b8880045d6396a86c803","64afc2c9a8732ea92db0087d","64afd4da86741f149b94fe7f","null","null","<p style=""font-size: 60px; font-family: BACS"">lAOKMBCD</p>","","","","","","","",""
"html-keyboard-response","199","234964","0.0-11.0-0.30","5fb7b8880045d6396a86c803","64afc2c9a8732ea92db0087d","64afd4da86741f149b94fe7f","null","null","<p style=""font-size: 60px; font-family: BACS"">lCbcmAPT</p>","","","","","","","",""
"html-keyboard-response","200","235965","0.0-11.0-0.31","5fb7b8880045d6396a86c803","64afc2c9a8732ea92db0087d","64afd4da86741f149b94fe7f","null","null","<p style=""font-size: 60px; font-family: BACS"">OtlRBCD</p>","","","","","","","",""
"html-keyboard-response","201","236965","0.0-11.0-0.32","5fb7b8880045d6396a86c803","64afc2c9a8732ea92db0087d","64afd4da86741f149b94fe7f","null","null","<p style=""font-size: 60px; font-family: BACS"">uQkrdvAvb</p>","","","","","","","",""
"html-keyboard-response","202","237967","0.0-11.0-0.33","5fb7b8880045d6396a86c803","64afc2c9a8732ea92db0087d","64afd4da86741f149b94fe7f","null","null","<p style=""font-size: 60px; font-family: BACS"">TPCbAPT</p>","","","","","","","",""
"html-keyboard-response","203","238968","0.0-11.0-0.34","5fb7b8880045d6396a86c803","64afc2c9a8732ea92db0087d","64afd4da86741f149b94fe7f","null","null","<p style=""font-size: 60px; font-family: BACS"">ldAaQONk</p>","","","","","","","",""
"html-keyboard-response","204","239969","0.0-11.0-0.35","5fb7b8880045d6396a86c803","64afc2c9a8732ea92db0087d","64afd4da86741f149b94fe7f","null","null","<p style=""font-size: 60px; font-family: BACS"">YcdOvAvb</p>","","","","","","","",""
"html-keyboard-response","205","240969","0.0-11.0-0.36","5fb7b8880045d6396a86c803","64afc2c9a8732ea92db0087d","64afd4da86741f149b94fe7f","null","null","<p style=""font-size: 60px; font-family: BACS"">TPCbCMdP</p>","","","","","","","",""
"html-keyboard-response","206","241970","0.0-11.0-0.37","5fb7b8880045d6396a86c803","64afc2c9a8732ea92db0087d","64afd4da86741f149b94fe7f","null","null","<p style=""font-size: 60px; font-family: BACS"">YcdOcbm</p>","","","","","","","",""
"html-keyboard-response","207","242972","0.0-11.0-0.38","5fb7b8880045d6396a86c803","64afc2c9a8732ea92db0087d","64afd4da86741f149b94fe7f","null","null","<p style=""font-size: 60px; font-family: BACS"">JmvmOQONk</p>","","","","","","","",""
"html-keyboard-response","208","243975","0.0-11.0-0.39","5fb7b8880045d6396a86c803","64afc2c9a8732ea92db0087d","64afd4da86741f149b94fe7f","null","null","<p style=""font-size: 60px; font-family: BACS"">vAarQru</p>","","","","","","","",""
"html-keyboard-response","209","244976","0.0-11.0-0.40","5fb7b8880045d6396a86c803","64afc2c9a8732ea92db0087d","64afd4da86741f149b94fe7f","null","null","<p style=""font-size: 60px; font-family: BACS"">KMOcBCD</p>","","","","","","","",""
"html-keyboard-response","210","245977","0.0-11.0-0.41","5fb7b8880045d6396a86c803","64afc2c9a8732ea92db0087d","64afd4da86741f149b94fe7f","null","null","<p style=""font-size: 60px; font-family: BACS"">COTKAPT</p>","","","","","","","",""
"html-keyboard-response","211","246993","0.0-11.0-0.42","5fb7b8880045d6396a86c803","64afc2c9a8732ea92db0087d","64afd4da86741f149b94fe7f","null","null","<p style=""font-size: 60px; font-family: BACS"">OcYMCMdP</p>","","","","","","","",""
"html-keyboard-response","212","247995","0.0-11.0-0.43","5fb7b8880045d6396a86c803","64afc2c9a8732ea92db0087d","64afd4da86741f149b94fe7f","null","null","<p style=""font-size: 60px; font-family: BACS"">KMOcCdt</p>","","","","","","","",""
"html-keyboard-response","213","248996","0.0-11.0-0.44","5fb7b8880045d6396a86c803","64afc2c9a8732ea92db0087d","64afd4da86741f149b94fe7f","null","null","<p style=""font-size: 60px; font-family: BACS"">UAcduNUZ</p>","","","","","","","",""
"html-keyboard-response","214","249997","0.0-11.0-0.45","5fb7b8880045d6396a86c803","64afc2c9a8732ea92db0087d","64afd4da86741f149b94fe7f","null","null","<p style=""font-size: 60px; font-family: BACS"">lAOKMCdt</p>","","","","","","","",""
"html-keyboard-response","215","250998","0.0-11.0-0.46","5fb7b8880045d6396a86c803","64afc2c9a8732ea92db0087d","64afd4da86741f149b94fe7f","null","null","<p style=""font-size: 60px; font-family: BACS"">COTKCMdP</p>","","","","","","","",""
"html-keyboard-response","216","252007","0.0-11.0-0.47","5fb7b8880045d6396a86c803","64afc2c9a8732ea92db0087d","64afd4da86741f149b94fe7f","null","null","<p style=""font-size: 60px; font-family: BACS"">ldAavAvb</p>","","","","","","","",""
"html-keyboard-response","217","253008","0.0-11.0-0.48","5fb7b8880045d6396a86c803","64afc2c9a8732ea92db0087d","64afd4da86741f149b94fe7f","null","null","<p style=""font-size: 60px; font-family: BACS"">EYtYRDKP</p>","","","","","","","",""
"html-keyboard-response","218","254008","0.0-11.0-0.49","5fb7b8880045d6396a86c803","64afc2c9a8732ea92db0087d","64afd4da86741f149b94fe7f","null","null","<p style=""font-size: 60px; font-family: BACS"">tcYbdBCD</p>","","","","","","","",""
"html-keyboard-response","219","255010","0.0-11.0-0.50","5fb7b8880045d6396a86c803","64afc2c9a8732ea92db0087d","64afd4da86741f149b94fe7f","null","null","<p style=""font-size: 60px; font-family: BACS"">EYtYRCdt</p>","","","","","","","",""
"html-keyboard-response","220","256012","0.0-11.0-0.51","5fb7b8880045d6396a86c803","64afc2c9a8732ea92db0087d","64afd4da86741f149b94fe7f","null","null","<p style=""font-size: 60px; font-family: BACS"">UAcduvAvb</p>","","","","","","","",""
"html-keyboard-response","221","257014","0.0-11.0-0.52","5fb7b8880045d6396a86c803","64afc2c9a8732ea92db0087d","64afd4da86741f149b94fe7f","null","null","<p style=""font-size: 60px; font-family: BACS"">OtlRCMdP</p>","","","","","","","",""
"html-keyboard-response","222","258015","0.0-11.0-0.53","5fb7b8880045d6396a86c803","64afc2c9a8732ea92db0087d","64afd4da86741f149b94fe7f","null","null","<p style=""font-size: 60px; font-family: BACS"">YJkbvAvb</p>","","","","","","","",""
"html-keyboard-response","223","259025","0.0-11.0-0.54","5fb7b8880045d6396a86c803","64afc2c9a8732ea92db0087d","64afd4da86741f149b94fe7f","null","null","<p style=""font-size: 60px; font-family: BACS"">vuJZuQru</p>","","","","","","","",""
"html-keyboard-response","224","260027","0.0-11.0-0.55","5fb7b8880045d6396a86c803","64afc2c9a8732ea92db0087d","64afd4da86741f149b94fe7f","null","null","<p style=""font-size: 60px; font-family: BACS"">YcdONUZ</p>","","","","","","","",""
"html-keyboard-response","225","261028","0.0-11.0-0.56","5fb7b8880045d6396a86c803","64afc2c9a8732ea92db0087d","64afd4da86741f149b94fe7f","null","null","<p style=""font-size: 60px; font-family: BACS"">vAarvAvb</p>","","","","","","","",""
"html-keyboard-response","226","262029","0.0-11.0-0.57","5fb7b8880045d6396a86c803","64afc2c9a8732ea92db0087d","64afd4da86741f149b94fe7f","null","null","<p style=""font-size: 60px; font-family: BACS"">EYtYRCMdP</p>","","","","","","","",""
"html-keyboard-response","227","263033","0.0-11.0-0.58","5fb7b8880045d6396a86c803","64afc2c9a8732ea92db0087d","64afd4da86741f149b94fe7f","null","null","<p style=""font-size: 60px; font-family: BACS"">DCmhAPT</p>","","","","","","","",""
"html-keyboard-response","228","264033","0.0-11.0-0.59","5fb7b8880045d6396a86c803","64afc2c9a8732ea92db0087d","64afd4da86741f149b94fe7f","null","null","<p style=""font-size: 60px; font-family: BACS"">YJkbcbm</p>","","","","","","","",""
"html-keyboard-response","229","265035","0.0-11.0-0.60","5fb7b8880045d6396a86c803","64afc2c9a8732ea92db0087d","64afd4da86741f149b94fe7f","null","null","<p style=""font-size: 60px; font-family: BACS"">UAcduQONk</p>","","","","","","","",""
"html-keyboard-response","230","266036","0.0-11.0-0.61","5fb7b8880045d6396a86c803","64afc2c9a8732ea92db0087d","64afd4da86741f149b94fe7f","null","null","<p style=""font-size: 60px; font-family: BACS"">tcYbdDKP</p>","","","","","","","",""
"html-keyboard-response","231","267037","0.0-11.0-0.62","5fb7b8880045d6396a86c803","64afc2c9a8732ea92db0087d","64afd4da86741f149b94fe7f","null","null","<p style=""font-size: 60px; font-family: BACS"">uQkrdQONk</p>","","","","","","","",""
"html-keyboard-response","232","268039","0.0-11.0-0.63","5fb7b8880045d6396a86c803","64afc2c9a8732ea92db0087d","64afd4da86741f149b94fe7f","null","null","<p style=""font-size: 60px; font-family: BACS"">JmvmOvAvb</p>","","","","","","","",""
"html-keyboard-response","233","269040","0.0-11.0-0.64","5fb7b8880045d6396a86c803","64afc2c9a8732ea92db0087d","64afd4da86741f149b94fe7f","null","null","<p style=""font-size: 60px; font-family: BACS"">vuJZucbm</p>","","","","","","","",""
"html-keyboard-response","234","270041","0.0-11.0-0.65","5fb7b8880045d6396a86c803","64afc2c9a8732ea92db0087d","64afd4da86741f149b94fe7f","null","null","<p style=""font-size: 60px; font-family: BACS"">ldAaNUZ</p>","","","","","","","",""
"html-keyboard-response","235","271042","0.0-11.0-0.66","5fb7b8880045d6396a86c803","64afc2c9a8732ea92db0087d","64afd4da86741f149b94fe7f","null","null","<p style=""font-size: 60px; font-family: BACS"">YJLcAcbm</p>","","","","","","","",""
"html-keyboard-response","236","272052","0.0-11.0-0.67","5fb7b8880045d6396a86c803","64afc2c9a8732ea92db0087d","64afd4da86741f149b94fe7f","null","null","<p style=""font-size: 60px; font-family: BACS"">lAOKMDKP</p>","","","","","","","",""
"html-keyboard-response","237","273053","0.0-11.0-0.68","5fb7b8880045d6396a86c803","64afc2c9a8732ea92db0087d","64afd4da86741f149b94fe7f","null","null","<p style=""font-size: 60px; font-family: BACS"">DCmhCdt</p>","","","","","","","",""
"html-keyboard-response","238","274063","0.0-11.0-0.69","5fb7b8880045d6396a86c803","64afc2c9a8732ea92db0087d","64afd4da86741f149b94fe7f","null","null","<p style=""font-size: 60px; font-family: BACS"">KMOcCMdP</p>","","","","","","","",""
"html-keyboard-response","239","275069","0.0-11.0-0.70","5fb7b8880045d6396a86c803","64afc2c9a8732ea92db0087d","64afd4da86741f149b94fe7f","null","null","<p style=""font-size: 60px; font-family: BACS"">tcYbdAPT</p>","","","","","","","",""
"html-keyboard-response","240","276070","0.0-11.0-0.71","5fb7b8880045d6396a86c803","64afc2c9a8732ea92db0087d","64afd4da86741f149b94fe7f","null","null","<p style=""font-size: 60px; font-family: BACS"">vuJZuQONk</p>","","","","","","","",""
"html-keyboard-response","241","277071","0.0-11.0-0.72","5fb7b8880045d6396a86c803","64afc2c9a8732ea92db0087d","64afd4da86741f149b94fe7f","null","null","<p style=""font-size: 60px; font-family: BACS"">KMOcAPT</p>","","","","","","","",""
"html-keyboard-response","242","278072","0.0-11.0-0.73","5fb7b8880045d6396a86c803","64afc2c9a8732ea92db0087d","64afd4da86741f149b94fe7f","null","null","<p style=""font-size: 60px; font-family: BACS"">ldAaQru</p>","","","","","","","",""
"html-keyboard-response","243","279073","0.0-11.0-0.74","5fb7b8880045d6396a86c803","64afc2c9a8732ea92db0087d","64afd4da86741f149b94fe7f","null","null","<p style=""font-size: 60px; font-family: BACS"">vAarcbm</p>","","","","","","","",""
"html-keyboard-response","244","280074","0.0-11.0-0.75","5fb7b8880045d6396a86c803","64afc2c9a8732ea92db0087d","64afd4da86741f149b94fe7f","null","null","<p style=""font-size: 60px; font-family: BACS"">OcYMDKP</p>","","","","","","","",""
"html-keyboard-response","245","281075","0.0-11.0-0.76","5fb7b8880045d6396a86c803","64afc2c9a8732ea92db0087d","64afd4da86741f149b94fe7f","null","null","<p style=""font-size: 60px; font-family: BACS"">YJLcAQru</p>","","","","","","","",""
"html-keyboard-response","246","282076","0.0-11.0-0.77","5fb7b8880045d6396a86c803","64afc2c9a8732ea92db0087d","64afd4da86741f149b94fe7f","null","null","<p style=""font-size: 60px; font-family: BACS"">tcYbdCdt</p>","","","","","","","",""
"html-keyboard-response","247","283077","0.0-11.0-0.78","5fb7b8880045d6396a86c803","64afc2c9a8732ea92db0087d","64afd4da86741f149b94fe7f","null","null","<p style=""font-size: 60px; font-family: BACS"">vAarQONk</p>","","","","","","","",""
"html-keyboard-response","248","284089","0.0-11.0-0.79","5fb7b8880045d6396a86c803","64afc2c9a8732ea92db0087d","64afd4da86741f149b94fe7f","null","null","<p style=""font-size: 60px; font-family: BACS"">TPCbBCD</p>","","","","","","","",""
"html-keyboard-response","249","356196","0.0-12.0","5fb7b8880045d6396a86c803","64afc2c9a8732ea92db0087d","64afd4da86741f149b94fe7f","72107"," ","<p>Ottimo, hai visto il terzo blocco di parole. Ora puoi prenderti una piccola pausa.</p>
      <p>Premi la barra quando sei pronta/o per riprendere.</p>","","","","","","","",""
"html-keyboard-response","250","357201","0.0-13.0-0.0","5fb7b8880045d6396a86c803","64afc2c9a8732ea92db0087d","64afd4da86741f149b94fe7f","null","null","<p style=""font-size: 60px; font-family: BACS"">YcdOvAvb</p>","","","","","","","",""
"html-keyboard-response","251","358207","0.0-13.0-0.1","5fb7b8880045d6396a86c803","64afc2c9a8732ea92db0087d","64afd4da86741f149b94fe7f","null","null","<p style=""font-size: 60px; font-family: BACS"">vuJZucbm</p>","","","","","","","",""
"html-keyboard-response","252","359214","0.0-13.0-0.2","5fb7b8880045d6396a86c803","64afc2c9a8732ea92db0087d","64afd4da86741f149b94fe7f","null","null","<p style=""font-size: 60px; font-family: BACS"">TPCbCMdP</p>","","","","","","","",""
"html-keyboard-response","253","360230","0.0-13.0-0.3","5fb7b8880045d6396a86c803","64afc2c9a8732ea92db0087d","64afd4da86741f149b94fe7f","null","null","<p style=""font-size: 60px; font-family: BACS"">KMOcCdt</p>","","","","","","","",""
"html-keyboard-response","254","361238","0.0-13.0-0.4","5fb7b8880045d6396a86c803","64afc2c9a8732ea92db0087d","64afd4da86741f149b94fe7f","null","null","<p style=""font-size: 60px; font-family: BACS"">OtlRBCD</p>","","","","","","","",""
"html-keyboard-response","255","362239","0.0-13.0-0.5","5fb7b8880045d6396a86c803","64afc2c9a8732ea92db0087d","64afd4da86741f149b94fe7f","null","null","<p style=""font-size: 60px; font-family: BACS"">COTKDKP</p>","","","","","","","",""
"html-keyboard-response","256","363241","0.0-13.0-0.6","5fb7b8880045d6396a86c803","64afc2c9a8732ea92db0087d","64afd4da86741f149b94fe7f","null","null","<p style=""font-size: 60px; font-family: BACS"">vAarcbm</p>","","","","","","","",""
"html-keyboard-response","257","364246","0.0-13.0-0.7","5fb7b8880045d6396a86c803","64afc2c9a8732ea92db0087d","64afd4da86741f149b94fe7f","null","null","<p style=""font-size: 60px; font-family: BACS"">YLQmGNUZ</p>","","","","","","","",""
"html-keyboard-response","258","365261","0.0-13.0-0.8","5fb7b8880045d6396a86c803","64afc2c9a8732ea92db0087d","64afd4da86741f149b94fe7f","null","null","<p style=""font-size: 60px; font-family: BACS"">ldAaQru</p>","","","","","","","",""
"html-keyboard-response","259","366274","0.0-13.0-0.9","5fb7b8880045d6396a86c803","64afc2c9a8732ea92db0087d","64afd4da86741f149b94fe7f","null","null","<p style=""font-size: 60px; font-family: BACS"">tcYbdAPT</p>","","","","","","","",""
"html-keyboard-response","260","367278","0.0-13.0-0.10","5fb7b8880045d6396a86c803","64afc2c9a8732ea92db0087d","64afd4da86741f149b94fe7f","null","null","<p style=""font-size: 60px; font-family: BACS"">UAcducbm</p>","","","","","","","",""
"html-keyboard-response","261","368285","0.0-13.0-0.11","5fb7b8880045d6396a86c803","64afc2c9a8732ea92db0087d","64afd4da86741f149b94fe7f","null","null","<p style=""font-size: 60px; font-family: BACS"">TPCbBCD</p>","","","","","","","",""
"html-keyboard-response","262","369289","0.0-13.0-0.12","5fb7b8880045d6396a86c803","64afc2c9a8732ea92db0087d","64afd4da86741f149b94fe7f","null","null","<p style=""font-size: 60px; font-family: BACS"">DCmhDKP</p>","","","","","","","",""
"html-keyboard-response","263","370298","0.0-13.0-0.13","5fb7b8880045d6396a86c803","64afc2c9a8732ea92db0087d","64afd4da86741f149b94fe7f","null","null","<p style=""font-size: 60px; font-family: BACS"">ldAaQONk</p>","","","","","","","",""
"html-keyboard-response","264","371313","0.0-13.0-0.14","5fb7b8880045d6396a86c803","64afc2c9a8732ea92db0087d","64afd4da86741f149b94fe7f","null","null","<p style=""font-size: 60px; font-family: BACS"">YJkbcbm</p>","","","","","","","",""
"html-keyboard-response","265","372313","0.0-13.0-0.15","5fb7b8880045d6396a86c803","64afc2c9a8732ea92db0087d","64afd4da86741f149b94fe7f","null","null","<p style=""font-size: 60px; font-family: BACS"">JmvmONUZ</p>","","","","","","","",""
"html-keyboard-response","266","373323","0.0-13.0-0.16","5fb7b8880045d6396a86c803","64afc2c9a8732ea92db0087d","64afd4da86741f149b94fe7f","null","null","<p style=""font-size: 60px; font-family: BACS"">tcYbdDKP</p>","","","","","","","",""
"html-keyboard-response","267","374336","0.0-13.0-0.17","5fb7b8880045d6396a86c803","64afc2c9a8732ea92db0087d","64afd4da86741f149b94fe7f","null","null","<p style=""font-size: 60px; font-family: BACS"">JmvmOvAvb</p>","","","","","","","",""
"html-keyboard-response","268","375350","0.0-13.0-0.18","5fb7b8880045d6396a86c803","64afc2c9a8732ea92db0087d","64afd4da86741f149b94fe7f","null","null","<p style=""font-size: 60px; font-family: BACS"">vAarQru</p>","","","","","","","",""
"html-keyboard-response","269","376365","0.0-13.0-0.19","5fb7b8880045d6396a86c803","64afc2c9a8732ea92db0087d","64afd4da86741f149b94fe7f","null","null","<p style=""font-size: 60px; font-family: BACS"">DCmhCMdP</p>","","","","","","","",""
"html-keyboard-response","270","377378","0.0-13.0-0.20","5fb7b8880045d6396a86c803","64afc2c9a8732ea92db0087d","64afd4da86741f149b94fe7f","null","null","<p style=""font-size: 60px; font-family: BACS"">EYtYRCdt</p>","","","","","","","",""
"html-keyboard-response","271","378394","0.0-13.0-0.21","5fb7b8880045d6396a86c803","64afc2c9a8732ea92db0087d","64afd4da86741f149b94fe7f","null","null","<p style=""font-size: 60px; font-family: BACS"">YJLcAQONk</p>","","","","","","","",""
"html-keyboard-response","272","379408","0.0-13.0-0.22","5fb7b8880045d6396a86c803","64afc2c9a8732ea92db0087d","64afd4da86741f149b94fe7f","null","null","<p style=""font-size: 60px; font-family: BACS"">YcdOcbm</p>","","","","","","","",""
"html-keyboard-response","273","380416","0.0-13.0-0.23","5fb7b8880045d6396a86c803","64afc2c9a8732ea92db0087d","64afd4da86741f149b94fe7f","null","null","<p style=""font-size: 60px; font-family: BACS"">YJLcAQru</p>","","","","","","","",""
"html-keyboard-response","274","381418","0.0-13.0-0.24","5fb7b8880045d6396a86c803","64afc2c9a8732ea92db0087d","64afd4da86741f149b94fe7f","null","null","<p style=""font-size: 60px; font-family: BACS"">OtlRDKP</p>","","","","","","","",""
"html-keyboard-response","275","382423","0.0-13.0-0.25","5fb7b8880045d6396a86c803","64afc2c9a8732ea92db0087d","64afd4da86741f149b94fe7f","null","null","<p style=""font-size: 60px; font-family: BACS"">vAarvAvb</p>","","","","","","","",""
"html-keyboard-response","276","383426","0.0-13.0-0.26","5fb7b8880045d6396a86c803","64afc2c9a8732ea92db0087d","64afd4da86741f149b94fe7f","null","null","<p style=""font-size: 60px; font-family: BACS"">COTKCMdP</p>","","","","","","","",""
"html-keyboard-response","277","384439","0.0-13.0-0.27","5fb7b8880045d6396a86c803","64afc2c9a8732ea92db0087d","64afd4da86741f149b94fe7f","null","null","<p style=""font-size: 60px; font-family: BACS"">TPCbAPT</p>","","","","","","","",""
"html-keyboard-response","278","385453","0.0-13.0-0.28","5fb7b8880045d6396a86c803","64afc2c9a8732ea92db0087d","64afd4da86741f149b94fe7f","null","null","<p style=""font-size: 60px; font-family: BACS"">lCbcmCMdP</p>","","","","","","","",""
"html-keyboard-response","279","386465","0.0-13.0-0.29","5fb7b8880045d6396a86c803","64afc2c9a8732ea92db0087d","64afd4da86741f149b94fe7f","null","null","<p style=""font-size: 60px; font-family: BACS"">YJkbvAvb</p>","","","","","","","",""
"html-keyboard-response","280","387480","0.0-13.0-0.30","5fb7b8880045d6396a86c803","64afc2c9a8732ea92db0087d","64afd4da86741f149b94fe7f","null","null","<p style=""font-size: 60px; font-family: BACS"">KMOcBCD</p>","","","","","","","",""
"html-keyboard-response","281","388482","0.0-13.0-0.31","5fb7b8880045d6396a86c803","64afc2c9a8732ea92db0087d","64afd4da86741f149b94fe7f","null","null","<p style=""font-size: 60px; font-family: BACS"">uQkrdNUZ</p>","","","","","","","",""
"html-keyboard-response","282","389487","0.0-13.0-0.32","5fb7b8880045d6396a86c803","64afc2c9a8732ea92db0087d","64afd4da86741f149b94fe7f","null","null","<p style=""font-size: 60px; font-family: BACS"">JmvmOcbm</p>","","","","","","","",""
"html-keyboard-response","283","390494","0.0-13.0-0.33","5fb7b8880045d6396a86c803","64afc2c9a8732ea92db0087d","64afd4da86741f149b94fe7f","null","null","<p style=""font-size: 60px; font-family: BACS"">YcdOQru</p>","","","","","","","",""
"html-keyboard-response","284","391496","0.0-13.0-0.34","5fb7b8880045d6396a86c803","64afc2c9a8732ea92db0087d","64afd4da86741f149b94fe7f","null","null","<p style=""font-size: 60px; font-family: BACS"">OtlRCMdP</p>","","","","","","","",""
"html-keyboard-response","285","392513","0.0-13.0-0.35","5fb7b8880045d6396a86c803","64afc2c9a8732ea92db0087d","64afd4da86741f149b94fe7f","null","null","<p style=""font-size: 60px; font-family: BACS"">lCbcmBCD</p>","","","","","","","",""
"html-keyboard-response","286","393515","0.0-13.0-0.36","5fb7b8880045d6396a86c803","64afc2c9a8732ea92db0087d","64afd4da86741f149b94fe7f","null","null","<p style=""font-size: 60px; font-family: BACS"">COTKAPT</p>","","","","","","","",""
"html-keyboard-response","287","394516","0.0-13.0-0.37","5fb7b8880045d6396a86c803","64afc2c9a8732ea92db0087d","64afd4da86741f149b94fe7f","null","null","<p style=""font-size: 60px; font-family: BACS"">YLQmGcbm</p>","","","","","","","",""
"html-keyboard-response","288","395521","0.0-13.0-0.38","5fb7b8880045d6396a86c803","64afc2c9a8732ea92db0087d","64afd4da86741f149b94fe7f","null","null","<p style=""font-size: 60px; font-family: BACS"">ldAavAvb</p>","","","","","","","",""
"html-keyboard-response","289","396526","0.0-13.0-0.39","5fb7b8880045d6396a86c803","64afc2c9a8732ea92db0087d","64afd4da86741f149b94fe7f","null","null","<p style=""font-size: 60px; font-family: BACS"">OcYMCMdP</p>","","","","","","","",""
"html-keyboard-response","290","397528","0.0-13.0-0.40","5fb7b8880045d6396a86c803","64afc2c9a8732ea92db0087d","64afd4da86741f149b94fe7f","null","null","<p style=""font-size: 60px; font-family: BACS"">lAOKMBCD</p>","","","","","","","",""
"html-keyboard-response","291","398532","0.0-13.0-0.41","5fb7b8880045d6396a86c803","64afc2c9a8732ea92db0087d","64afd4da86741f149b94fe7f","null","null","<p style=""font-size: 60px; font-family: BACS"">UAcduvAvb</p>","","","","","","","",""
"html-keyboard-response","292","399536","0.0-13.0-0.42","5fb7b8880045d6396a86c803","64afc2c9a8732ea92db0087d","64afd4da86741f149b94fe7f","null","null","<p style=""font-size: 60px; font-family: BACS"">vuJZuQONk</p>","","","","","","","",""
"html-keyboard-response","293","400540","0.0-13.0-0.43","5fb7b8880045d6396a86c803","64afc2c9a8732ea92db0087d","64afd4da86741f149b94fe7f","null","null","<p style=""font-size: 60px; font-family: BACS"">OtlRCdt</p>","","","","","","","",""
"html-keyboard-response","294","401542","0.0-13.0-0.44","5fb7b8880045d6396a86c803","64afc2c9a8732ea92db0087d","64afd4da86741f149b94fe7f","null","null","<p style=""font-size: 60px; font-family: BACS"">uQkrdvAvb</p>","","","","","","","",""
"html-keyboard-response","295","402543","0.0-13.0-0.45","5fb7b8880045d6396a86c803","64afc2c9a8732ea92db0087d","64afd4da86741f149b94fe7f","null","null","<p style=""font-size: 60px; font-family: BACS"">EYtYRCMdP</p>","","","","","","","",""
"html-keyboard-response","296","403544","0.0-13.0-0.46","5fb7b8880045d6396a86c803","64afc2c9a8732ea92db0087d","64afd4da86741f149b94fe7f","null","null","<p style=""font-size: 60px; font-family: BACS"">vAarQONk</p>","","","","","","","",""
"html-keyboard-response","297","404552","0.0-13.0-0.47","5fb7b8880045d6396a86c803","64afc2c9a8732ea92db0087d","64afd4da86741f149b94fe7f","null","null","<p style=""font-size: 60px; font-family: BACS"">OcYMBCD</p>","","","","","","","",""
"html-keyboard-response","298","405568","0.0-13.0-0.48","5fb7b8880045d6396a86c803","64afc2c9a8732ea92db0087d","64afd4da86741f149b94fe7f","null","null","<p style=""font-size: 60px; font-family: BACS"">UAcduQONk</p>","","","","","","","",""
"html-keyboard-response","299","406569","0.0-13.0-0.49","5fb7b8880045d6396a86c803","64afc2c9a8732ea92db0087d","64afd4da86741f149b94fe7f","null","null","<p style=""font-size: 60px; font-family: BACS"">lAOKMCdt</p>","","","","","","","",""
"html-keyboard-response","300","407570","0.0-13.0-0.50","5fb7b8880045d6396a86c803","64afc2c9a8732ea92db0087d","64afd4da86741f149b94fe7f","null","null","<p style=""font-size: 60px; font-family: BACS"">vuJZuvAvb</p>","","","","","","","",""
"html-keyboard-response","301","408576","0.0-13.0-0.51","5fb7b8880045d6396a86c803","64afc2c9a8732ea92db0087d","64afd4da86741f149b94fe7f","null","null","<p style=""font-size: 60px; font-family: BACS"">lCbcmDKP</p>","","","","","","","",""
"html-keyboard-response","302","409577","0.0-13.0-0.52","5fb7b8880045d6396a86c803","64afc2c9a8732ea92db0087d","64afd4da86741f149b94fe7f","null","null","<p style=""font-size: 60px; font-family: BACS"">lAOKMAPT</p>","","","","","","","",""
"html-keyboard-response","303","410577","0.0-13.0-0.53","5fb7b8880045d6396a86c803","64afc2c9a8732ea92db0087d","64afd4da86741f149b94fe7f","null","null","<p style=""font-size: 60px; font-family: BACS"">YLQmGQru</p>","","","","","","","",""
"html-keyboard-response","304","411578","0.0-13.0-0.54","5fb7b8880045d6396a86c803","64afc2c9a8732ea92db0087d","64afd4da86741f149b94fe7f","null","null","<p style=""font-size: 60px; font-family: BACS"">lAOKMDKP</p>","","","","","","","",""
"html-keyboard-response","305","412579","0.0-13.0-0.55","5fb7b8880045d6396a86c803","64afc2c9a8732ea92db0087d","64afd4da86741f149b94fe7f","null","null","<p style=""font-size: 60px; font-family: BACS"">OcYMAPT</p>","","","","","","","",""
"html-keyboard-response","306","413580","0.0-13.0-0.56","5fb7b8880045d6396a86c803","64afc2c9a8732ea92db0087d","64afd4da86741f149b94fe7f","null","null","<p style=""font-size: 60px; font-family: BACS"">JmvmOQONk</p>","","","","","","","",""
"html-keyboard-response","307","414590","0.0-13.0-0.57","5fb7b8880045d6396a86c803","64afc2c9a8732ea92db0087d","64afd4da86741f149b94fe7f","null","null","<p style=""font-size: 60px; font-family: BACS"">KMOcCMdP</p>","","","","","","","",""
"html-keyboard-response","308","415591","0.0-13.0-0.58","5fb7b8880045d6396a86c803","64afc2c9a8732ea92db0087d","64afd4da86741f149b94fe7f","null","null","<p style=""font-size: 60px; font-family: BACS"">EYtYRDKP</p>","","","","","","","",""
"html-keyboard-response","309","416592","0.0-13.0-0.59","5fb7b8880045d6396a86c803","64afc2c9a8732ea92db0087d","64afd4da86741f149b94fe7f","null","null","<p style=""font-size: 60px; font-family: BACS"">YcdONUZ</p>","","","","","","","",""
"html-keyboard-response","310","417592","0.0-13.0-0.60","5fb7b8880045d6396a86c803","64afc2c9a8732ea92db0087d","64afd4da86741f149b94fe7f","null","null","<p style=""font-size: 60px; font-family: BACS"">DCmhAPT</p>","","","","","","","",""
"html-keyboard-response","311","418594","0.0-13.0-0.61","5fb7b8880045d6396a86c803","64afc2c9a8732ea92db0087d","64afd4da86741f149b94fe7f","null","null","<p style=""font-size: 60px; font-family: BACS"">OcYMDKP</p>","","","","","","","",""
"html-keyboard-response","312","419595","0.0-13.0-0.62","5fb7b8880045d6396a86c803","64afc2c9a8732ea92db0087d","64afd4da86741f149b94fe7f","null","null","<p style=""font-size: 60px; font-family: BACS"">uQkrdQONk</p>","","","","","","","",""
"html-keyboard-response","313","420597","0.0-13.0-0.63","5fb7b8880045d6396a86c803","64afc2c9a8732ea92db0087d","64afd4da86741f149b94fe7f","null","null","<p style=""font-size: 60px; font-family: BACS"">TPCbCdt</p>","","","","","","","",""
"html-keyboard-response","314","422319","0.0-13.0-0.64","5fb7b8880045d6396a86c803","64afc2c9a8732ea92db0087d","64afd4da86741f149b94fe7f","null","null","<p style=""font-size: 60px; font-family: BACS"">lCbcmAPT</p>","","","","","","","",""
"html-keyboard-response","315","423333","0.0-13.0-0.65","5fb7b8880045d6396a86c803","64afc2c9a8732ea92db0087d","64afd4da86741f149b94fe7f","null","null","<p style=""font-size: 60px; font-family: BACS"">YJLcANUZ</p>","","","","","","","",""
"html-keyboard-response","316","425320","0.0-13.0-0.66","5fb7b8880045d6396a86c803","64afc2c9a8732ea92db0087d","64afd4da86741f149b94fe7f","null","null","<p style=""font-size: 60px; font-family: BACS"">tcYbdBCD</p>","","","","","","","",""
"html-keyboard-response","317","426335","0.0-13.0-0.67","5fb7b8880045d6396a86c803","64afc2c9a8732ea92db0087d","64afd4da86741f149b94fe7f","null","null","<p style=""font-size: 60px; font-family: BACS"">YJLcAcbm</p>","","","","","","","",""
"html-keyboard-response","318","427336","0.0-13.0-0.68","5fb7b8880045d6396a86c803","64afc2c9a8732ea92db0087d","64afd4da86741f149b94fe7f","null","null","<p style=""font-size: 60px; font-family: BACS"">ldAaNUZ</p>","","","","","","","",""
"html-keyboard-response","319","428336","0.0-13.0-0.69","5fb7b8880045d6396a86c803","64afc2c9a8732ea92db0087d","64afd4da86741f149b94fe7f","null","null","<p style=""font-size: 60px; font-family: BACS"">EYtYRBCD</p>","","","","","","","",""
"html-keyboard-response","320","429337","0.0-13.0-0.70","5fb7b8880045d6396a86c803","64afc2c9a8732ea92db0087d","64afd4da86741f149b94fe7f","null","null","<p style=""font-size: 60px; font-family: BACS"">vuJZuQru</p>","","","","","","","",""
"html-keyboard-response","321","430337","0.0-13.0-0.71","5fb7b8880045d6396a86c803","64afc2c9a8732ea92db0087d","64afd4da86741f149b94fe7f","null","null","<p style=""font-size: 60px; font-family: BACS"">YJkbNUZ</p>","","","","","","","",""
"html-keyboard-response","322","431340","0.0-13.0-0.72","5fb7b8880045d6396a86c803","64afc2c9a8732ea92db0087d","64afd4da86741f149b94fe7f","null","null","<p style=""font-size: 60px; font-family: BACS"">uQkrdQru</p>","","","","","","","",""
"html-keyboard-response","323","432342","0.0-13.0-0.73","5fb7b8880045d6396a86c803","64afc2c9a8732ea92db0087d","64afd4da86741f149b94fe7f","null","null","<p style=""font-size: 60px; font-family: BACS"">DCmhCdt</p>","","","","","","","",""
"html-keyboard-response","324","433347","0.0-13.0-0.74","5fb7b8880045d6396a86c803","64afc2c9a8732ea92db0087d","64afd4da86741f149b94fe7f","null","null","<p style=""font-size: 60px; font-family: BACS"">YJkbQru</p>","","","","","","","",""
"html-keyboard-response","325","434359","0.0-13.0-0.75","5fb7b8880045d6396a86c803","64afc2c9a8732ea92db0087d","64afd4da86741f149b94fe7f","null","null","<p style=""font-size: 60px; font-family: BACS"">YLQmGQONk</p>","","","","","","","",""
"html-keyboard-response","326","435365","0.0-13.0-0.76","5fb7b8880045d6396a86c803","64afc2c9a8732ea92db0087d","64afd4da86741f149b94fe7f","null","null","<p style=""font-size: 60px; font-family: BACS"">COTKCdt</p>","","","","","","","",""
"html-keyboard-response","327","436367","0.0-13.0-0.77","5fb7b8880045d6396a86c803","64afc2c9a8732ea92db0087d","64afd4da86741f149b94fe7f","null","null","<p style=""font-size: 60px; font-family: BACS"">KMOcAPT</p>","","","","","","","",""
"html-keyboard-response","328","437367","0.0-13.0-0.78","5fb7b8880045d6396a86c803","64afc2c9a8732ea92db0087d","64afd4da86741f149b94fe7f","null","null","<p style=""font-size: 60px; font-family: BACS"">tcYbdCdt</p>","","","","","","","",""
"html-keyboard-response","329","438378","0.0-13.0-0.79","5fb7b8880045d6396a86c803","64afc2c9a8732ea92db0087d","64afd4da86741f149b94fe7f","null","null","<p style=""font-size: 60px; font-family: BACS"">UAcduNUZ</p>","","","","","","","",""
"html-keyboard-response","330","440033","0.0-14.0","5fb7b8880045d6396a86c803","64afc2c9a8732ea92db0087d","64afd4da86741f149b94fe7f","1655"," ","<p>Ottimo! Hai visto tutte le parole che abbiamo ricevuto dallo spazio.</p>
      <p>Premi la barra quando sei pronta/o per continuare.</p>","","","","","","","",""
"html-keyboard-response","331","549515","0.0-15.0","5fb7b8880045d6396a86c803","64afc2c9a8732ea92db0087d","64afd4da86741f149b94fe7f","109481"," ","<p>In questa seconda parte, vedrai delle nuove parole che abbiamo ricevuto dallo stesso gruppo di alieni, e altre che invece provengono da un'altra comunicazione, con un altro gruppo di alieni. Purtroppo le due comunicazioni non arrivano a noi separatamente, per cui le parole sono mescolate tra loro. Il tuo compito sarà quello di individuare le parole che provengono dal gruppo che hai studiato nella prima parte dell'esperimento.</p>
      <p>Questo compito non è per nulla facile; le due comunicazioni infatti usano gli stessi caratteri. Il tuo meeting con i leader mondiali inizia tra poco, per cui non avrai molto tempo per prendere la tua decisione; dovrai essere veloce. Cerca di fare del tuo meglio usando la tua intuizione; non hai tempo di stare a pensare a lungo su ogni singola parola.</p>
      <p>Premi <strong>k</strong> quando pensi che la parola che stai vedendo sia degli stessi alieni che hai studiato prima, e <strong>d</strong> quando invece pensi che la parola che stai vedendo venga dall'altra comunicazione, con il nuovo gruppo di alieni.</p><p>Premi la barra quando sei pronta/o per iniziare.</p>","","","","","","","",""
"html-keyboard-response","332","552308","0.0-16.0-0.0","5fb7b8880045d6396a86c803","64afc2c9a8732ea92db0087d","64afd4da86741f149b94fe7f","2793","d","<p style=""font-size: 30px;"">La parola viene del gruppo di alieni che hai studiato prima?</p><br><p style=""font-size: 60px; font-family: BACS"">tcYbdcbm<p style=""font-size: 15px"">Premi <strong>k</strong> per sì, <strong>d</strong> per no.</p>","","tcYbdcbm","testing","d","true","","",""
"html-keyboard-response","333","553968","0.0-16.0-1.0-0.0","5fb7b8880045d6396a86c803","64afc2c9a8732ea92db0087d","64afd4da86741f149b94fe7f","1659"," ","<p style=""font-size: 30px; color: red"">Attenzione! Sei stato troppo lento con questa parola.</p>
      <p style=""font-size: 30px; color: red"">Cerca di essere più veloce.</p><p></p><p>Premi la barra per continuare.</p>","","","","","","","",""
"html-keyboard-response","334","555366","0.0-16.0-0.1","5fb7b8880045d6396a86c803","64afc2c9a8732ea92db0087d","64afd4da86741f149b94fe7f","1398","k","<p style=""font-size: 30px;"">La parola viene del gruppo di alieni che hai studiato prima?</p><br><p style=""font-size: 60px; font-family: BACS"">UAcduQru<p style=""font-size: 15px"">Premi <strong>k</strong> per sì, <strong>d</strong> per no.</p>","","UAcduQru","testing","k","true","","",""
"html-keyboard-response","335","556512","0.0-16.0-0.2","5fb7b8880045d6396a86c803","64afc2c9a8732ea92db0087d","64afd4da86741f149b94fe7f","1146","d","<p style=""font-size: 30px;"">La parola viene del gruppo di alieni che hai studiato prima?</p><br><p style=""font-size: 60px; font-family: BACS"">vuJZuNUZ<p style=""font-size: 15px"">Premi <strong>k</strong> per sì, <strong>d</strong> per no.</p>","","vuJZuNUZ","testing","k","false","","",""
"html-keyboard-response","336","557622","0.0-16.0-0.3","5fb7b8880045d6396a86c803","64afc2c9a8732ea92db0087d","64afd4da86741f149b94fe7f","1109","k","<p style=""font-size: 30px"">&emsp;</p><br><p style=""font-size: 60px; font-family: BACS"">lAOKMcbm<p style=""font-size: 15px"">Premi <strong>k</strong> per sì, <strong>d</strong> per no.</p>","","lAOKMcbm","testing","d","false","","",""
"html-keyboard-response","337","558800","0.0-16.0-0.4","5fb7b8880045d6396a86c803","64afc2c9a8732ea92db0087d","64afd4da86741f149b94fe7f","1178","d","<p style=""font-size: 30px"">&emsp;</p><br><p style=""font-size: 60px; font-family: BACS"">YLQmGAPT<p style=""font-size: 15px"">Premi <strong>k</strong> per sì, <strong>d</strong> per no.</p>","","YLQmGAPT","testing","d","true","","",""
"html-keyboard-response","338","559863","0.0-16.0-0.5","5fb7b8880045d6396a86c803","64afc2c9a8732ea92db0087d","64afd4da86741f149b94fe7f","1063","d","<p style=""font-size: 30px"">&emsp;</p><br><p style=""font-size: 60px; font-family: BACS"">YcdODKP<p style=""font-size: 15px"">Premi <strong>k</strong> per sì, <strong>d</strong> per no.</p>","","YcdODKP","testing","d","true","","",""
"html-keyboard-response","339","560916","0.0-16.0-0.6","5fb7b8880045d6396a86c803","64afc2c9a8732ea92db0087d","64afd4da86741f149b94fe7f","1053","k","<p style=""font-size: 30px"">&emsp;</p><br><p style=""font-size: 60px; font-family: BACS"">YJLcAAPT<p style=""font-size: 15px"">Premi <strong>k</strong> per sì, <strong>d</strong> per no.</p>","","YJLcAAPT","testing","d","false","","",""
"html-keyboard-response","340","561676","0.0-16.0-0.7","5fb7b8880045d6396a86c803","64afc2c9a8732ea92db0087d","64afd4da86741f149b94fe7f","760","d","<p style=""font-size: 30px"">&emsp;</p><br><p style=""font-size: 60px; font-family: BACS"">OcYMQru<p style=""font-size: 15px"">Premi <strong>k</strong> per sì, <strong>d</strong> per no.</p>","","OcYMQru","testing","d","true","","",""
"html-keyboard-response","341","562538","0.0-16.0-0.8","5fb7b8880045d6396a86c803","64afc2c9a8732ea92db0087d","64afd4da86741f149b94fe7f","862","k","<p style=""font-size: 30px"">&emsp;</p><br><p style=""font-size: 60px; font-family: BACS"">COTKBCD<p style=""font-size: 15px"">Premi <strong>k</strong> per sì, <strong>d</strong> per no.</p>","","COTKBCD","testing","k","true","","",""
"html-keyboard-response","342","563266","0.0-16.0-0.9","5fb7b8880045d6396a86c803","64afc2c9a8732ea92db0087d","64afd4da86741f149b94fe7f","728","k","<p style=""font-size: 30px"">&emsp;</p><br><p style=""font-size: 60px; font-family: BACS"">ldAaCMdP<p style=""font-size: 15px"">Premi <strong>k</strong> per sì, <strong>d</strong> per no.</p>","","ldAaCMdP","testing","d","false","","",""
"html-keyboard-response","343","563708","0.0-16.0-0.10","5fb7b8880045d6396a86c803","64afc2c9a8732ea92db0087d","64afd4da86741f149b94fe7f","442","d","<p style=""font-size: 30px"">&emsp;</p><br><p style=""font-size: 60px; font-family: BACS"">YJkbQONk<p style=""font-size: 15px"">Premi <strong>k</strong> per sì, <strong>d</strong> per no.</p>","","YJkbQONk","testing","k","false","","",""
"html-keyboard-response","344","564252","0.0-16.0-0.11","5fb7b8880045d6396a86c803","64afc2c9a8732ea92db0087d","64afd4da86741f149b94fe7f","544","d","<p style=""font-size: 30px"">&emsp;</p><br><p style=""font-size: 60px; font-family: BACS"">EYtYRvAvb<p style=""font-size: 15px"">Premi <strong>k</strong> per sì, <strong>d</strong> per no.</p>","","EYtYRvAvb","testing","d","true","","",""
"html-keyboard-response","345","564590","0.0-16.0-0.12","5fb7b8880045d6396a86c803","64afc2c9a8732ea92db0087d","64afd4da86741f149b94fe7f","337","k","<p style=""font-size: 30px"">&emsp;</p><br><p style=""font-size: 60px; font-family: BACS"">vAarNUZ<p style=""font-size: 15px"">Premi <strong>k</strong> per sì, <strong>d</strong> per no.</p>","","vAarNUZ","testing","k","true","","",""
"html-keyboard-response","346","565022","0.0-16.0-0.13","5fb7b8880045d6396a86c803","64afc2c9a8732ea92db0087d","64afd4da86741f149b94fe7f","432","k","<p style=""font-size: 30px"">&emsp;</p><br><p style=""font-size: 60px; font-family: BACS"">KMOcDKP<p style=""font-size: 15px"">Premi <strong>k</strong> per sì, <strong>d</strong> per no.</p>","","KMOcDKP","testing","k","true","","",""
"html-keyboard-response","347","565174","0.0-16.0-0.14","5fb7b8880045d6396a86c803","64afc2c9a8732ea92db0087d","64afd4da86741f149b94fe7f","152","d","<p style=""font-size: 30px"">&emsp;</p><br><p style=""font-size: 60px; font-family: BACS"">vuJZuBCD<p style=""font-size: 15px"">Premi <strong>k</strong> per sì, <strong>d</strong> per no.</p>","","vuJZuBCD","testing","d","true","","",""
"html-keyboard-response","348","565520","0.0-16.0-0.15","5fb7b8880045d6396a86c803","64afc2c9a8732ea92db0087d","64afd4da86741f149b94fe7f","346","k","<p style=""font-size: 30px"">&emsp;</p><br><p style=""font-size: 60px; font-family: BACS"">uQkrdCMdP<p style=""font-size: 15px"">Premi <strong>k</strong> per sì, <strong>d</strong> per no.</p>","","uQkrdCMdP","testing","d","false","","",""
"html-keyboard-response","349","565526","0.0-16.0-0.16","5fb7b8880045d6396a86c803","64afc2c9a8732ea92db0087d","64afd4da86741f149b94fe7f","6","d","<p style=""font-size: 30px"">&emsp;</p><br><p style=""font-size: 60px; font-family: BACS"">OtlRAPT<p style=""font-size: 15px"">Premi <strong>k</strong> per sì, <strong>d</strong> per no.</p>","","OtlRAPT","testing","k","false","","",""
"html-keyboard-response","350","565918","0.0-16.0-0.17","5fb7b8880045d6396a86c803","64afc2c9a8732ea92db0087d","64afd4da86741f149b94fe7f","392","d","<p style=""font-size: 30px"">&emsp;</p><br><p style=""font-size: 60px; font-family: BACS"">lCbcmCdt<p style=""font-size: 15px"">Premi <strong>k</strong> per sì, <strong>d</strong> per no.</p>","","lCbcmCdt","testing","k","false","","",""
"html-keyboard-response","351","566434","0.0-16.0-0.18","5fb7b8880045d6396a86c803","64afc2c9a8732ea92db0087d","64afd4da86741f149b94fe7f","515","k","<p style=""font-size: 30px"">&emsp;</p><br><p style=""font-size: 60px; font-family: BACS"">YLQmGvAvb<p style=""font-size: 15px"">Premi <strong>k</strong> per sì, <strong>d</strong> per no.</p>","","YLQmGvAvb","testing","k","true","","",""
"html-keyboard-response","352","566880","0.0-16.0-0.19","5fb7b8880045d6396a86c803","64afc2c9a8732ea92db0087d","64afd4da86741f149b94fe7f","446","d","<p style=""font-size: 30px"">&emsp;</p><br><p style=""font-size: 60px; font-family: BACS"">DCmhBCD<p style=""font-size: 15px"">Premi <strong>k</strong> per sì, <strong>d</strong> per no.</p>","","DCmhBCD","testing","k","false","","",""
"html-keyboard-response","353","567962","0.0-16.0-0.20","5fb7b8880045d6396a86c803","64afc2c9a8732ea92db0087d","64afd4da86741f149b94fe7f","1082","k","<p style=""font-size: 30px"">&emsp;</p><br><p style=""font-size: 60px; font-family: BACS"">UAcduCdt<p style=""font-size: 15px"">Premi <strong>k</strong> per sì, <strong>d</strong> per no.</p>","","UAcduCdt","testing","d","false","","",""
"html-keyboard-response","354","569002","0.0-16.0-0.21","5fb7b8880045d6396a86c803","64afc2c9a8732ea92db0087d","64afd4da86741f149b94fe7f","1040","d","<p style=""font-size: 30px"">&emsp;</p><br><p style=""font-size: 60px; font-family: BACS"">JmvmOQru<p style=""font-size: 15px"">Premi <strong>k</strong> per sì, <strong>d</strong> per no.</p>","","JmvmOQru","testing","k","false","","",""
"html-keyboard-response","355","569999","0.0-16.0-0.22","5fb7b8880045d6396a86c803","64afc2c9a8732ea92db0087d","64afd4da86741f149b94fe7f","997","k","<p style=""font-size: 30px"">&emsp;</p><br><p style=""font-size: 60px; font-family: BACS"">tcYbdCMdP<p style=""font-size: 15px"">Premi <strong>k</strong> per sì, <strong>d</strong> per no.</p>","","tcYbdCMdP","testing","k","true","","",""
"html-keyboard-response","356","571070","0.0-16.0-0.23","5fb7b8880045d6396a86c803","64afc2c9a8732ea92db0087d","64afd4da86741f149b94fe7f","1071","k","<p style=""font-size: 30px"">&emsp;</p><br><p style=""font-size: 60px; font-family: BACS"">YJLcAvAvb<p style=""font-size: 15px"">Premi <strong>k</strong> per sì, <strong>d</strong> per no.</p>","","YJLcAvAvb","testing","k","true","","",""
"html-keyboard-response","357","571782","0.0-16.0-0.24","5fb7b8880045d6396a86c803","64afc2c9a8732ea92db0087d","64afd4da86741f149b94fe7f","712","d","<p style=""font-size: 30px"">&emsp;</p><br><p style=""font-size: 60px; font-family: BACS"">COTKNUZ<p style=""font-size: 15px"">Premi <strong>k</strong> per sì, <strong>d</strong> per no.</p>","","COTKNUZ","testing","d","true","","",""
"html-keyboard-response","358","572890","0.0-16.0-0.25","5fb7b8880045d6396a86c803","64afc2c9a8732ea92db0087d","64afd4da86741f149b94fe7f","1108","d","<p style=""font-size: 30px"">&emsp;</p><br><p style=""font-size: 60px; font-family: BACS"">TPCbQONk<p style=""font-size: 15px"">Premi <strong>k</strong> per sì, <strong>d</strong> per no.</p>","","TPCbQONk","testing","d","true","","",""
"html-keyboard-response","359","573956","0.0-16.0-0.26","5fb7b8880045d6396a86c803","64afc2c9a8732ea92db0087d","64afd4da86741f149b94fe7f","1066","k","<p style=""font-size: 30px"">&emsp;</p><br><p style=""font-size: 60px; font-family: BACS"">lAOKMCMdP<p style=""font-size: 15px"">Premi <strong>k</strong> per sì, <strong>d</strong> per no.</p>","","lAOKMCMdP","testing","k","true","","",""
"html-keyboard-response","360","574716","0.0-16.0-0.27","5fb7b8880045d6396a86c803","64afc2c9a8732ea92db0087d","64afd4da86741f149b94fe7f","760","d","<p style=""font-size: 30px"">&emsp;</p><br><p style=""font-size: 60px; font-family: BACS"">OcYMCdt<p style=""font-size: 15px"">Premi <strong>k</strong> per sì, <strong>d</strong> per no.</p>","","OcYMCdt","testing","k","false","","",""
"html-keyboard-response","361","575634","0.0-16.0-0.28","5fb7b8880045d6396a86c803","64afc2c9a8732ea92db0087d","64afd4da86741f149b94fe7f","918","k","<p style=""font-size: 30px"">&emsp;</p><br><p style=""font-size: 60px; font-family: BACS"">YJkbDKP<p style=""font-size: 15px"">Premi <strong>k</strong> per sì, <strong>d</strong> per no.</p>","","YJkbDKP","testing","d","false","","",""
"html-keyboard-response","362","576900","0.0-16.0-0.29","5fb7b8880045d6396a86c803","64afc2c9a8732ea92db0087d","64afd4da86741f149b94fe7f","1266","d","<p style=""font-size: 30px"">&emsp;</p><br><p style=""font-size: 60px; font-family: BACS"">vAarBCD<p style=""font-size: 15px"">Premi <strong>k</strong> per sì, <strong>d</strong> per no.</p>","","vAarBCD","testing","d","true","","",""
"html-keyboard-response","363","578048","0.0-16.0-0.30","5fb7b8880045d6396a86c803","64afc2c9a8732ea92db0087d","64afd4da86741f149b94fe7f","1148","k","<p style=""font-size: 30px"">&emsp;</p><br><p style=""font-size: 60px; font-family: BACS"">TPCbDKP<p style=""font-size: 15px"">Premi <strong>k</strong> per sì, <strong>d</strong> per no.</p>","","TPCbDKP","testing","k","true","","",""
"html-keyboard-response","364","579378","0.0-16.0-0.31","5fb7b8880045d6396a86c803","64afc2c9a8732ea92db0087d","64afd4da86741f149b94fe7f","1330","d","<p style=""font-size: 30px"">&emsp;</p><br><p style=""font-size: 60px; font-family: BACS"">ldAacbm<p style=""font-size: 15px"">Premi <strong>k</strong> per sì, <strong>d</strong> per no.</p>","","ldAacbm","testing","k","false","","",""
"html-keyboard-response","365","580529","0.0-16.0-0.32","5fb7b8880045d6396a86c803","64afc2c9a8732ea92db0087d","64afd4da86741f149b94fe7f","1150","k","<p style=""font-size: 30px"">&emsp;</p><br><p style=""font-size: 60px; font-family: BACS"">YcdOQONk<p style=""font-size: 15px"">Premi <strong>k</strong> per sì, <strong>d</strong> per no.</p>","","YcdOQONk","testing","k","true","","",""
"html-keyboard-response","366","581535","0.0-16.0-0.33","5fb7b8880045d6396a86c803","64afc2c9a8732ea92db0087d","64afd4da86741f149b94fe7f","1007","d","<p style=""font-size: 30px"">&emsp;</p><br><p style=""font-size: 60px; font-family: BACS"">lCbcmQru<p style=""font-size: 15px"">Premi <strong>k</strong> per sì, <strong>d</strong> per no.</p>","","lCbcmQru","testing","d","true","","",""
"html-keyboard-response","367","582384","0.0-16.0-0.34","5fb7b8880045d6396a86c803","64afc2c9a8732ea92db0087d","64afd4da86741f149b94fe7f","848","d","<p style=""font-size: 30px"">&emsp;</p><br><p style=""font-size: 60px; font-family: BACS"">KMOcQONk<p style=""font-size: 15px"">Premi <strong>k</strong> per sì, <strong>d</strong> per no.</p>","","KMOcQONk","testing","d","true","","",""
"html-keyboard-response","368","583348","0.0-16.0-0.35","5fb7b8880045d6396a86c803","64afc2c9a8732ea92db0087d","64afd4da86741f149b94fe7f","964","k","<p style=""font-size: 30px"">&emsp;</p><br><p style=""font-size: 60px; font-family: BACS"">JmvmOCdt<p style=""font-size: 15px"">Premi <strong>k</strong> per sì, <strong>d</strong> per no.</p>","","JmvmOCdt","testing","d","false","","",""
"html-keyboard-response","369","584209","0.0-16.0-0.36","5fb7b8880045d6396a86c803","64afc2c9a8732ea92db0087d","64afd4da86741f149b94fe7f","862","k","<p style=""font-size: 30px"">&emsp;</p><br><p style=""font-size: 60px; font-family: BACS"">OtlRvAvb<p style=""font-size: 15px"">Premi <strong>k</strong> per sì, <strong>d</strong> per no.</p>","","OtlRvAvb","testing","d","false","","",""
"html-keyboard-response","370","585183","0.0-16.0-0.37","5fb7b8880045d6396a86c803","64afc2c9a8732ea92db0087d","64afd4da86741f149b94fe7f","974","k","<p style=""font-size: 30px"">&emsp;</p><br><p style=""font-size: 60px; font-family: BACS"">EYtYRAPT<p style=""font-size: 15px"">Premi <strong>k</strong> per sì, <strong>d</strong> per no.</p>","","EYtYRAPT","testing","k","true","","",""
"html-keyboard-response","371","586069","0.0-16.0-0.38","5fb7b8880045d6396a86c803","64afc2c9a8732ea92db0087d","64afd4da86741f149b94fe7f","886","d","<p style=""font-size: 30px"">&emsp;</p><br><p style=""font-size: 60px; font-family: BACS"">DCmhNUZ<p style=""font-size: 15px"">Premi <strong>k</strong> per sì, <strong>d</strong> per no.</p>","","DCmhNUZ","testing","d","true","","",""
