"trial_type","trial_index","time_elapsed","internal_node_id","subject_id","study_id","session_id","rt","response","stimulus","success","item","task","correct_response","testing_condition","correct","target","confound","name"
"pavlovia","0","833","0.0-0.0","5f5e7de4c81d3672642cd612","650c16f0f2faf8d7a0d14c09","651c1c9979d600d539e23c26","","","","","","","","","","","",""
"survey-html-form","1","20649","0.0-1.0","5f5e7de4c81d3672642cd612","650c16f0f2faf8d7a0d14c09","651c1c9979d600d539e23c26","19814","{""ID"":""5f5e7de4c81d3672642cd612""}","","","","","","","","","",""
"html-keyboard-response","2","54872","0.0-2.0","5f5e7de4c81d3672642cd612","650c16f0f2faf8d7a0d14c09","651c1c9979d600d539e23c26","34222"," ","<p style=""font-size: 15px;"">Before beginning, we ask that you read the consent information and confirm your agreement to participate in the experiment.</p>
      <p style=""font-size: 15px;""> We ask that you remember that this is a research project and that your participation is entirely voluntary. You can stop your participation at any time, without needing to provide any explanation. The study we're asking you to participate in aims at examining how readers process written words. You will be engaged in a session of apprximately 20 minutes, followed by a brief questionnaire. You will have the opportunity to take a few breaks during the experiment. You will be paid £4 for your participation, corresponding to a rate of £8/hour. While this experiment looks at cognitive faculties, this experiment doesn't constitute clinical proof of eventual pathologies.</p>
      <p style=""font-size: 15px;"">All of the information collected thanks to yours and others' participation will be held in a secure password-protected server, and will not be shared with anyone not authorised to view it. Your personal information will be kept with an arbitrary participant ID. Thanks to this data anonymity process, any researcher analysing the data won't be able to track the information back to a specific participant. Therefore, this process will make identifying you impossibile, even when results from the study will be published in scientific reviews, presented at congresses, or at any other public forum. More generally, the collected data will be treated in accordance with the laws on privacy and conformity to the Legislative Degree n. 196 ""Code regarding the protection of personal data"" of the 30th of June 2003 and to the European Regulation 2016/670 (General Data Protection Regulation - GDPR). The Data Protection Officer is Avv. Valentina Carollo, who can be contacted at the following email addresses: <a href=""mailto:dpo@sissa.it"">dpo@sissa.it</a> or <a href=""mailto:rpd@sissa.it"">rpd@sissa.it</a> - PEC: <a href=""mailto:protocollo@pec.sissa.it"">protocollo@pec.sissa.it</a>.</p>
      <p style=""font-size: 15px;""> Before expressing your consent to participate, we would like to remind you again that in case you need explanations on any aspect of the experimental procedure, the researcher is at your disposition (<a href=""mailto:aliebelt@sissa.it"">aliebelt@sissa.it</a>, <a href=""mailto:davide.crepaldi@sissa.it"">davide.crepaldi@sissa.it</a>).</p>
      <p style=""font-size: 15px;"">If you would like to download the informed consent form, you can do so here: <a href=""BASL-Informed_Consent.pdf"" download>informed consent form</a>.</p>
      <p style=""font-size: 15px;"">We ask that you press the spacebar to proceed to the consent section.</p>","","","","","","","","",""
"survey-html-form","3","88311","0.0-3.0","5f5e7de4c81d3672642cd612","650c16f0f2faf8d7a0d14c09","651c1c9979d600d539e23c26","33439","{""consent1"":""YES"",""consent2"":""YES"",""consent3"":""YES"",""consent4"":""YES"",""consent5"":""YES"",""consent6"":""YES""}","","","","","","","","","",""
"fullscreen","4","93237","0.0-4.0","5f5e7de4c81d3672642cd612","650c16f0f2faf8d7a0d14c09","651c1c9979d600d539e23c26","","","","true","","","","","","","",""
"html-keyboard-response","5","111230","0.0-5.0","5f5e7de4c81d3672642cd612","650c16f0f2faf8d7a0d14c09","651c1c9979d600d539e23c26","17993"," ","<p>Welcome, and thank you very much for your time!</p>
      <p>In this experiment, you'll be a language expert who's been asked to take a look at words that Earth has received in its first communication with aliens. Your task, in this first part of the experiment, is to pay close attention to the words you'll be shown; later, world leaders will ask you questions on what you saw. The words will be shown to you quite quickly; it seems that the aliens were in a hurry :-)</p>
      <p>Press the spacebar to continue.<p>","","","","","","","","",""
"html-keyboard-response","6","111281","0.0-6.0","5f5e7de4c81d3672642cd612","650c16f0f2faf8d7a0d14c09","651c1c9979d600d539e23c26","null","null","<p style=""font-size: 120px; font-family: BACS""> </p>","","","","","","","","",""
"html-keyboard-response","7","118786","0.0-7.0","5f5e7de4c81d3672642cd612","650c16f0f2faf8d7a0d14c09","651c1c9979d600d539e23c26","7504"," ","<p>Here is an example of the words you'll see:</p>
      <img src='esempio.png' height='400px'>
      <p>When you're ready to begin, press the spacebar.</p></div>","","","","","","","","",""
"html-keyboard-response","8","119800","0.0-8.0-0.0","5f5e7de4c81d3672642cd612","650c16f0f2faf8d7a0d14c09","651c1c9979d600d539e23c26","null","null","<p style=""font-size: 60px; font-family: BACS"">ORbkRDM</p>","","","","","","","","",""
"html-keyboard-response","9","120812","0.0-8.0-0.1","5f5e7de4c81d3672642cd612","650c16f0f2faf8d7a0d14c09","651c1c9979d600d539e23c26","null","null","<p style=""font-size: 60px; font-family: BACS"">lbBDEOYK</p>","","","","","","","","",""
"html-keyboard-response","10","121826","0.0-8.0-0.2","5f5e7de4c81d3672642cd612","650c16f0f2faf8d7a0d14c09","651c1c9979d600d539e23c26","null","null","<p style=""font-size: 60px; font-family: BACS"">rkJuJUNa</p>","","","","","","","","",""
"html-keyboard-response","11","122834","0.0-8.0-0.3","5f5e7de4c81d3672642cd612","650c16f0f2faf8d7a0d14c09","651c1c9979d600d539e23c26","null","null","<p style=""font-size: 60px; font-family: BACS"">cBROBTAm</p>","","","","","","","","",""
"html-keyboard-response","12","123848","0.0-8.0-0.4","5f5e7de4c81d3672642cd612","650c16f0f2faf8d7a0d14c09","651c1c9979d600d539e23c26","null","null","<p style=""font-size: 60px; font-family: BACS"">rkJuYkZ</p>","","","","","","","","",""
"html-keyboard-response","13","124864","0.0-8.0-0.5","5f5e7de4c81d3672642cd612","650c16f0f2faf8d7a0d14c09","651c1c9979d600d539e23c26","null","null","<p style=""font-size: 60px; font-family: BACS"">OJGQAOUl</p>","","","","","","","","",""
"html-keyboard-response","14","125878","0.0-8.0-0.6","5f5e7de4c81d3672642cd612","650c16f0f2faf8d7a0d14c09","651c1c9979d600d539e23c26","null","null","<p style=""font-size: 60px; font-family: BACS"">RtRhOYK</p>","","","","","","","","",""
"html-keyboard-response","15","126892","0.0-8.0-0.7","5f5e7de4c81d3672642cd612","650c16f0f2faf8d7a0d14c09","651c1c9979d600d539e23c26","null","null","<p style=""font-size: 60px; font-family: BACS"">NQZvYkZ</p>","","","","","","","","",""
"html-keyboard-response","16","127904","0.0-8.0-0.8","5f5e7de4c81d3672642cd612","650c16f0f2faf8d7a0d14c09","651c1c9979d600d539e23c26","null","null","<p style=""font-size: 60px; font-family: BACS"">rckOJUG</p>","","","","","","","","",""
"html-keyboard-response","17","128918","0.0-8.0-0.9","5f5e7de4c81d3672642cd612","650c16f0f2faf8d7a0d14c09","651c1c9979d600d539e23c26","null","null","<p style=""font-size: 60px; font-family: BACS"">PhktkRDM</p>","","","","","","","","",""
"html-keyboard-response","18","129923","0.0-8.0-0.10","5f5e7de4c81d3672642cd612","650c16f0f2faf8d7a0d14c09","651c1c9979d600d539e23c26","null","null","<p style=""font-size: 60px; font-family: BACS"">kulZbadk</p>","","","","","","","","",""
"html-keyboard-response","19","130933","0.0-8.0-0.11","5f5e7de4c81d3672642cd612","650c16f0f2faf8d7a0d14c09","651c1c9979d600d539e23c26","null","null","<p style=""font-size: 60px; font-family: BACS"">DCmhTAm</p>","","","","","","","","",""
"html-keyboard-response","20","131945","0.0-8.0-0.12","5f5e7de4c81d3672642cd612","650c16f0f2faf8d7a0d14c09","651c1c9979d600d539e23c26","null","null","<p style=""font-size: 60px; font-family: BACS"">NQZvJUG</p>","","","","","","","","",""
"html-keyboard-response","21","132957","0.0-8.0-0.13","5f5e7de4c81d3672642cd612","650c16f0f2faf8d7a0d14c09","651c1c9979d600d539e23c26","null","null","<p style=""font-size: 60px; font-family: BACS"">hBmMCYDTk</p>","","","","","","","","",""
"html-keyboard-response","22","133963","0.0-8.0-0.14","5f5e7de4c81d3672642cd612","650c16f0f2faf8d7a0d14c09","651c1c9979d600d539e23c26","null","null","<p style=""font-size: 60px; font-family: BACS"">DlDdRDM</p>","","","","","","","","",""
"html-keyboard-response","23","134976","0.0-8.0-0.15","5f5e7de4c81d3672642cd612","650c16f0f2faf8d7a0d14c09","651c1c9979d600d539e23c26","null","null","<p style=""font-size: 60px; font-family: BACS"">uAkrbadk</p>","","","","","","","","",""
"html-keyboard-response","24","135984","0.0-8.0-0.16","5f5e7de4c81d3672642cd612","650c16f0f2faf8d7a0d14c09","651c1c9979d600d539e23c26","null","null","<p style=""font-size: 60px; font-family: BACS"">PhktkDOAK</p>","","","","","","","","",""
"html-keyboard-response","25","136985","0.0-8.0-0.17","5f5e7de4c81d3672642cd612","650c16f0f2faf8d7a0d14c09","651c1c9979d600d539e23c26","null","null","<p style=""font-size: 60px; font-family: BACS"">DCmhYDTk</p>","","","","","","","","",""
"html-keyboard-response","26","137998","0.0-8.0-0.18","5f5e7de4c81d3672642cd612","650c16f0f2faf8d7a0d14c09","651c1c9979d600d539e23c26","null","null","<p style=""font-size: 60px; font-family: BACS"">uAkrYkZ</p>","","","","","","","","",""
"html-keyboard-response","27","139009","0.0-8.0-0.19","5f5e7de4c81d3672642cd612","650c16f0f2faf8d7a0d14c09","651c1c9979d600d539e23c26","null","null","<p style=""font-size: 60px; font-family: BACS"">PhktkTAm</p>","","","","","","","","",""
"html-keyboard-response","28","140023","0.0-8.0-0.20","5f5e7de4c81d3672642cd612","650c16f0f2faf8d7a0d14c09","651c1c9979d600d539e23c26","null","null","<p style=""font-size: 60px; font-family: BACS"">YdudAOUl</p>","","","","","","","","",""
"html-keyboard-response","29","141039","0.0-8.0-0.21","5f5e7de4c81d3672642cd612","650c16f0f2faf8d7a0d14c09","651c1c9979d600d539e23c26","null","null","<p style=""font-size: 60px; font-family: BACS"">dJNrJUG</p>","","","","","","","","",""
"html-keyboard-response","30","142052","0.0-8.0-0.22","5f5e7de4c81d3672642cd612","650c16f0f2faf8d7a0d14c09","651c1c9979d600d539e23c26","null","null","<p style=""font-size: 60px; font-family: BACS"">ORbkOYK</p>","","","","","","","","",""
"html-keyboard-response","31","143065","0.0-8.0-0.23","5f5e7de4c81d3672642cd612","650c16f0f2faf8d7a0d14c09","651c1c9979d600d539e23c26","null","null","<p style=""font-size: 60px; font-family: BACS"">rdLJabadk</p>","","","","","","","","",""
"html-keyboard-response","32","144072","0.0-8.0-0.24","5f5e7de4c81d3672642cd612","650c16f0f2faf8d7a0d14c09","651c1c9979d600d539e23c26","null","null","<p style=""font-size: 60px; font-family: BACS"">DCmhOYK</p>","","","","","","","","",""
"html-keyboard-response","33","145081","0.0-8.0-0.25","5f5e7de4c81d3672642cd612","650c16f0f2faf8d7a0d14c09","651c1c9979d600d539e23c26","null","null","<p style=""font-size: 60px; font-family: BACS"">lbBDERDM</p>","","","","","","","","",""
"html-keyboard-response","34","146093","0.0-8.0-0.26","5f5e7de4c81d3672642cd612","650c16f0f2faf8d7a0d14c09","651c1c9979d600d539e23c26","null","null","<p style=""font-size: 60px; font-family: BACS"">hBmMCTAm</p>","","","","","","","","",""
"html-keyboard-response","35","147109","0.0-8.0-0.27","5f5e7de4c81d3672642cd612","650c16f0f2faf8d7a0d14c09","651c1c9979d600d539e23c26","null","null","<p style=""font-size: 60px; font-family: BACS"">kKEdMYDTk</p>","","","","","","","","",""
"html-keyboard-response","36","148120","0.0-8.0-0.28","5f5e7de4c81d3672642cd612","650c16f0f2faf8d7a0d14c09","651c1c9979d600d539e23c26","null","null","<p style=""font-size: 60px; font-family: BACS"">rdLJaYkZ</p>","","","","","","","","",""
"html-keyboard-response","37","149133","0.0-8.0-0.29","5f5e7de4c81d3672642cd612","650c16f0f2faf8d7a0d14c09","651c1c9979d600d539e23c26","null","null","<p style=""font-size: 60px; font-family: BACS"">DlDdTAm</p>","","","","","","","","",""
"html-keyboard-response","38","150138","0.0-8.0-0.30","5f5e7de4c81d3672642cd612","650c16f0f2faf8d7a0d14c09","651c1c9979d600d539e23c26","null","null","<p style=""font-size: 60px; font-family: BACS"">Ydudbadk</p>","","","","","","","","",""
"html-keyboard-response","39","151153","0.0-8.0-0.31","5f5e7de4c81d3672642cd612","650c16f0f2faf8d7a0d14c09","651c1c9979d600d539e23c26","null","null","<p style=""font-size: 60px; font-family: BACS"">RtRhDOAK</p>","","","","","","","","",""
"html-keyboard-response","40","152162","0.0-8.0-0.32","5f5e7de4c81d3672642cd612","650c16f0f2faf8d7a0d14c09","651c1c9979d600d539e23c26","null","null","<p style=""font-size: 60px; font-family: BACS"">DlDdYDTk</p>","","","","","","","","",""
"html-keyboard-response","41","153175","0.0-8.0-0.33","5f5e7de4c81d3672642cd612","650c16f0f2faf8d7a0d14c09","651c1c9979d600d539e23c26","null","null","<p style=""font-size: 60px; font-family: BACS"">lbBDEDOAK</p>","","","","","","","","",""
"html-keyboard-response","42","154182","0.0-8.0-0.34","5f5e7de4c81d3672642cd612","650c16f0f2faf8d7a0d14c09","651c1c9979d600d539e23c26","null","null","<p style=""font-size: 60px; font-family: BACS"">ORbkYDTk</p>","","","","","","","","",""
"html-keyboard-response","43","155195","0.0-8.0-0.35","5f5e7de4c81d3672642cd612","650c16f0f2faf8d7a0d14c09","651c1c9979d600d539e23c26","null","null","<p style=""font-size: 60px; font-family: BACS"">DCmhDOAK</p>","","","","","","","","",""
"html-keyboard-response","44","156204","0.0-8.0-0.36","5f5e7de4c81d3672642cd612","650c16f0f2faf8d7a0d14c09","651c1c9979d600d539e23c26","null","null","<p style=""font-size: 60px; font-family: BACS"">MBmETAm</p>","","","","","","","","",""
"html-keyboard-response","45","157217","0.0-8.0-0.37","5f5e7de4c81d3672642cd612","650c16f0f2faf8d7a0d14c09","651c1c9979d600d539e23c26","null","null","<p style=""font-size: 60px; font-family: BACS"">cBROBDOAK</p>","","","","","","","","",""
"html-keyboard-response","46","158229","0.0-8.0-0.38","5f5e7de4c81d3672642cd612","650c16f0f2faf8d7a0d14c09","651c1c9979d600d539e23c26","null","null","<p style=""font-size: 60px; font-family: BACS"">OJGQJUNa</p>","","","","","","","","",""
"html-keyboard-response","47","159244","0.0-8.0-0.39","5f5e7de4c81d3672642cd612","650c16f0f2faf8d7a0d14c09","651c1c9979d600d539e23c26","null","null","<p style=""font-size: 60px; font-family: BACS"">hBmMCRDM</p>","","","","","","","","",""
"html-keyboard-response","48","160258","0.0-8.0-0.40","5f5e7de4c81d3672642cd612","650c16f0f2faf8d7a0d14c09","651c1c9979d600d539e23c26","null","null","<p style=""font-size: 60px; font-family: BACS"">NQZvAOUl</p>","","","","","","","","",""
"html-keyboard-response","49","161270","0.0-8.0-0.41","5f5e7de4c81d3672642cd612","650c16f0f2faf8d7a0d14c09","651c1c9979d600d539e23c26","null","null","<p style=""font-size: 60px; font-family: BACS"">dJNrYkZ</p>","","","","","","","","",""
"html-keyboard-response","50","162282","0.0-8.0-0.42","5f5e7de4c81d3672642cd612","650c16f0f2faf8d7a0d14c09","651c1c9979d600d539e23c26","null","null","<p style=""font-size: 60px; font-family: BACS"">NQZvbadk</p>","","","","","","","","",""
"html-keyboard-response","51","163297","0.0-8.0-0.43","5f5e7de4c81d3672642cd612","650c16f0f2faf8d7a0d14c09","651c1c9979d600d539e23c26","null","null","<p style=""font-size: 60px; font-family: BACS"">kulZAOUl</p>","","","","","","","","",""
"html-keyboard-response","52","164303","0.0-8.0-0.44","5f5e7de4c81d3672642cd612","650c16f0f2faf8d7a0d14c09","651c1c9979d600d539e23c26","null","null","<p style=""font-size: 60px; font-family: BACS"">rckOYkZ</p>","","","","","","","","",""
"html-keyboard-response","53","165309","0.0-8.0-0.45","5f5e7de4c81d3672642cd612","650c16f0f2faf8d7a0d14c09","651c1c9979d600d539e23c26","null","null","<p style=""font-size: 60px; font-family: BACS"">GNAcaAOUl</p>","","","","","","","","",""
"html-keyboard-response","54","166323","0.0-8.0-0.46","5f5e7de4c81d3672642cd612","650c16f0f2faf8d7a0d14c09","651c1c9979d600d539e23c26","null","null","<p style=""font-size: 60px; font-family: BACS"">cBROBOYK</p>","","","","","","","","",""
"html-keyboard-response","55","167329","0.0-8.0-0.47","5f5e7de4c81d3672642cd612","650c16f0f2faf8d7a0d14c09","651c1c9979d600d539e23c26","null","null","<p style=""font-size: 60px; font-family: BACS"">rdLJaAOUl</p>","","","","","","","","",""
"html-keyboard-response","56","168338","0.0-8.0-0.48","5f5e7de4c81d3672642cd612","650c16f0f2faf8d7a0d14c09","651c1c9979d600d539e23c26","null","null","<p style=""font-size: 60px; font-family: BACS"">kulZJUG</p>","","","","","","","","",""
"html-keyboard-response","57","169346","0.0-8.0-0.49","5f5e7de4c81d3672642cd612","650c16f0f2faf8d7a0d14c09","651c1c9979d600d539e23c26","null","null","<p style=""font-size: 60px; font-family: BACS"">GNAcaYkZ</p>","","","","","","","","",""
"html-keyboard-response","58","170357","0.0-8.0-0.50","5f5e7de4c81d3672642cd612","650c16f0f2faf8d7a0d14c09","651c1c9979d600d539e23c26","null","null","<p style=""font-size: 60px; font-family: BACS"">rkJubadk</p>","","","","","","","","",""
"html-keyboard-response","59","171368","0.0-8.0-0.51","5f5e7de4c81d3672642cd612","650c16f0f2faf8d7a0d14c09","651c1c9979d600d539e23c26","null","null","<p style=""font-size: 60px; font-family: BACS"">rckOJUNa</p>","","","","","","","","",""
"html-keyboard-response","60","172377","0.0-8.0-0.52","5f5e7de4c81d3672642cd612","650c16f0f2faf8d7a0d14c09","651c1c9979d600d539e23c26","null","null","<p style=""font-size: 60px; font-family: BACS"">uAkrAOUl</p>","","","","","","","","",""
"html-keyboard-response","61","173379","0.0-8.0-0.53","5f5e7de4c81d3672642cd612","650c16f0f2faf8d7a0d14c09","651c1c9979d600d539e23c26","null","null","<p style=""font-size: 60px; font-family: BACS"">dJNrbadk</p>","","","","","","","","",""
"html-keyboard-response","62","174390","0.0-8.0-0.54","5f5e7de4c81d3672642cd612","650c16f0f2faf8d7a0d14c09","651c1c9979d600d539e23c26","null","null","<p style=""font-size: 60px; font-family: BACS"">RtRhRDM</p>","","","","","","","","",""
"html-keyboard-response","63","175398","0.0-8.0-0.55","5f5e7de4c81d3672642cd612","650c16f0f2faf8d7a0d14c09","651c1c9979d600d539e23c26","null","null","<p style=""font-size: 60px; font-family: BACS"">hBmMCDOAK</p>","","","","","","","","",""
"html-keyboard-response","64","176409","0.0-8.0-0.56","5f5e7de4c81d3672642cd612","650c16f0f2faf8d7a0d14c09","651c1c9979d600d539e23c26","null","null","<p style=""font-size: 60px; font-family: BACS"">OJGQJUG</p>","","","","","","","","",""
"html-keyboard-response","65","177422","0.0-8.0-0.57","5f5e7de4c81d3672642cd612","650c16f0f2faf8d7a0d14c09","651c1c9979d600d539e23c26","null","null","<p style=""font-size: 60px; font-family: BACS"">lbBDEYDTk</p>","","","","","","","","",""
"html-keyboard-response","66","178437","0.0-8.0-0.58","5f5e7de4c81d3672642cd612","650c16f0f2faf8d7a0d14c09","651c1c9979d600d539e23c26","null","null","<p style=""font-size: 60px; font-family: BACS"">kKEdMRDM</p>","","","","","","","","",""
"html-keyboard-response","67","179450","0.0-8.0-0.59","5f5e7de4c81d3672642cd612","650c16f0f2faf8d7a0d14c09","651c1c9979d600d539e23c26","null","null","<p style=""font-size: 60px; font-family: BACS"">dJNrJUNa</p>","","","","","","","","",""
"html-keyboard-response","68","180460","0.0-8.0-0.60","5f5e7de4c81d3672642cd612","650c16f0f2faf8d7a0d14c09","651c1c9979d600d539e23c26","null","null","<p style=""font-size: 60px; font-family: BACS"">kKEdMTAm</p>","","","","","","","","",""
"html-keyboard-response","69","181473","0.0-8.0-0.61","5f5e7de4c81d3672642cd612","650c16f0f2faf8d7a0d14c09","651c1c9979d600d539e23c26","null","null","<p style=""font-size: 60px; font-family: BACS"">kulZJUNa</p>","","","","","","","","",""
"html-keyboard-response","70","182481","0.0-8.0-0.62","5f5e7de4c81d3672642cd612","650c16f0f2faf8d7a0d14c09","651c1c9979d600d539e23c26","null","null","<p style=""font-size: 60px; font-family: BACS"">MBmERDM</p>","","","","","","","","",""
"html-keyboard-response","71","183497","0.0-8.0-0.63","5f5e7de4c81d3672642cd612","650c16f0f2faf8d7a0d14c09","651c1c9979d600d539e23c26","null","null","<p style=""font-size: 60px; font-family: BACS"">kKEdMOYK</p>","","","","","","","","",""
"html-keyboard-response","72","184510","0.0-8.0-0.64","5f5e7de4c81d3672642cd612","650c16f0f2faf8d7a0d14c09","651c1c9979d600d539e23c26","null","null","<p style=""font-size: 60px; font-family: BACS"">rckOAOUl</p>","","","","","","","","",""
"html-keyboard-response","73","185519","0.0-8.0-0.65","5f5e7de4c81d3672642cd612","650c16f0f2faf8d7a0d14c09","651c1c9979d600d539e23c26","null","null","<p style=""font-size: 60px; font-family: BACS"">rkJuJUG</p>","","","","","","","","",""
"html-keyboard-response","74","186531","0.0-8.0-0.66","5f5e7de4c81d3672642cd612","650c16f0f2faf8d7a0d14c09","651c1c9979d600d539e23c26","null","null","<p style=""font-size: 60px; font-family: BACS"">cBROBYDTk</p>","","","","","","","","",""
"html-keyboard-response","75","187543","0.0-8.0-0.67","5f5e7de4c81d3672642cd612","650c16f0f2faf8d7a0d14c09","651c1c9979d600d539e23c26","null","null","<p style=""font-size: 60px; font-family: BACS"">PhktkOYK</p>","","","","","","","","",""
"html-keyboard-response","76","188552","0.0-8.0-0.68","5f5e7de4c81d3672642cd612","650c16f0f2faf8d7a0d14c09","651c1c9979d600d539e23c26","null","null","<p style=""font-size: 60px; font-family: BACS"">MBmEDOAK</p>","","","","","","","","",""
"html-keyboard-response","77","189565","0.0-8.0-0.69","5f5e7de4c81d3672642cd612","650c16f0f2faf8d7a0d14c09","651c1c9979d600d539e23c26","null","null","<p style=""font-size: 60px; font-family: BACS"">GNAcaJUG</p>","","","","","","","","",""
"html-keyboard-response","78","190575","0.0-8.0-0.70","5f5e7de4c81d3672642cd612","650c16f0f2faf8d7a0d14c09","651c1c9979d600d539e23c26","null","null","<p style=""font-size: 60px; font-family: BACS"">YdudJUNa</p>","","","","","","","","",""
"html-keyboard-response","79","191577","0.0-8.0-0.71","5f5e7de4c81d3672642cd612","650c16f0f2faf8d7a0d14c09","651c1c9979d600d539e23c26","null","null","<p style=""font-size: 60px; font-family: BACS"">DlDdDOAK</p>","","","","","","","","",""
"html-keyboard-response","80","192578","0.0-8.0-0.72","5f5e7de4c81d3672642cd612","650c16f0f2faf8d7a0d14c09","651c1c9979d600d539e23c26","null","null","<p style=""font-size: 60px; font-family: BACS"">YdudJUG</p>","","","","","","","","",""
"html-keyboard-response","81","193593","0.0-8.0-0.73","5f5e7de4c81d3672642cd612","650c16f0f2faf8d7a0d14c09","651c1c9979d600d539e23c26","null","null","<p style=""font-size: 60px; font-family: BACS"">uAkrJUNa</p>","","","","","","","","",""
"html-keyboard-response","82","194606","0.0-8.0-0.74","5f5e7de4c81d3672642cd612","650c16f0f2faf8d7a0d14c09","651c1c9979d600d539e23c26","null","null","<p style=""font-size: 60px; font-family: BACS"">ORbkTAm</p>","","","","","","","","",""
"html-keyboard-response","83","195621","0.0-8.0-0.75","5f5e7de4c81d3672642cd612","650c16f0f2faf8d7a0d14c09","651c1c9979d600d539e23c26","null","null","<p style=""font-size: 60px; font-family: BACS"">rdLJaJUNa</p>","","","","","","","","",""
"html-keyboard-response","84","196635","0.0-8.0-0.76","5f5e7de4c81d3672642cd612","650c16f0f2faf8d7a0d14c09","651c1c9979d600d539e23c26","null","null","<p style=""font-size: 60px; font-family: BACS"">MBmEOYK</p>","","","","","","","","",""
"html-keyboard-response","85","197642","0.0-8.0-0.77","5f5e7de4c81d3672642cd612","650c16f0f2faf8d7a0d14c09","651c1c9979d600d539e23c26","null","null","<p style=""font-size: 60px; font-family: BACS"">GNAcabadk</p>","","","","","","","","",""
"html-keyboard-response","86","198654","0.0-8.0-0.78","5f5e7de4c81d3672642cd612","650c16f0f2faf8d7a0d14c09","651c1c9979d600d539e23c26","null","null","<p style=""font-size: 60px; font-family: BACS"">RtRhYDTk</p>","","","","","","","","",""
"html-keyboard-response","87","199660","0.0-8.0-0.79","5f5e7de4c81d3672642cd612","650c16f0f2faf8d7a0d14c09","651c1c9979d600d539e23c26","null","null","<p style=""font-size: 60px; font-family: BACS"">OJGQYkZ</p>","","","","","","","","",""
"html-keyboard-response","88","203784","0.0-9.0","5f5e7de4c81d3672642cd612","650c16f0f2faf8d7a0d14c09","651c1c9979d600d539e23c26","4123"," ","<p>Great, you've seen the first block of words. You may now take a short break.</p>
      <p>Press the spacebar when you're ready to continue.</p>","","","","","","","","",""
"html-keyboard-response","89","204788","0.0-10.0-0.0","5f5e7de4c81d3672642cd612","650c16f0f2faf8d7a0d14c09","651c1c9979d600d539e23c26","null","null","<p style=""font-size: 60px; font-family: BACS"">rckOJUG</p>","","","","","","","","",""
"html-keyboard-response","90","205800","0.0-10.0-0.1","5f5e7de4c81d3672642cd612","650c16f0f2faf8d7a0d14c09","651c1c9979d600d539e23c26","null","null","<p style=""font-size: 60px; font-family: BACS"">DlDdTAm</p>","","","","","","","","",""
"html-keyboard-response","91","206811","0.0-10.0-0.2","5f5e7de4c81d3672642cd612","650c16f0f2faf8d7a0d14c09","651c1c9979d600d539e23c26","null","null","<p style=""font-size: 60px; font-family: BACS"">kulZJUNa</p>","","","","","","","","",""
"html-keyboard-response","92","207824","0.0-10.0-0.3","5f5e7de4c81d3672642cd612","650c16f0f2faf8d7a0d14c09","651c1c9979d600d539e23c26","null","null","<p style=""font-size: 60px; font-family: BACS"">hBmMCDOAK</p>","","","","","","","","",""
"html-keyboard-response","93","208837","0.0-10.0-0.4","5f5e7de4c81d3672642cd612","650c16f0f2faf8d7a0d14c09","651c1c9979d600d539e23c26","null","null","<p style=""font-size: 60px; font-family: BACS"">rdLJaJUNa</p>","","","","","","","","",""
"html-keyboard-response","94","209852","0.0-10.0-0.5","5f5e7de4c81d3672642cd612","650c16f0f2faf8d7a0d14c09","651c1c9979d600d539e23c26","null","null","<p style=""font-size: 60px; font-family: BACS"">lbBDERDM</p>","","","","","","","","",""
"html-keyboard-response","95","210868","0.0-10.0-0.6","5f5e7de4c81d3672642cd612","650c16f0f2faf8d7a0d14c09","651c1c9979d600d539e23c26","null","null","<p style=""font-size: 60px; font-family: BACS"">rkJubadk</p>","","","","","","","","",""
"html-keyboard-response","96","211869","0.0-10.0-0.7","5f5e7de4c81d3672642cd612","650c16f0f2faf8d7a0d14c09","651c1c9979d600d539e23c26","null","null","<p style=""font-size: 60px; font-family: BACS"">kKEdMRDM</p>","","","","","","","","",""
"html-keyboard-response","97","212878","0.0-10.0-0.8","5f5e7de4c81d3672642cd612","650c16f0f2faf8d7a0d14c09","651c1c9979d600d539e23c26","null","null","<p style=""font-size: 60px; font-family: BACS"">GNAcaJUG</p>","","","","","","","","",""
"html-keyboard-response","98","213894","0.0-10.0-0.9","5f5e7de4c81d3672642cd612","650c16f0f2faf8d7a0d14c09","651c1c9979d600d539e23c26","null","null","<p style=""font-size: 60px; font-family: BACS"">NQZvAOUl</p>","","","","","","","","",""
"html-keyboard-response","99","214902","0.0-10.0-0.10","5f5e7de4c81d3672642cd612","650c16f0f2faf8d7a0d14c09","651c1c9979d600d539e23c26","null","null","<p style=""font-size: 60px; font-family: BACS"">kKEdMYDTk</p>","","","","","","","","",""
"html-keyboard-response","100","215915","0.0-10.0-0.11","5f5e7de4c81d3672642cd612","650c16f0f2faf8d7a0d14c09","651c1c9979d600d539e23c26","null","null","<p style=""font-size: 60px; font-family: BACS"">OJGQJUNa</p>","","","","","","","","",""
"html-keyboard-response","101","216917","0.0-10.0-0.12","5f5e7de4c81d3672642cd612","650c16f0f2faf8d7a0d14c09","651c1c9979d600d539e23c26","null","null","<p style=""font-size: 60px; font-family: BACS"">RtRhYDTk</p>","","","","","","","","",""
"html-keyboard-response","102","217926","0.0-10.0-0.13","5f5e7de4c81d3672642cd612","650c16f0f2faf8d7a0d14c09","651c1c9979d600d539e23c26","null","null","<p style=""font-size: 60px; font-family: BACS"">ORbkOYK</p>","","","","","","","","",""
"html-keyboard-response","103","218940","0.0-10.0-0.14","5f5e7de4c81d3672642cd612","650c16f0f2faf8d7a0d14c09","651c1c9979d600d539e23c26","null","null","<p style=""font-size: 60px; font-family: BACS"">NQZvJUG</p>","","","","","","","","",""
"html-keyboard-response","104","219956","0.0-10.0-0.15","5f5e7de4c81d3672642cd612","650c16f0f2faf8d7a0d14c09","651c1c9979d600d539e23c26","null","null","<p style=""font-size: 60px; font-family: BACS"">YdudJUNa</p>","","","","","","","","",""
"html-keyboard-response","105","220964","0.0-10.0-0.16","5f5e7de4c81d3672642cd612","650c16f0f2faf8d7a0d14c09","651c1c9979d600d539e23c26","null","null","<p style=""font-size: 60px; font-family: BACS"">lbBDEOYK</p>","","","","","","","","",""
"html-keyboard-response","106","221978","0.0-10.0-0.17","5f5e7de4c81d3672642cd612","650c16f0f2faf8d7a0d14c09","651c1c9979d600d539e23c26","null","null","<p style=""font-size: 60px; font-family: BACS"">dJNrYkZ</p>","","","","","","","","",""
"html-keyboard-response","107","222989","0.0-10.0-0.18","5f5e7de4c81d3672642cd612","650c16f0f2faf8d7a0d14c09","651c1c9979d600d539e23c26","null","null","<p style=""font-size: 60px; font-family: BACS"">kulZbadk</p>","","","","","","","","",""
"html-keyboard-response","108","224000","0.0-10.0-0.19","5f5e7de4c81d3672642cd612","650c16f0f2faf8d7a0d14c09","651c1c9979d600d539e23c26","null","null","<p style=""font-size: 60px; font-family: BACS"">cBROBTAm</p>","","","","","","","","",""
"html-keyboard-response","109","225013","0.0-10.0-0.20","5f5e7de4c81d3672642cd612","650c16f0f2faf8d7a0d14c09","651c1c9979d600d539e23c26","null","null","<p style=""font-size: 60px; font-family: BACS"">DCmhDOAK</p>","","","","","","","","",""
"html-keyboard-response","110","226021","0.0-10.0-0.21","5f5e7de4c81d3672642cd612","650c16f0f2faf8d7a0d14c09","651c1c9979d600d539e23c26","null","null","<p style=""font-size: 60px; font-family: BACS"">YdudAOUl</p>","","","","","","","","",""
"html-keyboard-response","111","227036","0.0-10.0-0.22","5f5e7de4c81d3672642cd612","650c16f0f2faf8d7a0d14c09","651c1c9979d600d539e23c26","null","null","<p style=""font-size: 60px; font-family: BACS"">DCmhOYK</p>","","","","","","","","",""
"html-keyboard-response","112","228048","0.0-10.0-0.23","5f5e7de4c81d3672642cd612","650c16f0f2faf8d7a0d14c09","651c1c9979d600d539e23c26","null","null","<p style=""font-size: 60px; font-family: BACS"">NQZvYkZ</p>","","","","","","","","",""
"html-keyboard-response","113","229060","0.0-10.0-0.24","5f5e7de4c81d3672642cd612","650c16f0f2faf8d7a0d14c09","651c1c9979d600d539e23c26","null","null","<p style=""font-size: 60px; font-family: BACS"">RtRhRDM</p>","","","","","","","","",""
"html-keyboard-response","114","230070","0.0-10.0-0.25","5f5e7de4c81d3672642cd612","650c16f0f2faf8d7a0d14c09","651c1c9979d600d539e23c26","null","null","<p style=""font-size: 60px; font-family: BACS"">dJNrbadk</p>","","","","","","","","",""
"html-keyboard-response","115","231080","0.0-10.0-0.26","5f5e7de4c81d3672642cd612","650c16f0f2faf8d7a0d14c09","651c1c9979d600d539e23c26","null","null","<p style=""font-size: 60px; font-family: BACS"">kKEdMTAm</p>","","","","","","","","",""
"html-keyboard-response","116","232090","0.0-10.0-0.27","5f5e7de4c81d3672642cd612","650c16f0f2faf8d7a0d14c09","651c1c9979d600d539e23c26","null","null","<p style=""font-size: 60px; font-family: BACS"">lbBDEDOAK</p>","","","","","","","","",""
"html-keyboard-response","117","233098","0.0-10.0-0.28","5f5e7de4c81d3672642cd612","650c16f0f2faf8d7a0d14c09","651c1c9979d600d539e23c26","null","null","<p style=""font-size: 60px; font-family: BACS"">uAkrAOUl</p>","","","","","","","","",""
"html-keyboard-response","118","234106","0.0-10.0-0.29","5f5e7de4c81d3672642cd612","650c16f0f2faf8d7a0d14c09","651c1c9979d600d539e23c26","null","null","<p style=""font-size: 60px; font-family: BACS"">PhktkRDM</p>","","","","","","","","",""
"html-keyboard-response","119","235115","0.0-10.0-0.30","5f5e7de4c81d3672642cd612","650c16f0f2faf8d7a0d14c09","651c1c9979d600d539e23c26","null","null","<p style=""font-size: 60px; font-family: BACS"">DCmhYDTk</p>","","","","","","","","",""
"html-keyboard-response","120","236128","0.0-10.0-0.31","5f5e7de4c81d3672642cd612","650c16f0f2faf8d7a0d14c09","651c1c9979d600d539e23c26","null","null","<p style=""font-size: 60px; font-family: BACS"">dJNrJUG</p>","","","","","","","","",""
"html-keyboard-response","121","237138","0.0-10.0-0.32","5f5e7de4c81d3672642cd612","650c16f0f2faf8d7a0d14c09","651c1c9979d600d539e23c26","null","null","<p style=""font-size: 60px; font-family: BACS"">Ydudbadk</p>","","","","","","","","",""
"html-keyboard-response","122","238150","0.0-10.0-0.33","5f5e7de4c81d3672642cd612","650c16f0f2faf8d7a0d14c09","651c1c9979d600d539e23c26","null","null","<p style=""font-size: 60px; font-family: BACS"">RtRhOYK</p>","","","","","","","","",""
"html-keyboard-response","123","239163","0.0-10.0-0.34","5f5e7de4c81d3672642cd612","650c16f0f2faf8d7a0d14c09","651c1c9979d600d539e23c26","null","null","<p style=""font-size: 60px; font-family: BACS"">MBmERDM</p>","","","","","","","","",""
"html-keyboard-response","124","240176","0.0-10.0-0.35","5f5e7de4c81d3672642cd612","650c16f0f2faf8d7a0d14c09","651c1c9979d600d539e23c26","null","null","<p style=""font-size: 60px; font-family: BACS"">cBROBOYK</p>","","","","","","","","",""
"html-keyboard-response","125","241188","0.0-10.0-0.36","5f5e7de4c81d3672642cd612","650c16f0f2faf8d7a0d14c09","651c1c9979d600d539e23c26","null","null","<p style=""font-size: 60px; font-family: BACS"">uAkrYkZ</p>","","","","","","","","",""
"html-keyboard-response","126","242191","0.0-10.0-0.37","5f5e7de4c81d3672642cd612","650c16f0f2faf8d7a0d14c09","651c1c9979d600d539e23c26","null","null","<p style=""font-size: 60px; font-family: BACS"">MBmETAm</p>","","","","","","","","",""
"html-keyboard-response","127","243204","0.0-10.0-0.38","5f5e7de4c81d3672642cd612","650c16f0f2faf8d7a0d14c09","651c1c9979d600d539e23c26","null","null","<p style=""font-size: 60px; font-family: BACS"">GNAcaYkZ</p>","","","","","","","","",""
"html-keyboard-response","128","244216","0.0-10.0-0.39","5f5e7de4c81d3672642cd612","650c16f0f2faf8d7a0d14c09","651c1c9979d600d539e23c26","null","null","<p style=""font-size: 60px; font-family: BACS"">hBmMCTAm</p>","","","","","","","","",""
"html-keyboard-response","129","245227","0.0-10.0-0.40","5f5e7de4c81d3672642cd612","650c16f0f2faf8d7a0d14c09","651c1c9979d600d539e23c26","null","null","<p style=""font-size: 60px; font-family: BACS"">OJGQAOUl</p>","","","","","","","","",""
"html-keyboard-response","130","246239","0.0-10.0-0.41","5f5e7de4c81d3672642cd612","650c16f0f2faf8d7a0d14c09","651c1c9979d600d539e23c26","null","null","<p style=""font-size: 60px; font-family: BACS"">PhktkDOAK</p>","","","","","","","","",""
"html-keyboard-response","131","247252","0.0-10.0-0.42","5f5e7de4c81d3672642cd612","650c16f0f2faf8d7a0d14c09","651c1c9979d600d539e23c26","null","null","<p style=""font-size: 60px; font-family: BACS"">NQZvbadk</p>","","","","","","","","",""
"html-keyboard-response","132","248263","0.0-10.0-0.43","5f5e7de4c81d3672642cd612","650c16f0f2faf8d7a0d14c09","651c1c9979d600d539e23c26","null","null","<p style=""font-size: 60px; font-family: BACS"">rckOAOUl</p>","","","","","","","","",""
"html-keyboard-response","133","249277","0.0-10.0-0.44","5f5e7de4c81d3672642cd612","650c16f0f2faf8d7a0d14c09","651c1c9979d600d539e23c26","null","null","<p style=""font-size: 60px; font-family: BACS"">PhktkTAm</p>","","","","","","","","",""
"html-keyboard-response","134","250285","0.0-10.0-0.45","5f5e7de4c81d3672642cd612","650c16f0f2faf8d7a0d14c09","651c1c9979d600d539e23c26","null","null","<p style=""font-size: 60px; font-family: BACS"">MBmEDOAK</p>","","","","","","","","",""
"html-keyboard-response","135","251299","0.0-10.0-0.46","5f5e7de4c81d3672642cd612","650c16f0f2faf8d7a0d14c09","651c1c9979d600d539e23c26","null","null","<p style=""font-size: 60px; font-family: BACS"">kulZJUG</p>","","","","","","","","",""
"html-keyboard-response","136","252310","0.0-10.0-0.47","5f5e7de4c81d3672642cd612","650c16f0f2faf8d7a0d14c09","651c1c9979d600d539e23c26","null","null","<p style=""font-size: 60px; font-family: BACS"">OJGQYkZ</p>","","","","","","","","",""
"html-keyboard-response","137","253322","0.0-10.0-0.48","5f5e7de4c81d3672642cd612","650c16f0f2faf8d7a0d14c09","651c1c9979d600d539e23c26","null","null","<p style=""font-size: 60px; font-family: BACS"">YdudJUG</p>","","","","","","","","",""
"html-keyboard-response","138","254333","0.0-10.0-0.49","5f5e7de4c81d3672642cd612","650c16f0f2faf8d7a0d14c09","651c1c9979d600d539e23c26","null","null","<p style=""font-size: 60px; font-family: BACS"">PhktkOYK</p>","","","","","","","","",""
"html-keyboard-response","139","255346","0.0-10.0-0.50","5f5e7de4c81d3672642cd612","650c16f0f2faf8d7a0d14c09","651c1c9979d600d539e23c26","null","null","<p style=""font-size: 60px; font-family: BACS"">ORbkTAm</p>","","","","","","","","",""
"html-keyboard-response","140","256358","0.0-10.0-0.51","5f5e7de4c81d3672642cd612","650c16f0f2faf8d7a0d14c09","651c1c9979d600d539e23c26","null","null","<p style=""font-size: 60px; font-family: BACS"">DlDdRDM</p>","","","","","","","","",""
"html-keyboard-response","141","257369","0.0-10.0-0.52","5f5e7de4c81d3672642cd612","650c16f0f2faf8d7a0d14c09","651c1c9979d600d539e23c26","null","null","<p style=""font-size: 60px; font-family: BACS"">rdLJabadk</p>","","","","","","","","",""
"html-keyboard-response","142","258382","0.0-10.0-0.53","5f5e7de4c81d3672642cd612","650c16f0f2faf8d7a0d14c09","651c1c9979d600d539e23c26","null","null","<p style=""font-size: 60px; font-family: BACS"">MBmEOYK</p>","","","","","","","","",""
"html-keyboard-response","143","259392","0.0-10.0-0.54","5f5e7de4c81d3672642cd612","650c16f0f2faf8d7a0d14c09","651c1c9979d600d539e23c26","null","null","<p style=""font-size: 60px; font-family: BACS"">kulZAOUl</p>","","","","","","","","",""
"html-keyboard-response","144","260404","0.0-10.0-0.55","5f5e7de4c81d3672642cd612","650c16f0f2faf8d7a0d14c09","651c1c9979d600d539e23c26","null","null","<p style=""font-size: 60px; font-family: BACS"">hBmMCRDM</p>","","","","","","","","",""
"html-keyboard-response","145","261414","0.0-10.0-0.56","5f5e7de4c81d3672642cd612","650c16f0f2faf8d7a0d14c09","651c1c9979d600d539e23c26","null","null","<p style=""font-size: 60px; font-family: BACS"">DlDdYDTk</p>","","","","","","","","",""
"html-keyboard-response","146","262425","0.0-10.0-0.57","5f5e7de4c81d3672642cd612","650c16f0f2faf8d7a0d14c09","651c1c9979d600d539e23c26","null","null","<p style=""font-size: 60px; font-family: BACS"">dJNrJUNa</p>","","","","","","","","",""
"html-keyboard-response","147","263441","0.0-10.0-0.58","5f5e7de4c81d3672642cd612","650c16f0f2faf8d7a0d14c09","651c1c9979d600d539e23c26","null","null","<p style=""font-size: 60px; font-family: BACS"">rkJuJUG</p>","","","","","","","","",""
"html-keyboard-response","148","264457","0.0-10.0-0.59","5f5e7de4c81d3672642cd612","650c16f0f2faf8d7a0d14c09","651c1c9979d600d539e23c26","null","null","<p style=""font-size: 60px; font-family: BACS"">cBROBYDTk</p>","","","","","","","","",""
"html-keyboard-response","149","265467","0.0-10.0-0.60","5f5e7de4c81d3672642cd612","650c16f0f2faf8d7a0d14c09","651c1c9979d600d539e23c26","null","null","<p style=""font-size: 60px; font-family: BACS"">GNAcaAOUl</p>","","","","","","","","",""
"html-keyboard-response","150","266481","0.0-10.0-0.61","5f5e7de4c81d3672642cd612","650c16f0f2faf8d7a0d14c09","651c1c9979d600d539e23c26","null","null","<p style=""font-size: 60px; font-family: BACS"">rckOJUNa</p>","","","","","","","","",""
"html-keyboard-response","151","267495","0.0-10.0-0.62","5f5e7de4c81d3672642cd612","650c16f0f2faf8d7a0d14c09","651c1c9979d600d539e23c26","null","null","<p style=""font-size: 60px; font-family: BACS"">rdLJaYkZ</p>","","","","","","","","",""
"html-keyboard-response","152","268506","0.0-10.0-0.63","5f5e7de4c81d3672642cd612","650c16f0f2faf8d7a0d14c09","651c1c9979d600d539e23c26","null","null","<p style=""font-size: 60px; font-family: BACS"">rkJuJUNa</p>","","","","","","","","",""
"html-keyboard-response","153","269520","0.0-10.0-0.64","5f5e7de4c81d3672642cd612","650c16f0f2faf8d7a0d14c09","651c1c9979d600d539e23c26","null","null","<p style=""font-size: 60px; font-family: BACS"">GNAcabadk</p>","","","","","","","","",""
"html-keyboard-response","154","270527","0.0-10.0-0.65","5f5e7de4c81d3672642cd612","650c16f0f2faf8d7a0d14c09","651c1c9979d600d539e23c26","null","null","<p style=""font-size: 60px; font-family: BACS"">kKEdMOYK</p>","","","","","","","","",""
"html-keyboard-response","155","271539","0.0-10.0-0.66","5f5e7de4c81d3672642cd612","650c16f0f2faf8d7a0d14c09","651c1c9979d600d539e23c26","null","null","<p style=""font-size: 60px; font-family: BACS"">uAkrbadk</p>","","","","","","","","",""
"html-keyboard-response","156","272548","0.0-10.0-0.67","5f5e7de4c81d3672642cd612","650c16f0f2faf8d7a0d14c09","651c1c9979d600d539e23c26","null","null","<p style=""font-size: 60px; font-family: BACS"">lbBDEYDTk</p>","","","","","","","","",""
"html-keyboard-response","157","273556","0.0-10.0-0.68","5f5e7de4c81d3672642cd612","650c16f0f2faf8d7a0d14c09","651c1c9979d600d539e23c26","null","null","<p style=""font-size: 60px; font-family: BACS"">DlDdDOAK</p>","","","","","","","","",""
"html-keyboard-response","158","274566","0.0-10.0-0.69","5f5e7de4c81d3672642cd612","650c16f0f2faf8d7a0d14c09","651c1c9979d600d539e23c26","null","null","<p style=""font-size: 60px; font-family: BACS"">ORbkRDM</p>","","","","","","","","",""
"html-keyboard-response","159","275579","0.0-10.0-0.70","5f5e7de4c81d3672642cd612","650c16f0f2faf8d7a0d14c09","651c1c9979d600d539e23c26","null","null","<p style=""font-size: 60px; font-family: BACS"">OJGQJUG</p>","","","","","","","","",""
"html-keyboard-response","160","276588","0.0-10.0-0.71","5f5e7de4c81d3672642cd612","650c16f0f2faf8d7a0d14c09","651c1c9979d600d539e23c26","null","null","<p style=""font-size: 60px; font-family: BACS"">rckOYkZ</p>","","","","","","","","",""
"html-keyboard-response","161","277602","0.0-10.0-0.72","5f5e7de4c81d3672642cd612","650c16f0f2faf8d7a0d14c09","651c1c9979d600d539e23c26","null","null","<p style=""font-size: 60px; font-family: BACS"">DCmhTAm</p>","","","","","","","","",""
"html-keyboard-response","162","278613","0.0-10.0-0.73","5f5e7de4c81d3672642cd612","650c16f0f2faf8d7a0d14c09","651c1c9979d600d539e23c26","null","null","<p style=""font-size: 60px; font-family: BACS"">cBROBDOAK</p>","","","","","","","","",""
"html-keyboard-response","163","279627","0.0-10.0-0.74","5f5e7de4c81d3672642cd612","650c16f0f2faf8d7a0d14c09","651c1c9979d600d539e23c26","null","null","<p style=""font-size: 60px; font-family: BACS"">uAkrJUNa</p>","","","","","","","","",""
"html-keyboard-response","164","280636","0.0-10.0-0.75","5f5e7de4c81d3672642cd612","650c16f0f2faf8d7a0d14c09","651c1c9979d600d539e23c26","null","null","<p style=""font-size: 60px; font-family: BACS"">rkJuYkZ</p>","","","","","","","","",""
"html-keyboard-response","165","281650","0.0-10.0-0.76","5f5e7de4c81d3672642cd612","650c16f0f2faf8d7a0d14c09","651c1c9979d600d539e23c26","null","null","<p style=""font-size: 60px; font-family: BACS"">hBmMCYDTk</p>","","","","","","","","",""
"html-keyboard-response","166","282661","0.0-10.0-0.77","5f5e7de4c81d3672642cd612","650c16f0f2faf8d7a0d14c09","651c1c9979d600d539e23c26","null","null","<p style=""font-size: 60px; font-family: BACS"">rdLJaAOUl</p>","","","","","","","","",""
"html-keyboard-response","167","283670","0.0-10.0-0.78","5f5e7de4c81d3672642cd612","650c16f0f2faf8d7a0d14c09","651c1c9979d600d539e23c26","null","null","<p style=""font-size: 60px; font-family: BACS"">ORbkYDTk</p>","","","","","","","","",""
"html-keyboard-response","168","284682","0.0-10.0-0.79","5f5e7de4c81d3672642cd612","650c16f0f2faf8d7a0d14c09","651c1c9979d600d539e23c26","null","null","<p style=""font-size: 60px; font-family: BACS"">RtRhDOAK</p>","","","","","","","","",""
"html-keyboard-response","169","287336","0.0-11.0","5f5e7de4c81d3672642cd612","650c16f0f2faf8d7a0d14c09","651c1c9979d600d539e23c26","2654"," ","<p>Great, you've seen the second block of words. You may now take a short break.</p>
      <p>Press the spacebar when you're ready to continue.</p>","","","","","","","","",""
"html-keyboard-response","170","288345","0.0-12.0-0.0","5f5e7de4c81d3672642cd612","650c16f0f2faf8d7a0d14c09","651c1c9979d600d539e23c26","null","null","<p style=""font-size: 60px; font-family: BACS"">dJNrJUNa</p>","","","","","","","","",""
"html-keyboard-response","171","289359","0.0-12.0-0.1","5f5e7de4c81d3672642cd612","650c16f0f2faf8d7a0d14c09","651c1c9979d600d539e23c26","null","null","<p style=""font-size: 60px; font-family: BACS"">hBmMCYDTk</p>","","","","","","","","",""
"html-keyboard-response","172","290371","0.0-12.0-0.2","5f5e7de4c81d3672642cd612","650c16f0f2faf8d7a0d14c09","651c1c9979d600d539e23c26","null","null","<p style=""font-size: 60px; font-family: BACS"">ORbkOYK</p>","","","","","","","","",""
"html-keyboard-response","173","291371","0.0-12.0-0.3","5f5e7de4c81d3672642cd612","650c16f0f2faf8d7a0d14c09","651c1c9979d600d539e23c26","null","null","<p style=""font-size: 60px; font-family: BACS"">dJNrbadk</p>","","","","","","","","",""
"html-keyboard-response","174","292382","0.0-12.0-0.4","5f5e7de4c81d3672642cd612","650c16f0f2faf8d7a0d14c09","651c1c9979d600d539e23c26","null","null","<p style=""font-size: 60px; font-family: BACS"">PhktkRDM</p>","","","","","","","","",""
"html-keyboard-response","175","293393","0.0-12.0-0.5","5f5e7de4c81d3672642cd612","650c16f0f2faf8d7a0d14c09","651c1c9979d600d539e23c26","null","null","<p style=""font-size: 60px; font-family: BACS"">hBmMCDOAK</p>","","","","","","","","",""
"html-keyboard-response","176","294407","0.0-12.0-0.6","5f5e7de4c81d3672642cd612","650c16f0f2faf8d7a0d14c09","651c1c9979d600d539e23c26","null","null","<p style=""font-size: 60px; font-family: BACS"">MBmEOYK</p>","","","","","","","","",""
"html-keyboard-response","177","295421","0.0-12.0-0.7","5f5e7de4c81d3672642cd612","650c16f0f2faf8d7a0d14c09","651c1c9979d600d539e23c26","null","null","<p style=""font-size: 60px; font-family: BACS"">kulZJUNa</p>","","","","","","","","",""
"html-keyboard-response","178","296431","0.0-12.0-0.8","5f5e7de4c81d3672642cd612","650c16f0f2faf8d7a0d14c09","651c1c9979d600d539e23c26","null","null","<p style=""font-size: 60px; font-family: BACS"">cBROBYDTk</p>","","","","","","","","",""
"html-keyboard-response","179","297444","0.0-12.0-0.9","5f5e7de4c81d3672642cd612","650c16f0f2faf8d7a0d14c09","651c1c9979d600d539e23c26","null","null","<p style=""font-size: 60px; font-family: BACS"">NQZvYkZ</p>","","","","","","","","",""
"html-keyboard-response","180","298454","0.0-12.0-0.10","5f5e7de4c81d3672642cd612","650c16f0f2faf8d7a0d14c09","651c1c9979d600d539e23c26","null","null","<p style=""font-size: 60px; font-family: BACS"">rckOAOUl</p>","","","","","","","","",""
"html-keyboard-response","181","299469","0.0-12.0-0.11","5f5e7de4c81d3672642cd612","650c16f0f2faf8d7a0d14c09","651c1c9979d600d539e23c26","null","null","<p style=""font-size: 60px; font-family: BACS"">MBmETAm</p>","","","","","","","","",""
"html-keyboard-response","182","300483","0.0-12.0-0.12","5f5e7de4c81d3672642cd612","650c16f0f2faf8d7a0d14c09","651c1c9979d600d539e23c26","null","null","<p style=""font-size: 60px; font-family: BACS"">cBROBOYK</p>","","","","","","","","",""
"html-keyboard-response","183","301493","0.0-12.0-0.13","5f5e7de4c81d3672642cd612","650c16f0f2faf8d7a0d14c09","651c1c9979d600d539e23c26","null","null","<p style=""font-size: 60px; font-family: BACS"">kKEdMRDM</p>","","","","","","","","",""
"html-keyboard-response","184","302504","0.0-12.0-0.14","5f5e7de4c81d3672642cd612","650c16f0f2faf8d7a0d14c09","651c1c9979d600d539e23c26","null","null","<p style=""font-size: 60px; font-family: BACS"">lbBDEOYK</p>","","","","","","","","",""
"html-keyboard-response","185","303516","0.0-12.0-0.15","5f5e7de4c81d3672642cd612","650c16f0f2faf8d7a0d14c09","651c1c9979d600d539e23c26","null","null","<p style=""font-size: 60px; font-family: BACS"">uAkrbadk</p>","","","","","","","","",""
"html-keyboard-response","186","304525","0.0-12.0-0.16","5f5e7de4c81d3672642cd612","650c16f0f2faf8d7a0d14c09","651c1c9979d600d539e23c26","null","null","<p style=""font-size: 60px; font-family: BACS"">DlDdRDM</p>","","","","","","","","",""
"html-keyboard-response","187","305536","0.0-12.0-0.17","5f5e7de4c81d3672642cd612","650c16f0f2faf8d7a0d14c09","651c1c9979d600d539e23c26","null","null","<p style=""font-size: 60px; font-family: BACS"">rkJuYkZ</p>","","","","","","","","",""
"html-keyboard-response","188","306550","0.0-12.0-0.18","5f5e7de4c81d3672642cd612","650c16f0f2faf8d7a0d14c09","651c1c9979d600d539e23c26","null","null","<p style=""font-size: 60px; font-family: BACS"">PhktkOYK</p>","","","","","","","","",""
"html-keyboard-response","189","307560","0.0-12.0-0.19","5f5e7de4c81d3672642cd612","650c16f0f2faf8d7a0d14c09","651c1c9979d600d539e23c26","null","null","<p style=""font-size: 60px; font-family: BACS"">cBROBDOAK</p>","","","","","","","","",""
"html-keyboard-response","190","308575","0.0-12.0-0.20","5f5e7de4c81d3672642cd612","650c16f0f2faf8d7a0d14c09","651c1c9979d600d539e23c26","null","null","<p style=""font-size: 60px; font-family: BACS"">rkJuJUNa</p>","","","","","","","","",""
"html-keyboard-response","191","309581","0.0-12.0-0.21","5f5e7de4c81d3672642cd612","650c16f0f2faf8d7a0d14c09","651c1c9979d600d539e23c26","null","null","<p style=""font-size: 60px; font-family: BACS"">kKEdMOYK</p>","","","","","","","","",""
"html-keyboard-response","192","310594","0.0-12.0-0.22","5f5e7de4c81d3672642cd612","650c16f0f2faf8d7a0d14c09","651c1c9979d600d539e23c26","null","null","<p style=""font-size: 60px; font-family: BACS"">lbBDERDM</p>","","","","","","","","",""
"html-keyboard-response","193","311607","0.0-12.0-0.23","5f5e7de4c81d3672642cd612","650c16f0f2faf8d7a0d14c09","651c1c9979d600d539e23c26","null","null","<p style=""font-size: 60px; font-family: BACS"">OJGQJUG</p>","","","","","","","","",""
"html-keyboard-response","194","312620","0.0-12.0-0.24","5f5e7de4c81d3672642cd612","650c16f0f2faf8d7a0d14c09","651c1c9979d600d539e23c26","null","null","<p style=""font-size: 60px; font-family: BACS"">kKEdMTAm</p>","","","","","","","","",""
"html-keyboard-response","195","313627","0.0-12.0-0.25","5f5e7de4c81d3672642cd612","650c16f0f2faf8d7a0d14c09","651c1c9979d600d539e23c26","null","null","<p style=""font-size: 60px; font-family: BACS"">rckOYkZ</p>","","","","","","","","",""
"html-keyboard-response","196","314639","0.0-12.0-0.26","5f5e7de4c81d3672642cd612","650c16f0f2faf8d7a0d14c09","651c1c9979d600d539e23c26","null","null","<p style=""font-size: 60px; font-family: BACS"">PhktkDOAK</p>","","","","","","","","",""
"html-keyboard-response","197","315651","0.0-12.0-0.27","5f5e7de4c81d3672642cd612","650c16f0f2faf8d7a0d14c09","651c1c9979d600d539e23c26","null","null","<p style=""font-size: 60px; font-family: BACS"">rdLJabadk</p>","","","","","","","","",""
"html-keyboard-response","198","316665","0.0-12.0-0.28","5f5e7de4c81d3672642cd612","650c16f0f2faf8d7a0d14c09","651c1c9979d600d539e23c26","null","null","<p style=""font-size: 60px; font-family: BACS"">GNAcaAOUl</p>","","","","","","","","",""
"html-keyboard-response","199","317680","0.0-12.0-0.29","5f5e7de4c81d3672642cd612","650c16f0f2faf8d7a0d14c09","651c1c9979d600d539e23c26","null","null","<p style=""font-size: 60px; font-family: BACS"">uAkrYkZ</p>","","","","","","","","",""
"html-keyboard-response","200","318690","0.0-12.0-0.30","5f5e7de4c81d3672642cd612","650c16f0f2faf8d7a0d14c09","651c1c9979d600d539e23c26","null","null","<p style=""font-size: 60px; font-family: BACS"">NQZvJUG</p>","","","","","","","","",""
"html-keyboard-response","201","319703","0.0-12.0-0.31","5f5e7de4c81d3672642cd612","650c16f0f2faf8d7a0d14c09","651c1c9979d600d539e23c26","null","null","<p style=""font-size: 60px; font-family: BACS"">DCmhDOAK</p>","","","","","","","","",""
"html-keyboard-response","202","320709","0.0-12.0-0.32","5f5e7de4c81d3672642cd612","650c16f0f2faf8d7a0d14c09","651c1c9979d600d539e23c26","null","null","<p style=""font-size: 60px; font-family: BACS"">rckOJUNa</p>","","","","","","","","",""
"html-keyboard-response","203","321720","0.0-12.0-0.33","5f5e7de4c81d3672642cd612","650c16f0f2faf8d7a0d14c09","651c1c9979d600d539e23c26","null","null","<p style=""font-size: 60px; font-family: BACS"">NQZvAOUl</p>","","","","","","","","",""
"html-keyboard-response","204","322734","0.0-12.0-0.34","5f5e7de4c81d3672642cd612","650c16f0f2faf8d7a0d14c09","651c1c9979d600d539e23c26","null","null","<p style=""font-size: 60px; font-family: BACS"">hBmMCRDM</p>","","","","","","","","",""
"html-keyboard-response","205","323746","0.0-12.0-0.35","5f5e7de4c81d3672642cd612","650c16f0f2faf8d7a0d14c09","651c1c9979d600d539e23c26","null","null","<p style=""font-size: 60px; font-family: BACS"">kulZAOUl</p>","","","","","","","","",""
"html-keyboard-response","206","324749","0.0-12.0-0.36","5f5e7de4c81d3672642cd612","650c16f0f2faf8d7a0d14c09","651c1c9979d600d539e23c26","null","null","<p style=""font-size: 60px; font-family: BACS"">cBROBTAm</p>","","","","","","","","",""
"html-keyboard-response","207","325760","0.0-12.0-0.37","5f5e7de4c81d3672642cd612","650c16f0f2faf8d7a0d14c09","651c1c9979d600d539e23c26","null","null","<p style=""font-size: 60px; font-family: BACS"">RtRhOYK</p>","","","","","","","","",""
"html-keyboard-response","208","326774","0.0-12.0-0.38","5f5e7de4c81d3672642cd612","650c16f0f2faf8d7a0d14c09","651c1c9979d600d539e23c26","null","null","<p style=""font-size: 60px; font-family: BACS"">kKEdMYDTk</p>","","","","","","","","",""
"html-keyboard-response","209","327788","0.0-12.0-0.39","5f5e7de4c81d3672642cd612","650c16f0f2faf8d7a0d14c09","651c1c9979d600d539e23c26","null","null","<p style=""font-size: 60px; font-family: BACS"">rkJuJUG</p>","","","","","","","","",""
"html-keyboard-response","210","328803","0.0-12.0-0.40","5f5e7de4c81d3672642cd612","650c16f0f2faf8d7a0d14c09","651c1c9979d600d539e23c26","null","null","<p style=""font-size: 60px; font-family: BACS"">Ydudbadk</p>","","","","","","","","",""
"html-keyboard-response","211","329813","0.0-12.0-0.41","5f5e7de4c81d3672642cd612","650c16f0f2faf8d7a0d14c09","651c1c9979d600d539e23c26","null","null","<p style=""font-size: 60px; font-family: BACS"">OJGQYkZ</p>","","","","","","","","",""
"html-keyboard-response","212","330816","0.0-12.0-0.42","5f5e7de4c81d3672642cd612","650c16f0f2faf8d7a0d14c09","651c1c9979d600d539e23c26","null","null","<p style=""font-size: 60px; font-family: BACS"">hBmMCTAm</p>","","","","","","","","",""
"html-keyboard-response","213","331832","0.0-12.0-0.43","5f5e7de4c81d3672642cd612","650c16f0f2faf8d7a0d14c09","651c1c9979d600d539e23c26","null","null","<p style=""font-size: 60px; font-family: BACS"">rckOJUG</p>","","","","","","","","",""
"html-keyboard-response","214","332842","0.0-12.0-0.44","5f5e7de4c81d3672642cd612","650c16f0f2faf8d7a0d14c09","651c1c9979d600d539e23c26","null","null","<p style=""font-size: 60px; font-family: BACS"">rdLJaYkZ</p>","","","","","","","","",""
"html-keyboard-response","215","333856","0.0-12.0-0.45","5f5e7de4c81d3672642cd612","650c16f0f2faf8d7a0d14c09","651c1c9979d600d539e23c26","null","null","<p style=""font-size: 60px; font-family: BACS"">lbBDEYDTk</p>","","","","","","","","",""
"html-keyboard-response","216","334867","0.0-12.0-0.46","5f5e7de4c81d3672642cd612","650c16f0f2faf8d7a0d14c09","651c1c9979d600d539e23c26","null","null","<p style=""font-size: 60px; font-family: BACS"">uAkrJUNa</p>","","","","","","","","",""
"html-keyboard-response","217","335879","0.0-12.0-0.47","5f5e7de4c81d3672642cd612","650c16f0f2faf8d7a0d14c09","651c1c9979d600d539e23c26","null","null","<p style=""font-size: 60px; font-family: BACS"">PhktkTAm</p>","","","","","","","","",""
"html-keyboard-response","218","336891","0.0-12.0-0.48","5f5e7de4c81d3672642cd612","650c16f0f2faf8d7a0d14c09","651c1c9979d600d539e23c26","null","null","<p style=""font-size: 60px; font-family: BACS"">rdLJaAOUl</p>","","","","","","","","",""
"html-keyboard-response","219","337901","0.0-12.0-0.49","5f5e7de4c81d3672642cd612","650c16f0f2faf8d7a0d14c09","651c1c9979d600d539e23c26","null","null","<p style=""font-size: 60px; font-family: BACS"">ORbkYDTk</p>","","","","","","","","",""
"html-keyboard-response","220","338916","0.0-12.0-0.50","5f5e7de4c81d3672642cd612","650c16f0f2faf8d7a0d14c09","651c1c9979d600d539e23c26","null","null","<p style=""font-size: 60px; font-family: BACS"">RtRhDOAK</p>","","","","","","","","",""
"html-keyboard-response","221","339929","0.0-12.0-0.51","5f5e7de4c81d3672642cd612","650c16f0f2faf8d7a0d14c09","651c1c9979d600d539e23c26","null","null","<p style=""font-size: 60px; font-family: BACS"">DCmhYDTk</p>","","","","","","","","",""
"html-keyboard-response","222","340943","0.0-12.0-0.52","5f5e7de4c81d3672642cd612","650c16f0f2faf8d7a0d14c09","651c1c9979d600d539e23c26","null","null","<p style=""font-size: 60px; font-family: BACS"">GNAcaYkZ</p>","","","","","","","","",""
"html-keyboard-response","223","341955","0.0-12.0-0.53","5f5e7de4c81d3672642cd612","650c16f0f2faf8d7a0d14c09","651c1c9979d600d539e23c26","null","null","<p style=""font-size: 60px; font-family: BACS"">MBmERDM</p>","","","","","","","","",""
"html-keyboard-response","224","342965","0.0-12.0-0.54","5f5e7de4c81d3672642cd612","650c16f0f2faf8d7a0d14c09","651c1c9979d600d539e23c26","null","null","<p style=""font-size: 60px; font-family: BACS"">uAkrAOUl</p>","","","","","","","","",""
"html-keyboard-response","225","343976","0.0-12.0-0.55","5f5e7de4c81d3672642cd612","650c16f0f2faf8d7a0d14c09","651c1c9979d600d539e23c26","null","null","<p style=""font-size: 60px; font-family: BACS"">lbBDEDOAK</p>","","","","","","","","",""
"html-keyboard-response","226","344987","0.0-12.0-0.56","5f5e7de4c81d3672642cd612","650c16f0f2faf8d7a0d14c09","651c1c9979d600d539e23c26","null","null","<p style=""font-size: 60px; font-family: BACS"">YdudAOUl</p>","","","","","","","","",""
"html-keyboard-response","227","345998","0.0-12.0-0.57","5f5e7de4c81d3672642cd612","650c16f0f2faf8d7a0d14c09","651c1c9979d600d539e23c26","null","null","<p style=""font-size: 60px; font-family: BACS"">dJNrYkZ</p>","","","","","","","","",""
"html-keyboard-response","228","347006","0.0-12.0-0.58","5f5e7de4c81d3672642cd612","650c16f0f2faf8d7a0d14c09","651c1c9979d600d539e23c26","null","null","<p style=""font-size: 60px; font-family: BACS"">ORbkTAm</p>","","","","","","","","",""
"html-keyboard-response","229","348019","0.0-12.0-0.59","5f5e7de4c81d3672642cd612","650c16f0f2faf8d7a0d14c09","651c1c9979d600d539e23c26","null","null","<p style=""font-size: 60px; font-family: BACS"">dJNrJUG</p>","","","","","","","","",""
"html-keyboard-response","230","349034","0.0-12.0-0.60","5f5e7de4c81d3672642cd612","650c16f0f2faf8d7a0d14c09","651c1c9979d600d539e23c26","null","null","<p style=""font-size: 60px; font-family: BACS"">rkJubadk</p>","","","","","","","","",""
"html-keyboard-response","231","350043","0.0-12.0-0.61","5f5e7de4c81d3672642cd612","650c16f0f2faf8d7a0d14c09","651c1c9979d600d539e23c26","null","null","<p style=""font-size: 60px; font-family: BACS"">RtRhRDM</p>","","","","","","","","",""
"html-keyboard-response","232","351056","0.0-12.0-0.62","5f5e7de4c81d3672642cd612","650c16f0f2faf8d7a0d14c09","651c1c9979d600d539e23c26","null","null","<p style=""font-size: 60px; font-family: BACS"">DlDdYDTk</p>","","","","","","","","",""
"html-keyboard-response","233","352057","0.0-12.0-0.63","5f5e7de4c81d3672642cd612","650c16f0f2faf8d7a0d14c09","651c1c9979d600d539e23c26","null","null","<p style=""font-size: 60px; font-family: BACS"">kulZJUG</p>","","","","","","","","",""
"html-keyboard-response","234","353064","0.0-12.0-0.64","5f5e7de4c81d3672642cd612","650c16f0f2faf8d7a0d14c09","651c1c9979d600d539e23c26","null","null","<p style=""font-size: 60px; font-family: BACS"">DlDdDOAK</p>","","","","","","","","",""
"html-keyboard-response","235","354078","0.0-12.0-0.65","5f5e7de4c81d3672642cd612","650c16f0f2faf8d7a0d14c09","651c1c9979d600d539e23c26","null","null","<p style=""font-size: 60px; font-family: BACS"">GNAcaJUG</p>","","","","","","","","",""
"html-keyboard-response","236","355091","0.0-12.0-0.66","5f5e7de4c81d3672642cd612","650c16f0f2faf8d7a0d14c09","651c1c9979d600d539e23c26","null","null","<p style=""font-size: 60px; font-family: BACS"">OJGQAOUl</p>","","","","","","","","",""
"html-keyboard-response","237","356103","0.0-12.0-0.67","5f5e7de4c81d3672642cd612","650c16f0f2faf8d7a0d14c09","651c1c9979d600d539e23c26","null","null","<p style=""font-size: 60px; font-family: BACS"">YdudJUNa</p>","","","","","","","","",""
"html-keyboard-response","238","357116","0.0-12.0-0.68","5f5e7de4c81d3672642cd612","650c16f0f2faf8d7a0d14c09","651c1c9979d600d539e23c26","null","null","<p style=""font-size: 60px; font-family: BACS"">MBmEDOAK</p>","","","","","","","","",""
"html-keyboard-response","239","358128","0.0-12.0-0.69","5f5e7de4c81d3672642cd612","650c16f0f2faf8d7a0d14c09","651c1c9979d600d539e23c26","null","null","<p style=""font-size: 60px; font-family: BACS"">DCmhTAm</p>","","","","","","","","",""
"html-keyboard-response","240","359141","0.0-12.0-0.70","5f5e7de4c81d3672642cd612","650c16f0f2faf8d7a0d14c09","651c1c9979d600d539e23c26","null","null","<p style=""font-size: 60px; font-family: BACS"">kulZbadk</p>","","","","","","","","",""
"html-keyboard-response","241","360152","0.0-12.0-0.71","5f5e7de4c81d3672642cd612","650c16f0f2faf8d7a0d14c09","651c1c9979d600d539e23c26","null","null","<p style=""font-size: 60px; font-family: BACS"">DCmhOYK</p>","","","","","","","","",""
"html-keyboard-response","242","361160","0.0-12.0-0.72","5f5e7de4c81d3672642cd612","650c16f0f2faf8d7a0d14c09","651c1c9979d600d539e23c26","null","null","<p style=""font-size: 60px; font-family: BACS"">rdLJaJUNa</p>","","","","","","","","",""
"html-keyboard-response","243","362175","0.0-12.0-0.73","5f5e7de4c81d3672642cd612","650c16f0f2faf8d7a0d14c09","651c1c9979d600d539e23c26","null","null","<p style=""font-size: 60px; font-family: BACS"">NQZvbadk</p>","","","","","","","","",""
"html-keyboard-response","244","363186","0.0-12.0-0.74","5f5e7de4c81d3672642cd612","650c16f0f2faf8d7a0d14c09","651c1c9979d600d539e23c26","null","null","<p style=""font-size: 60px; font-family: BACS"">RtRhYDTk</p>","","","","","","","","",""
"html-keyboard-response","245","364198","0.0-12.0-0.75","5f5e7de4c81d3672642cd612","650c16f0f2faf8d7a0d14c09","651c1c9979d600d539e23c26","null","null","<p style=""font-size: 60px; font-family: BACS"">OJGQJUNa</p>","","","","","","","","",""
"html-keyboard-response","246","365212","0.0-12.0-0.76","5f5e7de4c81d3672642cd612","650c16f0f2faf8d7a0d14c09","651c1c9979d600d539e23c26","null","null","<p style=""font-size: 60px; font-family: BACS"">YdudJUG</p>","","","","","","","","",""
"html-keyboard-response","247","366222","0.0-12.0-0.77","5f5e7de4c81d3672642cd612","650c16f0f2faf8d7a0d14c09","651c1c9979d600d539e23c26","null","null","<p style=""font-size: 60px; font-family: BACS"">ORbkRDM</p>","","","","","","","","",""
"html-keyboard-response","248","367235","0.0-12.0-0.78","5f5e7de4c81d3672642cd612","650c16f0f2faf8d7a0d14c09","651c1c9979d600d539e23c26","null","null","<p style=""font-size: 60px; font-family: BACS"">DlDdTAm</p>","","","","","","","","",""
"html-keyboard-response","249","368249","0.0-12.0-0.79","5f5e7de4c81d3672642cd612","650c16f0f2faf8d7a0d14c09","651c1c9979d600d539e23c26","null","null","<p style=""font-size: 60px; font-family: BACS"">GNAcabadk</p>","","","","","","","","",""
"html-keyboard-response","250","372731","0.0-13.0","5f5e7de4c81d3672642cd612","650c16f0f2faf8d7a0d14c09","651c1c9979d600d539e23c26","4482"," ","<p>Great, you've seen the third block of words. You may now take a short break.</p>
      <p>Press the spacebar when you're ready to continue.</p>","","","","","","","","",""
"html-keyboard-response","251","373735","0.0-14.0-0.0","5f5e7de4c81d3672642cd612","650c16f0f2faf8d7a0d14c09","651c1c9979d600d539e23c26","null","null","<p style=""font-size: 60px; font-family: BACS"">MBmEDOAK</p>","","","","","","","","",""
"html-keyboard-response","252","374737","0.0-14.0-0.1","5f5e7de4c81d3672642cd612","650c16f0f2faf8d7a0d14c09","651c1c9979d600d539e23c26","null","null","<p style=""font-size: 60px; font-family: BACS"">cBROBOYK</p>","","","","","","","","",""
"html-keyboard-response","253","375747","0.0-14.0-0.2","5f5e7de4c81d3672642cd612","650c16f0f2faf8d7a0d14c09","651c1c9979d600d539e23c26","null","null","<p style=""font-size: 60px; font-family: BACS"">RtRhRDM</p>","","","","","","","","",""
"html-keyboard-response","254","376762","0.0-14.0-0.3","5f5e7de4c81d3672642cd612","650c16f0f2faf8d7a0d14c09","651c1c9979d600d539e23c26","null","null","<p style=""font-size: 60px; font-family: BACS"">kKEdMYDTk</p>","","","","","","","","",""
"html-keyboard-response","255","377764","0.0-14.0-0.4","5f5e7de4c81d3672642cd612","650c16f0f2faf8d7a0d14c09","651c1c9979d600d539e23c26","null","null","<p style=""font-size: 60px; font-family: BACS"">DlDdRDM</p>","","","","","","","","",""
"html-keyboard-response","256","378775","0.0-14.0-0.5","5f5e7de4c81d3672642cd612","650c16f0f2faf8d7a0d14c09","651c1c9979d600d539e23c26","null","null","<p style=""font-size: 60px; font-family: BACS"">PhktkDOAK</p>","","","","","","","","",""
"html-keyboard-response","257","379788","0.0-14.0-0.6","5f5e7de4c81d3672642cd612","650c16f0f2faf8d7a0d14c09","651c1c9979d600d539e23c26","null","null","<p style=""font-size: 60px; font-family: BACS"">GNAcabadk</p>","","","","","","","","",""
"html-keyboard-response","258","380799","0.0-14.0-0.7","5f5e7de4c81d3672642cd612","650c16f0f2faf8d7a0d14c09","651c1c9979d600d539e23c26","null","null","<p style=""font-size: 60px; font-family: BACS"">rckOYkZ</p>","","","","","","","","",""
"html-keyboard-response","259","381809","0.0-14.0-0.8","5f5e7de4c81d3672642cd612","650c16f0f2faf8d7a0d14c09","651c1c9979d600d539e23c26","null","null","<p style=""font-size: 60px; font-family: BACS"">OJGQJUG</p>","","","","","","","","",""
"html-keyboard-response","260","382825","0.0-14.0-0.9","5f5e7de4c81d3672642cd612","650c16f0f2faf8d7a0d14c09","651c1c9979d600d539e23c26","null","null","<p style=""font-size: 60px; font-family: BACS"">hBmMCTAm</p>","","","","","","","","",""
"html-keyboard-response","261","383839","0.0-14.0-0.10","5f5e7de4c81d3672642cd612","650c16f0f2faf8d7a0d14c09","651c1c9979d600d539e23c26","null","null","<p style=""font-size: 60px; font-family: BACS"">YdudAOUl</p>","","","","","","","","",""
"html-keyboard-response","262","384840","0.0-14.0-0.11","5f5e7de4c81d3672642cd612","650c16f0f2faf8d7a0d14c09","651c1c9979d600d539e23c26","null","null","<p style=""font-size: 60px; font-family: BACS"">cBROBYDTk</p>","","","","","","","","",""
"html-keyboard-response","263","385851","0.0-14.0-0.12","5f5e7de4c81d3672642cd612","650c16f0f2faf8d7a0d14c09","651c1c9979d600d539e23c26","null","null","<p style=""font-size: 60px; font-family: BACS"">hBmMCRDM</p>","","","","","","","","",""
"html-keyboard-response","264","386863","0.0-14.0-0.13","5f5e7de4c81d3672642cd612","650c16f0f2faf8d7a0d14c09","651c1c9979d600d539e23c26","null","null","<p style=""font-size: 60px; font-family: BACS"">rckOJUG</p>","","","","","","","","",""
"html-keyboard-response","265","387876","0.0-14.0-0.14","5f5e7de4c81d3672642cd612","650c16f0f2faf8d7a0d14c09","651c1c9979d600d539e23c26","null","null","<p style=""font-size: 60px; font-family: BACS"">PhktkRDM</p>","","","","","","","","",""
"html-keyboard-response","266","388885","0.0-14.0-0.15","5f5e7de4c81d3672642cd612","650c16f0f2faf8d7a0d14c09","651c1c9979d600d539e23c26","null","null","<p style=""font-size: 60px; font-family: BACS"">RtRhDOAK</p>","","","","","","","","",""
"html-keyboard-response","267","389896","0.0-14.0-0.16","5f5e7de4c81d3672642cd612","650c16f0f2faf8d7a0d14c09","651c1c9979d600d539e23c26","null","null","<p style=""font-size: 60px; font-family: BACS"">rdLJaAOUl</p>","","","","","","","","",""
"html-keyboard-response","268","390910","0.0-14.0-0.17","5f5e7de4c81d3672642cd612","650c16f0f2faf8d7a0d14c09","651c1c9979d600d539e23c26","null","null","<p style=""font-size: 60px; font-family: BACS"">OJGQYkZ</p>","","","","","","","","",""
"html-keyboard-response","269","391923","0.0-14.0-0.18","5f5e7de4c81d3672642cd612","650c16f0f2faf8d7a0d14c09","651c1c9979d600d539e23c26","null","null","<p style=""font-size: 60px; font-family: BACS"">uAkrJUNa</p>","","","","","","","","",""
"html-keyboard-response","270","392935","0.0-14.0-0.19","5f5e7de4c81d3672642cd612","650c16f0f2faf8d7a0d14c09","651c1c9979d600d539e23c26","null","null","<p style=""font-size: 60px; font-family: BACS"">kulZAOUl</p>","","","","","","","","",""
"html-keyboard-response","271","393937","0.0-14.0-0.20","5f5e7de4c81d3672642cd612","650c16f0f2faf8d7a0d14c09","651c1c9979d600d539e23c26","null","null","<p style=""font-size: 60px; font-family: BACS"">rdLJaYkZ</p>","","","","","","","","",""
"html-keyboard-response","272","394951","0.0-14.0-0.21","5f5e7de4c81d3672642cd612","650c16f0f2faf8d7a0d14c09","651c1c9979d600d539e23c26","null","null","<p style=""font-size: 60px; font-family: BACS"">rkJuJUNa</p>","","","","","","","","",""
"html-keyboard-response","273","395966","0.0-14.0-0.22","5f5e7de4c81d3672642cd612","650c16f0f2faf8d7a0d14c09","651c1c9979d600d539e23c26","null","null","<p style=""font-size: 60px; font-family: BACS"">PhktkOYK</p>","","","","","","","","",""
"html-keyboard-response","274","396979","0.0-14.0-0.23","5f5e7de4c81d3672642cd612","650c16f0f2faf8d7a0d14c09","651c1c9979d600d539e23c26","null","null","<p style=""font-size: 60px; font-family: BACS"">rkJuJUG</p>","","","","","","","","",""
"html-keyboard-response","275","397980","0.0-14.0-0.24","5f5e7de4c81d3672642cd612","650c16f0f2faf8d7a0d14c09","651c1c9979d600d539e23c26","null","null","<p style=""font-size: 60px; font-family: BACS"">DlDdYDTk</p>","","","","","","","","",""
"html-keyboard-response","276","398993","0.0-14.0-0.25","5f5e7de4c81d3672642cd612","650c16f0f2faf8d7a0d14c09","651c1c9979d600d539e23c26","null","null","<p style=""font-size: 60px; font-family: BACS"">GNAcaJUG</p>","","","","","","","","",""
"html-keyboard-response","277","400003","0.0-14.0-0.26","5f5e7de4c81d3672642cd612","650c16f0f2faf8d7a0d14c09","651c1c9979d600d539e23c26","null","null","<p style=""font-size: 60px; font-family: BACS"">ORbkRDM</p>","","","","","","","","",""
"html-keyboard-response","278","401015","0.0-14.0-0.27","5f5e7de4c81d3672642cd612","650c16f0f2faf8d7a0d14c09","651c1c9979d600d539e23c26","null","null","<p style=""font-size: 60px; font-family: BACS"">DCmhDOAK</p>","","","","","","","","",""
"html-keyboard-response","279","402027","0.0-14.0-0.28","5f5e7de4c81d3672642cd612","650c16f0f2faf8d7a0d14c09","651c1c9979d600d539e23c26","null","null","<p style=""font-size: 60px; font-family: BACS"">uAkrAOUl</p>","","","","","","","","",""
"html-keyboard-response","280","403037","0.0-14.0-0.29","5f5e7de4c81d3672642cd612","650c16f0f2faf8d7a0d14c09","651c1c9979d600d539e23c26","null","null","<p style=""font-size: 60px; font-family: BACS"">kKEdMOYK</p>","","","","","","","","",""
"html-keyboard-response","281","404050","0.0-14.0-0.30","5f5e7de4c81d3672642cd612","650c16f0f2faf8d7a0d14c09","651c1c9979d600d539e23c26","null","null","<p style=""font-size: 60px; font-family: BACS"">kulZbadk</p>","","","","","","","","",""
"html-keyboard-response","282","405052","0.0-14.0-0.31","5f5e7de4c81d3672642cd612","650c16f0f2faf8d7a0d14c09","651c1c9979d600d539e23c26","null","null","<p style=""font-size: 60px; font-family: BACS"">DCmhYDTk</p>","","","","","","","","",""
"html-keyboard-response","283","406066","0.0-14.0-0.32","5f5e7de4c81d3672642cd612","650c16f0f2faf8d7a0d14c09","651c1c9979d600d539e23c26","null","null","<p style=""font-size: 60px; font-family: BACS"">GNAcaYkZ</p>","","","","","","","","",""
"html-keyboard-response","284","407070","0.0-14.0-0.33","5f5e7de4c81d3672642cd612","650c16f0f2faf8d7a0d14c09","651c1c9979d600d539e23c26","null","null","<p style=""font-size: 60px; font-family: BACS"">ORbkYDTk</p>","","","","","","","","",""
"html-keyboard-response","285","408081","0.0-14.0-0.34","5f5e7de4c81d3672642cd612","650c16f0f2faf8d7a0d14c09","651c1c9979d600d539e23c26","null","null","<p style=""font-size: 60px; font-family: BACS"">cBROBDOAK</p>","","","","","","","","",""
"html-keyboard-response","286","409090","0.0-14.0-0.35","5f5e7de4c81d3672642cd612","650c16f0f2faf8d7a0d14c09","651c1c9979d600d539e23c26","null","null","<p style=""font-size: 60px; font-family: BACS"">rkJubadk</p>","","","","","","","","",""
"html-keyboard-response","287","410102","0.0-14.0-0.36","5f5e7de4c81d3672642cd612","650c16f0f2faf8d7a0d14c09","651c1c9979d600d539e23c26","null","null","<p style=""font-size: 60px; font-family: BACS"">rdLJaJUNa</p>","","","","","","","","",""
"html-keyboard-response","288","411116","0.0-14.0-0.37","5f5e7de4c81d3672642cd612","650c16f0f2faf8d7a0d14c09","651c1c9979d600d539e23c26","null","null","<p style=""font-size: 60px; font-family: BACS"">ORbkTAm</p>","","","","","","","","",""
"html-keyboard-response","289","412131","0.0-14.0-0.38","5f5e7de4c81d3672642cd612","650c16f0f2faf8d7a0d14c09","651c1c9979d600d539e23c26","null","null","<p style=""font-size: 60px; font-family: BACS"">uAkrbadk</p>","","","","","","","","",""
"html-keyboard-response","290","413141","0.0-14.0-0.39","5f5e7de4c81d3672642cd612","650c16f0f2faf8d7a0d14c09","651c1c9979d600d539e23c26","null","null","<p style=""font-size: 60px; font-family: BACS"">lbBDERDM</p>","","","","","","","","",""
"html-keyboard-response","291","414157","0.0-14.0-0.40","5f5e7de4c81d3672642cd612","650c16f0f2faf8d7a0d14c09","651c1c9979d600d539e23c26","null","null","<p style=""font-size: 60px; font-family: BACS"">uAkrYkZ</p>","","","","","","","","",""
"html-keyboard-response","292","415170","0.0-14.0-0.41","5f5e7de4c81d3672642cd612","650c16f0f2faf8d7a0d14c09","651c1c9979d600d539e23c26","null","null","<p style=""font-size: 60px; font-family: BACS"">YdudJUG</p>","","","","","","","","",""
"html-keyboard-response","293","416172","0.0-14.0-0.42","5f5e7de4c81d3672642cd612","650c16f0f2faf8d7a0d14c09","651c1c9979d600d539e23c26","null","null","<p style=""font-size: 60px; font-family: BACS"">lbBDEDOAK</p>","","","","","","","","",""
"html-keyboard-response","294","417180","0.0-14.0-0.43","5f5e7de4c81d3672642cd612","650c16f0f2faf8d7a0d14c09","651c1c9979d600d539e23c26","null","null","<p style=""font-size: 60px; font-family: BACS"">kKEdMRDM</p>","","","","","","","","",""
"html-keyboard-response","295","418185","0.0-14.0-0.44","5f5e7de4c81d3672642cd612","650c16f0f2faf8d7a0d14c09","651c1c9979d600d539e23c26","null","null","<p style=""font-size: 60px; font-family: BACS"">dJNrYkZ</p>","","","","","","","","",""
"html-keyboard-response","296","419186","0.0-14.0-0.45","5f5e7de4c81d3672642cd612","650c16f0f2faf8d7a0d14c09","651c1c9979d600d539e23c26","null","null","<p style=""font-size: 60px; font-family: BACS"">YdudJUNa</p>","","","","","","","","",""
"html-keyboard-response","297","420196","0.0-14.0-0.46","5f5e7de4c81d3672642cd612","650c16f0f2faf8d7a0d14c09","651c1c9979d600d539e23c26","null","null","<p style=""font-size: 60px; font-family: BACS"">rckOAOUl</p>","","","","","","","","",""
"html-keyboard-response","298","421196","0.0-14.0-0.47","5f5e7de4c81d3672642cd612","650c16f0f2faf8d7a0d14c09","651c1c9979d600d539e23c26","null","null","<p style=""font-size: 60px; font-family: BACS"">MBmEOYK</p>","","","","","","","","",""
"html-keyboard-response","299","422212","0.0-14.0-0.48","5f5e7de4c81d3672642cd612","650c16f0f2faf8d7a0d14c09","651c1c9979d600d539e23c26","null","null","<p style=""font-size: 60px; font-family: BACS"">NQZvYkZ</p>","","","","","","","","",""
"html-keyboard-response","300","423225","0.0-14.0-0.49","5f5e7de4c81d3672642cd612","650c16f0f2faf8d7a0d14c09","651c1c9979d600d539e23c26","null","null","<p style=""font-size: 60px; font-family: BACS"">dJNrJUNa</p>","","","","","","","","",""
"html-keyboard-response","301","424241","0.0-14.0-0.50","5f5e7de4c81d3672642cd612","650c16f0f2faf8d7a0d14c09","651c1c9979d600d539e23c26","null","null","<p style=""font-size: 60px; font-family: BACS"">cBROBTAm</p>","","","","","","","","",""
"html-keyboard-response","302","425243","0.0-14.0-0.51","5f5e7de4c81d3672642cd612","650c16f0f2faf8d7a0d14c09","651c1c9979d600d539e23c26","null","null","<p style=""font-size: 60px; font-family: BACS"">dJNrbadk</p>","","","","","","","","",""
"html-keyboard-response","303","426245","0.0-14.0-0.52","5f5e7de4c81d3672642cd612","650c16f0f2faf8d7a0d14c09","651c1c9979d600d539e23c26","null","null","<p style=""font-size: 60px; font-family: BACS"">OJGQAOUl</p>","","","","","","","","",""
"html-keyboard-response","304","427256","0.0-14.0-0.53","5f5e7de4c81d3672642cd612","650c16f0f2faf8d7a0d14c09","651c1c9979d600d539e23c26","null","null","<p style=""font-size: 60px; font-family: BACS"">rkJuYkZ</p>","","","","","","","","",""
"html-keyboard-response","305","428263","0.0-14.0-0.54","5f5e7de4c81d3672642cd612","650c16f0f2faf8d7a0d14c09","651c1c9979d600d539e23c26","null","null","<p style=""font-size: 60px; font-family: BACS"">NQZvJUG</p>","","","","","","","","",""
"html-keyboard-response","306","429273","0.0-14.0-0.55","5f5e7de4c81d3672642cd612","650c16f0f2faf8d7a0d14c09","651c1c9979d600d539e23c26","null","null","<p style=""font-size: 60px; font-family: BACS"">ORbkOYK</p>","","","","","","","","",""
"html-keyboard-response","307","430276","0.0-14.0-0.56","5f5e7de4c81d3672642cd612","650c16f0f2faf8d7a0d14c09","651c1c9979d600d539e23c26","null","null","<p style=""font-size: 60px; font-family: BACS"">OJGQJUNa</p>","","","","","","","","",""
"html-keyboard-response","308","431289","0.0-14.0-0.57","5f5e7de4c81d3672642cd612","650c16f0f2faf8d7a0d14c09","651c1c9979d600d539e23c26","null","null","<p style=""font-size: 60px; font-family: BACS"">lbBDEYDTk</p>","","","","","","","","",""
"html-keyboard-response","309","432296","0.0-14.0-0.58","5f5e7de4c81d3672642cd612","650c16f0f2faf8d7a0d14c09","651c1c9979d600d539e23c26","null","null","<p style=""font-size: 60px; font-family: BACS"">Ydudbadk</p>","","","","","","","","",""
"html-keyboard-response","310","433305","0.0-14.0-0.59","5f5e7de4c81d3672642cd612","650c16f0f2faf8d7a0d14c09","651c1c9979d600d539e23c26","null","null","<p style=""font-size: 60px; font-family: BACS"">DlDdDOAK</p>","","","","","","","","",""
"html-keyboard-response","311","434317","0.0-14.0-0.60","5f5e7de4c81d3672642cd612","650c16f0f2faf8d7a0d14c09","651c1c9979d600d539e23c26","null","null","<p style=""font-size: 60px; font-family: BACS"">rckOJUNa</p>","","","","","","","","",""
"html-keyboard-response","312","435329","0.0-14.0-0.61","5f5e7de4c81d3672642cd612","650c16f0f2faf8d7a0d14c09","651c1c9979d600d539e23c26","null","null","<p style=""font-size: 60px; font-family: BACS"">GNAcaAOUl</p>","","","","","","","","",""
"html-keyboard-response","313","436344","0.0-14.0-0.62","5f5e7de4c81d3672642cd612","650c16f0f2faf8d7a0d14c09","651c1c9979d600d539e23c26","null","null","<p style=""font-size: 60px; font-family: BACS"">hBmMCYDTk</p>","","","","","","","","",""
"html-keyboard-response","314","437361","0.0-14.0-0.63","5f5e7de4c81d3672642cd612","650c16f0f2faf8d7a0d14c09","651c1c9979d600d539e23c26","null","null","<p style=""font-size: 60px; font-family: BACS"">MBmETAm</p>","","","","","","","","",""
"html-keyboard-response","315","438364","0.0-14.0-0.64","5f5e7de4c81d3672642cd612","650c16f0f2faf8d7a0d14c09","651c1c9979d600d539e23c26","null","null","<p style=""font-size: 60px; font-family: BACS"">kulZJUG</p>","","","","","","","","",""
"html-keyboard-response","316","439377","0.0-14.0-0.65","5f5e7de4c81d3672642cd612","650c16f0f2faf8d7a0d14c09","651c1c9979d600d539e23c26","null","null","<p style=""font-size: 60px; font-family: BACS"">PhktkTAm</p>","","","","","","","","",""
"html-keyboard-response","317","440387","0.0-14.0-0.66","5f5e7de4c81d3672642cd612","650c16f0f2faf8d7a0d14c09","651c1c9979d600d539e23c26","null","null","<p style=""font-size: 60px; font-family: BACS"">RtRhOYK</p>","","","","","","","","",""
"html-keyboard-response","318","441398","0.0-14.0-0.67","5f5e7de4c81d3672642cd612","650c16f0f2faf8d7a0d14c09","651c1c9979d600d539e23c26","null","null","<p style=""font-size: 60px; font-family: BACS"">kKEdMTAm</p>","","","","","","","","",""
"html-keyboard-response","319","442401","0.0-14.0-0.68","5f5e7de4c81d3672642cd612","650c16f0f2faf8d7a0d14c09","651c1c9979d600d539e23c26","null","null","<p style=""font-size: 60px; font-family: BACS"">DCmhOYK</p>","","","","","","","","",""
"html-keyboard-response","320","443412","0.0-14.0-0.69","5f5e7de4c81d3672642cd612","650c16f0f2faf8d7a0d14c09","651c1c9979d600d539e23c26","null","null","<p style=""font-size: 60px; font-family: BACS"">MBmERDM</p>","","","","","","","","",""
"html-keyboard-response","321","444425","0.0-14.0-0.70","5f5e7de4c81d3672642cd612","650c16f0f2faf8d7a0d14c09","651c1c9979d600d539e23c26","null","null","<p style=""font-size: 60px; font-family: BACS"">RtRhYDTk</p>","","","","","","","","",""
"html-keyboard-response","322","445435","0.0-14.0-0.71","5f5e7de4c81d3672642cd612","650c16f0f2faf8d7a0d14c09","651c1c9979d600d539e23c26","null","null","<p style=""font-size: 60px; font-family: BACS"">NQZvbadk</p>","","","","","","","","",""
"html-keyboard-response","323","446449","0.0-14.0-0.72","5f5e7de4c81d3672642cd612","650c16f0f2faf8d7a0d14c09","651c1c9979d600d539e23c26","null","null","<p style=""font-size: 60px; font-family: BACS"">hBmMCDOAK</p>","","","","","","","","",""
"html-keyboard-response","324","447460","0.0-14.0-0.73","5f5e7de4c81d3672642cd612","650c16f0f2faf8d7a0d14c09","651c1c9979d600d539e23c26","null","null","<p style=""font-size: 60px; font-family: BACS"">rdLJabadk</p>","","","","","","","","",""
"html-keyboard-response","325","448471","0.0-14.0-0.74","5f5e7de4c81d3672642cd612","650c16f0f2faf8d7a0d14c09","651c1c9979d600d539e23c26","null","null","<p style=""font-size: 60px; font-family: BACS"">kulZJUNa</p>","","","","","","","","",""
"html-keyboard-response","326","449483","0.0-14.0-0.75","5f5e7de4c81d3672642cd612","650c16f0f2faf8d7a0d14c09","651c1c9979d600d539e23c26","null","null","<p style=""font-size: 60px; font-family: BACS"">NQZvAOUl</p>","","","","","","","","",""
"html-keyboard-response","327","450497","0.0-14.0-0.76","5f5e7de4c81d3672642cd612","650c16f0f2faf8d7a0d14c09","651c1c9979d600d539e23c26","null","null","<p style=""font-size: 60px; font-family: BACS"">DCmhTAm</p>","","","","","","","","",""
"html-keyboard-response","328","451508","0.0-14.0-0.77","5f5e7de4c81d3672642cd612","650c16f0f2faf8d7a0d14c09","651c1c9979d600d539e23c26","null","null","<p style=""font-size: 60px; font-family: BACS"">lbBDEOYK</p>","","","","","","","","",""
"html-keyboard-response","329","452520","0.0-14.0-0.78","5f5e7de4c81d3672642cd612","650c16f0f2faf8d7a0d14c09","651c1c9979d600d539e23c26","null","null","<p style=""font-size: 60px; font-family: BACS"">dJNrJUG</p>","","","","","","","","",""
"html-keyboard-response","330","453530","0.0-14.0-0.79","5f5e7de4c81d3672642cd612","650c16f0f2faf8d7a0d14c09","651c1c9979d600d539e23c26","null","null","<p style=""font-size: 60px; font-family: BACS"">DlDdTAm</p>","","","","","","","","",""
"html-keyboard-response","331","456157","0.0-15.0","5f5e7de4c81d3672642cd612","650c16f0f2faf8d7a0d14c09","651c1c9979d600d539e23c26","2627"," ","<p>Great, you've seen the fourth block of words. You may now take a short break.</p>
      <p>Press the spacebar when you're ready to continue.</p>","","","","","","","","",""
"html-keyboard-response","332","457173","0.0-16.0-0.0","5f5e7de4c81d3672642cd612","650c16f0f2faf8d7a0d14c09","651c1c9979d600d539e23c26","null","null","<p style=""font-size: 60px; font-family: BACS"">OJGQYkZ</p>","","","","","","","","",""
"html-keyboard-response","333","458175","0.0-16.0-0.1","5f5e7de4c81d3672642cd612","650c16f0f2faf8d7a0d14c09","651c1c9979d600d539e23c26","null","null","<p style=""font-size: 60px; font-family: BACS"">OJGQYkZ</p>","","","","","","","","",""
"html-keyboard-response","334","459187","0.0-16.0-0.2","5f5e7de4c81d3672642cd612","650c16f0f2faf8d7a0d14c09","651c1c9979d600d539e23c26","null","null","<p style=""font-size: 60px; font-family: BACS"">OJGQYkZ</p>","","","","","","","","",""
"html-keyboard-response","335","460188","0.0-16.0-0.3","5f5e7de4c81d3672642cd612","650c16f0f2faf8d7a0d14c09","651c1c9979d600d539e23c26","null","null","<p style=""font-size: 60px; font-family: BACS"">OJGQYkZ</p>","","","","","","","","",""
"html-keyboard-response","336","461202","0.0-16.0-0.4","5f5e7de4c81d3672642cd612","650c16f0f2faf8d7a0d14c09","651c1c9979d600d539e23c26","null","null","<p style=""font-size: 60px; font-family: BACS"">OJGQYkZ</p>","","","","","","","","",""
"html-keyboard-response","337","462215","0.0-16.0-0.5","5f5e7de4c81d3672642cd612","650c16f0f2faf8d7a0d14c09","651c1c9979d600d539e23c26","null","null","<p style=""font-size: 60px; font-family: BACS"">OJGQYkZ</p>","","","","","","","","",""
"html-keyboard-response","338","463229","0.0-16.0-0.6","5f5e7de4c81d3672642cd612","650c16f0f2faf8d7a0d14c09","651c1c9979d600d539e23c26","null","null","<p style=""font-size: 60px; font-family: BACS"">OJGQYkZ</p>","","","","","","","","",""
"html-keyboard-response","339","464243","0.0-16.0-0.7","5f5e7de4c81d3672642cd612","650c16f0f2faf8d7a0d14c09","651c1c9979d600d539e23c26","null","null","<p style=""font-size: 60px; font-family: BACS"">OJGQYkZ</p>","","","","","","","","",""
"html-keyboard-response","340","465259","0.0-16.0-0.8","5f5e7de4c81d3672642cd612","650c16f0f2faf8d7a0d14c09","651c1c9979d600d539e23c26","null","null","<p style=""font-size: 60px; font-family: BACS"">OJGQYkZ</p>","","","","","","","","",""
"html-keyboard-response","341","466266","0.0-16.0-0.9","5f5e7de4c81d3672642cd612","650c16f0f2faf8d7a0d14c09","651c1c9979d600d539e23c26","null","null","<p style=""font-size: 60px; font-family: BACS"">OJGQYkZ</p>","","","","","","","","",""
"html-keyboard-response","342","467274","0.0-16.0-0.10","5f5e7de4c81d3672642cd612","650c16f0f2faf8d7a0d14c09","651c1c9979d600d539e23c26","null","null","<p style=""font-size: 60px; font-family: BACS"">OJGQYkZ</p>","","","","","","","","",""
"html-keyboard-response","343","468287","0.0-16.0-0.11","5f5e7de4c81d3672642cd612","650c16f0f2faf8d7a0d14c09","651c1c9979d600d539e23c26","null","null","<p style=""font-size: 60px; font-family: BACS"">OJGQYkZ</p>","","","","","","","","",""
"html-keyboard-response","344","469303","0.0-16.0-0.12","5f5e7de4c81d3672642cd612","650c16f0f2faf8d7a0d14c09","651c1c9979d600d539e23c26","null","null","<p style=""font-size: 60px; font-family: BACS"">OJGQYkZ</p>","","","","","","","","",""
"html-keyboard-response","345","470314","0.0-16.0-0.13","5f5e7de4c81d3672642cd612","650c16f0f2faf8d7a0d14c09","651c1c9979d600d539e23c26","null","null","<p style=""font-size: 60px; font-family: BACS"">OJGQYkZ</p>","","","","","","","","",""
"html-keyboard-response","346","471326","0.0-16.0-0.14","5f5e7de4c81d3672642cd612","650c16f0f2faf8d7a0d14c09","651c1c9979d600d539e23c26","null","null","<p style=""font-size: 60px; font-family: BACS"">OJGQYkZ</p>","","","","","","","","",""
"html-keyboard-response","347","472338","0.0-16.0-0.15","5f5e7de4c81d3672642cd612","650c16f0f2faf8d7a0d14c09","651c1c9979d600d539e23c26","null","null","<p style=""font-size: 60px; font-family: BACS"">OJGQYkZ</p>","","","","","","","","",""
"html-keyboard-response","348","473344","0.0-16.0-0.16","5f5e7de4c81d3672642cd612","650c16f0f2faf8d7a0d14c09","651c1c9979d600d539e23c26","null","null","<p style=""font-size: 60px; font-family: BACS"">OJGQYkZ</p>","","","","","","","","",""
"html-keyboard-response","349","474358","0.0-16.0-0.17","5f5e7de4c81d3672642cd612","650c16f0f2faf8d7a0d14c09","651c1c9979d600d539e23c26","null","null","<p style=""font-size: 60px; font-family: BACS"">OJGQYkZ</p>","","","","","","","","",""
"html-keyboard-response","350","475371","0.0-16.0-0.18","5f5e7de4c81d3672642cd612","650c16f0f2faf8d7a0d14c09","651c1c9979d600d539e23c26","null","null","<p style=""font-size: 60px; font-family: BACS"">OJGQYkZ</p>","","","","","","","","",""
"html-keyboard-response","351","476385","0.0-16.0-0.19","5f5e7de4c81d3672642cd612","650c16f0f2faf8d7a0d14c09","651c1c9979d600d539e23c26","null","null","<p style=""font-size: 60px; font-family: BACS"">OJGQYkZ</p>","","","","","","","","",""
"html-keyboard-response","352","477395","0.0-16.0-0.20","5f5e7de4c81d3672642cd612","650c16f0f2faf8d7a0d14c09","651c1c9979d600d539e23c26","null","null","<p style=""font-size: 60px; font-family: BACS"">OJGQYkZ</p>","","","","","","","","",""
"html-keyboard-response","353","478407","0.0-16.0-0.21","5f5e7de4c81d3672642cd612","650c16f0f2faf8d7a0d14c09","651c1c9979d600d539e23c26","null","null","<p style=""font-size: 60px; font-family: BACS"">OJGQYkZ</p>","","","","","","","","",""
"html-keyboard-response","354","479421","0.0-16.0-0.22","5f5e7de4c81d3672642cd612","650c16f0f2faf8d7a0d14c09","651c1c9979d600d539e23c26","null","null","<p style=""font-size: 60px; font-family: BACS"">OJGQYkZ</p>","","","","","","","","",""
"html-keyboard-response","355","480422","0.0-16.0-0.23","5f5e7de4c81d3672642cd612","650c16f0f2faf8d7a0d14c09","651c1c9979d600d539e23c26","null","null","<p style=""font-size: 60px; font-family: BACS"">OJGQYkZ</p>","","","","","","","","",""
"html-keyboard-response","356","481433","0.0-16.0-0.24","5f5e7de4c81d3672642cd612","650c16f0f2faf8d7a0d14c09","651c1c9979d600d539e23c26","null","null","<p style=""font-size: 60px; font-family: BACS"">OJGQYkZ</p>","","","","","","","","",""
"html-keyboard-response","357","482445","0.0-16.0-0.25","5f5e7de4c81d3672642cd612","650c16f0f2faf8d7a0d14c09","651c1c9979d600d539e23c26","null","null","<p style=""font-size: 60px; font-family: BACS"">OJGQYkZ</p>","","","","","","","","",""
"html-keyboard-response","358","483454","0.0-16.0-0.26","5f5e7de4c81d3672642cd612","650c16f0f2faf8d7a0d14c09","651c1c9979d600d539e23c26","null","null","<p style=""font-size: 60px; font-family: BACS"">OJGQYkZ</p>","","","","","","","","",""
"html-keyboard-response","359","484466","0.0-16.0-0.27","5f5e7de4c81d3672642cd612","650c16f0f2faf8d7a0d14c09","651c1c9979d600d539e23c26","null","null","<p style=""font-size: 60px; font-family: BACS"">OJGQYkZ</p>","","","","","","","","",""
"html-keyboard-response","360","485480","0.0-16.0-0.28","5f5e7de4c81d3672642cd612","650c16f0f2faf8d7a0d14c09","651c1c9979d600d539e23c26","null","null","<p style=""font-size: 60px; font-family: BACS"">OJGQYkZ</p>","","","","","","","","",""
"html-keyboard-response","361","486493","0.0-16.0-0.29","5f5e7de4c81d3672642cd612","650c16f0f2faf8d7a0d14c09","651c1c9979d600d539e23c26","null","null","<p style=""font-size: 60px; font-family: BACS"">OJGQYkZ</p>","","","","","","","","",""
"html-keyboard-response","362","487497","0.0-16.0-0.30","5f5e7de4c81d3672642cd612","650c16f0f2faf8d7a0d14c09","651c1c9979d600d539e23c26","null","null","<p style=""font-size: 60px; font-family: BACS"">OJGQYkZ</p>","","","","","","","","",""
"html-keyboard-response","363","488499","0.0-16.0-0.31","5f5e7de4c81d3672642cd612","650c16f0f2faf8d7a0d14c09","651c1c9979d600d539e23c26","null","null","<p style=""font-size: 60px; font-family: BACS"">OJGQYkZ</p>","","","","","","","","",""
"html-keyboard-response","364","489514","0.0-16.0-0.32","5f5e7de4c81d3672642cd612","650c16f0f2faf8d7a0d14c09","651c1c9979d600d539e23c26","null","null","<p style=""font-size: 60px; font-family: BACS"">OJGQYkZ</p>","","","","","","","","",""
"html-keyboard-response","365","490527","0.0-16.0-0.33","5f5e7de4c81d3672642cd612","650c16f0f2faf8d7a0d14c09","651c1c9979d600d539e23c26","null","null","<p style=""font-size: 60px; font-family: BACS"">OJGQYkZ</p>","","","","","","","","",""
"html-keyboard-response","366","491536","0.0-16.0-0.34","5f5e7de4c81d3672642cd612","650c16f0f2faf8d7a0d14c09","651c1c9979d600d539e23c26","null","null","<p style=""font-size: 60px; font-family: BACS"">OJGQYkZ</p>","","","","","","","","",""
"html-keyboard-response","367","492541","0.0-16.0-0.35","5f5e7de4c81d3672642cd612","650c16f0f2faf8d7a0d14c09","651c1c9979d600d539e23c26","null","null","<p style=""font-size: 60px; font-family: BACS"">OJGQYkZ</p>","","","","","","","","",""
"html-keyboard-response","368","493551","0.0-16.0-0.36","5f5e7de4c81d3672642cd612","650c16f0f2faf8d7a0d14c09","651c1c9979d600d539e23c26","null","null","<p style=""font-size: 60px; font-family: BACS"">OJGQYkZ</p>","","","","","","","","",""
"html-keyboard-response","369","494565","0.0-16.0-0.37","5f5e7de4c81d3672642cd612","650c16f0f2faf8d7a0d14c09","651c1c9979d600d539e23c26","null","null","<p style=""font-size: 60px; font-family: BACS"">OJGQYkZ</p>","","","","","","","","",""
"html-keyboard-response","370","495567","0.0-16.0-0.38","5f5e7de4c81d3672642cd612","650c16f0f2faf8d7a0d14c09","651c1c9979d600d539e23c26","null","null","<p style=""font-size: 60px; font-family: BACS"">OJGQYkZ</p>","","","","","","","","",""
"html-keyboard-response","371","496575","0.0-16.0-0.39","5f5e7de4c81d3672642cd612","650c16f0f2faf8d7a0d14c09","651c1c9979d600d539e23c26","null","null","<p style=""font-size: 60px; font-family: BACS"">OJGQYkZ</p>","","","","","","","","",""
"html-keyboard-response","372","497584","0.0-16.0-0.40","5f5e7de4c81d3672642cd612","650c16f0f2faf8d7a0d14c09","651c1c9979d600d539e23c26","null","null","<p style=""font-size: 60px; font-family: BACS"">OJGQYkZ</p>","","","","","","","","",""
"html-keyboard-response","373","498593","0.0-16.0-0.41","5f5e7de4c81d3672642cd612","650c16f0f2faf8d7a0d14c09","651c1c9979d600d539e23c26","null","null","<p style=""font-size: 60px; font-family: BACS"">OJGQYkZ</p>","","","","","","","","",""
"html-keyboard-response","374","499603","0.0-16.0-0.42","5f5e7de4c81d3672642cd612","650c16f0f2faf8d7a0d14c09","651c1c9979d600d539e23c26","null","null","<p style=""font-size: 60px; font-family: BACS"">OJGQYkZ</p>","","","","","","","","",""
"html-keyboard-response","375","500614","0.0-16.0-0.43","5f5e7de4c81d3672642cd612","650c16f0f2faf8d7a0d14c09","651c1c9979d600d539e23c26","null","null","<p style=""font-size: 60px; font-family: BACS"">OJGQYkZ</p>","","","","","","","","",""
"html-keyboard-response","376","501631","0.0-16.0-0.44","5f5e7de4c81d3672642cd612","650c16f0f2faf8d7a0d14c09","651c1c9979d600d539e23c26","null","null","<p style=""font-size: 60px; font-family: BACS"">OJGQYkZ</p>","","","","","","","","",""
"html-keyboard-response","377","502644","0.0-16.0-0.45","5f5e7de4c81d3672642cd612","650c16f0f2faf8d7a0d14c09","651c1c9979d600d539e23c26","null","null","<p style=""font-size: 60px; font-family: BACS"">OJGQYkZ</p>","","","","","","","","",""
"html-keyboard-response","378","503645","0.0-16.0-0.46","5f5e7de4c81d3672642cd612","650c16f0f2faf8d7a0d14c09","651c1c9979d600d539e23c26","null","null","<p style=""font-size: 60px; font-family: BACS"">OJGQYkZ</p>","","","","","","","","",""
"html-keyboard-response","379","504658","0.0-16.0-0.47","5f5e7de4c81d3672642cd612","650c16f0f2faf8d7a0d14c09","651c1c9979d600d539e23c26","null","null","<p style=""font-size: 60px; font-family: BACS"">OJGQYkZ</p>","","","","","","","","",""
"html-keyboard-response","380","505672","0.0-16.0-0.48","5f5e7de4c81d3672642cd612","650c16f0f2faf8d7a0d14c09","651c1c9979d600d539e23c26","null","null","<p style=""font-size: 60px; font-family: BACS"">OJGQYkZ</p>","","","","","","","","",""
"html-keyboard-response","381","506673","0.0-16.0-0.49","5f5e7de4c81d3672642cd612","650c16f0f2faf8d7a0d14c09","651c1c9979d600d539e23c26","null","null","<p style=""font-size: 60px; font-family: BACS"">OJGQYkZ</p>","","","","","","","","",""
"html-keyboard-response","382","507687","0.0-16.0-0.50","5f5e7de4c81d3672642cd612","650c16f0f2faf8d7a0d14c09","651c1c9979d600d539e23c26","null","null","<p style=""font-size: 60px; font-family: BACS"">OJGQYkZ</p>","","","","","","","","",""
"html-keyboard-response","383","508702","0.0-16.0-0.51","5f5e7de4c81d3672642cd612","650c16f0f2faf8d7a0d14c09","651c1c9979d600d539e23c26","null","null","<p style=""font-size: 60px; font-family: BACS"">OJGQYkZ</p>","","","","","","","","",""
"html-keyboard-response","384","509713","0.0-16.0-0.52","5f5e7de4c81d3672642cd612","650c16f0f2faf8d7a0d14c09","651c1c9979d600d539e23c26","null","null","<p style=""font-size: 60px; font-family: BACS"">OJGQYkZ</p>","","","","","","","","",""
"html-keyboard-response","385","510726","0.0-16.0-0.53","5f5e7de4c81d3672642cd612","650c16f0f2faf8d7a0d14c09","651c1c9979d600d539e23c26","null","null","<p style=""font-size: 60px; font-family: BACS"">OJGQYkZ</p>","","","","","","","","",""
"html-keyboard-response","386","511740","0.0-16.0-0.54","5f5e7de4c81d3672642cd612","650c16f0f2faf8d7a0d14c09","651c1c9979d600d539e23c26","null","null","<p style=""font-size: 60px; font-family: BACS"">OJGQYkZ</p>","","","","","","","","",""
"html-keyboard-response","387","512754","0.0-16.0-0.55","5f5e7de4c81d3672642cd612","650c16f0f2faf8d7a0d14c09","651c1c9979d600d539e23c26","null","null","<p style=""font-size: 60px; font-family: BACS"">OJGQYkZ</p>","","","","","","","","",""
"html-keyboard-response","388","513765","0.0-16.0-0.56","5f5e7de4c81d3672642cd612","650c16f0f2faf8d7a0d14c09","651c1c9979d600d539e23c26","null","null","<p style=""font-size: 60px; font-family: BACS"">OJGQYkZ</p>","","","","","","","","",""
"html-keyboard-response","389","514780","0.0-16.0-0.57","5f5e7de4c81d3672642cd612","650c16f0f2faf8d7a0d14c09","651c1c9979d600d539e23c26","null","null","<p style=""font-size: 60px; font-family: BACS"">OJGQYkZ</p>","","","","","","","","",""
"html-keyboard-response","390","515789","0.0-16.0-0.58","5f5e7de4c81d3672642cd612","650c16f0f2faf8d7a0d14c09","651c1c9979d600d539e23c26","null","null","<p style=""font-size: 60px; font-family: BACS"">OJGQYkZ</p>","","","","","","","","",""
"html-keyboard-response","391","516792","0.0-16.0-0.59","5f5e7de4c81d3672642cd612","650c16f0f2faf8d7a0d14c09","651c1c9979d600d539e23c26","null","null","<p style=""font-size: 60px; font-family: BACS"">OJGQYkZ</p>","","","","","","","","",""
"html-keyboard-response","392","517804","0.0-16.0-0.60","5f5e7de4c81d3672642cd612","650c16f0f2faf8d7a0d14c09","651c1c9979d600d539e23c26","null","null","<p style=""font-size: 60px; font-family: BACS"">OJGQYkZ</p>","","","","","","","","",""
"html-keyboard-response","393","518817","0.0-16.0-0.61","5f5e7de4c81d3672642cd612","650c16f0f2faf8d7a0d14c09","651c1c9979d600d539e23c26","null","null","<p style=""font-size: 60px; font-family: BACS"">OJGQYkZ</p>","","","","","","","","",""
"html-keyboard-response","394","519831","0.0-16.0-0.62","5f5e7de4c81d3672642cd612","650c16f0f2faf8d7a0d14c09","651c1c9979d600d539e23c26","null","null","<p style=""font-size: 60px; font-family: BACS"">OJGQYkZ</p>","","","","","","","","",""
"html-keyboard-response","395","520843","0.0-16.0-0.63","5f5e7de4c81d3672642cd612","650c16f0f2faf8d7a0d14c09","651c1c9979d600d539e23c26","null","null","<p style=""font-size: 60px; font-family: BACS"">OJGQYkZ</p>","","","","","","","","",""
"html-keyboard-response","396","521857","0.0-16.0-0.64","5f5e7de4c81d3672642cd612","650c16f0f2faf8d7a0d14c09","651c1c9979d600d539e23c26","null","null","<p style=""font-size: 60px; font-family: BACS"">OJGQYkZ</p>","","","","","","","","",""
"html-keyboard-response","397","522872","0.0-16.0-0.65","5f5e7de4c81d3672642cd612","650c16f0f2faf8d7a0d14c09","651c1c9979d600d539e23c26","null","null","<p style=""font-size: 60px; font-family: BACS"">OJGQYkZ</p>","","","","","","","","",""
"html-keyboard-response","398","523880","0.0-16.0-0.66","5f5e7de4c81d3672642cd612","650c16f0f2faf8d7a0d14c09","651c1c9979d600d539e23c26","null","null","<p style=""font-size: 60px; font-family: BACS"">OJGQYkZ</p>","","","","","","","","",""
