trial_type,trial_index,time_elapsed,internal_node_id,subject_id,study_id,session_id,rt,response,stimulus,success,item,task,correct_response,testing_condition,correct,target,confound,name,view_history
pavlovia,0,1651,0.0-0.0,650aee87054446f772acdfcc,650c16f0f2faf8d7a0d14c09,651c1bfeff8c5c3fcb5f68be,,,,,,,,,,,,,
survey-html-form,1,6971,0.0-1.0,650aee87054446f772acdfcc,650c16f0f2faf8d7a0d14c09,651c1bfeff8c5c3fcb5f68be,5318,"{""ID"":""650aee87054446f772acdfcc""}",,,,,,,,,,,
html-keyboard-response,2,18860,0.0-2.0,650aee87054446f772acdfcc,650c16f0f2faf8d7a0d14c09,651c1bfeff8c5c3fcb5f68be,11888, ,"<p style=""font-size: 15px;"">Before beginning, we ask that you read the consent information and confirm your agreement to participate in the experiment.</p>
      <p style=""font-size: 15px;""> We ask that you remember that this is a research project and that your participation is entirely voluntary. You can stop your participation at any time, without needing to provide any explanation. The study we're asking you to participate in aims at examining how readers process written words. You will be engaged in a session of apprximately 20 minutes, followed by a brief questionnaire. You will have the opportunity to take a few breaks during the experiment. You will be paid £4 for your participation, corresponding to a rate of £8/hour. While this experiment looks at cognitive faculties, this experiment doesn't constitute clinical proof of eventual pathologies.</p>
      <p style=""font-size: 15px;"">All of the information collected thanks to yours and others' participation will be held in a secure password-protected server, and will not be shared with anyone not authorised to view it. Your personal information will be kept with an arbitrary participant ID. Thanks to this data anonymity process, any researcher analysing the data won't be able to track the information back to a specific participant. Therefore, this process will make identifying you impossibile, even when results from the study will be published in scientific reviews, presented at congresses, or at any other public forum. More generally, the collected data will be treated in accordance with the laws on privacy and conformity to the Legislative Degree n. 196 ""Code regarding the protection of personal data"" of the 30th of June 2003 and to the European Regulation 2016/670 (General Data Protection Regulation - GDPR). The Data Protection Officer is Avv. Valentina Carollo, who can be contacted at the following email addresses: <a href=""mailto:dpo@sissa.it"">dpo@sissa.it</a> or <a href=""mailto:rpd@sissa.it"">rpd@sissa.it</a> - PEC: <a href=""mailto:protocollo@pec.sissa.it"">protocollo@pec.sissa.it</a>.</p>
      <p style=""font-size: 15px;""> Before expressing your consent to participate, we would like to remind you again that in case you need explanations on any aspect of the experimental procedure, the researcher is at your disposition (<a href=""mailto:aliebelt@sissa.it"">aliebelt@sissa.it</a>, <a href=""mailto:davide.crepaldi@sissa.it"">davide.crepaldi@sissa.it</a>).</p>
      <p style=""font-size: 15px;"">If you would like to download the informed consent form, you can do so here: <a href=""BASL-Informed_Consent.pdf"" download>informed consent form</a>.</p>
      <p style=""font-size: 15px;"">We ask that you press the spacebar to proceed to the consent section.</p>",,,,,,,,,,
survey-html-form,3,46393,0.0-3.0,650aee87054446f772acdfcc,650c16f0f2faf8d7a0d14c09,651c1bfeff8c5c3fcb5f68be,27532,"{""consent1"":""YES"",""consent2"":""YES"",""consent3"":""YES"",""consent4"":""YES"",""consent5"":""YES"",""consent6"":""YES""}",,,,,,,,,,,
fullscreen,4,50251,0.0-4.0,650aee87054446f772acdfcc,650c16f0f2faf8d7a0d14c09,651c1bfeff8c5c3fcb5f68be,,,,TRUE,,,,,,,,,
html-keyboard-response,5,67549,0.0-5.0,650aee87054446f772acdfcc,650c16f0f2faf8d7a0d14c09,651c1bfeff8c5c3fcb5f68be,17298, ,"<p>Welcome, and thank you very much for your time!</p>
      <p>In this experiment, you'll be a language expert who's been asked to take a look at words that Earth has received in its first communication with aliens. Your task, in this first part of the experiment, is to pay close attention to the words you'll be shown; later, world leaders will ask you questions on what you saw. The words will be shown to you quite quickly; it seems that the aliens were in a hurry :-)</p>
      <p>Press the spacebar to continue.<p>",,,,,,,,,,
html-keyboard-response,6,67601,0.0-6.0,650aee87054446f772acdfcc,650c16f0f2faf8d7a0d14c09,651c1bfeff8c5c3fcb5f68be,null,null,"<p style=""font-size: 120px; font-family: BACS""> </p>",,,,,,,,,,
html-keyboard-response,7,77232,0.0-7.0,650aee87054446f772acdfcc,650c16f0f2faf8d7a0d14c09,651c1bfeff8c5c3fcb5f68be,9630, ,"<p>Here is an example of the words you'll see:</p>
      <img src='esempio.png' height='400px'>
      <p>When you're ready to begin, press the spacebar.</p></div>",,,,,,,,,,
html-keyboard-response,8,78247,0.0-8.0-0.0,650aee87054446f772acdfcc,650c16f0f2faf8d7a0d14c09,651c1bfeff8c5c3fcb5f68be,null,null,"<p style=""font-size: 60px; font-family: BACS"">AYkEhPEdK</p>",,,,,,,,,,
html-keyboard-response,9,79254,0.0-8.0-0.1,650aee87054446f772acdfcc,650c16f0f2faf8d7a0d14c09,651c1bfeff8c5c3fcb5f68be,null,null,"<p style=""font-size: 60px; font-family: BACS"">ZvalvuUY</p>",,,,,,,,,,
html-keyboard-response,10,80261,0.0-8.0-0.2,650aee87054446f772acdfcc,650c16f0f2faf8d7a0d14c09,651c1bfeff8c5c3fcb5f68be,null,null,"<p style=""font-size: 60px; font-family: BACS"">JdGmAvdk</p>",,,,,,,,,,
html-keyboard-response,11,81268,0.0-8.0-0.3,650aee87054446f772acdfcc,650c16f0f2faf8d7a0d14c09,651c1bfeff8c5c3fcb5f68be,null,null,"<p style=""font-size: 60px; font-family: BACS"">PlEKAPT</p>",,,,,,,,,,
html-keyboard-response,12,82273,0.0-8.0-0.4,650aee87054446f772acdfcc,650c16f0f2faf8d7a0d14c09,651c1bfeff8c5c3fcb5f68be,null,null,"<p style=""font-size: 60px; font-family: BACS"">lGZvuUY</p>",,,,,,,,,,
html-keyboard-response,13,83280,0.0-8.0-0.5,650aee87054446f772acdfcc,650c16f0f2faf8d7a0d14c09,651c1bfeff8c5c3fcb5f68be,null,null,"<p style=""font-size: 60px; font-family: BACS"">OQarQdUr</p>",,,,,,,,,,
html-keyboard-response,14,84287,0.0-8.0-0.6,650aee87054446f772acdfcc,650c16f0f2faf8d7a0d14c09,651c1bfeff8c5c3fcb5f68be,null,null,"<p style=""font-size: 60px; font-family: BACS"">tcYbdTAm</p>",,,,,,,,,,
html-keyboard-response,15,85294,0.0-8.0-0.7,650aee87054446f772acdfcc,650c16f0f2faf8d7a0d14c09,651c1bfeff8c5c3fcb5f68be,null,null,"<p style=""font-size: 60px; font-family: BACS"">kNuaJcUk</p>",,,,,,,,,,
html-keyboard-response,16,86303,0.0-8.0-0.8,650aee87054446f772acdfcc,650c16f0f2faf8d7a0d14c09,651c1bfeff8c5c3fcb5f68be,null,null,"<p style=""font-size: 60px; font-family: BACS"">lBKtOdOP</p>",,,,,,,,,,
html-keyboard-response,17,87310,0.0-8.0-0.9,650aee87054446f772acdfcc,650c16f0f2faf8d7a0d14c09,651c1bfeff8c5c3fcb5f68be,null,null,"<p style=""font-size: 60px; font-family: BACS"">hChYAPT</p>",,,,,,,,,,
html-keyboard-response,18,88317,0.0-8.0-0.10,650aee87054446f772acdfcc,650c16f0f2faf8d7a0d14c09,651c1bfeff8c5c3fcb5f68be,null,null,"<p style=""font-size: 60px; font-family: BACS"">OQarQJcUk</p>",,,,,,,,,,
html-keyboard-response,19,89323,0.0-8.0-0.11,650aee87054446f772acdfcc,650c16f0f2faf8d7a0d14c09,651c1bfeff8c5c3fcb5f68be,null,null,"<p style=""font-size: 60px; font-family: BACS"">bRABtPEdK</p>",,,,,,,,,,
html-keyboard-response,20,90329,0.0-8.0-0.12,650aee87054446f772acdfcc,650c16f0f2faf8d7a0d14c09,651c1bfeff8c5c3fcb5f68be,null,null,"<p style=""font-size: 60px; font-family: BACS"">AYkEhOdOP</p>",,,,,,,,,,
html-keyboard-response,21,91337,0.0-8.0-0.13,650aee87054446f772acdfcc,650c16f0f2faf8d7a0d14c09,651c1bfeff8c5c3fcb5f68be,null,null,"<p style=""font-size: 60px; font-family: BACS"">cBROBAPT</p>",,,,,,,,,,
html-keyboard-response,22,92343,0.0-8.0-0.14,650aee87054446f772acdfcc,650c16f0f2faf8d7a0d14c09,651c1bfeff8c5c3fcb5f68be,null,null,"<p style=""font-size: 60px; font-family: BACS"">aYQmZckv</p>",,,,,,,,,,
html-keyboard-response,23,93349,0.0-8.0-0.15,650aee87054446f772acdfcc,650c16f0f2faf8d7a0d14c09,651c1bfeff8c5c3fcb5f68be,null,null,"<p style=""font-size: 60px; font-family: BACS"">MlthAPT</p>",,,,,,,,,,
html-keyboard-response,24,94356,0.0-8.0-0.16,650aee87054446f772acdfcc,650c16f0f2faf8d7a0d14c09,651c1bfeff8c5c3fcb5f68be,null,null,"<p style=""font-size: 60px; font-family: BACS"">hChYOdOP</p>",,,,,,,,,,
html-keyboard-response,25,95363,0.0-8.0-0.17,650aee87054446f772acdfcc,650c16f0f2faf8d7a0d14c09,651c1bfeff8c5c3fcb5f68be,null,null,"<p style=""font-size: 60px; font-family: BACS"">JdOAYAvdk</p>",,,,,,,,,,
html-keyboard-response,26,96368,0.0-8.0-0.18,650aee87054446f772acdfcc,650c16f0f2faf8d7a0d14c09,651c1bfeff8c5c3fcb5f68be,null,null,"<p style=""font-size: 60px; font-family: BACS"">OQarQZckv</p>",,,,,,,,,,
html-keyboard-response,27,97382,0.0-8.0-0.19,650aee87054446f772acdfcc,650c16f0f2faf8d7a0d14c09,651c1bfeff8c5c3fcb5f68be,null,null,"<p style=""font-size: 60px; font-family: BACS"">MlthTmc</p>",,,,,,,,,,
html-keyboard-response,28,98388,0.0-8.0-0.20,650aee87054446f772acdfcc,650c16f0f2faf8d7a0d14c09,651c1bfeff8c5c3fcb5f68be,null,null,"<p style=""font-size: 60px; font-family: BACS"">kNuaAvdk</p>",,,,,,,,,,
html-keyboard-response,29,99396,0.0-8.0-0.21,650aee87054446f772acdfcc,650c16f0f2faf8d7a0d14c09,651c1bfeff8c5c3fcb5f68be,null,null,"<p style=""font-size: 60px; font-family: BACS"">hkRKTAm</p>",,,,,,,,,,
html-keyboard-response,30,100418,0.0-8.0-0.22,650aee87054446f772acdfcc,650c16f0f2faf8d7a0d14c09,651c1bfeff8c5c3fcb5f68be,null,null,"<p style=""font-size: 60px; font-family: BACS"">MlthPEdK</p>",,,,,,,,,,
html-keyboard-response,31,101426,0.0-8.0-0.23,650aee87054446f772acdfcc,650c16f0f2faf8d7a0d14c09,651c1bfeff8c5c3fcb5f68be,null,null,"<p style=""font-size: 60px; font-family: BACS"">OQarQuUY</p>",,,,,,,,,,
html-keyboard-response,32,102433,0.0-8.0-0.24,650aee87054446f772acdfcc,650c16f0f2faf8d7a0d14c09,651c1bfeff8c5c3fcb5f68be,null,null,"<p style=""font-size: 60px; font-family: BACS"">ZvalvdUr</p>",,,,,,,,,,
html-keyboard-response,33,103440,0.0-8.0-0.25,650aee87054446f772acdfcc,650c16f0f2faf8d7a0d14c09,651c1bfeff8c5c3fcb5f68be,null,null,"<p style=""font-size: 60px; font-family: BACS"">AYkEhTmc</p>",,,,,,,,,,
html-keyboard-response,34,104448,0.0-8.0-0.26,650aee87054446f772acdfcc,650c16f0f2faf8d7a0d14c09,651c1bfeff8c5c3fcb5f68be,null,null,"<p style=""font-size: 60px; font-family: BACS"">PlEKOdOP</p>",,,,,,,,,,
html-keyboard-response,35,105454,0.0-8.0-0.27,650aee87054446f772acdfcc,650c16f0f2faf8d7a0d14c09,651c1bfeff8c5c3fcb5f68be,null,null,"<p style=""font-size: 60px; font-family: BACS"">bRABtTmc</p>",,,,,,,,,,
html-keyboard-response,36,106461,0.0-8.0-0.28,650aee87054446f772acdfcc,650c16f0f2faf8d7a0d14c09,651c1bfeff8c5c3fcb5f68be,null,null,"<p style=""font-size: 60px; font-family: BACS"">mkmJNAvdk</p>",,,,,,,,,,
html-keyboard-response,37,107468,0.0-8.0-0.29,650aee87054446f772acdfcc,650c16f0f2faf8d7a0d14c09,651c1bfeff8c5c3fcb5f68be,null,null,"<p style=""font-size: 60px; font-family: BACS"">cBROBTAm</p>",,,,,,,,,,
html-keyboard-response,38,108475,0.0-8.0-0.30,650aee87054446f772acdfcc,650c16f0f2faf8d7a0d14c09,651c1bfeff8c5c3fcb5f68be,null,null,"<p style=""font-size: 60px; font-family: BACS"">lGZvdUr</p>",,,,,,,,,,
html-keyboard-response,39,109481,0.0-8.0-0.31,650aee87054446f772acdfcc,650c16f0f2faf8d7a0d14c09,651c1bfeff8c5c3fcb5f68be,null,null,"<p style=""font-size: 60px; font-family: BACS"">kNuaZckv</p>",,,,,,,,,,
html-keyboard-response,40,110488,0.0-8.0-0.32,650aee87054446f772acdfcc,650c16f0f2faf8d7a0d14c09,651c1bfeff8c5c3fcb5f68be,null,null,"<p style=""font-size: 60px; font-family: BACS"">lBKtTAm</p>",,,,,,,,,,
html-keyboard-response,41,111493,0.0-8.0-0.33,650aee87054446f772acdfcc,650c16f0f2faf8d7a0d14c09,651c1bfeff8c5c3fcb5f68be,null,null,"<p style=""font-size: 60px; font-family: BACS"">tcYbdOdOP</p>",,,,,,,,,,
html-keyboard-response,42,112501,0.0-8.0-0.34,650aee87054446f772acdfcc,650c16f0f2faf8d7a0d14c09,651c1bfeff8c5c3fcb5f68be,null,null,"<p style=""font-size: 60px; font-family: BACS"">adYrcZckv</p>",,,,,,,,,,
html-keyboard-response,43,113505,0.0-8.0-0.35,650aee87054446f772acdfcc,650c16f0f2faf8d7a0d14c09,651c1bfeff8c5c3fcb5f68be,null,null,"<p style=""font-size: 60px; font-family: BACS"">AYkEhTAm</p>",,,,,,,,,,
html-keyboard-response,44,114512,0.0-8.0-0.36,650aee87054446f772acdfcc,650c16f0f2faf8d7a0d14c09,651c1bfeff8c5c3fcb5f68be,null,null,"<p style=""font-size: 60px; font-family: BACS"">cBROBPEdK</p>",,,,,,,,,,
html-keyboard-response,45,115520,0.0-8.0-0.37,650aee87054446f772acdfcc,650c16f0f2faf8d7a0d14c09,651c1bfeff8c5c3fcb5f68be,null,null,"<p style=""font-size: 60px; font-family: BACS"">JdOAYJcUk</p>",,,,,,,,,,
html-keyboard-response,46,116533,0.0-8.0-0.38,650aee87054446f772acdfcc,650c16f0f2faf8d7a0d14c09,651c1bfeff8c5c3fcb5f68be,null,null,"<p style=""font-size: 60px; font-family: BACS"">ZvalvZckv</p>",,,,,,,,,,
html-keyboard-response,47,117541,0.0-8.0-0.39,650aee87054446f772acdfcc,650c16f0f2faf8d7a0d14c09,651c1bfeff8c5c3fcb5f68be,null,null,"<p style=""font-size: 60px; font-family: BACS"">MlthTAm</p>",,,,,,,,,,
html-keyboard-response,48,118548,0.0-8.0-0.40,650aee87054446f772acdfcc,650c16f0f2faf8d7a0d14c09,651c1bfeff8c5c3fcb5f68be,null,null,"<p style=""font-size: 60px; font-family: BACS"">mkmJNZckv</p>",,,,,,,,,,
html-keyboard-response,49,119555,0.0-8.0-0.41,650aee87054446f772acdfcc,650c16f0f2faf8d7a0d14c09,651c1bfeff8c5c3fcb5f68be,null,null,"<p style=""font-size: 60px; font-family: BACS"">PlEKTmc</p>",,,,,,,,,,
html-keyboard-response,50,120562,0.0-8.0-0.42,650aee87054446f772acdfcc,650c16f0f2faf8d7a0d14c09,651c1bfeff8c5c3fcb5f68be,null,null,"<p style=""font-size: 60px; font-family: BACS"">JauQdUr</p>",,,,,,,,,,
html-keyboard-response,51,121569,0.0-8.0-0.43,650aee87054446f772acdfcc,650c16f0f2faf8d7a0d14c09,651c1bfeff8c5c3fcb5f68be,null,null,"<p style=""font-size: 60px; font-family: BACS"">hkRKOdOP</p>",,,,,,,,,,
html-keyboard-response,52,122577,0.0-8.0-0.44,650aee87054446f772acdfcc,650c16f0f2faf8d7a0d14c09,651c1bfeff8c5c3fcb5f68be,null,null,"<p style=""font-size: 60px; font-family: BACS"">lGZvJcUk</p>",,,,,,,,,,
html-keyboard-response,53,123583,0.0-8.0-0.45,650aee87054446f772acdfcc,650c16f0f2faf8d7a0d14c09,651c1bfeff8c5c3fcb5f68be,null,null,"<p style=""font-size: 60px; font-family: BACS"">JdOAYuUY</p>",,,,,,,,,,
html-keyboard-response,54,124590,0.0-8.0-0.46,650aee87054446f772acdfcc,650c16f0f2faf8d7a0d14c09,651c1bfeff8c5c3fcb5f68be,null,null,"<p style=""font-size: 60px; font-family: BACS"">PlEKTAm</p>",,,,,,,,,,
html-keyboard-response,55,125597,0.0-8.0-0.47,650aee87054446f772acdfcc,650c16f0f2faf8d7a0d14c09,651c1bfeff8c5c3fcb5f68be,null,null,"<p style=""font-size: 60px; font-family: BACS"">hChYPEdK</p>",,,,,,,,,,
html-keyboard-response,56,126605,0.0-8.0-0.48,650aee87054446f772acdfcc,650c16f0f2faf8d7a0d14c09,651c1bfeff8c5c3fcb5f68be,null,null,"<p style=""font-size: 60px; font-family: BACS"">bRABtAPT</p>",,,,,,,,,,
html-keyboard-response,57,127612,0.0-8.0-0.49,650aee87054446f772acdfcc,650c16f0f2faf8d7a0d14c09,651c1bfeff8c5c3fcb5f68be,null,null,"<p style=""font-size: 60px; font-family: BACS"">mkmJNdUr</p>",,,,,,,,,,
html-keyboard-response,58,128619,0.0-8.0-0.50,650aee87054446f772acdfcc,650c16f0f2faf8d7a0d14c09,651c1bfeff8c5c3fcb5f68be,null,null,"<p style=""font-size: 60px; font-family: BACS"">lBKtPEdK</p>",,,,,,,,,,
html-keyboard-response,59,129633,0.0-8.0-0.51,650aee87054446f772acdfcc,650c16f0f2faf8d7a0d14c09,651c1bfeff8c5c3fcb5f68be,null,null,"<p style=""font-size: 60px; font-family: BACS"">aYQmdUr</p>",,,,,,,,,,
html-keyboard-response,60,130641,0.0-8.0-0.52,650aee87054446f772acdfcc,650c16f0f2faf8d7a0d14c09,651c1bfeff8c5c3fcb5f68be,null,null,"<p style=""font-size: 60px; font-family: BACS"">kCRmAPT</p>",,,,,,,,,,
html-keyboard-response,61,131648,0.0-8.0-0.53,650aee87054446f772acdfcc,650c16f0f2faf8d7a0d14c09,651c1bfeff8c5c3fcb5f68be,null,null,"<p style=""font-size: 60px; font-family: BACS"">adYrcuUY</p>",,,,,,,,,,
html-keyboard-response,62,132656,0.0-8.0-0.54,650aee87054446f772acdfcc,650c16f0f2faf8d7a0d14c09,651c1bfeff8c5c3fcb5f68be,null,null,"<p style=""font-size: 60px; font-family: BACS"">hChYTmc</p>",,,,,,,,,,
html-keyboard-response,63,133663,0.0-8.0-0.55,650aee87054446f772acdfcc,650c16f0f2faf8d7a0d14c09,651c1bfeff8c5c3fcb5f68be,null,null,"<p style=""font-size: 60px; font-family: BACS"">mkmJNuUY</p>",,,,,,,,,,
html-keyboard-response,64,134671,0.0-8.0-0.56,650aee87054446f772acdfcc,650c16f0f2faf8d7a0d14c09,651c1bfeff8c5c3fcb5f68be,null,null,"<p style=""font-size: 60px; font-family: BACS"">JdOAYZckv</p>",,,,,,,,,,
html-keyboard-response,65,135677,0.0-8.0-0.57,650aee87054446f772acdfcc,650c16f0f2faf8d7a0d14c09,651c1bfeff8c5c3fcb5f68be,null,null,"<p style=""font-size: 60px; font-family: BACS"">hkRKPEdK</p>",,,,,,,,,,
html-keyboard-response,66,136684,0.0-8.0-0.58,650aee87054446f772acdfcc,650c16f0f2faf8d7a0d14c09,651c1bfeff8c5c3fcb5f68be,null,null,"<p style=""font-size: 60px; font-family: BACS"">JauQJcUk</p>",,,,,,,,,,
html-keyboard-response,67,137686,0.0-8.0-0.59,650aee87054446f772acdfcc,650c16f0f2faf8d7a0d14c09,651c1bfeff8c5c3fcb5f68be,null,null,"<p style=""font-size: 60px; font-family: BACS"">kCRmPEdK</p>",,,,,,,,,,
html-keyboard-response,68,138694,0.0-8.0-0.60,650aee87054446f772acdfcc,650c16f0f2faf8d7a0d14c09,651c1bfeff8c5c3fcb5f68be,null,null,"<p style=""font-size: 60px; font-family: BACS"">JdGmuUY</p>",,,,,,,,,,
html-keyboard-response,69,139708,0.0-8.0-0.61,650aee87054446f772acdfcc,650c16f0f2faf8d7a0d14c09,651c1bfeff8c5c3fcb5f68be,null,null,"<p style=""font-size: 60px; font-family: BACS"">JauQZckv</p>",,,,,,,,,,
html-keyboard-response,70,140723,0.0-8.0-0.62,650aee87054446f772acdfcc,650c16f0f2faf8d7a0d14c09,651c1bfeff8c5c3fcb5f68be,null,null,"<p style=""font-size: 60px; font-family: BACS"">cBROBTmc</p>",,,,,,,,,,
html-keyboard-response,71,141730,0.0-8.0-0.63,650aee87054446f772acdfcc,650c16f0f2faf8d7a0d14c09,651c1bfeff8c5c3fcb5f68be,null,null,"<p style=""font-size: 60px; font-family: BACS"">JdGmJcUk</p>",,,,,,,,,,
html-keyboard-response,72,142737,0.0-8.0-0.64,650aee87054446f772acdfcc,650c16f0f2faf8d7a0d14c09,651c1bfeff8c5c3fcb5f68be,null,null,"<p style=""font-size: 60px; font-family: BACS"">tcYbdTmc</p>",,,,,,,,,,
html-keyboard-response,73,143745,0.0-8.0-0.65,650aee87054446f772acdfcc,650c16f0f2faf8d7a0d14c09,651c1bfeff8c5c3fcb5f68be,null,null,"<p style=""font-size: 60px; font-family: BACS"">hkRKAPT</p>",,,,,,,,,,
html-keyboard-response,74,144751,0.0-8.0-0.66,650aee87054446f772acdfcc,650c16f0f2faf8d7a0d14c09,651c1bfeff8c5c3fcb5f68be,null,null,"<p style=""font-size: 60px; font-family: BACS"">kCRmTAm</p>",,,,,,,,,,
html-keyboard-response,75,145759,0.0-8.0-0.67,650aee87054446f772acdfcc,650c16f0f2faf8d7a0d14c09,651c1bfeff8c5c3fcb5f68be,null,null,"<p style=""font-size: 60px; font-family: BACS"">adYrcJcUk</p>",,,,,,,,,,
html-keyboard-response,76,146767,0.0-8.0-0.68,650aee87054446f772acdfcc,650c16f0f2faf8d7a0d14c09,651c1bfeff8c5c3fcb5f68be,null,null,"<p style=""font-size: 60px; font-family: BACS"">lBKtTmc</p>",,,,,,,,,,
html-keyboard-response,77,147774,0.0-8.0-0.69,650aee87054446f772acdfcc,650c16f0f2faf8d7a0d14c09,651c1bfeff8c5c3fcb5f68be,null,null,"<p style=""font-size: 60px; font-family: BACS"">aYQmuUY</p>",,,,,,,,,,
html-keyboard-response,78,148787,0.0-8.0-0.70,650aee87054446f772acdfcc,650c16f0f2faf8d7a0d14c09,651c1bfeff8c5c3fcb5f68be,null,null,"<p style=""font-size: 60px; font-family: BACS"">adYrcAvdk</p>",,,,,,,,,,
html-keyboard-response,79,149795,0.0-8.0-0.71,650aee87054446f772acdfcc,650c16f0f2faf8d7a0d14c09,651c1bfeff8c5c3fcb5f68be,null,null,"<p style=""font-size: 60px; font-family: BACS"">bRABtOdOP</p>",,,,,,,,,,
html-keyboard-response,80,150802,0.0-8.0-0.72,650aee87054446f772acdfcc,650c16f0f2faf8d7a0d14c09,651c1bfeff8c5c3fcb5f68be,null,null,"<p style=""font-size: 60px; font-family: BACS"">JauQAvdk</p>",,,,,,,,,,
html-keyboard-response,81,151808,0.0-8.0-0.73,650aee87054446f772acdfcc,650c16f0f2faf8d7a0d14c09,651c1bfeff8c5c3fcb5f68be,null,null,"<p style=""font-size: 60px; font-family: BACS"">kCRmOdOP</p>",,,,,,,,,,
html-keyboard-response,82,152823,0.0-8.0-0.74,650aee87054446f772acdfcc,650c16f0f2faf8d7a0d14c09,651c1bfeff8c5c3fcb5f68be,null,null,"<p style=""font-size: 60px; font-family: BACS"">aYQmJcUk</p>",,,,,,,,,,
html-keyboard-response,83,153831,0.0-8.0-0.75,650aee87054446f772acdfcc,650c16f0f2faf8d7a0d14c09,651c1bfeff8c5c3fcb5f68be,null,null,"<p style=""font-size: 60px; font-family: BACS"">ZvalvAvdk</p>",,,,,,,,,,
html-keyboard-response,84,154838,0.0-8.0-0.76,650aee87054446f772acdfcc,650c16f0f2faf8d7a0d14c09,651c1bfeff8c5c3fcb5f68be,null,null,"<p style=""font-size: 60px; font-family: BACS"">JdGmdUr</p>",,,,,,,,,,
html-keyboard-response,85,155845,0.0-8.0-0.77,650aee87054446f772acdfcc,650c16f0f2faf8d7a0d14c09,651c1bfeff8c5c3fcb5f68be,null,null,"<p style=""font-size: 60px; font-family: BACS"">tcYbdAPT</p>",,,,,,,,,,
html-keyboard-response,86,156853,0.0-8.0-0.78,650aee87054446f772acdfcc,650c16f0f2faf8d7a0d14c09,651c1bfeff8c5c3fcb5f68be,null,null,"<p style=""font-size: 60px; font-family: BACS"">lGZvAvdk</p>",,,,,,,,,,
html-keyboard-response,87,157860,0.0-8.0-0.79,650aee87054446f772acdfcc,650c16f0f2faf8d7a0d14c09,651c1bfeff8c5c3fcb5f68be,null,null,"<p style=""font-size: 60px; font-family: BACS"">kNuadUr</p>",,,,,,,,,,
html-keyboard-response,88,167942,0.0-9.0,650aee87054446f772acdfcc,650c16f0f2faf8d7a0d14c09,651c1bfeff8c5c3fcb5f68be,10081, ,"<p>Great, you've seen the first block of words. You may now take a short break.</p>
      <p>Press the spacebar when you're ready to continue.</p>",,,,,,,,,,
html-keyboard-response,89,168946,0.0-10.0-0.0,650aee87054446f772acdfcc,650c16f0f2faf8d7a0d14c09,651c1bfeff8c5c3fcb5f68be,null,null,"<p style=""font-size: 60px; font-family: BACS"">lBKtOdOP</p>",,,,,,,,,,
html-keyboard-response,90,169961,0.0-10.0-0.1,650aee87054446f772acdfcc,650c16f0f2faf8d7a0d14c09,651c1bfeff8c5c3fcb5f68be,null,null,"<p style=""font-size: 60px; font-family: BACS"">PlEKAPT</p>",,,,,,,,,,
html-keyboard-response,91,170968,0.0-10.0-0.2,650aee87054446f772acdfcc,650c16f0f2faf8d7a0d14c09,651c1bfeff8c5c3fcb5f68be,null,null,"<p style=""font-size: 60px; font-family: BACS"">AYkEhTAm</p>",,,,,,,,,,
html-keyboard-response,92,171975,0.0-10.0-0.3,650aee87054446f772acdfcc,650c16f0f2faf8d7a0d14c09,651c1bfeff8c5c3fcb5f68be,null,null,"<p style=""font-size: 60px; font-family: BACS"">ZvalvdUr</p>",,,,,,,,,,
html-keyboard-response,93,172981,0.0-10.0-0.4,650aee87054446f772acdfcc,650c16f0f2faf8d7a0d14c09,651c1bfeff8c5c3fcb5f68be,null,null,"<p style=""font-size: 60px; font-family: BACS"">kCRmPEdK</p>",,,,,,,,,,
html-keyboard-response,94,173990,0.0-10.0-0.5,650aee87054446f772acdfcc,650c16f0f2faf8d7a0d14c09,651c1bfeff8c5c3fcb5f68be,null,null,"<p style=""font-size: 60px; font-family: BACS"">lGZvdUr</p>",,,,,,,,,,
html-keyboard-response,95,174996,0.0-10.0-0.6,650aee87054446f772acdfcc,650c16f0f2faf8d7a0d14c09,651c1bfeff8c5c3fcb5f68be,null,null,"<p style=""font-size: 60px; font-family: BACS"">JauQJcUk</p>",,,,,,,,,,
html-keyboard-response,96,176003,0.0-10.0-0.7,650aee87054446f772acdfcc,650c16f0f2faf8d7a0d14c09,651c1bfeff8c5c3fcb5f68be,null,null,"<p style=""font-size: 60px; font-family: BACS"">aYQmdUr</p>",,,,,,,,,,
html-keyboard-response,97,177011,0.0-10.0-0.8,650aee87054446f772acdfcc,650c16f0f2faf8d7a0d14c09,651c1bfeff8c5c3fcb5f68be,null,null,"<p style=""font-size: 60px; font-family: BACS"">tcYbdOdOP</p>",,,,,,,,,,
html-keyboard-response,98,178017,0.0-10.0-0.9,650aee87054446f772acdfcc,650c16f0f2faf8d7a0d14c09,651c1bfeff8c5c3fcb5f68be,null,null,"<p style=""font-size: 60px; font-family: BACS"">MlthTmc</p>",,,,,,,,,,
html-keyboard-response,99,179025,0.0-10.0-0.10,650aee87054446f772acdfcc,650c16f0f2faf8d7a0d14c09,651c1bfeff8c5c3fcb5f68be,null,null,"<p style=""font-size: 60px; font-family: BACS"">mkmJNuUY</p>",,,,,,,,,,
html-keyboard-response,100,180032,0.0-10.0-0.11,650aee87054446f772acdfcc,650c16f0f2faf8d7a0d14c09,651c1bfeff8c5c3fcb5f68be,null,null,"<p style=""font-size: 60px; font-family: BACS"">lGZvJcUk</p>",,,,,,,,,,
html-keyboard-response,101,181039,0.0-10.0-0.12,650aee87054446f772acdfcc,650c16f0f2faf8d7a0d14c09,651c1bfeff8c5c3fcb5f68be,null,null,"<p style=""font-size: 60px; font-family: BACS"">hChYPEdK</p>",,,,,,,,,,
html-keyboard-response,102,182047,0.0-10.0-0.13,650aee87054446f772acdfcc,650c16f0f2faf8d7a0d14c09,651c1bfeff8c5c3fcb5f68be,null,null,"<p style=""font-size: 60px; font-family: BACS"">PlEKTAm</p>",,,,,,,,,,
html-keyboard-response,103,183054,0.0-10.0-0.14,650aee87054446f772acdfcc,650c16f0f2faf8d7a0d14c09,651c1bfeff8c5c3fcb5f68be,null,null,"<p style=""font-size: 60px; font-family: BACS"">hkRKAPT</p>",,,,,,,,,,
html-keyboard-response,104,184070,0.0-10.0-0.15,650aee87054446f772acdfcc,650c16f0f2faf8d7a0d14c09,651c1bfeff8c5c3fcb5f68be,null,null,"<p style=""font-size: 60px; font-family: BACS"">aYQmJcUk</p>",,,,,,,,,,
html-keyboard-response,105,185077,0.0-10.0-0.16,650aee87054446f772acdfcc,650c16f0f2faf8d7a0d14c09,651c1bfeff8c5c3fcb5f68be,null,null,"<p style=""font-size: 60px; font-family: BACS"">MlthPEdK</p>",,,,,,,,,,
html-keyboard-response,106,186091,0.0-10.0-0.17,650aee87054446f772acdfcc,650c16f0f2faf8d7a0d14c09,651c1bfeff8c5c3fcb5f68be,null,null,"<p style=""font-size: 60px; font-family: BACS"">PlEKOdOP</p>",,,,,,,,,,
html-keyboard-response,107,187104,0.0-10.0-0.18,650aee87054446f772acdfcc,650c16f0f2faf8d7a0d14c09,651c1bfeff8c5c3fcb5f68be,null,null,"<p style=""font-size: 60px; font-family: BACS"">tcYbdTmc</p>",,,,,,,,,,
html-keyboard-response,108,188112,0.0-10.0-0.19,650aee87054446f772acdfcc,650c16f0f2faf8d7a0d14c09,651c1bfeff8c5c3fcb5f68be,null,null,"<p style=""font-size: 60px; font-family: BACS"">JauQAvdk</p>",,,,,,,,,,
html-keyboard-response,109,189119,0.0-10.0-0.20,650aee87054446f772acdfcc,650c16f0f2faf8d7a0d14c09,651c1bfeff8c5c3fcb5f68be,null,null,"<p style=""font-size: 60px; font-family: BACS"">kNuaZckv</p>",,,,,,,,,,
html-keyboard-response,110,190122,0.0-10.0-0.21,650aee87054446f772acdfcc,650c16f0f2faf8d7a0d14c09,651c1bfeff8c5c3fcb5f68be,null,null,"<p style=""font-size: 60px; font-family: BACS"">hChYOdOP</p>",,,,,,,,,,
html-keyboard-response,111,191129,0.0-10.0-0.22,650aee87054446f772acdfcc,650c16f0f2faf8d7a0d14c09,651c1bfeff8c5c3fcb5f68be,null,null,"<p style=""font-size: 60px; font-family: BACS"">OQarQZckv</p>",,,,,,,,,,
html-keyboard-response,112,192135,0.0-10.0-0.23,650aee87054446f772acdfcc,650c16f0f2faf8d7a0d14c09,651c1bfeff8c5c3fcb5f68be,null,null,"<p style=""font-size: 60px; font-family: BACS"">JdOAYAvdk</p>",,,,,,,,,,
html-keyboard-response,113,193140,0.0-10.0-0.24,650aee87054446f772acdfcc,650c16f0f2faf8d7a0d14c09,651c1bfeff8c5c3fcb5f68be,null,null,"<p style=""font-size: 60px; font-family: BACS"">PlEKTmc</p>",,,,,,,,,,
html-keyboard-response,114,194148,0.0-10.0-0.25,650aee87054446f772acdfcc,650c16f0f2faf8d7a0d14c09,651c1bfeff8c5c3fcb5f68be,null,null,"<p style=""font-size: 60px; font-family: BACS"">mkmJNZckv</p>",,,,,,,,,,
html-keyboard-response,115,195154,0.0-10.0-0.26,650aee87054446f772acdfcc,650c16f0f2faf8d7a0d14c09,651c1bfeff8c5c3fcb5f68be,null,null,"<p style=""font-size: 60px; font-family: BACS"">kCRmTAm</p>",,,,,,,,,,
html-keyboard-response,116,196162,0.0-10.0-0.27,650aee87054446f772acdfcc,650c16f0f2faf8d7a0d14c09,651c1bfeff8c5c3fcb5f68be,null,null,"<p style=""font-size: 60px; font-family: BACS"">aYQmuUY</p>",,,,,,,,,,
html-keyboard-response,117,197168,0.0-10.0-0.28,650aee87054446f772acdfcc,650c16f0f2faf8d7a0d14c09,651c1bfeff8c5c3fcb5f68be,null,null,"<p style=""font-size: 60px; font-family: BACS"">bRABtOdOP</p>",,,,,,,,,,
html-keyboard-response,118,198177,0.0-10.0-0.29,650aee87054446f772acdfcc,650c16f0f2faf8d7a0d14c09,651c1bfeff8c5c3fcb5f68be,null,null,"<p style=""font-size: 60px; font-family: BACS"">adYrcuUY</p>",,,,,,,,,,
html-keyboard-response,119,199182,0.0-10.0-0.30,650aee87054446f772acdfcc,650c16f0f2faf8d7a0d14c09,651c1bfeff8c5c3fcb5f68be,null,null,"<p style=""font-size: 60px; font-family: BACS"">bRABtAPT</p>",,,,,,,,,,
html-keyboard-response,120,200191,0.0-10.0-0.31,650aee87054446f772acdfcc,650c16f0f2faf8d7a0d14c09,651c1bfeff8c5c3fcb5f68be,null,null,"<p style=""font-size: 60px; font-family: BACS"">JdGmAvdk</p>",,,,,,,,,,
html-keyboard-response,121,201197,0.0-10.0-0.32,650aee87054446f772acdfcc,650c16f0f2faf8d7a0d14c09,651c1bfeff8c5c3fcb5f68be,null,null,"<p style=""font-size: 60px; font-family: BACS"">lBKtTAm</p>",,,,,,,,,,
html-keyboard-response,122,202205,0.0-10.0-0.33,650aee87054446f772acdfcc,650c16f0f2faf8d7a0d14c09,651c1bfeff8c5c3fcb5f68be,null,null,"<p style=""font-size: 60px; font-family: BACS"">AYkEhPEdK</p>",,,,,,,,,,
html-keyboard-response,123,203212,0.0-10.0-0.34,650aee87054446f772acdfcc,650c16f0f2faf8d7a0d14c09,651c1bfeff8c5c3fcb5f68be,null,null,"<p style=""font-size: 60px; font-family: BACS"">JdOAYJcUk</p>",,,,,,,,,,
html-keyboard-response,124,204219,0.0-10.0-0.35,650aee87054446f772acdfcc,650c16f0f2faf8d7a0d14c09,651c1bfeff8c5c3fcb5f68be,null,null,"<p style=""font-size: 60px; font-family: BACS"">cBROBAPT</p>",,,,,,,,,,
html-keyboard-response,125,205227,0.0-10.0-0.36,650aee87054446f772acdfcc,650c16f0f2faf8d7a0d14c09,651c1bfeff8c5c3fcb5f68be,null,null,"<p style=""font-size: 60px; font-family: BACS"">hkRKTAm</p>",,,,,,,,,,
html-keyboard-response,126,206234,0.0-10.0-0.37,650aee87054446f772acdfcc,650c16f0f2faf8d7a0d14c09,651c1bfeff8c5c3fcb5f68be,null,null,"<p style=""font-size: 60px; font-family: BACS"">adYrcJcUk</p>",,,,,,,,,,
html-keyboard-response,127,207248,0.0-10.0-0.38,650aee87054446f772acdfcc,650c16f0f2faf8d7a0d14c09,651c1bfeff8c5c3fcb5f68be,null,null,"<p style=""font-size: 60px; font-family: BACS"">aYQmZckv</p>",,,,,,,,,,
html-keyboard-response,128,208255,0.0-10.0-0.39,650aee87054446f772acdfcc,650c16f0f2faf8d7a0d14c09,651c1bfeff8c5c3fcb5f68be,null,null,"<p style=""font-size: 60px; font-family: BACS"">ZvalvAvdk</p>",,,,,,,,,,
html-keyboard-response,129,209267,0.0-10.0-0.40,650aee87054446f772acdfcc,650c16f0f2faf8d7a0d14c09,651c1bfeff8c5c3fcb5f68be,null,null,"<p style=""font-size: 60px; font-family: BACS"">JauQZckv</p>",,,,,,,,,,
html-keyboard-response,130,210275,0.0-10.0-0.41,650aee87054446f772acdfcc,650c16f0f2faf8d7a0d14c09,651c1bfeff8c5c3fcb5f68be,null,null,"<p style=""font-size: 60px; font-family: BACS"">hChYTmc</p>",,,,,,,,,,
html-keyboard-response,131,211283,0.0-10.0-0.42,650aee87054446f772acdfcc,650c16f0f2faf8d7a0d14c09,651c1bfeff8c5c3fcb5f68be,null,null,"<p style=""font-size: 60px; font-family: BACS"">mkmJNdUr</p>",,,,,,,,,,
html-keyboard-response,132,212297,0.0-10.0-0.43,650aee87054446f772acdfcc,650c16f0f2faf8d7a0d14c09,651c1bfeff8c5c3fcb5f68be,null,null,"<p style=""font-size: 60px; font-family: BACS"">ZvalvZckv</p>",,,,,,,,,,
html-keyboard-response,133,213303,0.0-10.0-0.44,650aee87054446f772acdfcc,650c16f0f2faf8d7a0d14c09,651c1bfeff8c5c3fcb5f68be,null,null,"<p style=""font-size: 60px; font-family: BACS"">MlthTAm</p>",,,,,,,,,,
html-keyboard-response,134,214311,0.0-10.0-0.45,650aee87054446f772acdfcc,650c16f0f2faf8d7a0d14c09,651c1bfeff8c5c3fcb5f68be,null,null,"<p style=""font-size: 60px; font-family: BACS"">JdOAYZckv</p>",,,,,,,,,,
html-keyboard-response,135,215317,0.0-10.0-0.46,650aee87054446f772acdfcc,650c16f0f2faf8d7a0d14c09,651c1bfeff8c5c3fcb5f68be,null,null,"<p style=""font-size: 60px; font-family: BACS"">kCRmOdOP</p>",,,,,,,,,,
html-keyboard-response,136,216325,0.0-10.0-0.47,650aee87054446f772acdfcc,650c16f0f2faf8d7a0d14c09,651c1bfeff8c5c3fcb5f68be,null,null,"<p style=""font-size: 60px; font-family: BACS"">JdOAYuUY</p>",,,,,,,,,,
html-keyboard-response,137,217332,0.0-10.0-0.48,650aee87054446f772acdfcc,650c16f0f2faf8d7a0d14c09,651c1bfeff8c5c3fcb5f68be,null,null,"<p style=""font-size: 60px; font-family: BACS"">mkmJNAvdk</p>",,,,,,,,,,
html-keyboard-response,138,218344,0.0-10.0-0.49,650aee87054446f772acdfcc,650c16f0f2faf8d7a0d14c09,651c1bfeff8c5c3fcb5f68be,null,null,"<p style=""font-size: 60px; font-family: BACS"">MlthAPT</p>",,,,,,,,,,
html-keyboard-response,139,219349,0.0-10.0-0.50,650aee87054446f772acdfcc,650c16f0f2faf8d7a0d14c09,651c1bfeff8c5c3fcb5f68be,null,null,"<p style=""font-size: 60px; font-family: BACS"">JdGmuUY</p>",,,,,,,,,,
html-keyboard-response,140,220357,0.0-10.0-0.51,650aee87054446f772acdfcc,650c16f0f2faf8d7a0d14c09,651c1bfeff8c5c3fcb5f68be,null,null,"<p style=""font-size: 60px; font-family: BACS"">OQarQJcUk</p>",,,,,,,,,,
html-keyboard-response,141,221363,0.0-10.0-0.52,650aee87054446f772acdfcc,650c16f0f2faf8d7a0d14c09,651c1bfeff8c5c3fcb5f68be,null,null,"<p style=""font-size: 60px; font-family: BACS"">adYrcAvdk</p>",,,,,,,,,,
html-keyboard-response,142,222375,0.0-10.0-0.53,650aee87054446f772acdfcc,650c16f0f2faf8d7a0d14c09,651c1bfeff8c5c3fcb5f68be,null,null,"<p style=""font-size: 60px; font-family: BACS"">cBROBTmc</p>",,,,,,,,,,
html-keyboard-response,143,223381,0.0-10.0-0.54,650aee87054446f772acdfcc,650c16f0f2faf8d7a0d14c09,651c1bfeff8c5c3fcb5f68be,null,null,"<p style=""font-size: 60px; font-family: BACS"">lBKtPEdK</p>",,,,,,,,,,
html-keyboard-response,144,224389,0.0-10.0-0.55,650aee87054446f772acdfcc,650c16f0f2faf8d7a0d14c09,651c1bfeff8c5c3fcb5f68be,null,null,"<p style=""font-size: 60px; font-family: BACS"">tcYbdAPT</p>",,,,,,,,,,
html-keyboard-response,145,225393,0.0-10.0-0.56,650aee87054446f772acdfcc,650c16f0f2faf8d7a0d14c09,651c1bfeff8c5c3fcb5f68be,null,null,"<p style=""font-size: 60px; font-family: BACS"">hkRKPEdK</p>",,,,,,,,,,
html-keyboard-response,146,226405,0.0-10.0-0.57,650aee87054446f772acdfcc,650c16f0f2faf8d7a0d14c09,651c1bfeff8c5c3fcb5f68be,null,null,"<p style=""font-size: 60px; font-family: BACS"">JauQdUr</p>",,,,,,,,,,
html-keyboard-response,147,227413,0.0-10.0-0.58,650aee87054446f772acdfcc,650c16f0f2faf8d7a0d14c09,651c1bfeff8c5c3fcb5f68be,null,null,"<p style=""font-size: 60px; font-family: BACS"">hChYAPT</p>",,,,,,,,,,
html-keyboard-response,148,228420,0.0-10.0-0.59,650aee87054446f772acdfcc,650c16f0f2faf8d7a0d14c09,651c1bfeff8c5c3fcb5f68be,null,null,"<p style=""font-size: 60px; font-family: BACS"">cBROBPEdK</p>",,,,,,,,,,
html-keyboard-response,149,229426,0.0-10.0-0.60,650aee87054446f772acdfcc,650c16f0f2faf8d7a0d14c09,651c1bfeff8c5c3fcb5f68be,null,null,"<p style=""font-size: 60px; font-family: BACS"">kCRmAPT</p>",,,,,,,,,,
html-keyboard-response,150,230433,0.0-10.0-0.61,650aee87054446f772acdfcc,650c16f0f2faf8d7a0d14c09,651c1bfeff8c5c3fcb5f68be,null,null,"<p style=""font-size: 60px; font-family: BACS"">adYrcZckv</p>",,,,,,,,,,
html-keyboard-response,151,231441,0.0-10.0-0.62,650aee87054446f772acdfcc,650c16f0f2faf8d7a0d14c09,651c1bfeff8c5c3fcb5f68be,null,null,"<p style=""font-size: 60px; font-family: BACS"">OQarQuUY</p>",,,,,,,,,,
html-keyboard-response,152,232449,0.0-10.0-0.63,650aee87054446f772acdfcc,650c16f0f2faf8d7a0d14c09,651c1bfeff8c5c3fcb5f68be,null,null,"<p style=""font-size: 60px; font-family: BACS"">kNuaAvdk</p>",,,,,,,,,,
html-keyboard-response,153,233456,0.0-10.0-0.64,650aee87054446f772acdfcc,650c16f0f2faf8d7a0d14c09,651c1bfeff8c5c3fcb5f68be,null,null,"<p style=""font-size: 60px; font-family: BACS"">AYkEhTmc</p>",,,,,,,,,,
html-keyboard-response,154,234464,0.0-10.0-0.65,650aee87054446f772acdfcc,650c16f0f2faf8d7a0d14c09,651c1bfeff8c5c3fcb5f68be,null,null,"<p style=""font-size: 60px; font-family: BACS"">kNuadUr</p>",,,,,,,,,,
html-keyboard-response,155,235471,0.0-10.0-0.66,650aee87054446f772acdfcc,650c16f0f2faf8d7a0d14c09,651c1bfeff8c5c3fcb5f68be,null,null,"<p style=""font-size: 60px; font-family: BACS"">cBROBTAm</p>",,,,,,,,,,
html-keyboard-response,156,236477,0.0-10.0-0.67,650aee87054446f772acdfcc,650c16f0f2faf8d7a0d14c09,651c1bfeff8c5c3fcb5f68be,null,null,"<p style=""font-size: 60px; font-family: BACS"">OQarQdUr</p>",,,,,,,,,,
html-keyboard-response,157,237484,0.0-10.0-0.68,650aee87054446f772acdfcc,650c16f0f2faf8d7a0d14c09,651c1bfeff8c5c3fcb5f68be,null,null,"<p style=""font-size: 60px; font-family: BACS"">lGZvAvdk</p>",,,,,,,,,,
html-keyboard-response,158,238492,0.0-10.0-0.69,650aee87054446f772acdfcc,650c16f0f2faf8d7a0d14c09,651c1bfeff8c5c3fcb5f68be,null,null,"<p style=""font-size: 60px; font-family: BACS"">lBKtTmc</p>",,,,,,,,,,
html-keyboard-response,159,239499,0.0-10.0-0.70,650aee87054446f772acdfcc,650c16f0f2faf8d7a0d14c09,651c1bfeff8c5c3fcb5f68be,null,null,"<p style=""font-size: 60px; font-family: BACS"">bRABtPEdK</p>",,,,,,,,,,
html-keyboard-response,160,240506,0.0-10.0-0.71,650aee87054446f772acdfcc,650c16f0f2faf8d7a0d14c09,651c1bfeff8c5c3fcb5f68be,null,null,"<p style=""font-size: 60px; font-family: BACS"">tcYbdTAm</p>",,,,,,,,,,
html-keyboard-response,161,241512,0.0-10.0-0.72,650aee87054446f772acdfcc,650c16f0f2faf8d7a0d14c09,651c1bfeff8c5c3fcb5f68be,null,null,"<p style=""font-size: 60px; font-family: BACS"">kNuaJcUk</p>",,,,,,,,,,
html-keyboard-response,162,242519,0.0-10.0-0.73,650aee87054446f772acdfcc,650c16f0f2faf8d7a0d14c09,651c1bfeff8c5c3fcb5f68be,null,null,"<p style=""font-size: 60px; font-family: BACS"">JdGmdUr</p>",,,,,,,,,,
html-keyboard-response,163,243527,0.0-10.0-0.74,650aee87054446f772acdfcc,650c16f0f2faf8d7a0d14c09,651c1bfeff8c5c3fcb5f68be,null,null,"<p style=""font-size: 60px; font-family: BACS"">lGZvuUY</p>",,,,,,,,,,
html-keyboard-response,164,244535,0.0-10.0-0.75,650aee87054446f772acdfcc,650c16f0f2faf8d7a0d14c09,651c1bfeff8c5c3fcb5f68be,null,null,"<p style=""font-size: 60px; font-family: BACS"">hkRKOdOP</p>",,,,,,,,,,
html-keyboard-response,165,245542,0.0-10.0-0.76,650aee87054446f772acdfcc,650c16f0f2faf8d7a0d14c09,651c1bfeff8c5c3fcb5f68be,null,null,"<p style=""font-size: 60px; font-family: BACS"">bRABtTmc</p>",,,,,,,,,,
html-keyboard-response,166,246550,0.0-10.0-0.77,650aee87054446f772acdfcc,650c16f0f2faf8d7a0d14c09,651c1bfeff8c5c3fcb5f68be,null,null,"<p style=""font-size: 60px; font-family: BACS"">AYkEhOdOP</p>",,,,,,,,,,
html-keyboard-response,167,247557,0.0-10.0-0.78,650aee87054446f772acdfcc,650c16f0f2faf8d7a0d14c09,651c1bfeff8c5c3fcb5f68be,null,null,"<p style=""font-size: 60px; font-family: BACS"">JdGmJcUk</p>",,,,,,,,,,
html-keyboard-response,168,248563,0.0-10.0-0.79,650aee87054446f772acdfcc,650c16f0f2faf8d7a0d14c09,651c1bfeff8c5c3fcb5f68be,null,null,"<p style=""font-size: 60px; font-family: BACS"">ZvalvuUY</p>",,,,,,,,,,
html-keyboard-response,169,257947,0.0-11.0,650aee87054446f772acdfcc,650c16f0f2faf8d7a0d14c09,651c1bfeff8c5c3fcb5f68be,9383, ,"<p>Great, you've seen the second block of words. You may now take a short break.</p>
      <p>Press the spacebar when you're ready to continue.</p>",,,,,,,,,,
html-keyboard-response,170,258970,0.0-12.0-0.0,650aee87054446f772acdfcc,650c16f0f2faf8d7a0d14c09,651c1bfeff8c5c3fcb5f68be,null,null,"<p style=""font-size: 60px; font-family: BACS"">OQarQJcUk</p>",,,,,,,,,,
html-keyboard-response,171,259978,0.0-12.0-0.1,650aee87054446f772acdfcc,650c16f0f2faf8d7a0d14c09,651c1bfeff8c5c3fcb5f68be,null,null,"<p style=""font-size: 60px; font-family: BACS"">AYkEhPEdK</p>",,,,,,,,,,
html-keyboard-response,172,260983,0.0-12.0-0.2,650aee87054446f772acdfcc,650c16f0f2faf8d7a0d14c09,651c1bfeff8c5c3fcb5f68be,null,null,"<p style=""font-size: 60px; font-family: BACS"">bRABtAPT</p>",,,,,,,,,,
html-keyboard-response,173,261991,0.0-12.0-0.3,650aee87054446f772acdfcc,650c16f0f2faf8d7a0d14c09,651c1bfeff8c5c3fcb5f68be,null,null,"<p style=""font-size: 60px; font-family: BACS"">JdGmJcUk</p>",,,,,,,,,,
html-keyboard-response,174,262999,0.0-12.0-0.4,650aee87054446f772acdfcc,650c16f0f2faf8d7a0d14c09,651c1bfeff8c5c3fcb5f68be,null,null,"<p style=""font-size: 60px; font-family: BACS"">PlEKOdOP</p>",,,,,,,,,,
html-keyboard-response,175,264005,0.0-12.0-0.5,650aee87054446f772acdfcc,650c16f0f2faf8d7a0d14c09,651c1bfeff8c5c3fcb5f68be,null,null,"<p style=""font-size: 60px; font-family: BACS"">mkmJNdUr</p>",,,,,,,,,,
html-keyboard-response,176,265012,0.0-12.0-0.6,650aee87054446f772acdfcc,650c16f0f2faf8d7a0d14c09,651c1bfeff8c5c3fcb5f68be,null,null,"<p style=""font-size: 60px; font-family: BACS"">lBKtOdOP</p>",,,,,,,,,,
html-keyboard-response,177,266018,0.0-12.0-0.7,650aee87054446f772acdfcc,650c16f0f2faf8d7a0d14c09,651c1bfeff8c5c3fcb5f68be,null,null,"<p style=""font-size: 60px; font-family: BACS"">lGZvAvdk</p>",,,,,,,,,,
html-keyboard-response,178,267023,0.0-12.0-0.8,650aee87054446f772acdfcc,650c16f0f2faf8d7a0d14c09,651c1bfeff8c5c3fcb5f68be,null,null,"<p style=""font-size: 60px; font-family: BACS"">adYrcuUY</p>",,,,,,,,,,
html-keyboard-response,179,268038,0.0-12.0-0.9,650aee87054446f772acdfcc,650c16f0f2faf8d7a0d14c09,651c1bfeff8c5c3fcb5f68be,null,null,"<p style=""font-size: 60px; font-family: BACS"">cBROBPEdK</p>",,,,,,,,,,
html-keyboard-response,180,269045,0.0-12.0-0.10,650aee87054446f772acdfcc,650c16f0f2faf8d7a0d14c09,651c1bfeff8c5c3fcb5f68be,null,null,"<p style=""font-size: 60px; font-family: BACS"">mkmJNuUY</p>",,,,,,,,,,
html-keyboard-response,181,270053,0.0-12.0-0.11,650aee87054446f772acdfcc,650c16f0f2faf8d7a0d14c09,651c1bfeff8c5c3fcb5f68be,null,null,"<p style=""font-size: 60px; font-family: BACS"">bRABtPEdK</p>",,,,,,,,,,
html-keyboard-response,182,271060,0.0-12.0-0.12,650aee87054446f772acdfcc,650c16f0f2faf8d7a0d14c09,651c1bfeff8c5c3fcb5f68be,null,null,"<p style=""font-size: 60px; font-family: BACS"">hChYTmc</p>",,,,,,,,,,
html-keyboard-response,183,272066,0.0-12.0-0.13,650aee87054446f772acdfcc,650c16f0f2faf8d7a0d14c09,651c1bfeff8c5c3fcb5f68be,null,null,"<p style=""font-size: 60px; font-family: BACS"">mkmJNAvdk</p>",,,,,,,,,,
html-keyboard-response,184,273071,0.0-12.0-0.14,650aee87054446f772acdfcc,650c16f0f2faf8d7a0d14c09,651c1bfeff8c5c3fcb5f68be,null,null,"<p style=""font-size: 60px; font-family: BACS"">ZvalvZckv</p>",,,,,,,,,,
html-keyboard-response,185,274079,0.0-12.0-0.15,650aee87054446f772acdfcc,650c16f0f2faf8d7a0d14c09,651c1bfeff8c5c3fcb5f68be,null,null,"<p style=""font-size: 60px; font-family: BACS"">hChYPEdK</p>",,,,,,,,,,
html-keyboard-response,186,275085,0.0-12.0-0.16,650aee87054446f772acdfcc,650c16f0f2faf8d7a0d14c09,651c1bfeff8c5c3fcb5f68be,null,null,"<p style=""font-size: 60px; font-family: BACS"">AYkEhTmc</p>",,,,,,,,,,
html-keyboard-response,187,276093,0.0-12.0-0.17,650aee87054446f772acdfcc,650c16f0f2faf8d7a0d14c09,651c1bfeff8c5c3fcb5f68be,null,null,"<p style=""font-size: 60px; font-family: BACS"">lGZvuUY</p>",,,,,,,,,,
html-keyboard-response,188,277100,0.0-12.0-0.18,650aee87054446f772acdfcc,650c16f0f2faf8d7a0d14c09,651c1bfeff8c5c3fcb5f68be,null,null,"<p style=""font-size: 60px; font-family: BACS"">hkRKOdOP</p>",,,,,,,,,,
html-keyboard-response,189,278104,0.0-12.0-0.19,650aee87054446f772acdfcc,650c16f0f2faf8d7a0d14c09,651c1bfeff8c5c3fcb5f68be,null,null,"<p style=""font-size: 60px; font-family: BACS"">OQarQdUr</p>",,,,,,,,,,
html-keyboard-response,190,279112,0.0-12.0-0.20,650aee87054446f772acdfcc,650c16f0f2faf8d7a0d14c09,651c1bfeff8c5c3fcb5f68be,null,null,"<p style=""font-size: 60px; font-family: BACS"">cBROBTAm</p>",,,,,,,,,,
html-keyboard-response,191,280125,0.0-12.0-0.21,650aee87054446f772acdfcc,650c16f0f2faf8d7a0d14c09,651c1bfeff8c5c3fcb5f68be,null,null,"<p style=""font-size: 60px; font-family: BACS"">JdGmuUY</p>",,,,,,,,,,
html-keyboard-response,192,281126,0.0-12.0-0.22,650aee87054446f772acdfcc,650c16f0f2faf8d7a0d14c09,651c1bfeff8c5c3fcb5f68be,null,null,"<p style=""font-size: 60px; font-family: BACS"">MlthTmc</p>",,,,,,,,,,
html-keyboard-response,193,282133,0.0-12.0-0.23,650aee87054446f772acdfcc,650c16f0f2faf8d7a0d14c09,651c1bfeff8c5c3fcb5f68be,null,null,"<p style=""font-size: 60px; font-family: BACS"">JdOAYJcUk</p>",,,,,,,,,,
html-keyboard-response,194,283139,0.0-12.0-0.24,650aee87054446f772acdfcc,650c16f0f2faf8d7a0d14c09,651c1bfeff8c5c3fcb5f68be,null,null,"<p style=""font-size: 60px; font-family: BACS"">cBROBAPT</p>",,,,,,,,,,
html-keyboard-response,195,284153,0.0-12.0-0.25,650aee87054446f772acdfcc,650c16f0f2faf8d7a0d14c09,651c1bfeff8c5c3fcb5f68be,null,null,"<p style=""font-size: 60px; font-family: BACS"">JdOAYAvdk</p>",,,,,,,,,,
html-keyboard-response,196,285161,0.0-12.0-0.26,650aee87054446f772acdfcc,650c16f0f2faf8d7a0d14c09,651c1bfeff8c5c3fcb5f68be,null,null,"<p style=""font-size: 60px; font-family: BACS"">OQarQZckv</p>",,,,,,,,,,
html-keyboard-response,197,286175,0.0-12.0-0.27,650aee87054446f772acdfcc,650c16f0f2faf8d7a0d14c09,651c1bfeff8c5c3fcb5f68be,null,null,"<p style=""font-size: 60px; font-family: BACS"">tcYbdTmc</p>",,,,,,,,,,
html-keyboard-response,198,287183,0.0-12.0-0.28,650aee87054446f772acdfcc,650c16f0f2faf8d7a0d14c09,651c1bfeff8c5c3fcb5f68be,null,null,"<p style=""font-size: 60px; font-family: BACS"">JauQAvdk</p>",,,,,,,,,,
html-keyboard-response,199,288190,0.0-12.0-0.29,650aee87054446f772acdfcc,650c16f0f2faf8d7a0d14c09,651c1bfeff8c5c3fcb5f68be,null,null,"<p style=""font-size: 60px; font-family: BACS"">ZvalvuUY</p>",,,,,,,,,,
html-keyboard-response,200,289197,0.0-12.0-0.30,650aee87054446f772acdfcc,650c16f0f2faf8d7a0d14c09,651c1bfeff8c5c3fcb5f68be,null,null,"<p style=""font-size: 60px; font-family: BACS"">AYkEhTAm</p>",,,,,,,,,,
html-keyboard-response,201,290205,0.0-12.0-0.31,650aee87054446f772acdfcc,650c16f0f2faf8d7a0d14c09,651c1bfeff8c5c3fcb5f68be,null,null,"<p style=""font-size: 60px; font-family: BACS"">aYQmJcUk</p>",,,,,,,,,,
html-keyboard-response,202,291212,0.0-12.0-0.32,650aee87054446f772acdfcc,650c16f0f2faf8d7a0d14c09,651c1bfeff8c5c3fcb5f68be,null,null,"<p style=""font-size: 60px; font-family: BACS"">hkRKTAm</p>",,,,,,,,,,
html-keyboard-response,203,292218,0.0-12.0-0.33,650aee87054446f772acdfcc,650c16f0f2faf8d7a0d14c09,651c1bfeff8c5c3fcb5f68be,null,null,"<p style=""font-size: 60px; font-family: BACS"">ZvalvdUr</p>",,,,,,,,,,
html-keyboard-response,204,293226,0.0-12.0-0.34,650aee87054446f772acdfcc,650c16f0f2faf8d7a0d14c09,651c1bfeff8c5c3fcb5f68be,null,null,"<p style=""font-size: 60px; font-family: BACS"">MlthPEdK</p>",,,,,,,,,,
html-keyboard-response,205,294232,0.0-12.0-0.35,650aee87054446f772acdfcc,650c16f0f2faf8d7a0d14c09,651c1bfeff8c5c3fcb5f68be,null,null,"<p style=""font-size: 60px; font-family: BACS"">PlEKTAm</p>",,,,,,,,,,
html-keyboard-response,206,295240,0.0-12.0-0.36,650aee87054446f772acdfcc,650c16f0f2faf8d7a0d14c09,651c1bfeff8c5c3fcb5f68be,null,null,"<p style=""font-size: 60px; font-family: BACS"">bRABtOdOP</p>",,,,,,,,,,
html-keyboard-response,207,296247,0.0-12.0-0.37,650aee87054446f772acdfcc,650c16f0f2faf8d7a0d14c09,651c1bfeff8c5c3fcb5f68be,null,null,"<p style=""font-size: 60px; font-family: BACS"">PlEKAPT</p>",,,,,,,,,,
html-keyboard-response,208,297254,0.0-12.0-0.38,650aee87054446f772acdfcc,650c16f0f2faf8d7a0d14c09,651c1bfeff8c5c3fcb5f68be,null,null,"<p style=""font-size: 60px; font-family: BACS"">adYrcZckv</p>",,,,,,,,,,
html-keyboard-response,209,298262,0.0-12.0-0.39,650aee87054446f772acdfcc,650c16f0f2faf8d7a0d14c09,651c1bfeff8c5c3fcb5f68be,null,null,"<p style=""font-size: 60px; font-family: BACS"">lGZvJcUk</p>",,,,,,,,,,
html-keyboard-response,210,299268,0.0-12.0-0.40,650aee87054446f772acdfcc,650c16f0f2faf8d7a0d14c09,651c1bfeff8c5c3fcb5f68be,null,null,"<p style=""font-size: 60px; font-family: BACS"">hkRKAPT</p>",,,,,,,,,,
html-keyboard-response,211,300277,0.0-12.0-0.41,650aee87054446f772acdfcc,650c16f0f2faf8d7a0d14c09,651c1bfeff8c5c3fcb5f68be,null,null,"<p style=""font-size: 60px; font-family: BACS"">kCRmOdOP</p>",,,,,,,,,,
html-keyboard-response,212,301282,0.0-12.0-0.42,650aee87054446f772acdfcc,650c16f0f2faf8d7a0d14c09,651c1bfeff8c5c3fcb5f68be,null,null,"<p style=""font-size: 60px; font-family: BACS"">OQarQuUY</p>",,,,,,,,,,
html-keyboard-response,213,302290,0.0-12.0-0.43,650aee87054446f772acdfcc,650c16f0f2faf8d7a0d14c09,651c1bfeff8c5c3fcb5f68be,null,null,"<p style=""font-size: 60px; font-family: BACS"">kNuaJcUk</p>",,,,,,,,,,
html-keyboard-response,214,303298,0.0-12.0-0.44,650aee87054446f772acdfcc,650c16f0f2faf8d7a0d14c09,651c1bfeff8c5c3fcb5f68be,null,null,"<p style=""font-size: 60px; font-family: BACS"">bRABtTmc</p>",,,,,,,,,,
html-keyboard-response,215,304306,0.0-12.0-0.45,650aee87054446f772acdfcc,650c16f0f2faf8d7a0d14c09,651c1bfeff8c5c3fcb5f68be,null,null,"<p style=""font-size: 60px; font-family: BACS"">JauQJcUk</p>",,,,,,,,,,
html-keyboard-response,216,305312,0.0-12.0-0.46,650aee87054446f772acdfcc,650c16f0f2faf8d7a0d14c09,651c1bfeff8c5c3fcb5f68be,null,null,"<p style=""font-size: 60px; font-family: BACS"">JdOAYuUY</p>",,,,,,,,,,
html-keyboard-response,217,306320,0.0-12.0-0.47,650aee87054446f772acdfcc,650c16f0f2faf8d7a0d14c09,651c1bfeff8c5c3fcb5f68be,null,null,"<p style=""font-size: 60px; font-family: BACS"">lBKtTAm</p>",,,,,,,,,,
html-keyboard-response,218,307328,0.0-12.0-0.48,650aee87054446f772acdfcc,650c16f0f2faf8d7a0d14c09,651c1bfeff8c5c3fcb5f68be,null,null,"<p style=""font-size: 60px; font-family: BACS"">aYQmuUY</p>",,,,,,,,,,
html-keyboard-response,219,308335,0.0-12.0-0.49,650aee87054446f772acdfcc,650c16f0f2faf8d7a0d14c09,651c1bfeff8c5c3fcb5f68be,null,null,"<p style=""font-size: 60px; font-family: BACS"">JdGmdUr</p>",,,,,,,,,,
html-keyboard-response,220,309342,0.0-12.0-0.50,650aee87054446f772acdfcc,650c16f0f2faf8d7a0d14c09,651c1bfeff8c5c3fcb5f68be,null,null,"<p style=""font-size: 60px; font-family: BACS"">lBKtTmc</p>",,,,,,,,,,
html-keyboard-response,221,310351,0.0-12.0-0.51,650aee87054446f772acdfcc,650c16f0f2faf8d7a0d14c09,651c1bfeff8c5c3fcb5f68be,null,null,"<p style=""font-size: 60px; font-family: BACS"">JdOAYZckv</p>",,,,,,,,,,
html-keyboard-response,222,311357,0.0-12.0-0.52,650aee87054446f772acdfcc,650c16f0f2faf8d7a0d14c09,651c1bfeff8c5c3fcb5f68be,null,null,"<p style=""font-size: 60px; font-family: BACS"">kNuaAvdk</p>",,,,,,,,,,
html-keyboard-response,223,312365,0.0-12.0-0.53,650aee87054446f772acdfcc,650c16f0f2faf8d7a0d14c09,651c1bfeff8c5c3fcb5f68be,null,null,"<p style=""font-size: 60px; font-family: BACS"">kCRmTAm</p>",,,,,,,,,,
html-keyboard-response,224,313372,0.0-12.0-0.54,650aee87054446f772acdfcc,650c16f0f2faf8d7a0d14c09,651c1bfeff8c5c3fcb5f68be,null,null,"<p style=""font-size: 60px; font-family: BACS"">MlthAPT</p>",,,,,,,,,,
html-keyboard-response,225,314379,0.0-12.0-0.55,650aee87054446f772acdfcc,650c16f0f2faf8d7a0d14c09,651c1bfeff8c5c3fcb5f68be,null,null,"<p style=""font-size: 60px; font-family: BACS"">aYQmZckv</p>",,,,,,,,,,
html-keyboard-response,226,315387,0.0-12.0-0.56,650aee87054446f772acdfcc,650c16f0f2faf8d7a0d14c09,651c1bfeff8c5c3fcb5f68be,null,null,"<p style=""font-size: 60px; font-family: BACS"">ZvalvAvdk</p>",,,,,,,,,,
html-keyboard-response,227,316395,0.0-12.0-0.57,650aee87054446f772acdfcc,650c16f0f2faf8d7a0d14c09,651c1bfeff8c5c3fcb5f68be,null,null,"<p style=""font-size: 60px; font-family: BACS"">aYQmdUr</p>",,,,,,,,,,
html-keyboard-response,228,317405,0.0-12.0-0.58,650aee87054446f772acdfcc,650c16f0f2faf8d7a0d14c09,651c1bfeff8c5c3fcb5f68be,null,null,"<p style=""font-size: 60px; font-family: BACS"">AYkEhOdOP</p>",,,,,,,,,,
html-keyboard-response,229,318428,0.0-12.0-0.59,650aee87054446f772acdfcc,650c16f0f2faf8d7a0d14c09,651c1bfeff8c5c3fcb5f68be,null,null,"<p style=""font-size: 60px; font-family: BACS"">adYrcJcUk</p>",,,,,,,,,,
html-keyboard-response,230,319437,0.0-12.0-0.60,650aee87054446f772acdfcc,650c16f0f2faf8d7a0d14c09,651c1bfeff8c5c3fcb5f68be,null,null,"<p style=""font-size: 60px; font-family: BACS"">lGZvdUr</p>",,,,,,,,,,
html-keyboard-response,231,320450,0.0-12.0-0.61,650aee87054446f772acdfcc,650c16f0f2faf8d7a0d14c09,651c1bfeff8c5c3fcb5f68be,null,null,"<p style=""font-size: 60px; font-family: BACS"">tcYbdOdOP</p>",,,,,,,,,,
html-keyboard-response,232,321457,0.0-12.0-0.62,650aee87054446f772acdfcc,650c16f0f2faf8d7a0d14c09,651c1bfeff8c5c3fcb5f68be,null,null,"<p style=""font-size: 60px; font-family: BACS"">hChYAPT</p>",,,,,,,,,,
html-keyboard-response,233,322464,0.0-12.0-0.63,650aee87054446f772acdfcc,650c16f0f2faf8d7a0d14c09,651c1bfeff8c5c3fcb5f68be,null,null,"<p style=""font-size: 60px; font-family: BACS"">JauQdUr</p>",,,,,,,,,,
html-keyboard-response,234,323478,0.0-12.0-0.64,650aee87054446f772acdfcc,650c16f0f2faf8d7a0d14c09,651c1bfeff8c5c3fcb5f68be,null,null,"<p style=""font-size: 60px; font-family: BACS"">MlthTAm</p>",,,,,,,,,,
html-keyboard-response,235,324493,0.0-12.0-0.65,650aee87054446f772acdfcc,650c16f0f2faf8d7a0d14c09,651c1bfeff8c5c3fcb5f68be,null,null,"<p style=""font-size: 60px; font-family: BACS"">JauQZckv</p>",,,,,,,,,,
html-keyboard-response,236,325500,0.0-12.0-0.66,650aee87054446f772acdfcc,650c16f0f2faf8d7a0d14c09,651c1bfeff8c5c3fcb5f68be,null,null,"<p style=""font-size: 60px; font-family: BACS"">hkRKPEdK</p>",,,,,,,,,,
html-keyboard-response,237,326506,0.0-12.0-0.67,650aee87054446f772acdfcc,650c16f0f2faf8d7a0d14c09,651c1bfeff8c5c3fcb5f68be,null,null,"<p style=""font-size: 60px; font-family: BACS"">kNuaZckv</p>",,,,,,,,,,
html-keyboard-response,238,327513,0.0-12.0-0.68,650aee87054446f772acdfcc,650c16f0f2faf8d7a0d14c09,651c1bfeff8c5c3fcb5f68be,null,null,"<p style=""font-size: 60px; font-family: BACS"">kCRmAPT</p>",,,,,,,,,,
html-keyboard-response,239,328521,0.0-12.0-0.69,650aee87054446f772acdfcc,650c16f0f2faf8d7a0d14c09,651c1bfeff8c5c3fcb5f68be,null,null,"<p style=""font-size: 60px; font-family: BACS"">lBKtPEdK</p>",,,,,,,,,,
html-keyboard-response,240,329528,0.0-12.0-0.70,650aee87054446f772acdfcc,650c16f0f2faf8d7a0d14c09,651c1bfeff8c5c3fcb5f68be,null,null,"<p style=""font-size: 60px; font-family: BACS"">hChYOdOP</p>",,,,,,,,,,
html-keyboard-response,241,330535,0.0-12.0-0.71,650aee87054446f772acdfcc,650c16f0f2faf8d7a0d14c09,651c1bfeff8c5c3fcb5f68be,null,null,"<p style=""font-size: 60px; font-family: BACS"">tcYbdTAm</p>",,,,,,,,,,
html-keyboard-response,242,331550,0.0-12.0-0.72,650aee87054446f772acdfcc,650c16f0f2faf8d7a0d14c09,651c1bfeff8c5c3fcb5f68be,null,null,"<p style=""font-size: 60px; font-family: BACS"">PlEKTmc</p>",,,,,,,,,,
html-keyboard-response,243,332557,0.0-12.0-0.73,650aee87054446f772acdfcc,650c16f0f2faf8d7a0d14c09,651c1bfeff8c5c3fcb5f68be,null,null,"<p style=""font-size: 60px; font-family: BACS"">kNuadUr</p>",,,,,,,,,,
html-keyboard-response,244,333565,0.0-12.0-0.74,650aee87054446f772acdfcc,650c16f0f2faf8d7a0d14c09,651c1bfeff8c5c3fcb5f68be,null,null,"<p style=""font-size: 60px; font-family: BACS"">JdGmAvdk</p>",,,,,,,,,,
html-keyboard-response,245,334573,0.0-12.0-0.75,650aee87054446f772acdfcc,650c16f0f2faf8d7a0d14c09,651c1bfeff8c5c3fcb5f68be,null,null,"<p style=""font-size: 60px; font-family: BACS"">tcYbdAPT</p>",,,,,,,,,,
html-keyboard-response,246,335580,0.0-12.0-0.76,650aee87054446f772acdfcc,650c16f0f2faf8d7a0d14c09,651c1bfeff8c5c3fcb5f68be,null,null,"<p style=""font-size: 60px; font-family: BACS"">kCRmPEdK</p>",,,,,,,,,,
html-keyboard-response,247,336583,0.0-12.0-0.77,650aee87054446f772acdfcc,650c16f0f2faf8d7a0d14c09,651c1bfeff8c5c3fcb5f68be,null,null,"<p style=""font-size: 60px; font-family: BACS"">cBROBTmc</p>",,,,,,,,,,
html-keyboard-response,248,337590,0.0-12.0-0.78,650aee87054446f772acdfcc,650c16f0f2faf8d7a0d14c09,651c1bfeff8c5c3fcb5f68be,null,null,"<p style=""font-size: 60px; font-family: BACS"">adYrcAvdk</p>",,,,,,,,,,
html-keyboard-response,249,338596,0.0-12.0-0.79,650aee87054446f772acdfcc,650c16f0f2faf8d7a0d14c09,651c1bfeff8c5c3fcb5f68be,null,null,"<p style=""font-size: 60px; font-family: BACS"">mkmJNZckv</p>",,,,,,,,,,
html-keyboard-response,250,343658,0.0-13.0,650aee87054446f772acdfcc,650c16f0f2faf8d7a0d14c09,651c1bfeff8c5c3fcb5f68be,5061, ,"<p>Great, you've seen the third block of words. You may now take a short break.</p>
      <p>Press the spacebar when you're ready to continue.</p>",,,,,,,,,,
html-keyboard-response,251,344679,0.0-14.0-0.0,650aee87054446f772acdfcc,650c16f0f2faf8d7a0d14c09,651c1bfeff8c5c3fcb5f68be,null,null,"<p style=""font-size: 60px; font-family: BACS"">bRABtPEdK</p>",,,,,,,,,,
html-keyboard-response,252,345687,0.0-14.0-0.1,650aee87054446f772acdfcc,650c16f0f2faf8d7a0d14c09,651c1bfeff8c5c3fcb5f68be,null,null,"<p style=""font-size: 60px; font-family: BACS"">cBROBTmc</p>",,,,,,,,,,
html-keyboard-response,253,346692,0.0-14.0-0.2,650aee87054446f772acdfcc,650c16f0f2faf8d7a0d14c09,651c1bfeff8c5c3fcb5f68be,null,null,"<p style=""font-size: 60px; font-family: BACS"">hkRKOdOP</p>",,,,,,,,,,
html-keyboard-response,254,347698,0.0-14.0-0.3,650aee87054446f772acdfcc,650c16f0f2faf8d7a0d14c09,651c1bfeff8c5c3fcb5f68be,null,null,"<p style=""font-size: 60px; font-family: BACS"">MlthTAm</p>",,,,,,,,,,
html-keyboard-response,255,348705,0.0-14.0-0.4,650aee87054446f772acdfcc,650c16f0f2faf8d7a0d14c09,651c1bfeff8c5c3fcb5f68be,null,null,"<p style=""font-size: 60px; font-family: BACS"">ZvalvdUr</p>",,,,,,,,,,
html-keyboard-response,256,349712,0.0-14.0-0.5,650aee87054446f772acdfcc,650c16f0f2faf8d7a0d14c09,651c1bfeff8c5c3fcb5f68be,null,null,"<p style=""font-size: 60px; font-family: BACS"">hChYOdOP</p>",,,,,,,,,,
html-keyboard-response,257,350718,0.0-14.0-0.6,650aee87054446f772acdfcc,650c16f0f2faf8d7a0d14c09,651c1bfeff8c5c3fcb5f68be,null,null,"<p style=""font-size: 60px; font-family: BACS"">JdOAYAvdk</p>",,,,,,,,,,
html-keyboard-response,258,351727,0.0-14.0-0.7,650aee87054446f772acdfcc,650c16f0f2faf8d7a0d14c09,651c1bfeff8c5c3fcb5f68be,null,null,"<p style=""font-size: 60px; font-family: BACS"">lGZvuUY</p>",,,,,,,,,,
html-keyboard-response,259,352738,0.0-14.0-0.8,650aee87054446f772acdfcc,650c16f0f2faf8d7a0d14c09,651c1bfeff8c5c3fcb5f68be,null,null,"<p style=""font-size: 60px; font-family: BACS"">JdGmAvdk</p>",,,,,,,,,,
html-keyboard-response,260,353746,0.0-14.0-0.9,650aee87054446f772acdfcc,650c16f0f2faf8d7a0d14c09,651c1bfeff8c5c3fcb5f68be,null,null,"<p style=""font-size: 60px; font-family: BACS"">lGZvJcUk</p>",,,,,,,,,,
html-keyboard-response,261,354759,0.0-14.0-0.10,650aee87054446f772acdfcc,650c16f0f2faf8d7a0d14c09,651c1bfeff8c5c3fcb5f68be,null,null,"<p style=""font-size: 60px; font-family: BACS"">JdOAYuUY</p>",,,,,,,,,,
html-keyboard-response,262,355765,0.0-14.0-0.11,650aee87054446f772acdfcc,650c16f0f2faf8d7a0d14c09,651c1bfeff8c5c3fcb5f68be,null,null,"<p style=""font-size: 60px; font-family: BACS"">hChYAPT</p>",,,,,,,,,,
html-keyboard-response,263,356774,0.0-14.0-0.12,650aee87054446f772acdfcc,650c16f0f2faf8d7a0d14c09,651c1bfeff8c5c3fcb5f68be,null,null,"<p style=""font-size: 60px; font-family: BACS"">JdGmJcUk</p>",,,,,,,,,,
html-keyboard-response,264,357779,0.0-14.0-0.13,650aee87054446f772acdfcc,650c16f0f2faf8d7a0d14c09,651c1bfeff8c5c3fcb5f68be,null,null,"<p style=""font-size: 60px; font-family: BACS"">kCRmOdOP</p>",,,,,,,,,,
html-keyboard-response,265,358786,0.0-14.0-0.14,650aee87054446f772acdfcc,650c16f0f2faf8d7a0d14c09,651c1bfeff8c5c3fcb5f68be,null,null,"<p style=""font-size: 60px; font-family: BACS"">tcYbdTAm</p>",,,,,,,,,,
html-keyboard-response,266,359794,0.0-14.0-0.15,650aee87054446f772acdfcc,650c16f0f2faf8d7a0d14c09,651c1bfeff8c5c3fcb5f68be,null,null,"<p style=""font-size: 60px; font-family: BACS"">PlEKTmc</p>",,,,,,,,,,
html-keyboard-response,267,360801,0.0-14.0-0.16,650aee87054446f772acdfcc,650c16f0f2faf8d7a0d14c09,651c1bfeff8c5c3fcb5f68be,null,null,"<p style=""font-size: 60px; font-family: BACS"">JdGmuUY</p>",,,,,,,,,,
html-keyboard-response,268,361807,0.0-14.0-0.17,650aee87054446f772acdfcc,650c16f0f2faf8d7a0d14c09,651c1bfeff8c5c3fcb5f68be,null,null,"<p style=""font-size: 60px; font-family: BACS"">aYQmdUr</p>",,,,,,,,,,
html-keyboard-response,269,362815,0.0-14.0-0.18,650aee87054446f772acdfcc,650c16f0f2faf8d7a0d14c09,651c1bfeff8c5c3fcb5f68be,null,null,"<p style=""font-size: 60px; font-family: BACS"">bRABtAPT</p>",,,,,,,,,,
html-keyboard-response,270,363822,0.0-14.0-0.19,650aee87054446f772acdfcc,650c16f0f2faf8d7a0d14c09,651c1bfeff8c5c3fcb5f68be,null,null,"<p style=""font-size: 60px; font-family: BACS"">PlEKTAm</p>",,,,,,,,,,
html-keyboard-response,271,364829,0.0-14.0-0.20,650aee87054446f772acdfcc,650c16f0f2faf8d7a0d14c09,651c1bfeff8c5c3fcb5f68be,null,null,"<p style=""font-size: 60px; font-family: BACS"">JdGmdUr</p>",,,,,,,,,,
html-keyboard-response,272,365836,0.0-14.0-0.21,650aee87054446f772acdfcc,650c16f0f2faf8d7a0d14c09,651c1bfeff8c5c3fcb5f68be,null,null,"<p style=""font-size: 60px; font-family: BACS"">bRABtTmc</p>",,,,,,,,,,
html-keyboard-response,273,366844,0.0-14.0-0.22,650aee87054446f772acdfcc,650c16f0f2faf8d7a0d14c09,651c1bfeff8c5c3fcb5f68be,null,null,"<p style=""font-size: 60px; font-family: BACS"">AYkEhOdOP</p>",,,,,,,,,,
html-keyboard-response,274,367851,0.0-14.0-0.23,650aee87054446f772acdfcc,650c16f0f2faf8d7a0d14c09,651c1bfeff8c5c3fcb5f68be,null,null,"<p style=""font-size: 60px; font-family: BACS"">kCRmTAm</p>",,,,,,,,,,
html-keyboard-response,275,368858,0.0-14.0-0.24,650aee87054446f772acdfcc,650c16f0f2faf8d7a0d14c09,651c1bfeff8c5c3fcb5f68be,null,null,"<p style=""font-size: 60px; font-family: BACS"">kNuaAvdk</p>",,,,,,,,,,
html-keyboard-response,276,369864,0.0-14.0-0.25,650aee87054446f772acdfcc,650c16f0f2faf8d7a0d14c09,651c1bfeff8c5c3fcb5f68be,null,null,"<p style=""font-size: 60px; font-family: BACS"">AYkEhTAm</p>",,,,,,,,,,
html-keyboard-response,277,370871,0.0-14.0-0.26,650aee87054446f772acdfcc,650c16f0f2faf8d7a0d14c09,651c1bfeff8c5c3fcb5f68be,null,null,"<p style=""font-size: 60px; font-family: BACS"">hkRKAPT</p>",,,,,,,,,,
html-keyboard-response,278,371878,0.0-14.0-0.27,650aee87054446f772acdfcc,650c16f0f2faf8d7a0d14c09,651c1bfeff8c5c3fcb5f68be,null,null,"<p style=""font-size: 60px; font-family: BACS"">OQarQdUr</p>",,,,,,,,,,
html-keyboard-response,279,372883,0.0-14.0-0.28,650aee87054446f772acdfcc,650c16f0f2faf8d7a0d14c09,651c1bfeff8c5c3fcb5f68be,null,null,"<p style=""font-size: 60px; font-family: BACS"">JdOAYZckv</p>",,,,,,,,,,
html-keyboard-response,280,373892,0.0-14.0-0.29,650aee87054446f772acdfcc,650c16f0f2faf8d7a0d14c09,651c1bfeff8c5c3fcb5f68be,null,null,"<p style=""font-size: 60px; font-family: BACS"">JauQdUr</p>",,,,,,,,,,
html-keyboard-response,281,374899,0.0-14.0-0.30,650aee87054446f772acdfcc,650c16f0f2faf8d7a0d14c09,651c1bfeff8c5c3fcb5f68be,null,null,"<p style=""font-size: 60px; font-family: BACS"">aYQmuUY</p>",,,,,,,,,,
html-keyboard-response,282,375907,0.0-14.0-0.31,650aee87054446f772acdfcc,650c16f0f2faf8d7a0d14c09,651c1bfeff8c5c3fcb5f68be,null,null,"<p style=""font-size: 60px; font-family: BACS"">lBKtTAm</p>",,,,,,,,,,
html-keyboard-response,283,376914,0.0-14.0-0.32,650aee87054446f772acdfcc,650c16f0f2faf8d7a0d14c09,651c1bfeff8c5c3fcb5f68be,null,null,"<p style=""font-size: 60px; font-family: BACS"">bRABtOdOP</p>",,,,,,,,,,
html-keyboard-response,284,377921,0.0-14.0-0.33,650aee87054446f772acdfcc,650c16f0f2faf8d7a0d14c09,651c1bfeff8c5c3fcb5f68be,null,null,"<p style=""font-size: 60px; font-family: BACS"">adYrcZckv</p>",,,,,,,,,,
html-keyboard-response,285,378928,0.0-14.0-0.34,650aee87054446f772acdfcc,650c16f0f2faf8d7a0d14c09,651c1bfeff8c5c3fcb5f68be,null,null,"<p style=""font-size: 60px; font-family: BACS"">tcYbdAPT</p>",,,,,,,,,,
html-keyboard-response,286,379936,0.0-14.0-0.35,650aee87054446f772acdfcc,650c16f0f2faf8d7a0d14c09,651c1bfeff8c5c3fcb5f68be,null,null,"<p style=""font-size: 60px; font-family: BACS"">lBKtOdOP</p>",,,,,,,,,,
html-keyboard-response,287,380943,0.0-14.0-0.36,650aee87054446f772acdfcc,650c16f0f2faf8d7a0d14c09,651c1bfeff8c5c3fcb5f68be,null,null,"<p style=""font-size: 60px; font-family: BACS"">AYkEhPEdK</p>",,,,,,,,,,
html-keyboard-response,288,381951,0.0-14.0-0.37,650aee87054446f772acdfcc,650c16f0f2faf8d7a0d14c09,651c1bfeff8c5c3fcb5f68be,null,null,"<p style=""font-size: 60px; font-family: BACS"">OQarQZckv</p>",,,,,,,,,,
html-keyboard-response,289,382958,0.0-14.0-0.38,650aee87054446f772acdfcc,650c16f0f2faf8d7a0d14c09,651c1bfeff8c5c3fcb5f68be,null,null,"<p style=""font-size: 60px; font-family: BACS"">hkRKPEdK</p>",,,,,,,,,,
html-keyboard-response,290,383966,0.0-14.0-0.39,650aee87054446f772acdfcc,650c16f0f2faf8d7a0d14c09,651c1bfeff8c5c3fcb5f68be,null,null,"<p style=""font-size: 60px; font-family: BACS"">mkmJNdUr</p>",,,,,,,,,,
html-keyboard-response,291,384973,0.0-14.0-0.40,650aee87054446f772acdfcc,650c16f0f2faf8d7a0d14c09,651c1bfeff8c5c3fcb5f68be,null,null,"<p style=""font-size: 60px; font-family: BACS"">AYkEhTmc</p>",,,,,,,,,,
html-keyboard-response,292,385988,0.0-14.0-0.41,650aee87054446f772acdfcc,650c16f0f2faf8d7a0d14c09,651c1bfeff8c5c3fcb5f68be,null,null,"<p style=""font-size: 60px; font-family: BACS"">cBROBPEdK</p>",,,,,,,,,,
html-keyboard-response,293,387002,0.0-14.0-0.42,650aee87054446f772acdfcc,650c16f0f2faf8d7a0d14c09,651c1bfeff8c5c3fcb5f68be,null,null,"<p style=""font-size: 60px; font-family: BACS"">JauQAvdk</p>",,,,,,,,,,
html-keyboard-response,294,388016,0.0-14.0-0.43,650aee87054446f772acdfcc,650c16f0f2faf8d7a0d14c09,651c1bfeff8c5c3fcb5f68be,null,null,"<p style=""font-size: 60px; font-family: BACS"">ZvalvuUY</p>",,,,,,,,,,
html-keyboard-response,295,389022,0.0-14.0-0.44,650aee87054446f772acdfcc,650c16f0f2faf8d7a0d14c09,651c1bfeff8c5c3fcb5f68be,null,null,"<p style=""font-size: 60px; font-family: BACS"">lGZvAvdk</p>",,,,,,,,,,
html-keyboard-response,296,390030,0.0-14.0-0.45,650aee87054446f772acdfcc,650c16f0f2faf8d7a0d14c09,651c1bfeff8c5c3fcb5f68be,null,null,"<p style=""font-size: 60px; font-family: BACS"">PlEKOdOP</p>",,,,,,,,,,
html-keyboard-response,297,391037,0.0-14.0-0.46,650aee87054446f772acdfcc,650c16f0f2faf8d7a0d14c09,651c1bfeff8c5c3fcb5f68be,null,null,"<p style=""font-size: 60px; font-family: BACS"">cBROBAPT</p>",,,,,,,,,,
html-keyboard-response,298,392044,0.0-14.0-0.47,650aee87054446f772acdfcc,650c16f0f2faf8d7a0d14c09,651c1bfeff8c5c3fcb5f68be,null,null,"<p style=""font-size: 60px; font-family: BACS"">ZvalvAvdk</p>",,,,,,,,,,
html-keyboard-response,299,393050,0.0-14.0-0.48,650aee87054446f772acdfcc,650c16f0f2faf8d7a0d14c09,651c1bfeff8c5c3fcb5f68be,null,null,"<p style=""font-size: 60px; font-family: BACS"">MlthTmc</p>",,,,,,,,,,
html-keyboard-response,300,394057,0.0-14.0-0.49,650aee87054446f772acdfcc,650c16f0f2faf8d7a0d14c09,651c1bfeff8c5c3fcb5f68be,null,null,"<p style=""font-size: 60px; font-family: BACS"">kCRmPEdK</p>",,,,,,,,,,
html-keyboard-response,301,395069,0.0-14.0-0.50,650aee87054446f772acdfcc,650c16f0f2faf8d7a0d14c09,651c1bfeff8c5c3fcb5f68be,null,null,"<p style=""font-size: 60px; font-family: BACS"">lGZvdUr</p>",,,,,,,,,,
html-keyboard-response,302,396077,0.0-14.0-0.51,650aee87054446f772acdfcc,650c16f0f2faf8d7a0d14c09,651c1bfeff8c5c3fcb5f68be,null,null,"<p style=""font-size: 60px; font-family: BACS"">mkmJNuUY</p>",,,,,,,,,,
html-keyboard-response,303,397090,0.0-14.0-0.52,650aee87054446f772acdfcc,650c16f0f2faf8d7a0d14c09,651c1bfeff8c5c3fcb5f68be,null,null,"<p style=""font-size: 60px; font-family: BACS"">hChYTmc</p>",,,,,,,,,,
html-keyboard-response,304,398098,0.0-14.0-0.53,650aee87054446f772acdfcc,650c16f0f2faf8d7a0d14c09,651c1bfeff8c5c3fcb5f68be,null,null,"<p style=""font-size: 60px; font-family: BACS"">tcYbdOdOP</p>",,,,,,,,,,
html-keyboard-response,305,399104,0.0-14.0-0.54,650aee87054446f772acdfcc,650c16f0f2faf8d7a0d14c09,651c1bfeff8c5c3fcb5f68be,null,null,"<p style=""font-size: 60px; font-family: BACS"">adYrcuUY</p>",,,,,,,,,,
html-keyboard-response,306,400111,0.0-14.0-0.55,650aee87054446f772acdfcc,650c16f0f2faf8d7a0d14c09,651c1bfeff8c5c3fcb5f68be,null,null,"<p style=""font-size: 60px; font-family: BACS"">OQarQJcUk</p>",,,,,,,,,,
html-keyboard-response,307,401118,0.0-14.0-0.56,650aee87054446f772acdfcc,650c16f0f2faf8d7a0d14c09,651c1bfeff8c5c3fcb5f68be,null,null,"<p style=""font-size: 60px; font-family: BACS"">kNuaZckv</p>",,,,,,,,,,
html-keyboard-response,308,402125,0.0-14.0-0.57,650aee87054446f772acdfcc,650c16f0f2faf8d7a0d14c09,651c1bfeff8c5c3fcb5f68be,null,null,"<p style=""font-size: 60px; font-family: BACS"">JauQJcUk</p>",,,,,,,,,,
html-keyboard-response,309,403133,0.0-14.0-0.58,650aee87054446f772acdfcc,650c16f0f2faf8d7a0d14c09,651c1bfeff8c5c3fcb5f68be,null,null,"<p style=""font-size: 60px; font-family: BACS"">adYrcAvdk</p>",,,,,,,,,,
html-keyboard-response,310,404139,0.0-14.0-0.59,650aee87054446f772acdfcc,650c16f0f2faf8d7a0d14c09,651c1bfeff8c5c3fcb5f68be,null,null,"<p style=""font-size: 60px; font-family: BACS"">lBKtTmc</p>",,,,,,,,,,
html-keyboard-response,311,405147,0.0-14.0-0.60,650aee87054446f772acdfcc,650c16f0f2faf8d7a0d14c09,651c1bfeff8c5c3fcb5f68be,null,null,"<p style=""font-size: 60px; font-family: BACS"">JauQZckv</p>",,,,,,,,,,
html-keyboard-response,312,406155,0.0-14.0-0.61,650aee87054446f772acdfcc,650c16f0f2faf8d7a0d14c09,651c1bfeff8c5c3fcb5f68be,null,null,"<p style=""font-size: 60px; font-family: BACS"">kNuadUr</p>",,,,,,,,,,
html-keyboard-response,313,407168,0.0-14.0-0.62,650aee87054446f772acdfcc,650c16f0f2faf8d7a0d14c09,651c1bfeff8c5c3fcb5f68be,null,null,"<p style=""font-size: 60px; font-family: BACS"">adYrcJcUk</p>",,,,,,,,,,
html-keyboard-response,314,408176,0.0-14.0-0.63,650aee87054446f772acdfcc,650c16f0f2faf8d7a0d14c09,651c1bfeff8c5c3fcb5f68be,null,null,"<p style=""font-size: 60px; font-family: BACS"">mkmJNZckv</p>",,,,,,,,,,
html-keyboard-response,315,409183,0.0-14.0-0.64,650aee87054446f772acdfcc,650c16f0f2faf8d7a0d14c09,651c1bfeff8c5c3fcb5f68be,null,null,"<p style=""font-size: 60px; font-family: BACS"">MlthPEdK</p>",,,,,,,,,,
html-keyboard-response,316,410191,0.0-14.0-0.65,650aee87054446f772acdfcc,650c16f0f2faf8d7a0d14c09,651c1bfeff8c5c3fcb5f68be,null,null,"<p style=""font-size: 60px; font-family: BACS"">cBROBTAm</p>",,,,,,,,,,
html-keyboard-response,317,411205,0.0-14.0-0.66,650aee87054446f772acdfcc,650c16f0f2faf8d7a0d14c09,651c1bfeff8c5c3fcb5f68be,null,null,"<p style=""font-size: 60px; font-family: BACS"">lBKtPEdK</p>",,,,,,,,,,
html-keyboard-response,318,412212,0.0-14.0-0.67,650aee87054446f772acdfcc,650c16f0f2faf8d7a0d14c09,651c1bfeff8c5c3fcb5f68be,null,null,"<p style=""font-size: 60px; font-family: BACS"">kCRmAPT</p>",,,,,,,,,,
html-keyboard-response,319,413219,0.0-14.0-0.68,650aee87054446f772acdfcc,650c16f0f2faf8d7a0d14c09,651c1bfeff8c5c3fcb5f68be,null,null,"<p style=""font-size: 60px; font-family: BACS"">OQarQuUY</p>",,,,,,,,,,
html-keyboard-response,320,414226,0.0-14.0-0.69,650aee87054446f772acdfcc,650c16f0f2faf8d7a0d14c09,651c1bfeff8c5c3fcb5f68be,null,null,"<p style=""font-size: 60px; font-family: BACS"">JdOAYJcUk</p>",,,,,,,,,,
html-keyboard-response,321,415232,0.0-14.0-0.70,650aee87054446f772acdfcc,650c16f0f2faf8d7a0d14c09,651c1bfeff8c5c3fcb5f68be,null,null,"<p style=""font-size: 60px; font-family: BACS"">ZvalvZckv</p>",,,,,,,,,,
html-keyboard-response,322,416247,0.0-14.0-0.71,650aee87054446f772acdfcc,650c16f0f2faf8d7a0d14c09,651c1bfeff8c5c3fcb5f68be,null,null,"<p style=""font-size: 60px; font-family: BACS"">aYQmJcUk</p>",,,,,,,,,,
html-keyboard-response,323,417254,0.0-14.0-0.72,650aee87054446f772acdfcc,650c16f0f2faf8d7a0d14c09,651c1bfeff8c5c3fcb5f68be,null,null,"<p style=""font-size: 60px; font-family: BACS"">PlEKAPT</p>",,,,,,,,,,
html-keyboard-response,324,418262,0.0-14.0-0.73,650aee87054446f772acdfcc,650c16f0f2faf8d7a0d14c09,651c1bfeff8c5c3fcb5f68be,null,null,"<p style=""font-size: 60px; font-family: BACS"">aYQmZckv</p>",,,,,,,,,,
html-keyboard-response,325,419268,0.0-14.0-0.74,650aee87054446f772acdfcc,650c16f0f2faf8d7a0d14c09,651c1bfeff8c5c3fcb5f68be,null,null,"<p style=""font-size: 60px; font-family: BACS"">MlthAPT</p>",,,,,,,,,,
html-keyboard-response,326,420276,0.0-14.0-0.75,650aee87054446f772acdfcc,650c16f0f2faf8d7a0d14c09,651c1bfeff8c5c3fcb5f68be,null,null,"<p style=""font-size: 60px; font-family: BACS"">mkmJNAvdk</p>",,,,,,,,,,
html-keyboard-response,327,421283,0.0-14.0-0.76,650aee87054446f772acdfcc,650c16f0f2faf8d7a0d14c09,651c1bfeff8c5c3fcb5f68be,null,null,"<p style=""font-size: 60px; font-family: BACS"">hkRKTAm</p>",,,,,,,,,,
html-keyboard-response,328,422288,0.0-14.0-0.77,650aee87054446f772acdfcc,650c16f0f2faf8d7a0d14c09,651c1bfeff8c5c3fcb5f68be,null,null,"<p style=""font-size: 60px; font-family: BACS"">kNuaJcUk</p>",,,,,,,,,,
html-keyboard-response,329,423296,0.0-14.0-0.78,650aee87054446f772acdfcc,650c16f0f2faf8d7a0d14c09,651c1bfeff8c5c3fcb5f68be,null,null,"<p style=""font-size: 60px; font-family: BACS"">tcYbdTmc</p>",,,,,,,,,,
html-keyboard-response,330,424302,0.0-14.0-0.79,650aee87054446f772acdfcc,650c16f0f2faf8d7a0d14c09,651c1bfeff8c5c3fcb5f68be,null,null,"<p style=""font-size: 60px; font-family: BACS"">hChYPEdK</p>",,,,,,,,,,
html-keyboard-response,331,435700,0.0-15.0,650aee87054446f772acdfcc,650c16f0f2faf8d7a0d14c09,651c1bfeff8c5c3fcb5f68be,11397, ,"<p>Great, you've seen the fourth block of words. You may now take a short break.</p>
      <p>Press the spacebar when you're ready to continue.</p>",,,,,,,,,,
html-keyboard-response,332,436714,0.0-16.0-0.0,650aee87054446f772acdfcc,650c16f0f2faf8d7a0d14c09,651c1bfeff8c5c3fcb5f68be,null,null,"<p style=""font-size: 60px; font-family: BACS"">kNuadUr</p>",,,,,,,,,,
html-keyboard-response,333,437721,0.0-16.0-0.1,650aee87054446f772acdfcc,650c16f0f2faf8d7a0d14c09,651c1bfeff8c5c3fcb5f68be,null,null,"<p style=""font-size: 60px; font-family: BACS"">kNuadUr</p>",,,,,,,,,,
html-keyboard-response,334,438728,0.0-16.0-0.2,650aee87054446f772acdfcc,650c16f0f2faf8d7a0d14c09,651c1bfeff8c5c3fcb5f68be,null,null,"<p style=""font-size: 60px; font-family: BACS"">kNuadUr</p>",,,,,,,,,,
html-keyboard-response,335,439735,0.0-16.0-0.3,650aee87054446f772acdfcc,650c16f0f2faf8d7a0d14c09,651c1bfeff8c5c3fcb5f68be,null,null,"<p style=""font-size: 60px; font-family: BACS"">kNuadUr</p>",,,,,,,,,,
html-keyboard-response,336,440742,0.0-16.0-0.4,650aee87054446f772acdfcc,650c16f0f2faf8d7a0d14c09,651c1bfeff8c5c3fcb5f68be,null,null,"<p style=""font-size: 60px; font-family: BACS"">kNuadUr</p>",,,,,,,,,,
html-keyboard-response,337,441756,0.0-16.0-0.5,650aee87054446f772acdfcc,650c16f0f2faf8d7a0d14c09,651c1bfeff8c5c3fcb5f68be,null,null,"<p style=""font-size: 60px; font-family: BACS"">kNuadUr</p>",,,,,,,,,,
html-keyboard-response,338,442763,0.0-16.0-0.6,650aee87054446f772acdfcc,650c16f0f2faf8d7a0d14c09,651c1bfeff8c5c3fcb5f68be,null,null,"<p style=""font-size: 60px; font-family: BACS"">kNuadUr</p>",,,,,,,,,,
html-keyboard-response,339,443771,0.0-16.0-0.7,650aee87054446f772acdfcc,650c16f0f2faf8d7a0d14c09,651c1bfeff8c5c3fcb5f68be,null,null,"<p style=""font-size: 60px; font-family: BACS"">kNuadUr</p>",,,,,,,,,,
html-keyboard-response,340,444779,0.0-16.0-0.8,650aee87054446f772acdfcc,650c16f0f2faf8d7a0d14c09,651c1bfeff8c5c3fcb5f68be,null,null,"<p style=""font-size: 60px; font-family: BACS"">kNuadUr</p>",,,,,,,,,,
html-keyboard-response,341,445786,0.0-16.0-0.9,650aee87054446f772acdfcc,650c16f0f2faf8d7a0d14c09,651c1bfeff8c5c3fcb5f68be,null,null,"<p style=""font-size: 60px; font-family: BACS"">kNuadUr</p>",,,,,,,,,,
html-keyboard-response,342,446793,0.0-16.0-0.10,650aee87054446f772acdfcc,650c16f0f2faf8d7a0d14c09,651c1bfeff8c5c3fcb5f68be,null,null,"<p style=""font-size: 60px; font-family: BACS"">kNuadUr</p>",,,,,,,,,,
html-keyboard-response,343,447801,0.0-16.0-0.11,650aee87054446f772acdfcc,650c16f0f2faf8d7a0d14c09,651c1bfeff8c5c3fcb5f68be,null,null,"<p style=""font-size: 60px; font-family: BACS"">kNuadUr</p>",,,,,,,,,,
html-keyboard-response,344,448814,0.0-16.0-0.12,650aee87054446f772acdfcc,650c16f0f2faf8d7a0d14c09,651c1bfeff8c5c3fcb5f68be,null,null,"<p style=""font-size: 60px; font-family: BACS"">kNuadUr</p>",,,,,,,,,,
html-keyboard-response,345,449822,0.0-16.0-0.13,650aee87054446f772acdfcc,650c16f0f2faf8d7a0d14c09,651c1bfeff8c5c3fcb5f68be,null,null,"<p style=""font-size: 60px; font-family: BACS"">kNuadUr</p>",,,,,,,,,,
html-keyboard-response,346,450828,0.0-16.0-0.14,650aee87054446f772acdfcc,650c16f0f2faf8d7a0d14c09,651c1bfeff8c5c3fcb5f68be,null,null,"<p style=""font-size: 60px; font-family: BACS"">kNuadUr</p>",,,,,,,,,,
html-keyboard-response,347,451837,0.0-16.0-0.15,650aee87054446f772acdfcc,650c16f0f2faf8d7a0d14c09,651c1bfeff8c5c3fcb5f68be,null,null,"<p style=""font-size: 60px; font-family: BACS"">kNuadUr</p>",,,,,,,,,,
html-keyboard-response,348,452851,0.0-16.0-0.16,650aee87054446f772acdfcc,650c16f0f2faf8d7a0d14c09,651c1bfeff8c5c3fcb5f68be,null,null,"<p style=""font-size: 60px; font-family: BACS"">kNuadUr</p>",,,,,,,,,,
html-keyboard-response,349,453865,0.0-16.0-0.17,650aee87054446f772acdfcc,650c16f0f2faf8d7a0d14c09,651c1bfeff8c5c3fcb5f68be,null,null,"<p style=""font-size: 60px; font-family: BACS"">kNuadUr</p>",,,,,,,,,,
html-keyboard-response,350,454872,0.0-16.0-0.18,650aee87054446f772acdfcc,650c16f0f2faf8d7a0d14c09,651c1bfeff8c5c3fcb5f68be,null,null,"<p style=""font-size: 60px; font-family: BACS"">kNuadUr</p>",,,,,,,,,,
html-keyboard-response,351,455886,0.0-16.0-0.19,650aee87054446f772acdfcc,650c16f0f2faf8d7a0d14c09,651c1bfeff8c5c3fcb5f68be,null,null,"<p style=""font-size: 60px; font-family: BACS"">kNuadUr</p>",,,,,,,,,,
html-keyboard-response,352,456893,0.0-16.0-0.20,650aee87054446f772acdfcc,650c16f0f2faf8d7a0d14c09,651c1bfeff8c5c3fcb5f68be,null,null,"<p style=""font-size: 60px; font-family: BACS"">kNuadUr</p>",,,,,,,,,,
html-keyboard-response,353,457900,0.0-16.0-0.21,650aee87054446f772acdfcc,650c16f0f2faf8d7a0d14c09,651c1bfeff8c5c3fcb5f68be,null,null,"<p style=""font-size: 60px; font-family: BACS"">kNuadUr</p>",,,,,,,,,,
html-keyboard-response,354,458915,0.0-16.0-0.22,650aee87054446f772acdfcc,650c16f0f2faf8d7a0d14c09,651c1bfeff8c5c3fcb5f68be,null,null,"<p style=""font-size: 60px; font-family: BACS"">kNuadUr</p>",,,,,,,,,,
html-keyboard-response,355,459930,0.0-16.0-0.23,650aee87054446f772acdfcc,650c16f0f2faf8d7a0d14c09,651c1bfeff8c5c3fcb5f68be,null,null,"<p style=""font-size: 60px; font-family: BACS"">kNuadUr</p>",,,,,,,,,,
html-keyboard-response,356,460937,0.0-16.0-0.24,650aee87054446f772acdfcc,650c16f0f2faf8d7a0d14c09,651c1bfeff8c5c3fcb5f68be,null,null,"<p style=""font-size: 60px; font-family: BACS"">kNuadUr</p>",,,,,,,,,,
html-keyboard-response,357,461944,0.0-16.0-0.25,650aee87054446f772acdfcc,650c16f0f2faf8d7a0d14c09,651c1bfeff8c5c3fcb5f68be,null,null,"<p style=""font-size: 60px; font-family: BACS"">kNuadUr</p>",,,,,,,,,,
html-keyboard-response,358,462952,0.0-16.0-0.26,650aee87054446f772acdfcc,650c16f0f2faf8d7a0d14c09,651c1bfeff8c5c3fcb5f68be,null,null,"<p style=""font-size: 60px; font-family: BACS"">kNuadUr</p>",,,,,,,,,,
html-keyboard-response,359,463958,0.0-16.0-0.27,650aee87054446f772acdfcc,650c16f0f2faf8d7a0d14c09,651c1bfeff8c5c3fcb5f68be,null,null,"<p style=""font-size: 60px; font-family: BACS"">kNuadUr</p>",,,,,,,,,,
html-keyboard-response,360,464966,0.0-16.0-0.28,650aee87054446f772acdfcc,650c16f0f2faf8d7a0d14c09,651c1bfeff8c5c3fcb5f68be,null,null,"<p style=""font-size: 60px; font-family: BACS"">kNuadUr</p>",,,,,,,,,,
html-keyboard-response,361,465973,0.0-16.0-0.29,650aee87054446f772acdfcc,650c16f0f2faf8d7a0d14c09,651c1bfeff8c5c3fcb5f68be,null,null,"<p style=""font-size: 60px; font-family: BACS"">kNuadUr</p>",,,,,,,,,,
html-keyboard-response,362,466979,0.0-16.0-0.30,650aee87054446f772acdfcc,650c16f0f2faf8d7a0d14c09,651c1bfeff8c5c3fcb5f68be,null,null,"<p style=""font-size: 60px; font-family: BACS"">kNuadUr</p>",,,,,,,,,,
html-keyboard-response,363,467987,0.0-16.0-0.31,650aee87054446f772acdfcc,650c16f0f2faf8d7a0d14c09,651c1bfeff8c5c3fcb5f68be,null,null,"<p style=""font-size: 60px; font-family: BACS"">kNuadUr</p>",,,,,,,,,,
html-keyboard-response,364,468993,0.0-16.0-0.32,650aee87054446f772acdfcc,650c16f0f2faf8d7a0d14c09,651c1bfeff8c5c3fcb5f68be,null,null,"<p style=""font-size: 60px; font-family: BACS"">kNuadUr</p>",,,,,,,,,,
html-keyboard-response,365,470000,0.0-16.0-0.33,650aee87054446f772acdfcc,650c16f0f2faf8d7a0d14c09,651c1bfeff8c5c3fcb5f68be,null,null,"<p style=""font-size: 60px; font-family: BACS"">kNuadUr</p>",,,,,,,,,,
html-keyboard-response,366,471007,0.0-16.0-0.34,650aee87054446f772acdfcc,650c16f0f2faf8d7a0d14c09,651c1bfeff8c5c3fcb5f68be,null,null,"<p style=""font-size: 60px; font-family: BACS"">kNuadUr</p>",,,,,,,,,,
html-keyboard-response,367,472012,0.0-16.0-0.35,650aee87054446f772acdfcc,650c16f0f2faf8d7a0d14c09,651c1bfeff8c5c3fcb5f68be,null,null,"<p style=""font-size: 60px; font-family: BACS"">kNuadUr</p>",,,,,,,,,,
html-keyboard-response,368,473022,0.0-16.0-0.36,650aee87054446f772acdfcc,650c16f0f2faf8d7a0d14c09,651c1bfeff8c5c3fcb5f68be,null,null,"<p style=""font-size: 60px; font-family: BACS"">kNuadUr</p>",,,,,,,,,,
html-keyboard-response,369,474029,0.0-16.0-0.37,650aee87054446f772acdfcc,650c16f0f2faf8d7a0d14c09,651c1bfeff8c5c3fcb5f68be,null,null,"<p style=""font-size: 60px; font-family: BACS"">kNuadUr</p>",,,,,,,,,,
html-keyboard-response,370,475030,0.0-16.0-0.38,650aee87054446f772acdfcc,650c16f0f2faf8d7a0d14c09,651c1bfeff8c5c3fcb5f68be,null,null,"<p style=""font-size: 60px; font-family: BACS"">kNuadUr</p>",,,,,,,,,,
html-keyboard-response,371,476044,0.0-16.0-0.39,650aee87054446f772acdfcc,650c16f0f2faf8d7a0d14c09,651c1bfeff8c5c3fcb5f68be,null,null,"<p style=""font-size: 60px; font-family: BACS"">kNuadUr</p>",,,,,,,,,,
html-keyboard-response,372,477052,0.0-16.0-0.40,650aee87054446f772acdfcc,650c16f0f2faf8d7a0d14c09,651c1bfeff8c5c3fcb5f68be,null,null,"<p style=""font-size: 60px; font-family: BACS"">kNuadUr</p>",,,,,,,,,,
html-keyboard-response,373,478058,0.0-16.0-0.41,650aee87054446f772acdfcc,650c16f0f2faf8d7a0d14c09,651c1bfeff8c5c3fcb5f68be,null,null,"<p style=""font-size: 60px; font-family: BACS"">kNuadUr</p>",,,,,,,,,,
html-keyboard-response,374,479069,0.0-16.0-0.42,650aee87054446f772acdfcc,650c16f0f2faf8d7a0d14c09,651c1bfeff8c5c3fcb5f68be,null,null,"<p style=""font-size: 60px; font-family: BACS"">kNuadUr</p>",,,,,,,,,,
html-keyboard-response,375,480076,0.0-16.0-0.43,650aee87054446f772acdfcc,650c16f0f2faf8d7a0d14c09,651c1bfeff8c5c3fcb5f68be,null,null,"<p style=""font-size: 60px; font-family: BACS"">kNuadUr</p>",,,,,,,,,,
html-keyboard-response,376,481085,0.0-16.0-0.44,650aee87054446f772acdfcc,650c16f0f2faf8d7a0d14c09,651c1bfeff8c5c3fcb5f68be,null,null,"<p style=""font-size: 60px; font-family: BACS"">kNuadUr</p>",,,,,,,,,,
html-keyboard-response,377,482092,0.0-16.0-0.45,650aee87054446f772acdfcc,650c16f0f2faf8d7a0d14c09,651c1bfeff8c5c3fcb5f68be,null,null,"<p style=""font-size: 60px; font-family: BACS"">kNuadUr</p>",,,,,,,,,,
html-keyboard-response,378,483099,0.0-16.0-0.46,650aee87054446f772acdfcc,650c16f0f2faf8d7a0d14c09,651c1bfeff8c5c3fcb5f68be,null,null,"<p style=""font-size: 60px; font-family: BACS"">kNuadUr</p>",,,,,,,,,,
html-keyboard-response,379,484105,0.0-16.0-0.47,650aee87054446f772acdfcc,650c16f0f2faf8d7a0d14c09,651c1bfeff8c5c3fcb5f68be,null,null,"<p style=""font-size: 60px; font-family: BACS"">kNuadUr</p>",,,,,,,,,,
html-keyboard-response,380,485114,0.0-16.0-0.48,650aee87054446f772acdfcc,650c16f0f2faf8d7a0d14c09,651c1bfeff8c5c3fcb5f68be,null,null,"<p style=""font-size: 60px; font-family: BACS"">kNuadUr</p>",,,,,,,,,,
html-keyboard-response,381,486121,0.0-16.0-0.49,650aee87054446f772acdfcc,650c16f0f2faf8d7a0d14c09,651c1bfeff8c5c3fcb5f68be,null,null,"<p style=""font-size: 60px; font-family: BACS"">kNuadUr</p>",,,,,,,,,,
html-keyboard-response,382,487128,0.0-16.0-0.50,650aee87054446f772acdfcc,650c16f0f2faf8d7a0d14c09,651c1bfeff8c5c3fcb5f68be,null,null,"<p style=""font-size: 60px; font-family: BACS"">kNuadUr</p>",,,,,,,,,,
html-keyboard-response,383,488135,0.0-16.0-0.51,650aee87054446f772acdfcc,650c16f0f2faf8d7a0d14c09,651c1bfeff8c5c3fcb5f68be,null,null,"<p style=""font-size: 60px; font-family: BACS"">kNuadUr</p>",,,,,,,,,,
html-keyboard-response,384,489141,0.0-16.0-0.52,650aee87054446f772acdfcc,650c16f0f2faf8d7a0d14c09,651c1bfeff8c5c3fcb5f68be,null,null,"<p style=""font-size: 60px; font-family: BACS"">kNuadUr</p>",,,,,,,,,,
html-keyboard-response,385,490148,0.0-16.0-0.53,650aee87054446f772acdfcc,650c16f0f2faf8d7a0d14c09,651c1bfeff8c5c3fcb5f68be,null,null,"<p style=""font-size: 60px; font-family: BACS"">kNuadUr</p>",,,,,,,,,,
html-keyboard-response,386,491155,0.0-16.0-0.54,650aee87054446f772acdfcc,650c16f0f2faf8d7a0d14c09,651c1bfeff8c5c3fcb5f68be,null,null,"<p style=""font-size: 60px; font-family: BACS"">kNuadUr</p>",,,,,,,,,,
html-keyboard-response,387,492169,0.0-16.0-0.55,650aee87054446f772acdfcc,650c16f0f2faf8d7a0d14c09,651c1bfeff8c5c3fcb5f68be,null,null,"<p style=""font-size: 60px; font-family: BACS"">kNuadUr</p>",,,,,,,,,,
html-keyboard-response,388,493175,0.0-16.0-0.56,650aee87054446f772acdfcc,650c16f0f2faf8d7a0d14c09,651c1bfeff8c5c3fcb5f68be,null,null,"<p style=""font-size: 60px; font-family: BACS"">kNuadUr</p>",,,,,,,,,,
html-keyboard-response,389,494185,0.0-16.0-0.57,650aee87054446f772acdfcc,650c16f0f2faf8d7a0d14c09,651c1bfeff8c5c3fcb5f68be,null,null,"<p style=""font-size: 60px; font-family: BACS"">kNuadUr</p>",,,,,,,,,,
html-keyboard-response,390,495191,0.0-16.0-0.58,650aee87054446f772acdfcc,650c16f0f2faf8d7a0d14c09,651c1bfeff8c5c3fcb5f68be,null,null,"<p style=""font-size: 60px; font-family: BACS"">kNuadUr</p>",,,,,,,,,,
html-keyboard-response,391,496199,0.0-16.0-0.59,650aee87054446f772acdfcc,650c16f0f2faf8d7a0d14c09,651c1bfeff8c5c3fcb5f68be,null,null,"<p style=""font-size: 60px; font-family: BACS"">kNuadUr</p>",,,,,,,,,,
html-keyboard-response,392,497205,0.0-16.0-0.60,650aee87054446f772acdfcc,650c16f0f2faf8d7a0d14c09,651c1bfeff8c5c3fcb5f68be,null,null,"<p style=""font-size: 60px; font-family: BACS"">kNuadUr</p>",,,,,,,,,,
html-keyboard-response,393,498214,0.0-16.0-0.61,650aee87054446f772acdfcc,650c16f0f2faf8d7a0d14c09,651c1bfeff8c5c3fcb5f68be,null,null,"<p style=""font-size: 60px; font-family: BACS"">kNuadUr</p>",,,,,,,,,,
html-keyboard-response,394,499220,0.0-16.0-0.62,650aee87054446f772acdfcc,650c16f0f2faf8d7a0d14c09,651c1bfeff8c5c3fcb5f68be,null,null,"<p style=""font-size: 60px; font-family: BACS"">kNuadUr</p>",,,,,,,,,,
html-keyboard-response,395,500227,0.0-16.0-0.63,650aee87054446f772acdfcc,650c16f0f2faf8d7a0d14c09,651c1bfeff8c5c3fcb5f68be,null,null,"<p style=""font-size: 60px; font-family: BACS"">kNuadUr</p>",,,,,,,,,,
html-keyboard-response,396,501235,0.0-16.0-0.64,650aee87054446f772acdfcc,650c16f0f2faf8d7a0d14c09,651c1bfeff8c5c3fcb5f68be,null,null,"<p style=""font-size: 60px; font-family: BACS"">kNuadUr</p>",,,,,,,,,,
html-keyboard-response,397,502242,0.0-16.0-0.65,650aee87054446f772acdfcc,650c16f0f2faf8d7a0d14c09,651c1bfeff8c5c3fcb5f68be,null,null,"<p style=""font-size: 60px; font-family: BACS"">kNuadUr</p>",,,,,,,,,,
html-keyboard-response,398,503257,0.0-16.0-0.66,650aee87054446f772acdfcc,650c16f0f2faf8d7a0d14c09,651c1bfeff8c5c3fcb5f68be,null,null,"<p style=""font-size: 60px; font-family: BACS"">kNuadUr</p>",,,,,,,,,,
html-keyboard-response,399,504264,0.0-16.0-0.67,650aee87054446f772acdfcc,650c16f0f2faf8d7a0d14c09,651c1bfeff8c5c3fcb5f68be,null,null,"<p style=""font-size: 60px; font-family: BACS"">kNuadUr</p>",,,,,,,,,,
html-keyboard-response,400,505271,0.0-16.0-0.68,650aee87054446f772acdfcc,650c16f0f2faf8d7a0d14c09,651c1bfeff8c5c3fcb5f68be,null,null,"<p style=""font-size: 60px; font-family: BACS"">kNuadUr</p>",,,,,,,,,,
html-keyboard-response,401,506281,0.0-16.0-0.69,650aee87054446f772acdfcc,650c16f0f2faf8d7a0d14c09,651c1bfeff8c5c3fcb5f68be,null,null,"<p style=""font-size: 60px; font-family: BACS"">kNuadUr</p>",,,,,,,,,,
html-keyboard-response,402,507295,0.0-16.0-0.70,650aee87054446f772acdfcc,650c16f0f2faf8d7a0d14c09,651c1bfeff8c5c3fcb5f68be,null,null,"<p style=""font-size: 60px; font-family: BACS"">kNuadUr</p>",,,,,,,,,,
html-keyboard-response,403,508302,0.0-16.0-0.71,650aee87054446f772acdfcc,650c16f0f2faf8d7a0d14c09,651c1bfeff8c5c3fcb5f68be,null,null,"<p style=""font-size: 60px; font-family: BACS"">kNuadUr</p>",,,,,,,,,,
html-keyboard-response,404,509316,0.0-16.0-0.72,650aee87054446f772acdfcc,650c16f0f2faf8d7a0d14c09,651c1bfeff8c5c3fcb5f68be,null,null,"<p style=""font-size: 60px; font-family: BACS"">kNuadUr</p>",,,,,,,,,,
html-keyboard-response,405,510323,0.0-16.0-0.73,650aee87054446f772acdfcc,650c16f0f2faf8d7a0d14c09,651c1bfeff8c5c3fcb5f68be,null,null,"<p style=""font-size: 60px; font-family: BACS"">kNuadUr</p>",,,,,,,,,,
html-keyboard-response,406,511328,0.0-16.0-0.74,650aee87054446f772acdfcc,650c16f0f2faf8d7a0d14c09,651c1bfeff8c5c3fcb5f68be,null,null,"<p style=""font-size: 60px; font-family: BACS"">kNuadUr</p>",,,,,,,,,,
html-keyboard-response,407,512342,0.0-16.0-0.75,650aee87054446f772acdfcc,650c16f0f2faf8d7a0d14c09,651c1bfeff8c5c3fcb5f68be,null,null,"<p style=""font-size: 60px; font-family: BACS"">kNuadUr</p>",,,,,,,,,,
html-keyboard-response,408,513350,0.0-16.0-0.76,650aee87054446f772acdfcc,650c16f0f2faf8d7a0d14c09,651c1bfeff8c5c3fcb5f68be,null,null,"<p style=""font-size: 60px; font-family: BACS"">kNuadUr</p>",,,,,,,,,,
html-keyboard-response,409,514357,0.0-16.0-0.77,650aee87054446f772acdfcc,650c16f0f2faf8d7a0d14c09,651c1bfeff8c5c3fcb5f68be,null,null,"<p style=""font-size: 60px; font-family: BACS"">kNuadUr</p>",,,,,,,,,,
html-keyboard-response,410,515370,0.0-16.0-0.78,650aee87054446f772acdfcc,650c16f0f2faf8d7a0d14c09,651c1bfeff8c5c3fcb5f68be,null,null,"<p style=""font-size: 60px; font-family: BACS"">kNuadUr</p>",,,,,,,,,,
html-keyboard-response,411,516381,0.0-16.0-0.79,650aee87054446f772acdfcc,650c16f0f2faf8d7a0d14c09,651c1bfeff8c5c3fcb5f68be,null,null,"<p style=""font-size: 60px; font-family: BACS"">kNuadUr</p>",,,,,,,,,,
html-keyboard-response,412,521527,0.0-17.0,650aee87054446f772acdfcc,650c16f0f2faf8d7a0d14c09,651c1bfeff8c5c3fcb5f68be,5145, ,"<p>Great, you've seen the fifth block of words. You may now take a short break.</p>
      <p>Press the spacebar when you're ready to continue.</p>",,,,,,,,,,
html-keyboard-response,413,522531,0.0-18.0-0.0,650aee87054446f772acdfcc,650c16f0f2faf8d7a0d14c09,651c1bfeff8c5c3fcb5f68be,null,null,"<p style=""font-size: 60px; font-family: BACS"">JdGmuUY</p>",,,,,,,,,,
html-keyboard-response,414,523539,0.0-18.0-0.1,650aee87054446f772acdfcc,650c16f0f2faf8d7a0d14c09,651c1bfeff8c5c3fcb5f68be,null,null,"<p style=""font-size: 60px; font-family: BACS"">MlthTAm</p>",,,,,,,,,,
html-keyboard-response,415,524545,0.0-18.0-0.2,650aee87054446f772acdfcc,650c16f0f2faf8d7a0d14c09,651c1bfeff8c5c3fcb5f68be,null,null,"<p style=""font-size: 60px; font-family: BACS"">ZvalvAvdk</p>",,,,,,,,,,
html-keyboard-response,416,525552,0.0-18.0-0.3,650aee87054446f772acdfcc,650c16f0f2faf8d7a0d14c09,651c1bfeff8c5c3fcb5f68be,null,null,"<p style=""font-size: 60px; font-family: BACS"">hChYAPT</p>",,,,,,,,,,
html-keyboard-response,417,526558,0.0-18.0-0.4,650aee87054446f772acdfcc,650c16f0f2faf8d7a0d14c09,651c1bfeff8c5c3fcb5f68be,null,null,"<p style=""font-size: 60px; font-family: BACS"">tcYbdTmc</p>",,,,,,,,,,
html-keyboard-response,418,527571,0.0-18.0-0.5,650aee87054446f772acdfcc,650c16f0f2faf8d7a0d14c09,651c1bfeff8c5c3fcb5f68be,null,null,"<p style=""font-size: 60px; font-family: BACS"">cBROBAPT</p>",,,,,,,,,,
html-keyboard-response,419,528578,0.0-18.0-0.6,650aee87054446f772acdfcc,650c16f0f2faf8d7a0d14c09,651c1bfeff8c5c3fcb5f68be,null,null,"<p style=""font-size: 60px; font-family: BACS"">adYrcuUY</p>",,,,,,,,,,
html-keyboard-response,420,529586,0.0-18.0-0.7,650aee87054446f772acdfcc,650c16f0f2faf8d7a0d14c09,651c1bfeff8c5c3fcb5f68be,null,null,"<p style=""font-size: 60px; font-family: BACS"">kCRmOdOP</p>",,,,,,,,,,
html-keyboard-response,421,530593,0.0-18.0-0.8,650aee87054446f772acdfcc,650c16f0f2faf8d7a0d14c09,651c1bfeff8c5c3fcb5f68be,null,null,"<p style=""font-size: 60px; font-family: BACS"">lGZvuUY</p>",,,,,,,,,,
html-keyboard-response,422,531601,0.0-18.0-0.9,650aee87054446f772acdfcc,650c16f0f2faf8d7a0d14c09,651c1bfeff8c5c3fcb5f68be,null,null,"<p style=""font-size: 60px; font-family: BACS"">tcYbdAPT</p>",,,,,,,,,,
html-keyboard-response,423,532607,0.0-18.0-0.10,650aee87054446f772acdfcc,650c16f0f2faf8d7a0d14c09,651c1bfeff8c5c3fcb5f68be,null,null,"<p style=""font-size: 60px; font-family: BACS"">ZvalvuUY</p>",,,,,,,,,,
html-keyboard-response,424,533622,0.0-18.0-0.11,650aee87054446f772acdfcc,650c16f0f2faf8d7a0d14c09,651c1bfeff8c5c3fcb5f68be,null,null,"<p style=""font-size: 60px; font-family: BACS"">adYrcJcUk</p>",,,,,,,,,,
html-keyboard-response,425,534630,0.0-18.0-0.12,650aee87054446f772acdfcc,650c16f0f2faf8d7a0d14c09,651c1bfeff8c5c3fcb5f68be,null,null,"<p style=""font-size: 60px; font-family: BACS"">OQarQZckv</p>",,,,,,,,,,
html-keyboard-response,426,535645,0.0-18.0-0.13,650aee87054446f772acdfcc,650c16f0f2faf8d7a0d14c09,651c1bfeff8c5c3fcb5f68be,null,null,"<p style=""font-size: 60px; font-family: BACS"">JdOAYuUY</p>",,,,,,,,,,
html-keyboard-response,427,536652,0.0-18.0-0.14,650aee87054446f772acdfcc,650c16f0f2faf8d7a0d14c09,651c1bfeff8c5c3fcb5f68be,null,null,"<p style=""font-size: 60px; font-family: BACS"">ZvalvdUr</p>",,,,,,,,,,
html-keyboard-response,428,537658,0.0-18.0-0.15,650aee87054446f772acdfcc,650c16f0f2faf8d7a0d14c09,651c1bfeff8c5c3fcb5f68be,null,null,"<p style=""font-size: 60px; font-family: BACS"">hkRKPEdK</p>",,,,,,,,,,
html-keyboard-response,429,538665,0.0-18.0-0.16,650aee87054446f772acdfcc,650c16f0f2faf8d7a0d14c09,651c1bfeff8c5c3fcb5f68be,null,null,"<p style=""font-size: 60px; font-family: BACS"">kCRmTAm</p>",,,,,,,,,,
html-keyboard-response,430,539673,0.0-18.0-0.17,650aee87054446f772acdfcc,650c16f0f2faf8d7a0d14c09,651c1bfeff8c5c3fcb5f68be,null,null,"<p style=""font-size: 60px; font-family: BACS"">JdOAYAvdk</p>",,,,,,,,,,
html-keyboard-response,431,540681,0.0-18.0-0.18,650aee87054446f772acdfcc,650c16f0f2faf8d7a0d14c09,651c1bfeff8c5c3fcb5f68be,null,null,"<p style=""font-size: 60px; font-family: BACS"">PlEKTAm</p>",,,,,,,,,,
html-keyboard-response,432,541689,0.0-18.0-0.19,650aee87054446f772acdfcc,650c16f0f2faf8d7a0d14c09,651c1bfeff8c5c3fcb5f68be,null,null,"<p style=""font-size: 60px; font-family: BACS"">hChYPEdK</p>",,,,,,,,,,
html-keyboard-response,433,542696,0.0-18.0-0.20,650aee87054446f772acdfcc,650c16f0f2faf8d7a0d14c09,651c1bfeff8c5c3fcb5f68be,null,null,"<p style=""font-size: 60px; font-family: BACS"">AYkEhTAm</p>",,,,,,,,,,
html-keyboard-response,434,543704,0.0-18.0-0.21,650aee87054446f772acdfcc,650c16f0f2faf8d7a0d14c09,651c1bfeff8c5c3fcb5f68be,null,null,"<p style=""font-size: 60px; font-family: BACS"">kCRmPEdK</p>",,,,,,,,,,
html-keyboard-response,435,544711,0.0-18.0-0.22,650aee87054446f772acdfcc,650c16f0f2faf8d7a0d14c09,651c1bfeff8c5c3fcb5f68be,null,null,"<p style=""font-size: 60px; font-family: BACS"">mkmJNuUY</p>",,,,,,,,,,
html-keyboard-response,436,545718,0.0-18.0-0.23,650aee87054446f772acdfcc,650c16f0f2faf8d7a0d14c09,651c1bfeff8c5c3fcb5f68be,null,null,"<p style=""font-size: 60px; font-family: BACS"">lBKtPEdK</p>",,,,,,,,,,
html-keyboard-response,437,546726,0.0-18.0-0.24,650aee87054446f772acdfcc,650c16f0f2faf8d7a0d14c09,651c1bfeff8c5c3fcb5f68be,null,null,"<p style=""font-size: 60px; font-family: BACS"">tcYbdOdOP</p>",,,,,,,,,,
html-keyboard-response,438,547734,0.0-18.0-0.25,650aee87054446f772acdfcc,650c16f0f2faf8d7a0d14c09,651c1bfeff8c5c3fcb5f68be,null,null,"<p style=""font-size: 60px; font-family: BACS"">mkmJNdUr</p>",,,,,,,,,,
html-keyboard-response,439,548742,0.0-18.0-0.26,650aee87054446f772acdfcc,650c16f0f2faf8d7a0d14c09,651c1bfeff8c5c3fcb5f68be,null,null,"<p style=""font-size: 60px; font-family: BACS"">adYrcAvdk</p>",,,,,,,,,,
html-keyboard-response,440,549748,0.0-18.0-0.27,650aee87054446f772acdfcc,650c16f0f2faf8d7a0d14c09,651c1bfeff8c5c3fcb5f68be,null,null,"<p style=""font-size: 60px; font-family: BACS"">lGZvJcUk</p>",,,,,,,,,,
html-keyboard-response,441,550755,0.0-18.0-0.28,650aee87054446f772acdfcc,650c16f0f2faf8d7a0d14c09,651c1bfeff8c5c3fcb5f68be,null,null,"<p style=""font-size: 60px; font-family: BACS"">kNuaZckv</p>",,,,,,,,,,
html-keyboard-response,442,551762,0.0-18.0-0.29,650aee87054446f772acdfcc,650c16f0f2faf8d7a0d14c09,651c1bfeff8c5c3fcb5f68be,null,null,"<p style=""font-size: 60px; font-family: BACS"">JdGmAvdk</p>",,,,,,,,,,
html-keyboard-response,443,552770,0.0-18.0-0.30,650aee87054446f772acdfcc,650c16f0f2faf8d7a0d14c09,651c1bfeff8c5c3fcb5f68be,null,null,"<p style=""font-size: 60px; font-family: BACS"">OQarQuUY</p>",,,,,,,,,,
html-keyboard-response,444,553783,0.0-18.0-0.31,650aee87054446f772acdfcc,650c16f0f2faf8d7a0d14c09,651c1bfeff8c5c3fcb5f68be,null,null,"<p style=""font-size: 60px; font-family: BACS"">PlEKOdOP</p>",,,,,,,,,,
html-keyboard-response,445,554789,0.0-18.0-0.32,650aee87054446f772acdfcc,650c16f0f2faf8d7a0d14c09,651c1bfeff8c5c3fcb5f68be,null,null,"<p style=""font-size: 60px; font-family: BACS"">lGZvAvdk</p>",,,,,,,,,,
html-keyboard-response,446,555796,0.0-18.0-0.33,650aee87054446f772acdfcc,650c16f0f2faf8d7a0d14c09,651c1bfeff8c5c3fcb5f68be,null,null,"<p style=""font-size: 60px; font-family: BACS"">bRABtTmc</p>",,,,,,,,,,
html-keyboard-response,447,556803,0.0-18.0-0.34,650aee87054446f772acdfcc,650c16f0f2faf8d7a0d14c09,651c1bfeff8c5c3fcb5f68be,null,null,"<p style=""font-size: 60px; font-family: BACS"">mkmJNZckv</p>",,,,,,,,,,
html-keyboard-response,448,557805,0.0-18.0-0.35,650aee87054446f772acdfcc,650c16f0f2faf8d7a0d14c09,651c1bfeff8c5c3fcb5f68be,null,null,"<p style=""font-size: 60px; font-family: BACS"">lBKtOdOP</p>",,,,,,,,,,
html-keyboard-response,449,558819,0.0-18.0-0.36,650aee87054446f772acdfcc,650c16f0f2faf8d7a0d14c09,651c1bfeff8c5c3fcb5f68be,null,null,"<p style=""font-size: 60px; font-family: BACS"">aYQmJcUk</p>",,,,,,,,,,
html-keyboard-response,450,559826,0.0-18.0-0.37,650aee87054446f772acdfcc,650c16f0f2faf8d7a0d14c09,651c1bfeff8c5c3fcb5f68be,null,null,"<p style=""font-size: 60px; font-family: BACS"">bRABtOdOP</p>",,,,,,,,,,
html-keyboard-response,451,560832,0.0-18.0-0.38,650aee87054446f772acdfcc,650c16f0f2faf8d7a0d14c09,651c1bfeff8c5c3fcb5f68be,null,null,"<p style=""font-size: 60px; font-family: BACS"">OQarQJcUk</p>",,,,,,,,,,
html-keyboard-response,452,561839,0.0-18.0-0.39,650aee87054446f772acdfcc,650c16f0f2faf8d7a0d14c09,651c1bfeff8c5c3fcb5f68be,null,null,"<p style=""font-size: 60px; font-family: BACS"">aYQmdUr</p>",,,,,,,,,,
html-keyboard-response,453,562846,0.0-18.0-0.40,650aee87054446f772acdfcc,650c16f0f2faf8d7a0d14c09,651c1bfeff8c5c3fcb5f68be,null,null,"<p style=""font-size: 60px; font-family: BACS"">hkRKTAm</p>",,,,,,,,,,
html-keyboard-response,454,563853,0.0-18.0-0.41,650aee87054446f772acdfcc,650c16f0f2faf8d7a0d14c09,651c1bfeff8c5c3fcb5f68be,null,null,"<p style=""font-size: 60px; font-family: BACS"">kNuaAvdk</p>",,,,,,,,,,
html-keyboard-response,455,564866,0.0-18.0-0.42,650aee87054446f772acdfcc,650c16f0f2faf8d7a0d14c09,651c1bfeff8c5c3fcb5f68be,null,null,"<p style=""font-size: 60px; font-family: BACS"">PlEKAPT</p>",,,,,,,,,,
html-keyboard-response,456,565880,0.0-18.0-0.43,650aee87054446f772acdfcc,650c16f0f2faf8d7a0d14c09,651c1bfeff8c5c3fcb5f68be,null,null,"<p style=""font-size: 60px; font-family: BACS"">kNuaJcUk</p>",,,,,,,,,,
html-keyboard-response,457,566894,0.0-18.0-0.44,650aee87054446f772acdfcc,650c16f0f2faf8d7a0d14c09,651c1bfeff8c5c3fcb5f68be,null,null,"<p style=""font-size: 60px; font-family: BACS"">mkmJNAvdk</p>",,,,,,,,,,
html-keyboard-response,458,567909,0.0-18.0-0.45,650aee87054446f772acdfcc,650c16f0f2faf8d7a0d14c09,651c1bfeff8c5c3fcb5f68be,null,null,"<p style=""font-size: 60px; font-family: BACS"">AYkEhOdOP</p>",,,,,,,,,,
html-keyboard-response,459,568914,0.0-18.0-0.46,650aee87054446f772acdfcc,650c16f0f2faf8d7a0d14c09,651c1bfeff8c5c3fcb5f68be,null,null,"<p style=""font-size: 60px; font-family: BACS"">MlthAPT</p>",,,,,,,,,,
html-keyboard-response,460,569922,0.0-18.0-0.47,650aee87054446f772acdfcc,650c16f0f2faf8d7a0d14c09,651c1bfeff8c5c3fcb5f68be,null,null,"<p style=""font-size: 60px; font-family: BACS"">tcYbdTAm</p>",,,,,,,,,,
html-keyboard-response,461,570929,0.0-18.0-0.48,650aee87054446f772acdfcc,650c16f0f2faf8d7a0d14c09,651c1bfeff8c5c3fcb5f68be,null,null,"<p style=""font-size: 60px; font-family: BACS"">aYQmuUY</p>",,,,,,,,,,
html-keyboard-response,462,571937,0.0-18.0-0.49,650aee87054446f772acdfcc,650c16f0f2faf8d7a0d14c09,651c1bfeff8c5c3fcb5f68be,null,null,"<p style=""font-size: 60px; font-family: BACS"">cBROBPEdK</p>",,,,,,,,,,
html-keyboard-response,463,572944,0.0-18.0-0.50,650aee87054446f772acdfcc,650c16f0f2faf8d7a0d14c09,651c1bfeff8c5c3fcb5f68be,null,null,"<p style=""font-size: 60px; font-family: BACS"">lGZvdUr</p>",,,,,,,,,,
html-keyboard-response,464,573951,0.0-18.0-0.51,650aee87054446f772acdfcc,650c16f0f2faf8d7a0d14c09,651c1bfeff8c5c3fcb5f68be,null,null,"<p style=""font-size: 60px; font-family: BACS"">aYQmZckv</p>",,,,,,,,,,
html-keyboard-response,465,574959,0.0-18.0-0.52,650aee87054446f772acdfcc,650c16f0f2faf8d7a0d14c09,651c1bfeff8c5c3fcb5f68be,null,null,"<p style=""font-size: 60px; font-family: BACS"">JauQJcUk</p>",,,,,,,,,,
html-keyboard-response,466,575967,0.0-18.0-0.53,650aee87054446f772acdfcc,650c16f0f2faf8d7a0d14c09,651c1bfeff8c5c3fcb5f68be,null,null,"<p style=""font-size: 60px; font-family: BACS"">hChYOdOP</p>",,,,,,,,,,
