"trial_type","trial_index","time_elapsed","internal_node_id","subject_id","study_id","session_id","rt","response","stimulus","success","item","task","correct_response","testing_condition","correct","target","confound","name","view_history"
"pavlovia","0","679","0.0-0.0","5ecbb4c00bc62403dae2df59","650c16f0f2faf8d7a0d14c09","651c1da8439ec71e9de1f134","","","","","","","","","","","","",""
"survey-html-form","1","4459","0.0-1.0","5ecbb4c00bc62403dae2df59","650c16f0f2faf8d7a0d14c09","651c1da8439ec71e9de1f134","3779","{""ID"":""5ecbb4c00bc62403dae2df59""}","","","","","","","","","","",""
"html-keyboard-response","2","30115","0.0-2.0","5ecbb4c00bc62403dae2df59","650c16f0f2faf8d7a0d14c09","651c1da8439ec71e9de1f134","25655"," ","<p style=""font-size: 15px;"">Before beginning, we ask that you read the consent information and confirm your agreement to participate in the experiment.</p>
      <p style=""font-size: 15px;""> We ask that you remember that this is a research project and that your participation is entirely voluntary. You can stop your participation at any time, without needing to provide any explanation. The study we're asking you to participate in aims at examining how readers process written words. You will be engaged in a session of apprximately 20 minutes, followed by a brief questionnaire. You will have the opportunity to take a few breaks during the experiment. You will be paid £4 for your participation, corresponding to a rate of £8/hour. While this experiment looks at cognitive faculties, this experiment doesn't constitute clinical proof of eventual pathologies.</p>
      <p style=""font-size: 15px;"">All of the information collected thanks to yours and others' participation will be held in a secure password-protected server, and will not be shared with anyone not authorised to view it. Your personal information will be kept with an arbitrary participant ID. Thanks to this data anonymity process, any researcher analysing the data won't be able to track the information back to a specific participant. Therefore, this process will make identifying you impossibile, even when results from the study will be published in scientific reviews, presented at congresses, or at any other public forum. More generally, the collected data will be treated in accordance with the laws on privacy and conformity to the Legislative Degree n. 196 ""Code regarding the protection of personal data"" of the 30th of June 2003 and to the European Regulation 2016/670 (General Data Protection Regulation - GDPR). The Data Protection Officer is Avv. Valentina Carollo, who can be contacted at the following email addresses: <a href=""mailto:dpo@sissa.it"">dpo@sissa.it</a> or <a href=""mailto:rpd@sissa.it"">rpd@sissa.it</a> - PEC: <a href=""mailto:protocollo@pec.sissa.it"">protocollo@pec.sissa.it</a>.</p>
      <p style=""font-size: 15px;""> Before expressing your consent to participate, we would like to remind you again that in case you need explanations on any aspect of the experimental procedure, the researcher is at your disposition (<a href=""mailto:aliebelt@sissa.it"">aliebelt@sissa.it</a>, <a href=""mailto:davide.crepaldi@sissa.it"">davide.crepaldi@sissa.it</a>).</p>
      <p style=""font-size: 15px;"">If you would like to download the informed consent form, you can do so here: <a href=""BASL-Informed_Consent.pdf"" download>informed consent form</a>.</p>
      <p style=""font-size: 15px;"">We ask that you press the spacebar to proceed to the consent section.</p>","","","","","","","","","",""
"survey-html-form","3","46608","0.0-3.0","5ecbb4c00bc62403dae2df59","650c16f0f2faf8d7a0d14c09","651c1da8439ec71e9de1f134","16489","{""consent1"":""YES"",""consent2"":""YES"",""consent3"":""YES"",""consent4"":""YES"",""consent5"":""YES"",""consent6"":""YES""}","","","","","","","","","","",""
"fullscreen","4","52960","0.0-4.0","5ecbb4c00bc62403dae2df59","650c16f0f2faf8d7a0d14c09","651c1da8439ec71e9de1f134","","","","true","","","","","","","","",""
"html-keyboard-response","5","78159","0.0-5.0","5ecbb4c00bc62403dae2df59","650c16f0f2faf8d7a0d14c09","651c1da8439ec71e9de1f134","25197"," ","<p>Welcome, and thank you very much for your time!</p>
      <p>In this experiment, you'll be a language expert who's been asked to take a look at words that Earth has received in its first communication with aliens. Your task, in this first part of the experiment, is to pay close attention to the words you'll be shown; later, world leaders will ask you questions on what you saw. The words will be shown to you quite quickly; it seems that the aliens were in a hurry :-)</p>
      <p>Press the spacebar to continue.<p>","","","","","","","","","",""
"html-keyboard-response","6","78210","0.0-6.0","5ecbb4c00bc62403dae2df59","650c16f0f2faf8d7a0d14c09","651c1da8439ec71e9de1f134","null","null","<p style=""font-size: 120px; font-family: BACS""> </p>","","","","","","","","","",""
"html-keyboard-response","7","84816","0.0-7.0","5ecbb4c00bc62403dae2df59","650c16f0f2faf8d7a0d14c09","651c1da8439ec71e9de1f134","6605"," ","<p>Here is an example of the words you'll see:</p>
      <img src='esempio.png' height='400px'>
      <p>When you're ready to begin, press the spacebar.</p></div>","","","","","","","","","",""
"html-keyboard-response","8","85822","0.0-8.0-0.0","5ecbb4c00bc62403dae2df59","650c16f0f2faf8d7a0d14c09","651c1da8439ec71e9de1f134","null","null","<p style=""font-size: 60px; font-family: BACS"">OAmAdPEdK</p>","","","","","","","","","",""
"html-keyboard-response","9","86839","0.0-8.0-0.1","5ecbb4c00bc62403dae2df59","650c16f0f2faf8d7a0d14c09","651c1da8439ec71e9de1f134","null","null","<p style=""font-size: 60px; font-family: BACS"">Gabkrkra</p>","","","","","","","","","",""
"html-keyboard-response","10","87842","0.0-8.0-0.2","5ecbb4c00bc62403dae2df59","650c16f0f2faf8d7a0d14c09","651c1da8439ec71e9de1f134","null","null","<p style=""font-size: 60px; font-family: BACS"">bcbMRdCc</p>","","","","","","","","","",""
"html-keyboard-response","11","88857","0.0-8.0-0.3","5ecbb4c00bc62403dae2df59","650c16f0f2faf8d7a0d14c09","651c1da8439ec71e9de1f134","null","null","<p style=""font-size: 60px; font-family: BACS"">dvNvAYArG</p>","","","","","","","","","",""
"html-keyboard-response","12","89860","0.0-8.0-0.4","5ecbb4c00bc62403dae2df59","650c16f0f2faf8d7a0d14c09","651c1da8439ec71e9de1f134","null","null","<p style=""font-size: 60px; font-family: BACS"">mbZlGlu</p>","","","","","","","","","",""
"html-keyboard-response","13","90861","0.0-8.0-0.5","5ecbb4c00bc62403dae2df59","650c16f0f2faf8d7a0d14c09","651c1da8439ec71e9de1f134","null","null","<p style=""font-size: 60px; font-family: BACS"">lZcuLUOk</p>","","","","","","","","","",""
"html-keyboard-response","14","91863","0.0-8.0-0.6","5ecbb4c00bc62403dae2df59","650c16f0f2faf8d7a0d14c09","651c1da8439ec71e9de1f134","null","null","<p style=""font-size: 60px; font-family: BACS"">ckduArkra</p>","","","","","","","","","",""
"html-keyboard-response","15","92879","0.0-8.0-0.7","5ecbb4c00bc62403dae2df59","650c16f0f2faf8d7a0d14c09","651c1da8439ec71e9de1f134","null","null","<p style=""font-size: 60px; font-family: BACS"">ORbkPEdK</p>","","","","","","","","","",""
"html-keyboard-response","16","93880","0.0-8.0-0.8","5ecbb4c00bc62403dae2df59","650c16f0f2faf8d7a0d14c09","651c1da8439ec71e9de1f134","null","null","<p style=""font-size: 60px; font-family: BACS"">krGuGrbk</p>","","","","","","","","","",""
"html-keyboard-response","17","94897","0.0-8.0-0.9","5ecbb4c00bc62403dae2df59","650c16f0f2faf8d7a0d14c09","651c1da8439ec71e9de1f134","null","null","<p style=""font-size: 60px; font-family: BACS"">bROCRDM</p>","","","","","","","","","",""
"html-keyboard-response","18","95898","0.0-8.0-0.10","5ecbb4c00bc62403dae2df59","650c16f0f2faf8d7a0d14c09","651c1da8439ec71e9de1f134","null","null","<p style=""font-size: 60px; font-family: BACS"">ckduALUOk</p>","","","","","","","","","",""
"html-keyboard-response","19","96913","0.0-8.0-0.11","5ecbb4c00bc62403dae2df59","650c16f0f2faf8d7a0d14c09","651c1da8439ec71e9de1f134","null","null","<p style=""font-size: 60px; font-family: BACS"">uvaUYArG</p>","","","","","","","","","",""
"html-keyboard-response","20","97917","0.0-8.0-0.12","5ecbb4c00bc62403dae2df59","650c16f0f2faf8d7a0d14c09","651c1da8439ec71e9de1f134","null","null","<p style=""font-size: 60px; font-family: BACS"">lZcurkra</p>","","","","","","","","","",""
"html-keyboard-response","21","98919","0.0-8.0-0.13","5ecbb4c00bc62403dae2df59","650c16f0f2faf8d7a0d14c09","651c1da8439ec71e9de1f134","null","null","<p style=""font-size: 60px; font-family: BACS"">bcbMmtKP</p>","","","","","","","","","",""
"html-keyboard-response","22","99935","0.0-8.0-0.14","5ecbb4c00bc62403dae2df59","650c16f0f2faf8d7a0d14c09","651c1da8439ec71e9de1f134","null","null","<p style=""font-size: 60px; font-family: BACS"">AbKDPEdK</p>","","","","","","","","","",""
"html-keyboard-response","23","100938","0.0-8.0-0.15","5ecbb4c00bc62403dae2df59","650c16f0f2faf8d7a0d14c09","651c1da8439ec71e9de1f134","null","null","<p style=""font-size: 60px; font-family: BACS"">OAmAdmtKP</p>","","","","","","","","","",""
"html-keyboard-response","24","101954","0.0-8.0-0.16","5ecbb4c00bc62403dae2df59","650c16f0f2faf8d7a0d14c09","651c1da8439ec71e9de1f134","null","null","<p style=""font-size: 60px; font-family: BACS"">krGuLUOk</p>","","","","","","","","","",""
"html-keyboard-response","25","102955","0.0-8.0-0.17","5ecbb4c00bc62403dae2df59","650c16f0f2faf8d7a0d14c09","651c1da8439ec71e9de1f134","null","null","<p style=""font-size: 60px; font-family: BACS"">lZcuYArG</p>","","","","","","","","","",""
"html-keyboard-response","26","103957","0.0-8.0-0.18","5ecbb4c00bc62403dae2df59","650c16f0f2faf8d7a0d14c09","651c1da8439ec71e9de1f134","null","null","<p style=""font-size: 60px; font-family: BACS"">bROCmtKP</p>","","","","","","","","","",""
"html-keyboard-response","27","104967","0.0-8.0-0.19","5ecbb4c00bc62403dae2df59","650c16f0f2faf8d7a0d14c09","651c1da8439ec71e9de1f134","null","null","<p style=""font-size: 60px; font-family: BACS"">CmcORdCc</p>","","","","","","","","","",""
"html-keyboard-response","28","105975","0.0-8.0-0.20","5ecbb4c00bc62403dae2df59","650c16f0f2faf8d7a0d14c09","651c1da8439ec71e9de1f134","null","null","<p style=""font-size: 60px; font-family: BACS"">GabkGlu</p>","","","","","","","","","",""
"html-keyboard-response","29","106977","0.0-8.0-0.21","5ecbb4c00bc62403dae2df59","650c16f0f2faf8d7a0d14c09","651c1da8439ec71e9de1f134","null","null","<p style=""font-size: 60px; font-family: BACS"">AbKDmtKP</p>","","","","","","","","","",""
"html-keyboard-response","30","107978","0.0-8.0-0.22","5ecbb4c00bc62403dae2df59","650c16f0f2faf8d7a0d14c09","651c1da8439ec71e9de1f134","null","null","<p style=""font-size: 60px; font-family: BACS"">CmcOPMd</p>","","","","","","","","","",""
"html-keyboard-response","31","108994","0.0-8.0-0.23","5ecbb4c00bc62403dae2df59","650c16f0f2faf8d7a0d14c09","651c1da8439ec71e9de1f134","null","null","<p style=""font-size: 60px; font-family: BACS"">kLvdNGrbk</p>","","","","","","","","","",""
"html-keyboard-response","32","109996","0.0-8.0-0.24","5ecbb4c00bc62403dae2df59","650c16f0f2faf8d7a0d14c09","651c1da8439ec71e9de1f134","null","null","<p style=""font-size: 60px; font-family: BACS"">bdUNurkra</p>","","","","","","","","","",""
"html-keyboard-response","33","110997","0.0-8.0-0.25","5ecbb4c00bc62403dae2df59","650c16f0f2faf8d7a0d14c09","651c1da8439ec71e9de1f134","null","null","<p style=""font-size: 60px; font-family: BACS"">mbZlYArG</p>","","","","","","","","","",""
"html-keyboard-response","34","111998","0.0-8.0-0.26","5ecbb4c00bc62403dae2df59","650c16f0f2faf8d7a0d14c09","651c1da8439ec71e9de1f134","null","null","<p style=""font-size: 60px; font-family: BACS"">bcbMRDM</p>","","","","","","","","","",""
"html-keyboard-response","35","112999","0.0-8.0-0.27","5ecbb4c00bc62403dae2df59","650c16f0f2faf8d7a0d14c09","651c1da8439ec71e9de1f134","null","null","<p style=""font-size: 60px; font-family: BACS"">mbZlrkra</p>","","","","","","","","","",""
"html-keyboard-response","36","114000","0.0-8.0-0.28","5ecbb4c00bc62403dae2df59","650c16f0f2faf8d7a0d14c09","651c1da8439ec71e9de1f134","null","null","<p style=""font-size: 60px; font-family: BACS"">uvaULUOk</p>","","","","","","","","","",""
"html-keyboard-response","37","115003","0.0-8.0-0.29","5ecbb4c00bc62403dae2df59","650c16f0f2faf8d7a0d14c09","651c1da8439ec71e9de1f134","null","null","<p style=""font-size: 60px; font-family: BACS"">OAmAdRDM</p>","","","","","","","","","",""
"html-keyboard-response","38","116018","0.0-8.0-0.30","5ecbb4c00bc62403dae2df59","650c16f0f2faf8d7a0d14c09","651c1da8439ec71e9de1f134","null","null","<p style=""font-size: 60px; font-family: BACS"">CmcOmtKP</p>","","","","","","","","","",""
"html-keyboard-response","39","117020","0.0-8.0-0.31","5ecbb4c00bc62403dae2df59","650c16f0f2faf8d7a0d14c09","651c1da8439ec71e9de1f134","null","null","<p style=""font-size: 60px; font-family: BACS"">CRdBdRdCc</p>","","","","","","","","","",""
"html-keyboard-response","40","118036","0.0-8.0-0.32","5ecbb4c00bc62403dae2df59","650c16f0f2faf8d7a0d14c09","651c1da8439ec71e9de1f134","null","null","<p style=""font-size: 60px; font-family: BACS"">lZcuGrbk</p>","","","","","","","","","",""
"html-keyboard-response","41","119039","0.0-8.0-0.33","5ecbb4c00bc62403dae2df59","650c16f0f2faf8d7a0d14c09","651c1da8439ec71e9de1f134","null","null","<p style=""font-size: 60px; font-family: BACS"">CRdBdPMd</p>","","","","","","","","","",""
"html-keyboard-response","42","120054","0.0-8.0-0.34","5ecbb4c00bc62403dae2df59","650c16f0f2faf8d7a0d14c09","651c1da8439ec71e9de1f134","null","null","<p style=""font-size: 60px; font-family: BACS"">kLvdNLUOk</p>","","","","","","","","","",""
"html-keyboard-response","43","121058","0.0-8.0-0.35","5ecbb4c00bc62403dae2df59","650c16f0f2faf8d7a0d14c09","651c1da8439ec71e9de1f134","null","null","<p style=""font-size: 60px; font-family: BACS"">MkmEdmtKP</p>","","","","","","","","","",""
"html-keyboard-response","44","122074","0.0-8.0-0.36","5ecbb4c00bc62403dae2df59","650c16f0f2faf8d7a0d14c09","651c1da8439ec71e9de1f134","null","null","<p style=""font-size: 60px; font-family: BACS"">CRdBdPEdK</p>","","","","","","","","","",""
"html-keyboard-response","45","123091","0.0-8.0-0.37","5ecbb4c00bc62403dae2df59","650c16f0f2faf8d7a0d14c09","651c1da8439ec71e9de1f134","null","null","<p style=""font-size: 60px; font-family: BACS"">ckduAGlu</p>","","","","","","","","","",""
"html-keyboard-response","46","124093","0.0-8.0-0.38","5ecbb4c00bc62403dae2df59","650c16f0f2faf8d7a0d14c09","651c1da8439ec71e9de1f134","null","null","<p style=""font-size: 60px; font-family: BACS"">MkmEdPMd</p>","","","","","","","","","",""
"html-keyboard-response","47","125095","0.0-8.0-0.39","5ecbb4c00bc62403dae2df59","650c16f0f2faf8d7a0d14c09","651c1da8439ec71e9de1f134","null","null","<p style=""font-size: 60px; font-family: BACS"">kcdOtRdCc</p>","","","","","","","","","",""
"html-keyboard-response","48","126112","0.0-8.0-0.40","5ecbb4c00bc62403dae2df59","650c16f0f2faf8d7a0d14c09","651c1da8439ec71e9de1f134","null","null","<p style=""font-size: 60px; font-family: BACS"">kLvdNrkra</p>","","","","","","","","","",""
"html-keyboard-response","49","127113","0.0-8.0-0.41","5ecbb4c00bc62403dae2df59","650c16f0f2faf8d7a0d14c09","651c1da8439ec71e9de1f134","null","null","<p style=""font-size: 60px; font-family: BACS"">uvaUGlu</p>","","","","","","","","","",""
"html-keyboard-response","50","128114","0.0-8.0-0.42","5ecbb4c00bc62403dae2df59","650c16f0f2faf8d7a0d14c09","651c1da8439ec71e9de1f134","null","null","<p style=""font-size: 60px; font-family: BACS"">dvNvALUOk</p>","","","","","","","","","",""
"html-keyboard-response","51","129115","0.0-8.0-0.43","5ecbb4c00bc62403dae2df59","650c16f0f2faf8d7a0d14c09","651c1da8439ec71e9de1f134","null","null","<p style=""font-size: 60px; font-family: BACS"">ckduAYArG</p>","","","","","","","","","",""
"html-keyboard-response","52","130116","0.0-8.0-0.44","5ecbb4c00bc62403dae2df59","650c16f0f2faf8d7a0d14c09","651c1da8439ec71e9de1f134","null","null","<p style=""font-size: 60px; font-family: BACS"">MkmEdRdCc</p>","","","","","","","","","",""
"html-keyboard-response","53","131118","0.0-8.0-0.45","5ecbb4c00bc62403dae2df59","650c16f0f2faf8d7a0d14c09","651c1da8439ec71e9de1f134","null","null","<p style=""font-size: 60px; font-family: BACS"">MBmEPMd</p>","","","","","","","","","",""
"html-keyboard-response","54","132119","0.0-8.0-0.46","5ecbb4c00bc62403dae2df59","650c16f0f2faf8d7a0d14c09","651c1da8439ec71e9de1f134","null","null","<p style=""font-size: 60px; font-family: BACS"">dvNvAGrbk</p>","","","","","","","","","",""
"html-keyboard-response","55","133136","0.0-8.0-0.47","5ecbb4c00bc62403dae2df59","650c16f0f2faf8d7a0d14c09","651c1da8439ec71e9de1f134","null","null","<p style=""font-size: 60px; font-family: BACS"">aLNlkYArG</p>","","","","","","","","","",""
"html-keyboard-response","56","134152","0.0-8.0-0.48","5ecbb4c00bc62403dae2df59","650c16f0f2faf8d7a0d14c09","651c1da8439ec71e9de1f134","null","null","<p style=""font-size: 60px; font-family: BACS"">kLvdNGlu</p>","","","","","","","","","",""
"html-keyboard-response","57","135154","0.0-8.0-0.49","5ecbb4c00bc62403dae2df59","650c16f0f2faf8d7a0d14c09","651c1da8439ec71e9de1f134","null","null","<p style=""font-size: 60px; font-family: BACS"">CRdBdRDM</p>","","","","","","","","","",""
"html-keyboard-response","58","136157","0.0-8.0-0.50","5ecbb4c00bc62403dae2df59","650c16f0f2faf8d7a0d14c09","651c1da8439ec71e9de1f134","null","null","<p style=""font-size: 60px; font-family: BACS"">bROCRdCc</p>","","","","","","","","","",""
"html-keyboard-response","59","137173","0.0-8.0-0.51","5ecbb4c00bc62403dae2df59","650c16f0f2faf8d7a0d14c09","651c1da8439ec71e9de1f134","null","null","<p style=""font-size: 60px; font-family: BACS"">aLNlkGrbk</p>","","","","","","","","","",""
"html-keyboard-response","60","138175","0.0-8.0-0.52","5ecbb4c00bc62403dae2df59","650c16f0f2faf8d7a0d14c09","651c1da8439ec71e9de1f134","null","null","<p style=""font-size: 60px; font-family: BACS"">uvaUrkra</p>","","","","","","","","","",""
"html-keyboard-response","61","139190","0.0-8.0-0.53","5ecbb4c00bc62403dae2df59","650c16f0f2faf8d7a0d14c09","651c1da8439ec71e9de1f134","null","null","<p style=""font-size: 60px; font-family: BACS"">bdUNuGrbk</p>","","","","","","","","","",""
"html-keyboard-response","62","140193","0.0-8.0-0.54","5ecbb4c00bc62403dae2df59","650c16f0f2faf8d7a0d14c09","651c1da8439ec71e9de1f134","null","null","<p style=""font-size: 60px; font-family: BACS"">kcdOtPMd</p>","","","","","","","","","",""
"html-keyboard-response","63","141209","0.0-8.0-0.55","5ecbb4c00bc62403dae2df59","650c16f0f2faf8d7a0d14c09","651c1da8439ec71e9de1f134","null","null","<p style=""font-size: 60px; font-family: BACS"">aLNlkGlu</p>","","","","","","","","","",""
"html-keyboard-response","64","142211","0.0-8.0-0.56","5ecbb4c00bc62403dae2df59","650c16f0f2faf8d7a0d14c09","651c1da8439ec71e9de1f134","null","null","<p style=""font-size: 60px; font-family: BACS"">AbKDPMd</p>","","","","","","","","","",""
"html-keyboard-response","65","143212","0.0-8.0-0.57","5ecbb4c00bc62403dae2df59","650c16f0f2faf8d7a0d14c09","651c1da8439ec71e9de1f134","null","null","<p style=""font-size: 60px; font-family: BACS"">bdUNuLUOk</p>","","","","","","","","","",""
"html-keyboard-response","66","144213","0.0-8.0-0.58","5ecbb4c00bc62403dae2df59","650c16f0f2faf8d7a0d14c09","651c1da8439ec71e9de1f134","null","null","<p style=""font-size: 60px; font-family: BACS"">OAmAdPMd</p>","","","","","","","","","",""
"html-keyboard-response","67","145214","0.0-8.0-0.59","5ecbb4c00bc62403dae2df59","650c16f0f2faf8d7a0d14c09","651c1da8439ec71e9de1f134","null","null","<p style=""font-size: 60px; font-family: BACS"">mbZlGrbk</p>","","","","","","","","","",""
"html-keyboard-response","68","146231","0.0-8.0-0.60","5ecbb4c00bc62403dae2df59","650c16f0f2faf8d7a0d14c09","651c1da8439ec71e9de1f134","null","null","<p style=""font-size: 60px; font-family: BACS"">krGuGlu</p>","","","","","","","","","",""
"html-keyboard-response","69","147234","0.0-8.0-0.61","5ecbb4c00bc62403dae2df59","650c16f0f2faf8d7a0d14c09","651c1da8439ec71e9de1f134","null","null","<p style=""font-size: 60px; font-family: BACS"">bdUNuYArG</p>","","","","","","","","","",""
"html-keyboard-response","70","148235","0.0-8.0-0.62","5ecbb4c00bc62403dae2df59","650c16f0f2faf8d7a0d14c09","651c1da8439ec71e9de1f134","null","null","<p style=""font-size: 60px; font-family: BACS"">bROCPEdK</p>","","","","","","","","","",""
"html-keyboard-response","71","149251","0.0-8.0-0.63","5ecbb4c00bc62403dae2df59","650c16f0f2faf8d7a0d14c09","651c1da8439ec71e9de1f134","null","null","<p style=""font-size: 60px; font-family: BACS"">kcdOtRDM</p>","","","","","","","","","",""
"html-keyboard-response","72","150254","0.0-8.0-0.64","5ecbb4c00bc62403dae2df59","650c16f0f2faf8d7a0d14c09","651c1da8439ec71e9de1f134","null","null","<p style=""font-size: 60px; font-family: BACS"">bcbMPMd</p>","","","","","","","","","",""
"html-keyboard-response","73","151256","0.0-8.0-0.65","5ecbb4c00bc62403dae2df59","650c16f0f2faf8d7a0d14c09","651c1da8439ec71e9de1f134","null","null","<p style=""font-size: 60px; font-family: BACS"">ORbkmtKP</p>","","","","","","","","","",""
"html-keyboard-response","74","152257","0.0-8.0-0.66","5ecbb4c00bc62403dae2df59","650c16f0f2faf8d7a0d14c09","651c1da8439ec71e9de1f134","null","null","<p style=""font-size: 60px; font-family: BACS"">MkmEdPEdK</p>","","","","","","","","","",""
"html-keyboard-response","75","153273","0.0-8.0-0.67","5ecbb4c00bc62403dae2df59","650c16f0f2faf8d7a0d14c09","651c1da8439ec71e9de1f134","null","null","<p style=""font-size: 60px; font-family: BACS"">GabkGrbk</p>","","","","","","","","","",""
"html-keyboard-response","76","154274","0.0-8.0-0.68","5ecbb4c00bc62403dae2df59","650c16f0f2faf8d7a0d14c09","651c1da8439ec71e9de1f134","null","null","<p style=""font-size: 60px; font-family: BACS"">ORbkRdCc</p>","","","","","","","","","",""
"html-keyboard-response","77","155275","0.0-8.0-0.69","5ecbb4c00bc62403dae2df59","650c16f0f2faf8d7a0d14c09","651c1da8439ec71e9de1f134","null","null","<p style=""font-size: 60px; font-family: BACS"">krGuYArG</p>","","","","","","","","","",""
"html-keyboard-response","78","156276","0.0-8.0-0.70","5ecbb4c00bc62403dae2df59","650c16f0f2faf8d7a0d14c09","651c1da8439ec71e9de1f134","null","null","<p style=""font-size: 60px; font-family: BACS"">MBmERdCc</p>","","","","","","","","","",""
"html-keyboard-response","79","157277","0.0-8.0-0.71","5ecbb4c00bc62403dae2df59","650c16f0f2faf8d7a0d14c09","651c1da8439ec71e9de1f134","null","null","<p style=""font-size: 60px; font-family: BACS"">dvNvAGlu</p>","","","","","","","","","",""
"html-keyboard-response","80","158279","0.0-8.0-0.72","5ecbb4c00bc62403dae2df59","650c16f0f2faf8d7a0d14c09","651c1da8439ec71e9de1f134","null","null","<p style=""font-size: 60px; font-family: BACS"">MBmEPEdK</p>","","","","","","","","","",""
"html-keyboard-response","81","159291","0.0-8.0-0.73","5ecbb4c00bc62403dae2df59","650c16f0f2faf8d7a0d14c09","651c1da8439ec71e9de1f134","null","null","<p style=""font-size: 60px; font-family: BACS"">AbKDRDM</p>","","","","","","","","","",""
"html-keyboard-response","82","160297","0.0-8.0-0.74","5ecbb4c00bc62403dae2df59","650c16f0f2faf8d7a0d14c09","651c1da8439ec71e9de1f134","null","null","<p style=""font-size: 60px; font-family: BACS"">aLNlkrkra</p>","","","","","","","","","",""
"html-keyboard-response","83","161299","0.0-8.0-0.75","5ecbb4c00bc62403dae2df59","650c16f0f2faf8d7a0d14c09","651c1da8439ec71e9de1f134","null","null","<p style=""font-size: 60px; font-family: BACS"">kcdOtPEdK</p>","","","","","","","","","",""
"html-keyboard-response","84","162315","0.0-8.0-0.76","5ecbb4c00bc62403dae2df59","650c16f0f2faf8d7a0d14c09","651c1da8439ec71e9de1f134","null","null","<p style=""font-size: 60px; font-family: BACS"">MBmEmtKP</p>","","","","","","","","","",""
"html-keyboard-response","85","163332","0.0-8.0-0.77","5ecbb4c00bc62403dae2df59","650c16f0f2faf8d7a0d14c09","651c1da8439ec71e9de1f134","null","null","<p style=""font-size: 60px; font-family: BACS"">ORbkRDM</p>","","","","","","","","","",""
"html-keyboard-response","86","164334","0.0-8.0-0.78","5ecbb4c00bc62403dae2df59","650c16f0f2faf8d7a0d14c09","651c1da8439ec71e9de1f134","null","null","<p style=""font-size: 60px; font-family: BACS"">GabkLUOk</p>","","","","","","","","","",""
"html-keyboard-response","87","165350","0.0-8.0-0.79","5ecbb4c00bc62403dae2df59","650c16f0f2faf8d7a0d14c09","651c1da8439ec71e9de1f134","null","null","<p style=""font-size: 60px; font-family: BACS"">CmcORDM</p>","","","","","","","","","",""
"html-keyboard-response","88","170858","0.0-9.0","5ecbb4c00bc62403dae2df59","650c16f0f2faf8d7a0d14c09","651c1da8439ec71e9de1f134","5507"," ","<p>Great, you've seen the first block of words. You may now take a short break.</p>
      <p>Press the spacebar when you're ready to continue.</p>","","","","","","","","","",""
"html-keyboard-response","89","171875","0.0-10.0-0.0","5ecbb4c00bc62403dae2df59","650c16f0f2faf8d7a0d14c09","651c1da8439ec71e9de1f134","null","null","<p style=""font-size: 60px; font-family: BACS"">Gabkrkra</p>","","","","","","","","","",""
"html-keyboard-response","90","172890","0.0-10.0-0.1","5ecbb4c00bc62403dae2df59","650c16f0f2faf8d7a0d14c09","651c1da8439ec71e9de1f134","null","null","<p style=""font-size: 60px; font-family: BACS"">lZcuLUOk</p>","","","","","","","","","",""
"html-keyboard-response","91","173894","0.0-10.0-0.2","5ecbb4c00bc62403dae2df59","650c16f0f2faf8d7a0d14c09","651c1da8439ec71e9de1f134","null","null","<p style=""font-size: 60px; font-family: BACS"">AbKDmtKP</p>","","","","","","","","","",""
"html-keyboard-response","92","174895","0.0-10.0-0.3","5ecbb4c00bc62403dae2df59","650c16f0f2faf8d7a0d14c09","651c1da8439ec71e9de1f134","null","null","<p style=""font-size: 60px; font-family: BACS"">MkmEdRdCc</p>","","","","","","","","","",""
"html-keyboard-response","93","175912","0.0-10.0-0.4","5ecbb4c00bc62403dae2df59","650c16f0f2faf8d7a0d14c09","651c1da8439ec71e9de1f134","null","null","<p style=""font-size: 60px; font-family: BACS"">ORbkRDM</p>","","","","","","","","","",""
"html-keyboard-response","94","176913","0.0-10.0-0.5","5ecbb4c00bc62403dae2df59","650c16f0f2faf8d7a0d14c09","651c1da8439ec71e9de1f134","null","null","<p style=""font-size: 60px; font-family: BACS"">ckduArkra</p>","","","","","","","","","",""
"html-keyboard-response","95","177930","0.0-10.0-0.6","5ecbb4c00bc62403dae2df59","650c16f0f2faf8d7a0d14c09","651c1da8439ec71e9de1f134","null","null","<p style=""font-size: 60px; font-family: BACS"">ORbkPEdK</p>","","","","","","","","","",""
"html-keyboard-response","96","178932","0.0-10.0-0.7","5ecbb4c00bc62403dae2df59","650c16f0f2faf8d7a0d14c09","651c1da8439ec71e9de1f134","null","null","<p style=""font-size: 60px; font-family: BACS"">dvNvAGrbk</p>","","","","","","","","","",""
"html-keyboard-response","97","179933","0.0-10.0-0.8","5ecbb4c00bc62403dae2df59","650c16f0f2faf8d7a0d14c09","651c1da8439ec71e9de1f134","null","null","<p style=""font-size: 60px; font-family: BACS"">ORbkmtKP</p>","","","","","","","","","",""
"html-keyboard-response","98","180943","0.0-10.0-0.9","5ecbb4c00bc62403dae2df59","650c16f0f2faf8d7a0d14c09","651c1da8439ec71e9de1f134","null","null","<p style=""font-size: 60px; font-family: BACS"">OAmAdPMd</p>","","","","","","","","","",""
"html-keyboard-response","99","181952","0.0-10.0-0.10","5ecbb4c00bc62403dae2df59","650c16f0f2faf8d7a0d14c09","651c1da8439ec71e9de1f134","null","null","<p style=""font-size: 60px; font-family: BACS"">bdUNuLUOk</p>","","","","","","","","","",""
"html-keyboard-response","100","182953","0.0-10.0-0.11","5ecbb4c00bc62403dae2df59","650c16f0f2faf8d7a0d14c09","651c1da8439ec71e9de1f134","null","null","<p style=""font-size: 60px; font-family: BACS"">AbKDPMd</p>","","","","","","","","","",""
"html-keyboard-response","101","183955","0.0-10.0-0.12","5ecbb4c00bc62403dae2df59","650c16f0f2faf8d7a0d14c09","651c1da8439ec71e9de1f134","null","null","<p style=""font-size: 60px; font-family: BACS"">MkmEdPEdK</p>","","","","","","","","","",""
"html-keyboard-response","102","184970","0.0-10.0-0.13","5ecbb4c00bc62403dae2df59","650c16f0f2faf8d7a0d14c09","651c1da8439ec71e9de1f134","null","null","<p style=""font-size: 60px; font-family: BACS"">lZcuGrbk</p>","","","","","","","","","",""
"html-keyboard-response","103","185972","0.0-10.0-0.14","5ecbb4c00bc62403dae2df59","650c16f0f2faf8d7a0d14c09","651c1da8439ec71e9de1f134","null","null","<p style=""font-size: 60px; font-family: BACS"">bROCRdCc</p>","","","","","","","","","",""
"html-keyboard-response","104","186974","0.0-10.0-0.15","5ecbb4c00bc62403dae2df59","650c16f0f2faf8d7a0d14c09","651c1da8439ec71e9de1f134","null","null","<p style=""font-size: 60px; font-family: BACS"">CmcOPMd</p>","","","","","","","","","",""
"html-keyboard-response","105","187990","0.0-10.0-0.16","5ecbb4c00bc62403dae2df59","650c16f0f2faf8d7a0d14c09","651c1da8439ec71e9de1f134","null","null","<p style=""font-size: 60px; font-family: BACS"">kLvdNGrbk</p>","","","","","","","","","",""
"html-keyboard-response","106","188992","0.0-10.0-0.17","5ecbb4c00bc62403dae2df59","650c16f0f2faf8d7a0d14c09","651c1da8439ec71e9de1f134","null","null","<p style=""font-size: 60px; font-family: BACS"">bdUNuYArG</p>","","","","","","","","","",""
"html-keyboard-response","107","189994","0.0-10.0-0.18","5ecbb4c00bc62403dae2df59","650c16f0f2faf8d7a0d14c09","651c1da8439ec71e9de1f134","null","null","<p style=""font-size: 60px; font-family: BACS"">CmcORDM</p>","","","","","","","","","",""
"html-keyboard-response","108","191009","0.0-10.0-0.19","5ecbb4c00bc62403dae2df59","650c16f0f2faf8d7a0d14c09","651c1da8439ec71e9de1f134","null","null","<p style=""font-size: 60px; font-family: BACS"">lZcurkra</p>","","","","","","","","","",""
"html-keyboard-response","109","192011","0.0-10.0-0.20","5ecbb4c00bc62403dae2df59","650c16f0f2faf8d7a0d14c09","651c1da8439ec71e9de1f134","null","null","<p style=""font-size: 60px; font-family: BACS"">bcbMmtKP</p>","","","","","","","","","",""
"html-keyboard-response","110","193012","0.0-10.0-0.21","5ecbb4c00bc62403dae2df59","650c16f0f2faf8d7a0d14c09","651c1da8439ec71e9de1f134","null","null","<p style=""font-size: 60px; font-family: BACS"">bdUNurkra</p>","","","","","","","","","",""
"html-keyboard-response","111","194013","0.0-10.0-0.22","5ecbb4c00bc62403dae2df59","650c16f0f2faf8d7a0d14c09","651c1da8439ec71e9de1f134","null","null","<p style=""font-size: 60px; font-family: BACS"">kLvdNLUOk</p>","","","","","","","","","",""
"html-keyboard-response","112","195014","0.0-10.0-0.23","5ecbb4c00bc62403dae2df59","650c16f0f2faf8d7a0d14c09","651c1da8439ec71e9de1f134","null","null","<p style=""font-size: 60px; font-family: BACS"">CmcORdCc</p>","","","","","","","","","",""
"html-keyboard-response","113","196015","0.0-10.0-0.24","5ecbb4c00bc62403dae2df59","650c16f0f2faf8d7a0d14c09","651c1da8439ec71e9de1f134","null","null","<p style=""font-size: 60px; font-family: BACS"">bdUNuGrbk</p>","","","","","","","","","",""
"html-keyboard-response","114","197017","0.0-10.0-0.25","5ecbb4c00bc62403dae2df59","650c16f0f2faf8d7a0d14c09","651c1da8439ec71e9de1f134","null","null","<p style=""font-size: 60px; font-family: BACS"">mbZlrkra</p>","","","","","","","","","",""
"html-keyboard-response","115","198033","0.0-10.0-0.26","5ecbb4c00bc62403dae2df59","650c16f0f2faf8d7a0d14c09","651c1da8439ec71e9de1f134","null","null","<p style=""font-size: 60px; font-family: BACS"">bcbMPMd</p>","","","","","","","","","",""
"html-keyboard-response","116","199035","0.0-10.0-0.27","5ecbb4c00bc62403dae2df59","650c16f0f2faf8d7a0d14c09","651c1da8439ec71e9de1f134","null","null","<p style=""font-size: 60px; font-family: BACS"">OAmAdRDM</p>","","","","","","","","","",""
"html-keyboard-response","117","200051","0.0-10.0-0.28","5ecbb4c00bc62403dae2df59","650c16f0f2faf8d7a0d14c09","651c1da8439ec71e9de1f134","null","null","<p style=""font-size: 60px; font-family: BACS"">dvNvAGlu</p>","","","","","","","","","",""
"html-keyboard-response","118","201055","0.0-10.0-0.29","5ecbb4c00bc62403dae2df59","650c16f0f2faf8d7a0d14c09","651c1da8439ec71e9de1f134","null","null","<p style=""font-size: 60px; font-family: BACS"">ORbkRdCc</p>","","","","","","","","","",""
"html-keyboard-response","119","202071","0.0-10.0-0.30","5ecbb4c00bc62403dae2df59","650c16f0f2faf8d7a0d14c09","651c1da8439ec71e9de1f134","null","null","<p style=""font-size: 60px; font-family: BACS"">krGuGlu</p>","","","","","","","","","",""
"html-keyboard-response","120","203073","0.0-10.0-0.31","5ecbb4c00bc62403dae2df59","650c16f0f2faf8d7a0d14c09","651c1da8439ec71e9de1f134","null","null","<p style=""font-size: 60px; font-family: BACS"">uvaULUOk</p>","","","","","","","","","",""
"html-keyboard-response","121","204074","0.0-10.0-0.32","5ecbb4c00bc62403dae2df59","650c16f0f2faf8d7a0d14c09","651c1da8439ec71e9de1f134","null","null","<p style=""font-size: 60px; font-family: BACS"">MBmEPMd</p>","","","","","","","","","",""
"html-keyboard-response","122","205091","0.0-10.0-0.33","5ecbb4c00bc62403dae2df59","650c16f0f2faf8d7a0d14c09","651c1da8439ec71e9de1f134","null","null","<p style=""font-size: 60px; font-family: BACS"">krGuLUOk</p>","","","","","","","","","",""
"html-keyboard-response","123","206092","0.0-10.0-0.34","5ecbb4c00bc62403dae2df59","650c16f0f2faf8d7a0d14c09","651c1da8439ec71e9de1f134","null","null","<p style=""font-size: 60px; font-family: BACS"">uvaUGlu</p>","","","","","","","","","",""
"html-keyboard-response","124","207094","0.0-10.0-0.35","5ecbb4c00bc62403dae2df59","650c16f0f2faf8d7a0d14c09","651c1da8439ec71e9de1f134","null","null","<p style=""font-size: 60px; font-family: BACS"">aLNlkYArG</p>","","","","","","","","","",""
"html-keyboard-response","125","208095","0.0-10.0-0.36","5ecbb4c00bc62403dae2df59","650c16f0f2faf8d7a0d14c09","651c1da8439ec71e9de1f134","null","null","<p style=""font-size: 60px; font-family: BACS"">MkmEdPMd</p>","","","","","","","","","",""
"html-keyboard-response","126","209103","0.0-10.0-0.37","5ecbb4c00bc62403dae2df59","650c16f0f2faf8d7a0d14c09","651c1da8439ec71e9de1f134","null","null","<p style=""font-size: 60px; font-family: BACS"">AbKDRDM</p>","","","","","","","","","",""
"html-keyboard-response","127","210105","0.0-10.0-0.38","5ecbb4c00bc62403dae2df59","650c16f0f2faf8d7a0d14c09","651c1da8439ec71e9de1f134","null","null","<p style=""font-size: 60px; font-family: BACS"">uvaUYArG</p>","","","","","","","","","",""
"html-keyboard-response","128","211114","0.0-10.0-0.39","5ecbb4c00bc62403dae2df59","650c16f0f2faf8d7a0d14c09","651c1da8439ec71e9de1f134","null","null","<p style=""font-size: 60px; font-family: BACS"">kcdOtPEdK</p>","","","","","","","","","",""
"html-keyboard-response","129","212115","0.0-10.0-0.40","5ecbb4c00bc62403dae2df59","650c16f0f2faf8d7a0d14c09","651c1da8439ec71e9de1f134","null","null","<p style=""font-size: 60px; font-family: BACS"">lZcuYArG</p>","","","","","","","","","",""
"html-keyboard-response","130","213119","0.0-10.0-0.41","5ecbb4c00bc62403dae2df59","650c16f0f2faf8d7a0d14c09","651c1da8439ec71e9de1f134","null","null","<p style=""font-size: 60px; font-family: BACS"">mbZlGlu</p>","","","","","","","","","",""
"html-keyboard-response","131","214133","0.0-10.0-0.42","5ecbb4c00bc62403dae2df59","650c16f0f2faf8d7a0d14c09","651c1da8439ec71e9de1f134","null","null","<p style=""font-size: 60px; font-family: BACS"">GabkGrbk</p>","","","","","","","","","",""
"html-keyboard-response","132","215136","0.0-10.0-0.43","5ecbb4c00bc62403dae2df59","650c16f0f2faf8d7a0d14c09","651c1da8439ec71e9de1f134","null","null","<p style=""font-size: 60px; font-family: BACS"">CRdBdRdCc</p>","","","","","","","","","",""
"html-keyboard-response","133","216151","0.0-10.0-0.44","5ecbb4c00bc62403dae2df59","650c16f0f2faf8d7a0d14c09","651c1da8439ec71e9de1f134","null","null","<p style=""font-size: 60px; font-family: BACS"">krGuYArG</p>","","","","","","","","","",""
"html-keyboard-response","134","217169","0.0-10.0-0.45","5ecbb4c00bc62403dae2df59","650c16f0f2faf8d7a0d14c09","651c1da8439ec71e9de1f134","null","null","<p style=""font-size: 60px; font-family: BACS"">kcdOtRdCc</p>","","","","","","","","","",""
"html-keyboard-response","135","218171","0.0-10.0-0.46","5ecbb4c00bc62403dae2df59","650c16f0f2faf8d7a0d14c09","651c1da8439ec71e9de1f134","null","null","<p style=""font-size: 60px; font-family: BACS"">CRdBdPEdK</p>","","","","","","","","","",""
"html-keyboard-response","136","219173","0.0-10.0-0.47","5ecbb4c00bc62403dae2df59","650c16f0f2faf8d7a0d14c09","651c1da8439ec71e9de1f134","null","null","<p style=""font-size: 60px; font-family: BACS"">aLNlkGlu</p>","","","","","","","","","",""
"html-keyboard-response","137","220174","0.0-10.0-0.48","5ecbb4c00bc62403dae2df59","650c16f0f2faf8d7a0d14c09","651c1da8439ec71e9de1f134","null","null","<p style=""font-size: 60px; font-family: BACS"">MBmEPEdK</p>","","","","","","","","","",""
"html-keyboard-response","138","221175","0.0-10.0-0.49","5ecbb4c00bc62403dae2df59","650c16f0f2faf8d7a0d14c09","651c1da8439ec71e9de1f134","null","null","<p style=""font-size: 60px; font-family: BACS"">bcbMRdCc</p>","","","","","","","","","",""
"html-keyboard-response","139","222191","0.0-10.0-0.50","5ecbb4c00bc62403dae2df59","650c16f0f2faf8d7a0d14c09","651c1da8439ec71e9de1f134","null","null","<p style=""font-size: 60px; font-family: BACS"">krGuGrbk</p>","","","","","","","","","",""
"html-keyboard-response","140","223194","0.0-10.0-0.51","5ecbb4c00bc62403dae2df59","650c16f0f2faf8d7a0d14c09","651c1da8439ec71e9de1f134","null","null","<p style=""font-size: 60px; font-family: BACS"">GabkGlu</p>","","","","","","","","","",""
"html-keyboard-response","141","224195","0.0-10.0-0.52","5ecbb4c00bc62403dae2df59","650c16f0f2faf8d7a0d14c09","651c1da8439ec71e9de1f134","null","null","<p style=""font-size: 60px; font-family: BACS"">OAmAdmtKP</p>","","","","","","","","","",""
"html-keyboard-response","142","225195","0.0-10.0-0.53","5ecbb4c00bc62403dae2df59","650c16f0f2faf8d7a0d14c09","651c1da8439ec71e9de1f134","null","null","<p style=""font-size: 60px; font-family: BACS"">GabkLUOk</p>","","","","","","","","","",""
"html-keyboard-response","143","226197","0.0-10.0-0.54","5ecbb4c00bc62403dae2df59","650c16f0f2faf8d7a0d14c09","651c1da8439ec71e9de1f134","null","null","<p style=""font-size: 60px; font-family: BACS"">kcdOtRDM</p>","","","","","","","","","",""
"html-keyboard-response","144","227198","0.0-10.0-0.55","5ecbb4c00bc62403dae2df59","650c16f0f2faf8d7a0d14c09","651c1da8439ec71e9de1f134","null","null","<p style=""font-size: 60px; font-family: BACS"">dvNvAYArG</p>","","","","","","","","","",""
"html-keyboard-response","145","228213","0.0-10.0-0.56","5ecbb4c00bc62403dae2df59","650c16f0f2faf8d7a0d14c09","651c1da8439ec71e9de1f134","null","null","<p style=""font-size: 60px; font-family: BACS"">bROCPEdK</p>","","","","","","","","","",""
"html-keyboard-response","146","229215","0.0-10.0-0.57","5ecbb4c00bc62403dae2df59","650c16f0f2faf8d7a0d14c09","651c1da8439ec71e9de1f134","null","null","<p style=""font-size: 60px; font-family: BACS"">uvaUrkra</p>","","","","","","","","","",""
"html-keyboard-response","147","230216","0.0-10.0-0.58","5ecbb4c00bc62403dae2df59","650c16f0f2faf8d7a0d14c09","651c1da8439ec71e9de1f134","null","null","<p style=""font-size: 60px; font-family: BACS"">MkmEdmtKP</p>","","","","","","","","","",""
"html-keyboard-response","148","231232","0.0-10.0-0.59","5ecbb4c00bc62403dae2df59","650c16f0f2faf8d7a0d14c09","651c1da8439ec71e9de1f134","null","null","<p style=""font-size: 60px; font-family: BACS"">CRdBdRDM</p>","","","","","","","","","",""
"html-keyboard-response","149","232235","0.0-10.0-0.60","5ecbb4c00bc62403dae2df59","650c16f0f2faf8d7a0d14c09","651c1da8439ec71e9de1f134","null","null","<p style=""font-size: 60px; font-family: BACS"">kLvdNGlu</p>","","","","","","","","","",""
"html-keyboard-response","150","233236","0.0-10.0-0.61","5ecbb4c00bc62403dae2df59","650c16f0f2faf8d7a0d14c09","651c1da8439ec71e9de1f134","null","null","<p style=""font-size: 60px; font-family: BACS"">dvNvALUOk</p>","","","","","","","","","",""
"html-keyboard-response","151","234237","0.0-10.0-0.62","5ecbb4c00bc62403dae2df59","650c16f0f2faf8d7a0d14c09","651c1da8439ec71e9de1f134","null","null","<p style=""font-size: 60px; font-family: BACS"">AbKDPEdK</p>","","","","","","","","","",""
"html-keyboard-response","152","235239","0.0-10.0-0.63","5ecbb4c00bc62403dae2df59","650c16f0f2faf8d7a0d14c09","651c1da8439ec71e9de1f134","null","null","<p style=""font-size: 60px; font-family: BACS"">aLNlkGrbk</p>","","","","","","","","","",""
"html-keyboard-response","153","236240","0.0-10.0-0.64","5ecbb4c00bc62403dae2df59","650c16f0f2faf8d7a0d14c09","651c1da8439ec71e9de1f134","null","null","<p style=""font-size: 60px; font-family: BACS"">kLvdNrkra</p>","","","","","","","","","",""
"html-keyboard-response","154","237256","0.0-10.0-0.65","5ecbb4c00bc62403dae2df59","650c16f0f2faf8d7a0d14c09","651c1da8439ec71e9de1f134","null","null","<p style=""font-size: 60px; font-family: BACS"">OAmAdPEdK</p>","","","","","","","","","",""
"html-keyboard-response","155","238259","0.0-10.0-0.66","5ecbb4c00bc62403dae2df59","650c16f0f2faf8d7a0d14c09","651c1da8439ec71e9de1f134","null","null","<p style=""font-size: 60px; font-family: BACS"">bcbMRDM</p>","","","","","","","","","",""
"html-keyboard-response","156","239275","0.0-10.0-0.67","5ecbb4c00bc62403dae2df59","650c16f0f2faf8d7a0d14c09","651c1da8439ec71e9de1f134","null","null","<p style=""font-size: 60px; font-family: BACS"">aLNlkrkra</p>","","","","","","","","","",""
"html-keyboard-response","157","240277","0.0-10.0-0.68","5ecbb4c00bc62403dae2df59","650c16f0f2faf8d7a0d14c09","651c1da8439ec71e9de1f134","null","null","<p style=""font-size: 60px; font-family: BACS"">MBmEmtKP</p>","","","","","","","","","",""
"html-keyboard-response","158","241279","0.0-10.0-0.69","5ecbb4c00bc62403dae2df59","650c16f0f2faf8d7a0d14c09","651c1da8439ec71e9de1f134","null","null","<p style=""font-size: 60px; font-family: BACS"">ckduAYArG</p>","","","","","","","","","",""
"html-keyboard-response","159","242286","0.0-10.0-0.70","5ecbb4c00bc62403dae2df59","650c16f0f2faf8d7a0d14c09","651c1da8439ec71e9de1f134","null","null","<p style=""font-size: 60px; font-family: BACS"">MBmERdCc</p>","","","","","","","","","",""
"html-keyboard-response","160","243294","0.0-10.0-0.71","5ecbb4c00bc62403dae2df59","650c16f0f2faf8d7a0d14c09","651c1da8439ec71e9de1f134","null","null","<p style=""font-size: 60px; font-family: BACS"">mbZlYArG</p>","","","","","","","","","",""
"html-keyboard-response","161","244307","0.0-10.0-0.72","5ecbb4c00bc62403dae2df59","650c16f0f2faf8d7a0d14c09","651c1da8439ec71e9de1f134","null","null","<p style=""font-size: 60px; font-family: BACS"">kcdOtPMd</p>","","","","","","","","","",""
"html-keyboard-response","162","245315","0.0-10.0-0.73","5ecbb4c00bc62403dae2df59","650c16f0f2faf8d7a0d14c09","651c1da8439ec71e9de1f134","null","null","<p style=""font-size: 60px; font-family: BACS"">ckduALUOk</p>","","","","","","","","","",""
"html-keyboard-response","163","246332","0.0-10.0-0.74","5ecbb4c00bc62403dae2df59","650c16f0f2faf8d7a0d14c09","651c1da8439ec71e9de1f134","null","null","<p style=""font-size: 60px; font-family: BACS"">mbZlGrbk</p>","","","","","","","","","",""
"html-keyboard-response","164","247344","0.0-10.0-0.75","5ecbb4c00bc62403dae2df59","650c16f0f2faf8d7a0d14c09","651c1da8439ec71e9de1f134","null","null","<p style=""font-size: 60px; font-family: BACS"">ckduAGlu</p>","","","","","","","","","",""
"html-keyboard-response","165","248346","0.0-10.0-0.76","5ecbb4c00bc62403dae2df59","650c16f0f2faf8d7a0d14c09","651c1da8439ec71e9de1f134","null","null","<p style=""font-size: 60px; font-family: BACS"">CmcOmtKP</p>","","","","","","","","","",""
"html-keyboard-response","166","249353","0.0-10.0-0.77","5ecbb4c00bc62403dae2df59","650c16f0f2faf8d7a0d14c09","651c1da8439ec71e9de1f134","null","null","<p style=""font-size: 60px; font-family: BACS"">bROCRDM</p>","","","","","","","","","",""
"html-keyboard-response","167","250369","0.0-10.0-0.78","5ecbb4c00bc62403dae2df59","650c16f0f2faf8d7a0d14c09","651c1da8439ec71e9de1f134","null","null","<p style=""font-size: 60px; font-family: BACS"">CRdBdPMd</p>","","","","","","","","","",""
"html-keyboard-response","168","251370","0.0-10.0-0.79","5ecbb4c00bc62403dae2df59","650c16f0f2faf8d7a0d14c09","651c1da8439ec71e9de1f134","null","null","<p style=""font-size: 60px; font-family: BACS"">bROCmtKP</p>","","","","","","","","","",""
"html-keyboard-response","169","255154","0.0-11.0","5ecbb4c00bc62403dae2df59","650c16f0f2faf8d7a0d14c09","651c1da8439ec71e9de1f134","3783"," ","<p>Great, you've seen the second block of words. You may now take a short break.</p>
      <p>Press the spacebar when you're ready to continue.</p>","","","","","","","","","",""
"html-keyboard-response","170","256155","0.0-12.0-0.0","5ecbb4c00bc62403dae2df59","650c16f0f2faf8d7a0d14c09","651c1da8439ec71e9de1f134","null","null","<p style=""font-size: 60px; font-family: BACS"">uvaUYArG</p>","","","","","","","","","",""
"html-keyboard-response","171","257161","0.0-12.0-0.1","5ecbb4c00bc62403dae2df59","650c16f0f2faf8d7a0d14c09","651c1da8439ec71e9de1f134","null","null","<p style=""font-size: 60px; font-family: BACS"">krGuGrbk</p>","","","","","","","","","",""
"html-keyboard-response","172","258176","0.0-12.0-0.2","5ecbb4c00bc62403dae2df59","650c16f0f2faf8d7a0d14c09","651c1da8439ec71e9de1f134","null","null","<p style=""font-size: 60px; font-family: BACS"">mbZlYArG</p>","","","","","","","","","",""
"html-keyboard-response","173","259178","0.0-12.0-0.3","5ecbb4c00bc62403dae2df59","650c16f0f2faf8d7a0d14c09","651c1da8439ec71e9de1f134","null","null","<p style=""font-size: 60px; font-family: BACS"">MBmEmtKP</p>","","","","","","","","","",""
"html-keyboard-response","174","260179","0.0-12.0-0.4","5ecbb4c00bc62403dae2df59","650c16f0f2faf8d7a0d14c09","651c1da8439ec71e9de1f134","null","null","<p style=""font-size: 60px; font-family: BACS"">bcbMPMd</p>","","","","","","","","","",""
"html-keyboard-response","175","261189","0.0-12.0-0.5","5ecbb4c00bc62403dae2df59","650c16f0f2faf8d7a0d14c09","651c1da8439ec71e9de1f134","null","null","<p style=""font-size: 60px; font-family: BACS"">MkmEdmtKP</p>","","","","","","","","","",""
"html-keyboard-response","176","262202","0.0-12.0-0.6","5ecbb4c00bc62403dae2df59","650c16f0f2faf8d7a0d14c09","651c1da8439ec71e9de1f134","null","null","<p style=""font-size: 60px; font-family: BACS"">aLNlkYArG</p>","","","","","","","","","",""
"html-keyboard-response","177","263216","0.0-12.0-0.7","5ecbb4c00bc62403dae2df59","650c16f0f2faf8d7a0d14c09","651c1da8439ec71e9de1f134","null","null","<p style=""font-size: 60px; font-family: BACS"">lZcuGrbk</p>","","","","","","","","","",""
"html-keyboard-response","178","264219","0.0-12.0-0.8","5ecbb4c00bc62403dae2df59","650c16f0f2faf8d7a0d14c09","651c1da8439ec71e9de1f134","null","null","<p style=""font-size: 60px; font-family: BACS"">dvNvAYArG</p>","","","","","","","","","",""
"html-keyboard-response","179","265234","0.0-12.0-0.9","5ecbb4c00bc62403dae2df59","650c16f0f2faf8d7a0d14c09","651c1da8439ec71e9de1f134","null","null","<p style=""font-size: 60px; font-family: BACS"">GabkGlu</p>","","","","","","","","","",""
"html-keyboard-response","180","266235","0.0-12.0-0.10","5ecbb4c00bc62403dae2df59","650c16f0f2faf8d7a0d14c09","651c1da8439ec71e9de1f134","null","null","<p style=""font-size: 60px; font-family: BACS"">aLNlkGrbk</p>","","","","","","","","","",""
"html-keyboard-response","181","267237","0.0-12.0-0.11","5ecbb4c00bc62403dae2df59","650c16f0f2faf8d7a0d14c09","651c1da8439ec71e9de1f134","null","null","<p style=""font-size: 60px; font-family: BACS"">kcdOtRDM</p>","","","","","","","","","",""
"html-keyboard-response","182","268250","0.0-12.0-0.12","5ecbb4c00bc62403dae2df59","650c16f0f2faf8d7a0d14c09","651c1da8439ec71e9de1f134","null","null","<p style=""font-size: 60px; font-family: BACS"">bdUNuYArG</p>","","","","","","","","","",""
"html-keyboard-response","183","269257","0.0-12.0-0.13","5ecbb4c00bc62403dae2df59","650c16f0f2faf8d7a0d14c09","651c1da8439ec71e9de1f134","null","null","<p style=""font-size: 60px; font-family: BACS"">lZcuLUOk</p>","","","","","","","","","",""
"html-keyboard-response","184","270258","0.0-12.0-0.14","5ecbb4c00bc62403dae2df59","650c16f0f2faf8d7a0d14c09","651c1da8439ec71e9de1f134","null","null","<p style=""font-size: 60px; font-family: BACS"">CmcORDM</p>","","","","","","","","","",""
"html-keyboard-response","185","271259","0.0-12.0-0.15","5ecbb4c00bc62403dae2df59","650c16f0f2faf8d7a0d14c09","651c1da8439ec71e9de1f134","null","null","<p style=""font-size: 60px; font-family: BACS"">bROCmtKP</p>","","","","","","","","","",""
"html-keyboard-response","186","272265","0.0-12.0-0.16","5ecbb4c00bc62403dae2df59","650c16f0f2faf8d7a0d14c09","651c1da8439ec71e9de1f134","null","null","<p style=""font-size: 60px; font-family: BACS"">OAmAdRDM</p>","","","","","","","","","",""
"html-keyboard-response","187","273277","0.0-12.0-0.17","5ecbb4c00bc62403dae2df59","650c16f0f2faf8d7a0d14c09","651c1da8439ec71e9de1f134","null","null","<p style=""font-size: 60px; font-family: BACS"">kLvdNLUOk</p>","","","","","","","","","",""
"html-keyboard-response","188","274277","0.0-12.0-0.18","5ecbb4c00bc62403dae2df59","650c16f0f2faf8d7a0d14c09","651c1da8439ec71e9de1f134","null","null","<p style=""font-size: 60px; font-family: BACS"">CRdBdPMd</p>","","","","","","","","","",""
"html-keyboard-response","189","275279","0.0-12.0-0.19","5ecbb4c00bc62403dae2df59","650c16f0f2faf8d7a0d14c09","651c1da8439ec71e9de1f134","null","null","<p style=""font-size: 60px; font-family: BACS"">bdUNuLUOk</p>","","","","","","","","","",""
"html-keyboard-response","190","276281","0.0-12.0-0.20","5ecbb4c00bc62403dae2df59","650c16f0f2faf8d7a0d14c09","651c1da8439ec71e9de1f134","null","null","<p style=""font-size: 60px; font-family: BACS"">bROCRdCc</p>","","","","","","","","","",""
"html-keyboard-response","191","277296","0.0-12.0-0.21","5ecbb4c00bc62403dae2df59","650c16f0f2faf8d7a0d14c09","651c1da8439ec71e9de1f134","null","null","<p style=""font-size: 60px; font-family: BACS"">OAmAdmtKP</p>","","","","","","","","","",""
"html-keyboard-response","192","278312","0.0-12.0-0.22","5ecbb4c00bc62403dae2df59","650c16f0f2faf8d7a0d14c09","651c1da8439ec71e9de1f134","null","null","<p style=""font-size: 60px; font-family: BACS"">dvNvALUOk</p>","","","","","","","","","",""
"html-keyboard-response","193","279319","0.0-12.0-0.23","5ecbb4c00bc62403dae2df59","650c16f0f2faf8d7a0d14c09","651c1da8439ec71e9de1f134","null","null","<p style=""font-size: 60px; font-family: BACS"">bcbMmtKP</p>","","","","","","","","","",""
"html-keyboard-response","194","280327","0.0-12.0-0.24","5ecbb4c00bc62403dae2df59","650c16f0f2faf8d7a0d14c09","651c1da8439ec71e9de1f134","null","null","<p style=""font-size: 60px; font-family: BACS"">CRdBdPEdK</p>","","","","","","","","","",""
"html-keyboard-response","195","281335","0.0-12.0-0.25","5ecbb4c00bc62403dae2df59","650c16f0f2faf8d7a0d14c09","651c1da8439ec71e9de1f134","null","null","<p style=""font-size: 60px; font-family: BACS"">krGuGlu</p>","","","","","","","","","",""
"html-keyboard-response","196","282342","0.0-12.0-0.26","5ecbb4c00bc62403dae2df59","650c16f0f2faf8d7a0d14c09","651c1da8439ec71e9de1f134","null","null","<p style=""font-size: 60px; font-family: BACS"">ORbkPEdK</p>","","","","","","","","","",""
"html-keyboard-response","197","283349","0.0-12.0-0.27","5ecbb4c00bc62403dae2df59","650c16f0f2faf8d7a0d14c09","651c1da8439ec71e9de1f134","null","null","<p style=""font-size: 60px; font-family: BACS"">kLvdNGrbk</p>","","","","","","","","","",""
"html-keyboard-response","198","284354","0.0-12.0-0.28","5ecbb4c00bc62403dae2df59","650c16f0f2faf8d7a0d14c09","651c1da8439ec71e9de1f134","null","null","<p style=""font-size: 60px; font-family: BACS"">dvNvAGlu</p>","","","","","","","","","",""
"html-keyboard-response","199","285356","0.0-12.0-0.29","5ecbb4c00bc62403dae2df59","650c16f0f2faf8d7a0d14c09","651c1da8439ec71e9de1f134","null","null","<p style=""font-size: 60px; font-family: BACS"">MBmERdCc</p>","","","","","","","","","",""
"html-keyboard-response","200","286360","0.0-12.0-0.30","5ecbb4c00bc62403dae2df59","650c16f0f2faf8d7a0d14c09","651c1da8439ec71e9de1f134","null","null","<p style=""font-size: 60px; font-family: BACS"">AbKDRDM</p>","","","","","","","","","",""
"html-keyboard-response","201","287362","0.0-12.0-0.31","5ecbb4c00bc62403dae2df59","650c16f0f2faf8d7a0d14c09","651c1da8439ec71e9de1f134","null","null","<p style=""font-size: 60px; font-family: BACS"">ORbkRdCc</p>","","","","","","","","","",""
"html-keyboard-response","202","288376","0.0-12.0-0.32","5ecbb4c00bc62403dae2df59","650c16f0f2faf8d7a0d14c09","651c1da8439ec71e9de1f134","null","null","<p style=""font-size: 60px; font-family: BACS"">CmcOmtKP</p>","","","","","","","","","",""
"html-keyboard-response","203","289392","0.0-12.0-0.33","5ecbb4c00bc62403dae2df59","650c16f0f2faf8d7a0d14c09","651c1da8439ec71e9de1f134","null","null","<p style=""font-size: 60px; font-family: BACS"">AbKDPMd</p>","","","","","","","","","",""
"html-keyboard-response","204","290399","0.0-12.0-0.34","5ecbb4c00bc62403dae2df59","650c16f0f2faf8d7a0d14c09","651c1da8439ec71e9de1f134","null","null","<p style=""font-size: 60px; font-family: BACS"">CRdBdRDM</p>","","","","","","","","","",""
"html-keyboard-response","205","291408","0.0-12.0-0.35","5ecbb4c00bc62403dae2df59","650c16f0f2faf8d7a0d14c09","651c1da8439ec71e9de1f134","null","null","<p style=""font-size: 60px; font-family: BACS"">AbKDmtKP</p>","","","","","","","","","",""
"html-keyboard-response","206","292411","0.0-12.0-0.36","5ecbb4c00bc62403dae2df59","650c16f0f2faf8d7a0d14c09","651c1da8439ec71e9de1f134","null","null","<p style=""font-size: 60px; font-family: BACS"">MBmEPEdK</p>","","","","","","","","","",""
"html-keyboard-response","207","293413","0.0-12.0-0.37","5ecbb4c00bc62403dae2df59","650c16f0f2faf8d7a0d14c09","651c1da8439ec71e9de1f134","null","null","<p style=""font-size: 60px; font-family: BACS"">MkmEdPMd</p>","","","","","","","","","",""
"html-keyboard-response","208","294422","0.0-12.0-0.38","5ecbb4c00bc62403dae2df59","650c16f0f2faf8d7a0d14c09","651c1da8439ec71e9de1f134","null","null","<p style=""font-size: 60px; font-family: BACS"">krGuLUOk</p>","","","","","","","","","",""
"html-keyboard-response","209","295431","0.0-12.0-0.39","5ecbb4c00bc62403dae2df59","650c16f0f2faf8d7a0d14c09","651c1da8439ec71e9de1f134","null","null","<p style=""font-size: 60px; font-family: BACS"">aLNlkrkra</p>","","","","","","","","","",""
"html-keyboard-response","210","296441","0.0-12.0-0.40","5ecbb4c00bc62403dae2df59","650c16f0f2faf8d7a0d14c09","651c1da8439ec71e9de1f134","null","null","<p style=""font-size: 60px; font-family: BACS"">ckduAYArG</p>","","","","","","","","","",""
"html-keyboard-response","211","297450","0.0-12.0-0.41","5ecbb4c00bc62403dae2df59","650c16f0f2faf8d7a0d14c09","651c1da8439ec71e9de1f134","null","null","<p style=""font-size: 60px; font-family: BACS"">kLvdNGlu</p>","","","","","","","","","",""
"html-keyboard-response","212","298453","0.0-12.0-0.42","5ecbb4c00bc62403dae2df59","650c16f0f2faf8d7a0d14c09","651c1da8439ec71e9de1f134","null","null","<p style=""font-size: 60px; font-family: BACS"">bdUNuGrbk</p>","","","","","","","","","",""
"html-keyboard-response","213","299469","0.0-12.0-0.43","5ecbb4c00bc62403dae2df59","650c16f0f2faf8d7a0d14c09","651c1da8439ec71e9de1f134","null","null","<p style=""font-size: 60px; font-family: BACS"">bcbMRdCc</p>","","","","","","","","","",""
"html-keyboard-response","214","300472","0.0-12.0-0.44","5ecbb4c00bc62403dae2df59","650c16f0f2faf8d7a0d14c09","651c1da8439ec71e9de1f134","null","null","<p style=""font-size: 60px; font-family: BACS"">uvaUrkra</p>","","","","","","","","","",""
"html-keyboard-response","215","301481","0.0-12.0-0.45","5ecbb4c00bc62403dae2df59","650c16f0f2faf8d7a0d14c09","651c1da8439ec71e9de1f134","null","null","<p style=""font-size: 60px; font-family: BACS"">mbZlGrbk</p>","","","","","","","","","",""
"html-keyboard-response","216","302491","0.0-12.0-0.46","5ecbb4c00bc62403dae2df59","650c16f0f2faf8d7a0d14c09","651c1da8439ec71e9de1f134","null","null","<p style=""font-size: 60px; font-family: BACS"">bcbMRDM</p>","","","","","","","","","",""
"html-keyboard-response","217","303492","0.0-12.0-0.47","5ecbb4c00bc62403dae2df59","650c16f0f2faf8d7a0d14c09","651c1da8439ec71e9de1f134","null","null","<p style=""font-size: 60px; font-family: BACS"">lZcuYArG</p>","","","","","","","","","",""
"html-keyboard-response","218","304506","0.0-12.0-0.48","5ecbb4c00bc62403dae2df59","650c16f0f2faf8d7a0d14c09","651c1da8439ec71e9de1f134","null","null","<p style=""font-size: 60px; font-family: BACS"">kcdOtPMd</p>","","","","","","","","","",""
"html-keyboard-response","219","305508","0.0-12.0-0.49","5ecbb4c00bc62403dae2df59","650c16f0f2faf8d7a0d14c09","651c1da8439ec71e9de1f134","null","null","<p style=""font-size: 60px; font-family: BACS"">bdUNurkra</p>","","","","","","","","","",""
"html-keyboard-response","220","306514","0.0-12.0-0.50","5ecbb4c00bc62403dae2df59","650c16f0f2faf8d7a0d14c09","651c1da8439ec71e9de1f134","null","null","<p style=""font-size: 60px; font-family: BACS"">CmcOPMd</p>","","","","","","","","","",""
"html-keyboard-response","221","307523","0.0-12.0-0.51","5ecbb4c00bc62403dae2df59","650c16f0f2faf8d7a0d14c09","651c1da8439ec71e9de1f134","null","null","<p style=""font-size: 60px; font-family: BACS"">mbZlGlu</p>","","","","","","","","","",""
"html-keyboard-response","222","308525","0.0-12.0-0.52","5ecbb4c00bc62403dae2df59","650c16f0f2faf8d7a0d14c09","651c1da8439ec71e9de1f134","null","null","<p style=""font-size: 60px; font-family: BACS"">bROCPEdK</p>","","","","","","","","","",""
"html-keyboard-response","223","309526","0.0-12.0-0.53","5ecbb4c00bc62403dae2df59","650c16f0f2faf8d7a0d14c09","651c1da8439ec71e9de1f134","null","null","<p style=""font-size: 60px; font-family: BACS"">uvaUGlu</p>","","","","","","","","","",""
"html-keyboard-response","224","310531","0.0-12.0-0.54","5ecbb4c00bc62403dae2df59","650c16f0f2faf8d7a0d14c09","651c1da8439ec71e9de1f134","null","null","<p style=""font-size: 60px; font-family: BACS"">CRdBdRdCc</p>","","","","","","","","","",""
"html-keyboard-response","225","311547","0.0-12.0-0.55","5ecbb4c00bc62403dae2df59","650c16f0f2faf8d7a0d14c09","651c1da8439ec71e9de1f134","null","null","<p style=""font-size: 60px; font-family: BACS"">aLNlkGlu</p>","","","","","","","","","",""
"html-keyboard-response","226","312549","0.0-12.0-0.56","5ecbb4c00bc62403dae2df59","650c16f0f2faf8d7a0d14c09","651c1da8439ec71e9de1f134","null","null","<p style=""font-size: 60px; font-family: BACS"">CmcORdCc</p>","","","","","","","","","",""
"html-keyboard-response","227","313549","0.0-12.0-0.57","5ecbb4c00bc62403dae2df59","650c16f0f2faf8d7a0d14c09","651c1da8439ec71e9de1f134","null","null","<p style=""font-size: 60px; font-family: BACS"">GabkGrbk</p>","","","","","","","","","",""
"html-keyboard-response","228","314552","0.0-12.0-0.58","5ecbb4c00bc62403dae2df59","650c16f0f2faf8d7a0d14c09","651c1da8439ec71e9de1f134","null","null","<p style=""font-size: 60px; font-family: BACS"">OAmAdPMd</p>","","","","","","","","","",""
"html-keyboard-response","229","315553","0.0-12.0-0.59","5ecbb4c00bc62403dae2df59","650c16f0f2faf8d7a0d14c09","651c1da8439ec71e9de1f134","null","null","<p style=""font-size: 60px; font-family: BACS"">AbKDPEdK</p>","","","","","","","","","",""
"html-keyboard-response","230","316554","0.0-12.0-0.60","5ecbb4c00bc62403dae2df59","650c16f0f2faf8d7a0d14c09","651c1da8439ec71e9de1f134","null","null","<p style=""font-size: 60px; font-family: BACS"">kcdOtRdCc</p>","","","","","","","","","",""
"html-keyboard-response","231","317555","0.0-12.0-0.61","5ecbb4c00bc62403dae2df59","650c16f0f2faf8d7a0d14c09","651c1da8439ec71e9de1f134","null","null","<p style=""font-size: 60px; font-family: BACS"">OAmAdPEdK</p>","","","","","","","","","",""
"html-keyboard-response","232","318556","0.0-12.0-0.62","5ecbb4c00bc62403dae2df59","650c16f0f2faf8d7a0d14c09","651c1da8439ec71e9de1f134","null","null","<p style=""font-size: 60px; font-family: BACS"">Gabkrkra</p>","","","","","","","","","",""
"html-keyboard-response","233","319557","0.0-12.0-0.63","5ecbb4c00bc62403dae2df59","650c16f0f2faf8d7a0d14c09","651c1da8439ec71e9de1f134","null","null","<p style=""font-size: 60px; font-family: BACS"">MkmEdPEdK</p>","","","","","","","","","",""
"html-keyboard-response","234","320573","0.0-12.0-0.64","5ecbb4c00bc62403dae2df59","650c16f0f2faf8d7a0d14c09","651c1da8439ec71e9de1f134","null","null","<p style=""font-size: 60px; font-family: BACS"">ckduALUOk</p>","","","","","","","","","",""
"html-keyboard-response","235","321575","0.0-12.0-0.65","5ecbb4c00bc62403dae2df59","650c16f0f2faf8d7a0d14c09","651c1da8439ec71e9de1f134","null","null","<p style=""font-size: 60px; font-family: BACS"">ORbkmtKP</p>","","","","","","","","","",""
"html-keyboard-response","236","322575","0.0-12.0-0.66","5ecbb4c00bc62403dae2df59","650c16f0f2faf8d7a0d14c09","651c1da8439ec71e9de1f134","null","null","<p style=""font-size: 60px; font-family: BACS"">ckduAGlu</p>","","","","","","","","","",""
"html-keyboard-response","237","323576","0.0-12.0-0.67","5ecbb4c00bc62403dae2df59","650c16f0f2faf8d7a0d14c09","651c1da8439ec71e9de1f134","null","null","<p style=""font-size: 60px; font-family: BACS"">GabkLUOk</p>","","","","","","","","","",""
"html-keyboard-response","238","324579","0.0-12.0-0.68","5ecbb4c00bc62403dae2df59","650c16f0f2faf8d7a0d14c09","651c1da8439ec71e9de1f134","null","null","<p style=""font-size: 60px; font-family: BACS"">ORbkRDM</p>","","","","","","","","","",""
"html-keyboard-response","239","325594","0.0-12.0-0.69","5ecbb4c00bc62403dae2df59","650c16f0f2faf8d7a0d14c09","651c1da8439ec71e9de1f134","null","null","<p style=""font-size: 60px; font-family: BACS"">kcdOtPEdK</p>","","","","","","","","","",""
"html-keyboard-response","240","326597","0.0-12.0-0.70","5ecbb4c00bc62403dae2df59","650c16f0f2faf8d7a0d14c09","651c1da8439ec71e9de1f134","null","null","<p style=""font-size: 60px; font-family: BACS"">bROCRDM</p>","","","","","","","","","",""
"html-keyboard-response","241","327598","0.0-12.0-0.71","5ecbb4c00bc62403dae2df59","650c16f0f2faf8d7a0d14c09","651c1da8439ec71e9de1f134","null","null","<p style=""font-size: 60px; font-family: BACS"">MBmEPMd</p>","","","","","","","","","",""
"html-keyboard-response","242","328600","0.0-12.0-0.72","5ecbb4c00bc62403dae2df59","650c16f0f2faf8d7a0d14c09","651c1da8439ec71e9de1f134","null","null","<p style=""font-size: 60px; font-family: BACS"">MkmEdRdCc</p>","","","","","","","","","",""
"html-keyboard-response","243","329613","0.0-12.0-0.73","5ecbb4c00bc62403dae2df59","650c16f0f2faf8d7a0d14c09","651c1da8439ec71e9de1f134","null","null","<p style=""font-size: 60px; font-family: BACS"">mbZlrkra</p>","","","","","","","","","",""
"html-keyboard-response","244","330617","0.0-12.0-0.74","5ecbb4c00bc62403dae2df59","650c16f0f2faf8d7a0d14c09","651c1da8439ec71e9de1f134","null","null","<p style=""font-size: 60px; font-family: BACS"">dvNvAGrbk</p>","","","","","","","","","",""
"html-keyboard-response","245","331633","0.0-12.0-0.75","5ecbb4c00bc62403dae2df59","650c16f0f2faf8d7a0d14c09","651c1da8439ec71e9de1f134","null","null","<p style=""font-size: 60px; font-family: BACS"">lZcurkra</p>","","","","","","","","","",""
"html-keyboard-response","246","332635","0.0-12.0-0.76","5ecbb4c00bc62403dae2df59","650c16f0f2faf8d7a0d14c09","651c1da8439ec71e9de1f134","null","null","<p style=""font-size: 60px; font-family: BACS"">krGuYArG</p>","","","","","","","","","",""
"html-keyboard-response","247","333652","0.0-12.0-0.77","5ecbb4c00bc62403dae2df59","650c16f0f2faf8d7a0d14c09","651c1da8439ec71e9de1f134","null","null","<p style=""font-size: 60px; font-family: BACS"">kLvdNrkra</p>","","","","","","","","","",""
"html-keyboard-response","248","334653","0.0-12.0-0.78","5ecbb4c00bc62403dae2df59","650c16f0f2faf8d7a0d14c09","651c1da8439ec71e9de1f134","null","null","<p style=""font-size: 60px; font-family: BACS"">uvaULUOk</p>","","","","","","","","","",""
"html-keyboard-response","249","335668","0.0-12.0-0.79","5ecbb4c00bc62403dae2df59","650c16f0f2faf8d7a0d14c09","651c1da8439ec71e9de1f134","null","null","<p style=""font-size: 60px; font-family: BACS"">ckduArkra</p>","","","","","","","","","",""
"html-keyboard-response","250","346477","0.0-13.0","5ecbb4c00bc62403dae2df59","650c16f0f2faf8d7a0d14c09","651c1da8439ec71e9de1f134","10808"," ","<p>Great, you've seen the third block of words. You may now take a short break.</p>
      <p>Press the spacebar when you're ready to continue.</p>","","","","","","","","","",""
"html-keyboard-response","251","347477","0.0-14.0-0.0","5ecbb4c00bc62403dae2df59","650c16f0f2faf8d7a0d14c09","651c1da8439ec71e9de1f134","null","null","<p style=""font-size: 60px; font-family: BACS"">ckduAGlu</p>","","","","","","","","","",""
"html-keyboard-response","252","348478","0.0-14.0-0.1","5ecbb4c00bc62403dae2df59","650c16f0f2faf8d7a0d14c09","651c1da8439ec71e9de1f134","null","null","<p style=""font-size: 60px; font-family: BACS"">bdUNuLUOk</p>","","","","","","","","","",""
"html-keyboard-response","253","349479","0.0-14.0-0.2","5ecbb4c00bc62403dae2df59","650c16f0f2faf8d7a0d14c09","651c1da8439ec71e9de1f134","null","null","<p style=""font-size: 60px; font-family: BACS"">CRdBdPMd</p>","","","","","","","","","",""
"html-keyboard-response","254","350480","0.0-14.0-0.3","5ecbb4c00bc62403dae2df59","650c16f0f2faf8d7a0d14c09","651c1da8439ec71e9de1f134","null","null","<p style=""font-size: 60px; font-family: BACS"">ORbkRdCc</p>","","","","","","","","","",""
"html-keyboard-response","255","351482","0.0-14.0-0.4","5ecbb4c00bc62403dae2df59","650c16f0f2faf8d7a0d14c09","651c1da8439ec71e9de1f134","null","null","<p style=""font-size: 60px; font-family: BACS"">bROCmtKP</p>","","","","","","","","","",""
"html-keyboard-response","256","352490","0.0-14.0-0.5","5ecbb4c00bc62403dae2df59","650c16f0f2faf8d7a0d14c09","651c1da8439ec71e9de1f134","null","null","<p style=""font-size: 60px; font-family: BACS"">ckduArkra</p>","","","","","","","","","",""
"html-keyboard-response","257","353497","0.0-14.0-0.6","5ecbb4c00bc62403dae2df59","650c16f0f2faf8d7a0d14c09","651c1da8439ec71e9de1f134","null","null","<p style=""font-size: 60px; font-family: BACS"">CRdBdRDM</p>","","","","","","","","","",""
"html-keyboard-response","258","354508","0.0-14.0-0.7","5ecbb4c00bc62403dae2df59","650c16f0f2faf8d7a0d14c09","651c1da8439ec71e9de1f134","null","null","<p style=""font-size: 60px; font-family: BACS"">dvNvALUOk</p>","","","","","","","","","",""
"html-keyboard-response","259","355509","0.0-14.0-0.8","5ecbb4c00bc62403dae2df59","650c16f0f2faf8d7a0d14c09","651c1da8439ec71e9de1f134","null","null","<p style=""font-size: 60px; font-family: BACS"">kcdOtPEdK</p>","","","","","","","","","",""
"html-keyboard-response","260","356510","0.0-14.0-0.9","5ecbb4c00bc62403dae2df59","650c16f0f2faf8d7a0d14c09","651c1da8439ec71e9de1f134","null","null","<p style=""font-size: 60px; font-family: BACS"">ckduALUOk</p>","","","","","","","","","",""
"html-keyboard-response","261","357512","0.0-14.0-0.10","5ecbb4c00bc62403dae2df59","650c16f0f2faf8d7a0d14c09","651c1da8439ec71e9de1f134","null","null","<p style=""font-size: 60px; font-family: BACS"">dvNvAYArG</p>","","","","","","","","","",""
"html-keyboard-response","262","358515","0.0-14.0-0.11","5ecbb4c00bc62403dae2df59","650c16f0f2faf8d7a0d14c09","651c1da8439ec71e9de1f134","null","null","<p style=""font-size: 60px; font-family: BACS"">ORbkRDM</p>","","","","","","","","","",""
"html-keyboard-response","263","359516","0.0-14.0-0.12","5ecbb4c00bc62403dae2df59","650c16f0f2faf8d7a0d14c09","651c1da8439ec71e9de1f134","null","null","<p style=""font-size: 60px; font-family: BACS"">CRdBdPEdK</p>","","","","","","","","","",""
"html-keyboard-response","264","360517","0.0-14.0-0.13","5ecbb4c00bc62403dae2df59","650c16f0f2faf8d7a0d14c09","651c1da8439ec71e9de1f134","null","null","<p style=""font-size: 60px; font-family: BACS"">kLvdNLUOk</p>","","","","","","","","","",""
"html-keyboard-response","265","361518","0.0-14.0-0.14","5ecbb4c00bc62403dae2df59","650c16f0f2faf8d7a0d14c09","651c1da8439ec71e9de1f134","null","null","<p style=""font-size: 60px; font-family: BACS"">aLNlkGrbk</p>","","","","","","","","","",""
"html-keyboard-response","266","362533","0.0-14.0-0.15","5ecbb4c00bc62403dae2df59","650c16f0f2faf8d7a0d14c09","651c1da8439ec71e9de1f134","null","null","<p style=""font-size: 60px; font-family: BACS"">bcbMRDM</p>","","","","","","","","","",""
"html-keyboard-response","267","363533","0.0-14.0-0.16","5ecbb4c00bc62403dae2df59","650c16f0f2faf8d7a0d14c09","651c1da8439ec71e9de1f134","null","null","<p style=""font-size: 60px; font-family: BACS"">aLNlkGlu</p>","","","","","","","","","",""
"html-keyboard-response","268","364536","0.0-14.0-0.17","5ecbb4c00bc62403dae2df59","650c16f0f2faf8d7a0d14c09","651c1da8439ec71e9de1f134","null","null","<p style=""font-size: 60px; font-family: BACS"">GabkGrbk</p>","","","","","","","","","",""
"html-keyboard-response","269","365551","0.0-14.0-0.18","5ecbb4c00bc62403dae2df59","650c16f0f2faf8d7a0d14c09","651c1da8439ec71e9de1f134","null","null","<p style=""font-size: 60px; font-family: BACS"">CmcORdCc</p>","","","","","","","","","",""
"html-keyboard-response","270","366553","0.0-14.0-0.19","5ecbb4c00bc62403dae2df59","650c16f0f2faf8d7a0d14c09","651c1da8439ec71e9de1f134","null","null","<p style=""font-size: 60px; font-family: BACS"">ORbkmtKP</p>","","","","","","","","","",""
"html-keyboard-response","271","367554","0.0-14.0-0.20","5ecbb4c00bc62403dae2df59","650c16f0f2faf8d7a0d14c09","651c1da8439ec71e9de1f134","null","null","<p style=""font-size: 60px; font-family: BACS"">uvaUGlu</p>","","","","","","","","","",""
"html-keyboard-response","272","368555","0.0-14.0-0.21","5ecbb4c00bc62403dae2df59","650c16f0f2faf8d7a0d14c09","651c1da8439ec71e9de1f134","null","null","<p style=""font-size: 60px; font-family: BACS"">krGuYArG</p>","","","","","","","","","",""
"html-keyboard-response","273","369557","0.0-14.0-0.22","5ecbb4c00bc62403dae2df59","650c16f0f2faf8d7a0d14c09","651c1da8439ec71e9de1f134","null","null","<p style=""font-size: 60px; font-family: BACS"">uvaULUOk</p>","","","","","","","","","",""
"html-keyboard-response","274","370558","0.0-14.0-0.23","5ecbb4c00bc62403dae2df59","650c16f0f2faf8d7a0d14c09","651c1da8439ec71e9de1f134","null","null","<p style=""font-size: 60px; font-family: BACS"">mbZlGrbk</p>","","","","","","","","","",""
"html-keyboard-response","275","371559","0.0-14.0-0.24","5ecbb4c00bc62403dae2df59","650c16f0f2faf8d7a0d14c09","651c1da8439ec71e9de1f134","null","null","<p style=""font-size: 60px; font-family: BACS"">kLvdNGlu</p>","","","","","","","","","",""
"html-keyboard-response","276","372560","0.0-14.0-0.25","5ecbb4c00bc62403dae2df59","650c16f0f2faf8d7a0d14c09","651c1da8439ec71e9de1f134","null","null","<p style=""font-size: 60px; font-family: BACS"">OAmAdPMd</p>","","","","","","","","","",""
"html-keyboard-response","277","373576","0.0-14.0-0.26","5ecbb4c00bc62403dae2df59","650c16f0f2faf8d7a0d14c09","651c1da8439ec71e9de1f134","null","null","<p style=""font-size: 60px; font-family: BACS"">GabkLUOk</p>","","","","","","","","","",""
"html-keyboard-response","278","374580","0.0-14.0-0.27","5ecbb4c00bc62403dae2df59","650c16f0f2faf8d7a0d14c09","651c1da8439ec71e9de1f134","null","null","<p style=""font-size: 60px; font-family: BACS"">MkmEdRdCc</p>","","","","","","","","","",""
"html-keyboard-response","279","375581","0.0-14.0-0.28","5ecbb4c00bc62403dae2df59","650c16f0f2faf8d7a0d14c09","651c1da8439ec71e9de1f134","null","null","<p style=""font-size: 60px; font-family: BACS"">bROCRDM</p>","","","","","","","","","",""
"html-keyboard-response","280","376582","0.0-14.0-0.29","5ecbb4c00bc62403dae2df59","650c16f0f2faf8d7a0d14c09","651c1da8439ec71e9de1f134","null","null","<p style=""font-size: 60px; font-family: BACS"">bcbMRdCc</p>","","","","","","","","","",""
"html-keyboard-response","281","377582","0.0-14.0-0.30","5ecbb4c00bc62403dae2df59","650c16f0f2faf8d7a0d14c09","651c1da8439ec71e9de1f134","null","null","<p style=""font-size: 60px; font-family: BACS"">MkmEdPEdK</p>","","","","","","","","","",""
"html-keyboard-response","282","378586","0.0-14.0-0.31","5ecbb4c00bc62403dae2df59","650c16f0f2faf8d7a0d14c09","651c1da8439ec71e9de1f134","null","null","<p style=""font-size: 60px; font-family: BACS"">lZcuLUOk</p>","","","","","","","","","",""
"html-keyboard-response","283","379596","0.0-14.0-0.32","5ecbb4c00bc62403dae2df59","650c16f0f2faf8d7a0d14c09","651c1da8439ec71e9de1f134","null","null","<p style=""font-size: 60px; font-family: BACS"">aLNlkrkra</p>","","","","","","","","","",""
"html-keyboard-response","284","380597","0.0-14.0-0.33","5ecbb4c00bc62403dae2df59","650c16f0f2faf8d7a0d14c09","651c1da8439ec71e9de1f134","null","null","<p style=""font-size: 60px; font-family: BACS"">MkmEdPMd</p>","","","","","","","","","",""
"html-keyboard-response","285","381599","0.0-14.0-0.34","5ecbb4c00bc62403dae2df59","650c16f0f2faf8d7a0d14c09","651c1da8439ec71e9de1f134","null","null","<p style=""font-size: 60px; font-family: BACS"">AbKDmtKP</p>","","","","","","","","","",""
"html-keyboard-response","286","382603","0.0-14.0-0.35","5ecbb4c00bc62403dae2df59","650c16f0f2faf8d7a0d14c09","651c1da8439ec71e9de1f134","null","null","<p style=""font-size: 60px; font-family: BACS"">CRdBdRdCc</p>","","","","","","","","","",""
"html-keyboard-response","287","383604","0.0-14.0-0.36","5ecbb4c00bc62403dae2df59","650c16f0f2faf8d7a0d14c09","651c1da8439ec71e9de1f134","null","null","<p style=""font-size: 60px; font-family: BACS"">krGuGlu</p>","","","","","","","","","",""
"html-keyboard-response","288","384605","0.0-14.0-0.37","5ecbb4c00bc62403dae2df59","650c16f0f2faf8d7a0d14c09","651c1da8439ec71e9de1f134","null","null","<p style=""font-size: 60px; font-family: BACS"">kcdOtRDM</p>","","","","","","","","","",""
"html-keyboard-response","289","385614","0.0-14.0-0.38","5ecbb4c00bc62403dae2df59","650c16f0f2faf8d7a0d14c09","651c1da8439ec71e9de1f134","null","null","<p style=""font-size: 60px; font-family: BACS"">MBmERdCc</p>","","","","","","","","","",""
"html-keyboard-response","290","386619","0.0-14.0-0.39","5ecbb4c00bc62403dae2df59","650c16f0f2faf8d7a0d14c09","651c1da8439ec71e9de1f134","null","null","<p style=""font-size: 60px; font-family: BACS"">AbKDRDM</p>","","","","","","","","","",""
"html-keyboard-response","291","387635","0.0-14.0-0.40","5ecbb4c00bc62403dae2df59","650c16f0f2faf8d7a0d14c09","651c1da8439ec71e9de1f134","null","null","<p style=""font-size: 60px; font-family: BACS"">kLvdNGrbk</p>","","","","","","","","","",""
"html-keyboard-response","292","388643","0.0-14.0-0.41","5ecbb4c00bc62403dae2df59","650c16f0f2faf8d7a0d14c09","651c1da8439ec71e9de1f134","null","null","<p style=""font-size: 60px; font-family: BACS"">AbKDPEdK</p>","","","","","","","","","",""
"html-keyboard-response","293","389644","0.0-14.0-0.42","5ecbb4c00bc62403dae2df59","650c16f0f2faf8d7a0d14c09","651c1da8439ec71e9de1f134","null","null","<p style=""font-size: 60px; font-family: BACS"">mbZlYArG</p>","","","","","","","","","",""
"html-keyboard-response","294","390645","0.0-14.0-0.43","5ecbb4c00bc62403dae2df59","650c16f0f2faf8d7a0d14c09","651c1da8439ec71e9de1f134","null","null","<p style=""font-size: 60px; font-family: BACS"">OAmAdRDM</p>","","","","","","","","","",""
"html-keyboard-response","295","391660","0.0-14.0-0.44","5ecbb4c00bc62403dae2df59","650c16f0f2faf8d7a0d14c09","651c1da8439ec71e9de1f134","null","null","<p style=""font-size: 60px; font-family: BACS"">lZcuYArG</p>","","","","","","","","","",""
"html-keyboard-response","296","392664","0.0-14.0-0.45","5ecbb4c00bc62403dae2df59","650c16f0f2faf8d7a0d14c09","651c1da8439ec71e9de1f134","null","null","<p style=""font-size: 60px; font-family: BACS"">ORbkPEdK</p>","","","","","","","","","",""
"html-keyboard-response","297","393665","0.0-14.0-0.46","5ecbb4c00bc62403dae2df59","650c16f0f2faf8d7a0d14c09","651c1da8439ec71e9de1f134","null","null","<p style=""font-size: 60px; font-family: BACS"">uvaUYArG</p>","","","","","","","","","",""
"html-keyboard-response","298","394666","0.0-14.0-0.47","5ecbb4c00bc62403dae2df59","650c16f0f2faf8d7a0d14c09","651c1da8439ec71e9de1f134","null","null","<p style=""font-size: 60px; font-family: BACS"">MBmEPEdK</p>","","","","","","","","","",""
"html-keyboard-response","299","395667","0.0-14.0-0.48","5ecbb4c00bc62403dae2df59","650c16f0f2faf8d7a0d14c09","651c1da8439ec71e9de1f134","null","null","<p style=""font-size: 60px; font-family: BACS"">bdUNuGrbk</p>","","","","","","","","","",""
"html-keyboard-response","300","396682","0.0-14.0-0.49","5ecbb4c00bc62403dae2df59","650c16f0f2faf8d7a0d14c09","651c1da8439ec71e9de1f134","null","null","<p style=""font-size: 60px; font-family: BACS"">CmcOPMd</p>","","","","","","","","","",""
"html-keyboard-response","301","397684","0.0-14.0-0.50","5ecbb4c00bc62403dae2df59","650c16f0f2faf8d7a0d14c09","651c1da8439ec71e9de1f134","null","null","<p style=""font-size: 60px; font-family: BACS"">dvNvAGlu</p>","","","","","","","","","",""
"html-keyboard-response","302","398685","0.0-14.0-0.51","5ecbb4c00bc62403dae2df59","650c16f0f2faf8d7a0d14c09","651c1da8439ec71e9de1f134","null","null","<p style=""font-size: 60px; font-family: BACS"">bROCRdCc</p>","","","","","","","","","",""
"html-keyboard-response","303","399686","0.0-14.0-0.52","5ecbb4c00bc62403dae2df59","650c16f0f2faf8d7a0d14c09","651c1da8439ec71e9de1f134","null","null","<p style=""font-size: 60px; font-family: BACS"">kLvdNrkra</p>","","","","","","","","","",""
"html-keyboard-response","304","400689","0.0-14.0-0.53","5ecbb4c00bc62403dae2df59","650c16f0f2faf8d7a0d14c09","651c1da8439ec71e9de1f134","null","null","<p style=""font-size: 60px; font-family: BACS"">bcbMmtKP</p>","","","","","","","","","",""
"html-keyboard-response","305","401706","0.0-14.0-0.54","5ecbb4c00bc62403dae2df59","650c16f0f2faf8d7a0d14c09","651c1da8439ec71e9de1f134","null","null","<p style=""font-size: 60px; font-family: BACS"">kcdOtPMd</p>","","","","","","","","","",""
"html-keyboard-response","306","402707","0.0-14.0-0.55","5ecbb4c00bc62403dae2df59","650c16f0f2faf8d7a0d14c09","651c1da8439ec71e9de1f134","null","null","<p style=""font-size: 60px; font-family: BACS"">dvNvAGrbk</p>","","","","","","","","","",""
"html-keyboard-response","307","403715","0.0-14.0-0.56","5ecbb4c00bc62403dae2df59","650c16f0f2faf8d7a0d14c09","651c1da8439ec71e9de1f134","null","null","<p style=""font-size: 60px; font-family: BACS"">GabkGlu</p>","","","","","","","","","",""
"html-keyboard-response","308","404725","0.0-14.0-0.57","5ecbb4c00bc62403dae2df59","650c16f0f2faf8d7a0d14c09","651c1da8439ec71e9de1f134","null","null","<p style=""font-size: 60px; font-family: BACS"">bROCPEdK</p>","","","","","","","","","",""
"html-keyboard-response","309","405727","0.0-14.0-0.58","5ecbb4c00bc62403dae2df59","650c16f0f2faf8d7a0d14c09","651c1da8439ec71e9de1f134","null","null","<p style=""font-size: 60px; font-family: BACS"">mbZlrkra</p>","","","","","","","","","",""
"html-keyboard-response","310","406742","0.0-14.0-0.59","5ecbb4c00bc62403dae2df59","650c16f0f2faf8d7a0d14c09","651c1da8439ec71e9de1f134","null","null","<p style=""font-size: 60px; font-family: BACS"">MBmEPMd</p>","","","","","","","","","",""
"html-keyboard-response","311","407748","0.0-14.0-0.60","5ecbb4c00bc62403dae2df59","650c16f0f2faf8d7a0d14c09","651c1da8439ec71e9de1f134","null","null","<p style=""font-size: 60px; font-family: BACS"">bdUNuYArG</p>","","","","","","","","","",""
"html-keyboard-response","312","408763","0.0-14.0-0.61","5ecbb4c00bc62403dae2df59","650c16f0f2faf8d7a0d14c09","651c1da8439ec71e9de1f134","null","null","<p style=""font-size: 60px; font-family: BACS"">OAmAdmtKP</p>","","","","","","","","","",""
"html-keyboard-response","313","409764","0.0-14.0-0.62","5ecbb4c00bc62403dae2df59","650c16f0f2faf8d7a0d14c09","651c1da8439ec71e9de1f134","null","null","<p style=""font-size: 60px; font-family: BACS"">kcdOtRdCc</p>","","","","","","","","","",""
"html-keyboard-response","314","410765","0.0-14.0-0.63","5ecbb4c00bc62403dae2df59","650c16f0f2faf8d7a0d14c09","651c1da8439ec71e9de1f134","null","null","<p style=""font-size: 60px; font-family: BACS"">krGuGrbk</p>","","","","","","","","","",""
"html-keyboard-response","315","411771","0.0-14.0-0.64","5ecbb4c00bc62403dae2df59","650c16f0f2faf8d7a0d14c09","651c1da8439ec71e9de1f134","null","null","<p style=""font-size: 60px; font-family: BACS"">bcbMPMd</p>","","","","","","","","","",""
"html-keyboard-response","316","412783","0.0-14.0-0.65","5ecbb4c00bc62403dae2df59","650c16f0f2faf8d7a0d14c09","651c1da8439ec71e9de1f134","null","null","<p style=""font-size: 60px; font-family: BACS"">lZcuGrbk</p>","","","","","","","","","",""
"html-keyboard-response","317","413785","0.0-14.0-0.66","5ecbb4c00bc62403dae2df59","650c16f0f2faf8d7a0d14c09","651c1da8439ec71e9de1f134","null","null","<p style=""font-size: 60px; font-family: BACS"">CmcOmtKP</p>","","","","","","","","","",""
"html-keyboard-response","318","414801","0.0-14.0-0.67","5ecbb4c00bc62403dae2df59","650c16f0f2faf8d7a0d14c09","651c1da8439ec71e9de1f134","null","null","<p style=""font-size: 60px; font-family: BACS"">uvaUrkra</p>","","","","","","","","","",""
"html-keyboard-response","319","415803","0.0-14.0-0.68","5ecbb4c00bc62403dae2df59","650c16f0f2faf8d7a0d14c09","651c1da8439ec71e9de1f134","null","null","<p style=""font-size: 60px; font-family: BACS"">CmcORDM</p>","","","","","","","","","",""
"html-keyboard-response","320","416817","0.0-14.0-0.69","5ecbb4c00bc62403dae2df59","650c16f0f2faf8d7a0d14c09","651c1da8439ec71e9de1f134","null","null","<p style=""font-size: 60px; font-family: BACS"">krGuLUOk</p>","","","","","","","","","",""
"html-keyboard-response","321","417828","0.0-14.0-0.70","5ecbb4c00bc62403dae2df59","650c16f0f2faf8d7a0d14c09","651c1da8439ec71e9de1f134","null","null","<p style=""font-size: 60px; font-family: BACS"">MBmEmtKP</p>","","","","","","","","","",""
"html-keyboard-response","322","418840","0.0-14.0-0.71","5ecbb4c00bc62403dae2df59","650c16f0f2faf8d7a0d14c09","651c1da8439ec71e9de1f134","null","null","<p style=""font-size: 60px; font-family: BACS"">mbZlGlu</p>","","","","","","","","","",""
"html-keyboard-response","323","419841","0.0-14.0-0.72","5ecbb4c00bc62403dae2df59","650c16f0f2faf8d7a0d14c09","651c1da8439ec71e9de1f134","null","null","<p style=""font-size: 60px; font-family: BACS"">lZcurkra</p>","","","","","","","","","",""
"html-keyboard-response","324","420856","0.0-14.0-0.73","5ecbb4c00bc62403dae2df59","650c16f0f2faf8d7a0d14c09","651c1da8439ec71e9de1f134","null","null","<p style=""font-size: 60px; font-family: BACS"">ckduAYArG</p>","","","","","","","","","",""
"html-keyboard-response","325","421867","0.0-14.0-0.74","5ecbb4c00bc62403dae2df59","650c16f0f2faf8d7a0d14c09","651c1da8439ec71e9de1f134","null","null","<p style=""font-size: 60px; font-family: BACS"">AbKDPMd</p>","","","","","","","","","",""
"html-keyboard-response","326","422876","0.0-14.0-0.75","5ecbb4c00bc62403dae2df59","650c16f0f2faf8d7a0d14c09","651c1da8439ec71e9de1f134","null","null","<p style=""font-size: 60px; font-family: BACS"">Gabkrkra</p>","","","","","","","","","",""
"html-keyboard-response","327","423877","0.0-14.0-0.76","5ecbb4c00bc62403dae2df59","650c16f0f2faf8d7a0d14c09","651c1da8439ec71e9de1f134","null","null","<p style=""font-size: 60px; font-family: BACS"">aLNlkYArG</p>","","","","","","","","","",""
"html-keyboard-response","328","424893","0.0-14.0-0.77","5ecbb4c00bc62403dae2df59","650c16f0f2faf8d7a0d14c09","651c1da8439ec71e9de1f134","null","null","<p style=""font-size: 60px; font-family: BACS"">bdUNurkra</p>","","","","","","","","","",""
"html-keyboard-response","329","425900","0.0-14.0-0.78","5ecbb4c00bc62403dae2df59","650c16f0f2faf8d7a0d14c09","651c1da8439ec71e9de1f134","null","null","<p style=""font-size: 60px; font-family: BACS"">OAmAdPEdK</p>","","","","","","","","","",""
"html-keyboard-response","330","426912","0.0-14.0-0.79","5ecbb4c00bc62403dae2df59","650c16f0f2faf8d7a0d14c09","651c1da8439ec71e9de1f134","null","null","<p style=""font-size: 60px; font-family: BACS"">MkmEdmtKP</p>","","","","","","","","","",""
"html-keyboard-response","331","433973","0.0-15.0","5ecbb4c00bc62403dae2df59","650c16f0f2faf8d7a0d14c09","651c1da8439ec71e9de1f134","7060"," ","<p>Great, you've seen the fourth block of words. You may now take a short break.</p>
      <p>Press the spacebar when you're ready to continue.</p>","","","","","","","","","",""
"html-keyboard-response","332","434975","0.0-16.0-0.0","5ecbb4c00bc62403dae2df59","650c16f0f2faf8d7a0d14c09","651c1da8439ec71e9de1f134","null","null","<p style=""font-size: 60px; font-family: BACS"">CmcORDM</p>","","","","","","","","","",""
"html-keyboard-response","333","435976","0.0-16.0-0.1","5ecbb4c00bc62403dae2df59","650c16f0f2faf8d7a0d14c09","651c1da8439ec71e9de1f134","null","null","<p style=""font-size: 60px; font-family: BACS"">CmcORDM</p>","","","","","","","","","",""
"html-keyboard-response","334","436976","0.0-16.0-0.2","5ecbb4c00bc62403dae2df59","650c16f0f2faf8d7a0d14c09","651c1da8439ec71e9de1f134","null","null","<p style=""font-size: 60px; font-family: BACS"">CmcORDM</p>","","","","","","","","","",""
"html-keyboard-response","335","437980","0.0-16.0-0.3","5ecbb4c00bc62403dae2df59","650c16f0f2faf8d7a0d14c09","651c1da8439ec71e9de1f134","null","null","<p style=""font-size: 60px; font-family: BACS"">CmcORDM</p>","","","","","","","","","",""
"html-keyboard-response","336","438981","0.0-16.0-0.4","5ecbb4c00bc62403dae2df59","650c16f0f2faf8d7a0d14c09","651c1da8439ec71e9de1f134","null","null","<p style=""font-size: 60px; font-family: BACS"">CmcORDM</p>","","","","","","","","","",""
"html-keyboard-response","337","439983","0.0-16.0-0.5","5ecbb4c00bc62403dae2df59","650c16f0f2faf8d7a0d14c09","651c1da8439ec71e9de1f134","null","null","<p style=""font-size: 60px; font-family: BACS"">CmcORDM</p>","","","","","","","","","",""
"html-keyboard-response","338","440993","0.0-16.0-0.6","5ecbb4c00bc62403dae2df59","650c16f0f2faf8d7a0d14c09","651c1da8439ec71e9de1f134","null","null","<p style=""font-size: 60px; font-family: BACS"">CmcORDM</p>","","","","","","","","","",""
"html-keyboard-response","339","441996","0.0-16.0-0.7","5ecbb4c00bc62403dae2df59","650c16f0f2faf8d7a0d14c09","651c1da8439ec71e9de1f134","null","null","<p style=""font-size: 60px; font-family: BACS"">CmcORDM</p>","","","","","","","","","",""
"html-keyboard-response","340","442997","0.0-16.0-0.8","5ecbb4c00bc62403dae2df59","650c16f0f2faf8d7a0d14c09","651c1da8439ec71e9de1f134","null","null","<p style=""font-size: 60px; font-family: BACS"">CmcORDM</p>","","","","","","","","","",""
"html-keyboard-response","341","443998","0.0-16.0-0.9","5ecbb4c00bc62403dae2df59","650c16f0f2faf8d7a0d14c09","651c1da8439ec71e9de1f134","null","null","<p style=""font-size: 60px; font-family: BACS"">CmcORDM</p>","","","","","","","","","",""
"html-keyboard-response","342","445000","0.0-16.0-0.10","5ecbb4c00bc62403dae2df59","650c16f0f2faf8d7a0d14c09","651c1da8439ec71e9de1f134","null","null","<p style=""font-size: 60px; font-family: BACS"">CmcORDM</p>","","","","","","","","","",""
"html-keyboard-response","343","446002","0.0-16.0-0.11","5ecbb4c00bc62403dae2df59","650c16f0f2faf8d7a0d14c09","651c1da8439ec71e9de1f134","null","null","<p style=""font-size: 60px; font-family: BACS"">CmcORDM</p>","","","","","","","","","",""
"html-keyboard-response","344","447017","0.0-16.0-0.12","5ecbb4c00bc62403dae2df59","650c16f0f2faf8d7a0d14c09","651c1da8439ec71e9de1f134","null","null","<p style=""font-size: 60px; font-family: BACS"">CmcORDM</p>","","","","","","","","","",""
"html-keyboard-response","345","448018","0.0-16.0-0.13","5ecbb4c00bc62403dae2df59","650c16f0f2faf8d7a0d14c09","651c1da8439ec71e9de1f134","null","null","<p style=""font-size: 60px; font-family: BACS"">CmcORDM</p>","","","","","","","","","",""
"html-keyboard-response","346","449019","0.0-16.0-0.14","5ecbb4c00bc62403dae2df59","650c16f0f2faf8d7a0d14c09","651c1da8439ec71e9de1f134","null","null","<p style=""font-size: 60px; font-family: BACS"">CmcORDM</p>","","","","","","","","","",""
"html-keyboard-response","347","450026","0.0-16.0-0.15","5ecbb4c00bc62403dae2df59","650c16f0f2faf8d7a0d14c09","651c1da8439ec71e9de1f134","null","null","<p style=""font-size: 60px; font-family: BACS"">CmcORDM</p>","","","","","","","","","",""
"html-keyboard-response","348","451037","0.0-16.0-0.16","5ecbb4c00bc62403dae2df59","650c16f0f2faf8d7a0d14c09","651c1da8439ec71e9de1f134","null","null","<p style=""font-size: 60px; font-family: BACS"">CmcORDM</p>","","","","","","","","","",""
"html-keyboard-response","349","452039","0.0-16.0-0.17","5ecbb4c00bc62403dae2df59","650c16f0f2faf8d7a0d14c09","651c1da8439ec71e9de1f134","null","null","<p style=""font-size: 60px; font-family: BACS"">CmcORDM</p>","","","","","","","","","",""
"html-keyboard-response","350","453051","0.0-16.0-0.18","5ecbb4c00bc62403dae2df59","650c16f0f2faf8d7a0d14c09","651c1da8439ec71e9de1f134","null","null","<p style=""font-size: 60px; font-family: BACS"">CmcORDM</p>","","","","","","","","","",""
"html-keyboard-response","351","454053","0.0-16.0-0.19","5ecbb4c00bc62403dae2df59","650c16f0f2faf8d7a0d14c09","651c1da8439ec71e9de1f134","null","null","<p style=""font-size: 60px; font-family: BACS"">CmcORDM</p>","","","","","","","","","",""
"html-keyboard-response","352","455054","0.0-16.0-0.20","5ecbb4c00bc62403dae2df59","650c16f0f2faf8d7a0d14c09","651c1da8439ec71e9de1f134","null","null","<p style=""font-size: 60px; font-family: BACS"">CmcORDM</p>","","","","","","","","","",""
"html-keyboard-response","353","456055","0.0-16.0-0.21","5ecbb4c00bc62403dae2df59","650c16f0f2faf8d7a0d14c09","651c1da8439ec71e9de1f134","null","null","<p style=""font-size: 60px; font-family: BACS"">CmcORDM</p>","","","","","","","","","",""
"html-keyboard-response","354","457061","0.0-16.0-0.22","5ecbb4c00bc62403dae2df59","650c16f0f2faf8d7a0d14c09","651c1da8439ec71e9de1f134","null","null","<p style=""font-size: 60px; font-family: BACS"">CmcORDM</p>","","","","","","","","","",""
"html-keyboard-response","355","458063","0.0-16.0-0.23","5ecbb4c00bc62403dae2df59","650c16f0f2faf8d7a0d14c09","651c1da8439ec71e9de1f134","null","null","<p style=""font-size: 60px; font-family: BACS"">CmcORDM</p>","","","","","","","","","",""
"html-keyboard-response","356","459071","0.0-16.0-0.24","5ecbb4c00bc62403dae2df59","650c16f0f2faf8d7a0d14c09","651c1da8439ec71e9de1f134","null","null","<p style=""font-size: 60px; font-family: BACS"">CmcORDM</p>","","","","","","","","","",""
"html-keyboard-response","357","460081","0.0-16.0-0.25","5ecbb4c00bc62403dae2df59","650c16f0f2faf8d7a0d14c09","651c1da8439ec71e9de1f134","null","null","<p style=""font-size: 60px; font-family: BACS"">CmcORDM</p>","","","","","","","","","",""
"html-keyboard-response","358","461096","0.0-16.0-0.26","5ecbb4c00bc62403dae2df59","650c16f0f2faf8d7a0d14c09","651c1da8439ec71e9de1f134","null","null","<p style=""font-size: 60px; font-family: BACS"">CmcORDM</p>","","","","","","","","","",""
"html-keyboard-response","359","462110","0.0-16.0-0.27","5ecbb4c00bc62403dae2df59","650c16f0f2faf8d7a0d14c09","651c1da8439ec71e9de1f134","null","null","<p style=""font-size: 60px; font-family: BACS"">CmcORDM</p>","","","","","","","","","",""
"html-keyboard-response","360","463117","0.0-16.0-0.28","5ecbb4c00bc62403dae2df59","650c16f0f2faf8d7a0d14c09","651c1da8439ec71e9de1f134","null","null","<p style=""font-size: 60px; font-family: BACS"">CmcORDM</p>","","","","","","","","","",""
"html-keyboard-response","361","464119","0.0-16.0-0.29","5ecbb4c00bc62403dae2df59","650c16f0f2faf8d7a0d14c09","651c1da8439ec71e9de1f134","null","null","<p style=""font-size: 60px; font-family: BACS"">CmcORDM</p>","","","","","","","","","",""
"html-keyboard-response","362","465135","0.0-16.0-0.30","5ecbb4c00bc62403dae2df59","650c16f0f2faf8d7a0d14c09","651c1da8439ec71e9de1f134","null","null","<p style=""font-size: 60px; font-family: BACS"">CmcORDM</p>","","","","","","","","","",""
"html-keyboard-response","363","466137","0.0-16.0-0.31","5ecbb4c00bc62403dae2df59","650c16f0f2faf8d7a0d14c09","651c1da8439ec71e9de1f134","null","null","<p style=""font-size: 60px; font-family: BACS"">CmcORDM</p>","","","","","","","","","",""
"html-keyboard-response","364","467145","0.0-16.0-0.32","5ecbb4c00bc62403dae2df59","650c16f0f2faf8d7a0d14c09","651c1da8439ec71e9de1f134","null","null","<p style=""font-size: 60px; font-family: BACS"">CmcORDM</p>","","","","","","","","","",""
"html-keyboard-response","365","468148","0.0-16.0-0.33","5ecbb4c00bc62403dae2df59","650c16f0f2faf8d7a0d14c09","651c1da8439ec71e9de1f134","null","null","<p style=""font-size: 60px; font-family: BACS"">CmcORDM</p>","","","","","","","","","",""
"html-keyboard-response","366","469156","0.0-16.0-0.34","5ecbb4c00bc62403dae2df59","650c16f0f2faf8d7a0d14c09","651c1da8439ec71e9de1f134","null","null","<p style=""font-size: 60px; font-family: BACS"">CmcORDM</p>","","","","","","","","","",""
"html-keyboard-response","367","470173","0.0-16.0-0.35","5ecbb4c00bc62403dae2df59","650c16f0f2faf8d7a0d14c09","651c1da8439ec71e9de1f134","null","null","<p style=""font-size: 60px; font-family: BACS"">CmcORDM</p>","","","","","","","","","",""
"html-keyboard-response","368","471189","0.0-16.0-0.36","5ecbb4c00bc62403dae2df59","650c16f0f2faf8d7a0d14c09","651c1da8439ec71e9de1f134","null","null","<p style=""font-size: 60px; font-family: BACS"">CmcORDM</p>","","","","","","","","","",""
"html-keyboard-response","369","472203","0.0-16.0-0.37","5ecbb4c00bc62403dae2df59","650c16f0f2faf8d7a0d14c09","651c1da8439ec71e9de1f134","null","null","<p style=""font-size: 60px; font-family: BACS"">CmcORDM</p>","","","","","","","","","",""
"html-keyboard-response","370","473212","0.0-16.0-0.38","5ecbb4c00bc62403dae2df59","650c16f0f2faf8d7a0d14c09","651c1da8439ec71e9de1f134","null","null","<p style=""font-size: 60px; font-family: BACS"">CmcORDM</p>","","","","","","","","","",""
"html-keyboard-response","371","474224","0.0-16.0-0.39","5ecbb4c00bc62403dae2df59","650c16f0f2faf8d7a0d14c09","651c1da8439ec71e9de1f134","null","null","<p style=""font-size: 60px; font-family: BACS"">CmcORDM</p>","","","","","","","","","",""
"html-keyboard-response","372","475236","0.0-16.0-0.40","5ecbb4c00bc62403dae2df59","650c16f0f2faf8d7a0d14c09","651c1da8439ec71e9de1f134","null","null","<p style=""font-size: 60px; font-family: BACS"">CmcORDM</p>","","","","","","","","","",""
"html-keyboard-response","373","476251","0.0-16.0-0.41","5ecbb4c00bc62403dae2df59","650c16f0f2faf8d7a0d14c09","651c1da8439ec71e9de1f134","null","null","<p style=""font-size: 60px; font-family: BACS"">CmcORDM</p>","","","","","","","","","",""
"html-keyboard-response","374","477267","0.0-16.0-0.42","5ecbb4c00bc62403dae2df59","650c16f0f2faf8d7a0d14c09","651c1da8439ec71e9de1f134","null","null","<p style=""font-size: 60px; font-family: BACS"">CmcORDM</p>","","","","","","","","","",""
"html-keyboard-response","375","478282","0.0-16.0-0.43","5ecbb4c00bc62403dae2df59","650c16f0f2faf8d7a0d14c09","651c1da8439ec71e9de1f134","null","null","<p style=""font-size: 60px; font-family: BACS"">CmcORDM</p>","","","","","","","","","",""
"html-keyboard-response","376","479294","0.0-16.0-0.44","5ecbb4c00bc62403dae2df59","650c16f0f2faf8d7a0d14c09","651c1da8439ec71e9de1f134","null","null","<p style=""font-size: 60px; font-family: BACS"">CmcORDM</p>","","","","","","","","","",""
"html-keyboard-response","377","480299","0.0-16.0-0.45","5ecbb4c00bc62403dae2df59","650c16f0f2faf8d7a0d14c09","651c1da8439ec71e9de1f134","null","null","<p style=""font-size: 60px; font-family: BACS"">CmcORDM</p>","","","","","","","","","",""
"html-keyboard-response","378","481305","0.0-16.0-0.46","5ecbb4c00bc62403dae2df59","650c16f0f2faf8d7a0d14c09","651c1da8439ec71e9de1f134","null","null","<p style=""font-size: 60px; font-family: BACS"">CmcORDM</p>","","","","","","","","","",""
"html-keyboard-response","379","482308","0.0-16.0-0.47","5ecbb4c00bc62403dae2df59","650c16f0f2faf8d7a0d14c09","651c1da8439ec71e9de1f134","null","null","<p style=""font-size: 60px; font-family: BACS"">CmcORDM</p>","","","","","","","","","",""
"html-keyboard-response","380","483317","0.0-16.0-0.48","5ecbb4c00bc62403dae2df59","650c16f0f2faf8d7a0d14c09","651c1da8439ec71e9de1f134","null","null","<p style=""font-size: 60px; font-family: BACS"">CmcORDM</p>","","","","","","","","","",""
"html-keyboard-response","381","484324","0.0-16.0-0.49","5ecbb4c00bc62403dae2df59","650c16f0f2faf8d7a0d14c09","651c1da8439ec71e9de1f134","null","null","<p style=""font-size: 60px; font-family: BACS"">CmcORDM</p>","","","","","","","","","",""
"html-keyboard-response","382","485326","0.0-16.0-0.50","5ecbb4c00bc62403dae2df59","650c16f0f2faf8d7a0d14c09","651c1da8439ec71e9de1f134","null","null","<p style=""font-size: 60px; font-family: BACS"">CmcORDM</p>","","","","","","","","","",""
"html-keyboard-response","383","486341","0.0-16.0-0.51","5ecbb4c00bc62403dae2df59","650c16f0f2faf8d7a0d14c09","651c1da8439ec71e9de1f134","null","null","<p style=""font-size: 60px; font-family: BACS"">CmcORDM</p>","","","","","","","","","",""
"html-keyboard-response","384","487342","0.0-16.0-0.52","5ecbb4c00bc62403dae2df59","650c16f0f2faf8d7a0d14c09","651c1da8439ec71e9de1f134","null","null","<p style=""font-size: 60px; font-family: BACS"">CmcORDM</p>","","","","","","","","","",""
"html-keyboard-response","385","488358","0.0-16.0-0.53","5ecbb4c00bc62403dae2df59","650c16f0f2faf8d7a0d14c09","651c1da8439ec71e9de1f134","null","null","<p style=""font-size: 60px; font-family: BACS"">CmcORDM</p>","","","","","","","","","",""
"html-keyboard-response","386","489360","0.0-16.0-0.54","5ecbb4c00bc62403dae2df59","650c16f0f2faf8d7a0d14c09","651c1da8439ec71e9de1f134","null","null","<p style=""font-size: 60px; font-family: BACS"">CmcORDM</p>","","","","","","","","","",""
"html-keyboard-response","387","490362","0.0-16.0-0.55","5ecbb4c00bc62403dae2df59","650c16f0f2faf8d7a0d14c09","651c1da8439ec71e9de1f134","null","null","<p style=""font-size: 60px; font-family: BACS"">CmcORDM</p>","","","","","","","","","",""
"html-keyboard-response","388","491378","0.0-16.0-0.56","5ecbb4c00bc62403dae2df59","650c16f0f2faf8d7a0d14c09","651c1da8439ec71e9de1f134","null","null","<p style=""font-size: 60px; font-family: BACS"">CmcORDM</p>","","","","","","","","","",""
"html-keyboard-response","389","492382","0.0-16.0-0.57","5ecbb4c00bc62403dae2df59","650c16f0f2faf8d7a0d14c09","651c1da8439ec71e9de1f134","null","null","<p style=""font-size: 60px; font-family: BACS"">CmcORDM</p>","","","","","","","","","",""
"html-keyboard-response","390","493396","0.0-16.0-0.58","5ecbb4c00bc62403dae2df59","650c16f0f2faf8d7a0d14c09","651c1da8439ec71e9de1f134","null","null","<p style=""font-size: 60px; font-family: BACS"">CmcORDM</p>","","","","","","","","","",""
"html-keyboard-response","391","494399","0.0-16.0-0.59","5ecbb4c00bc62403dae2df59","650c16f0f2faf8d7a0d14c09","651c1da8439ec71e9de1f134","null","null","<p style=""font-size: 60px; font-family: BACS"">CmcORDM</p>","","","","","","","","","",""
"html-keyboard-response","392","495402","0.0-16.0-0.60","5ecbb4c00bc62403dae2df59","650c16f0f2faf8d7a0d14c09","651c1da8439ec71e9de1f134","null","null","<p style=""font-size: 60px; font-family: BACS"">CmcORDM</p>","","","","","","","","","",""
"html-keyboard-response","393","496417","0.0-16.0-0.61","5ecbb4c00bc62403dae2df59","650c16f0f2faf8d7a0d14c09","651c1da8439ec71e9de1f134","null","null","<p style=""font-size: 60px; font-family: BACS"">CmcORDM</p>","","","","","","","","","",""
