"trial_type","trial_index","time_elapsed","internal_node_id","subject_id","study_id","session_id","rt","response","stimulus","success","item","task","correct_response","testing_condition","correct","target","confound","name"
"pavlovia","0","706","0.0-0.0","58f50400f4ce600001016db5","64e77d7b61f440b60e28659d","64eca324faf48537a772746b","","","","","","","","","","","",""
"survey-html-form","1","147387","0.0-1.0","58f50400f4ce600001016db5","64e77d7b61f440b60e28659d","64eca324faf48537a772746b","146681","{""ID"":""58f50400f4ce600001016db5""}","","","","","","","","","",""
"html-keyboard-response","2","163927","0.0-2.0","58f50400f4ce600001016db5","64e77d7b61f440b60e28659d","64eca324faf48537a772746b","16539"," ","<p style=""font-size: 15px;"">Before beginning, we ask that you read the consent information and confirm your agreement to participate in the experiment.</p>
      <p style=""font-size: 15px;""> We ask that you remember that this is a research project and that your participation is entirely voluntary. You can stop your participation at any time, without needing to provide any explanation. The study we're asking you to participate in aims at examining how readers process written words. You will be engaged in a session of apprximately 20 minutes, followed by a brief questionnaire. You will have the opportunity to take a few breaks during the experiment. You will be paid £4 for your participation, corresponding to a rate of £8/hour. While this experiment looks at cognitive faculties, this experiment doesn't constitute clinical proof of eventual pathologies.</p>
      <p style=""font-size: 15px;"">All of the information collected thanks to yours and others' participation will be held in a secure password-protected server, and will not be shared with anyone not authorised to view it. Your personal information will be kept with an arbitrary participant ID. Thanks to this data anonymity process, any researcher analysing the data won't be able to track the information back to a specific participant. Therefore, this process will make identifying you impossibile, even when results from the study will be published in scientific reviews, presented at congresses, or at any other public forum. More generally, the collected data will be treated in accordance with the laws on privacy and conformity to the Legislative Degree n. 196 ""Code regarding the protection of personal data"" of the 30th of June 2003 and to the European Regulation 2016/670 (General Data Protection Regulation - GDPR). The Data Protection Officer is Avv. Valentina Carollo, who can be contacted at the following email addresses: <a href=""mailto:dpo@sissa.it"">dpo@sissa.it</a> or <a href=""mailto:rpd@sissa.it"">rpd@sissa.it</a> - PEC: <a href=""mailto:protocollo@pec.sissa.it"">protocollo@pec.sissa.it</a>.</p>
      <p style=""font-size: 15px;""> Before expressing your consent to participate, we would like to remind you again that in case you need explanations on any aspect of the experimental procedure, the researcher is at your disposition (<a href=""mailto:aliebelt@sissa.it"">aliebelt@sissa.it</a>, <a href=""mailto:davide.crepaldi@sissa.it"">davide.crepaldi@sissa.it</a>).</p>
      <p style=""font-size: 15px;"">If you would like to download the informed consent form, you can do so here: <a href=""BASL-Informed_Consent.pdf"" download>informed consent form</a>.</p>
      <p style=""font-size: 15px;"">We ask that you press the spacebar to proceed to the consent section.</p>","","","","","","","","",""
"survey-html-form","3","175720","0.0-3.0","58f50400f4ce600001016db5","64e77d7b61f440b60e28659d","64eca324faf48537a772746b","11792","{""consent1"":""YES"",""consent2"":""YES"",""consent3"":""YES"",""consent4"":""YES"",""consent5"":""YES"",""consent6"":""YES""}","","","","","","","","","",""
"fullscreen","4","186355","0.0-4.0","58f50400f4ce600001016db5","64e77d7b61f440b60e28659d","64eca324faf48537a772746b","","","","true","","","","","","","",""
"html-keyboard-response","5","206729","0.0-5.0","58f50400f4ce600001016db5","64e77d7b61f440b60e28659d","64eca324faf48537a772746b","20372"," ","<p>Welcome, and thank you very much for your time!</p>
      <p>In this experiment, you'll be a language expert who's been asked to take a look at words that Earth has received in its first communication with aliens. Your task, in this first part of the experiment, is to pay close attention to the words you'll be shown; later, world leaders will ask you questions on what you saw. The words will be shown to you quite quickly; it seems that the aliens were in a hurry :-)</p>
      <p>Press the spacebar to continue.<p>","","","","","","","","",""
"html-keyboard-response","6","215203","0.0-6.0","58f50400f4ce600001016db5","64e77d7b61f440b60e28659d","64eca324faf48537a772746b","8474"," ","<p>Here is an example of the words you'll see:</p>
      <img src='esempio.png' height='400px'>
      <p>When you're ready to begin, press the spacebar.</p></div>","","","","","","","","",""
"html-keyboard-response","7","216205","0.0-7.0-0.0","58f50400f4ce600001016db5","64e77d7b61f440b60e28659d","64eca324faf48537a772746b","null","null","<p style=""font-size: 60px; font-family: BACS"">YQbcAvdk</p>","","","","","","","","",""
"html-keyboard-response","8","217213","0.0-7.0-0.1","58f50400f4ce600001016db5","64e77d7b61f440b60e28659d","64eca324faf48537a772746b","null","null","<p style=""font-size: 60px; font-family: BACS"">kDRKcYcM</p>","","","","","","","","",""
"html-keyboard-response","9","218213","0.0-7.0-0.2","58f50400f4ce600001016db5","64e77d7b61f440b60e28659d","64eca324faf48537a772746b","null","null","<p style=""font-size: 60px; font-family: BACS"">tmAKkhMD</p>","","","","","","","","",""
"html-keyboard-response","10","219217","0.0-7.0-0.3","58f50400f4ce600001016db5","64e77d7b61f440b60e28659d","64eca324faf48537a772746b","null","null","<p style=""font-size: 60px; font-family: BACS"">OAmAdYcM</p>","","","","","","","","",""
"html-keyboard-response","11","220217","0.0-7.0-0.4","58f50400f4ce600001016db5","64e77d7b61f440b60e28659d","64eca324faf48537a772746b","null","null","<p style=""font-size: 60px; font-family: BACS"">YOZNrULv</p>","","","","","","","","",""
"html-keyboard-response","12","221230","0.0-7.0-0.5","58f50400f4ce600001016db5","64e77d7b61f440b60e28659d","64eca324faf48537a772746b","null","null","<p style=""font-size: 60px; font-family: BACS"">KABAtcB</p>","","","","","","","","",""
"html-keyboard-response","13","222241","0.0-7.0-0.6","58f50400f4ce600001016db5","64e77d7b61f440b60e28659d","64eca324faf48537a772746b","null","null","<p style=""font-size: 60px; font-family: BACS"">OAmAdRCdc</p>","","","","","","","","",""
"html-keyboard-response","14","223245","0.0-7.0-0.7","58f50400f4ce600001016db5","64e77d7b61f440b60e28659d","64eca324faf48537a772746b","null","null","<p style=""font-size: 60px; font-family: BACS"">AmaclQGb</p>","","","","","","","","",""
"html-keyboard-response","15","224251","0.0-7.0-0.8","58f50400f4ce600001016db5","64e77d7b61f440b60e28659d","64eca324faf48537a772746b","null","null","<p style=""font-size: 60px; font-family: BACS"">cDOEBkhMD</p>","","","","","","","","",""
"html-keyboard-response","16","225260","0.0-7.0-0.9","58f50400f4ce600001016db5","64e77d7b61f440b60e28659d","64eca324faf48537a772746b","null","null","<p style=""font-size: 60px; font-family: BACS"">rdLJaLkNc</p>","","","","","","","","",""
"html-keyboard-response","17","226261","0.0-7.0-0.10","58f50400f4ce600001016db5","64e77d7b61f440b60e28659d","64eca324faf48537a772746b","null","null","<p style=""font-size: 60px; font-family: BACS"">lcOcrULv</p>","","","","","","","","",""
"html-keyboard-response","18","227262","0.0-7.0-0.11","58f50400f4ce600001016db5","64e77d7b61f440b60e28659d","64eca324faf48537a772746b","null","null","<p style=""font-size: 60px; font-family: BACS"">OAmAdkhMD</p>","","","","","","","","",""
"html-keyboard-response","19","228263","0.0-7.0-0.12","58f50400f4ce600001016db5","64e77d7b61f440b60e28659d","64eca324faf48537a772746b","null","null","<p style=""font-size: 60px; font-family: BACS"">dTmEDEPBT</p>","","","","","","","","",""
"html-keyboard-response","20","229271","0.0-7.0-0.13","58f50400f4ce600001016db5","64e77d7b61f440b60e28659d","64eca324faf48537a772746b","null","null","<p style=""font-size: 60px; font-family: BACS"">cDOEBRCdc</p>","","","","","","","","",""
"html-keyboard-response","21","230272","0.0-7.0-0.14","58f50400f4ce600001016db5","64e77d7b61f440b60e28659d","64eca324faf48537a772746b","null","null","<p style=""font-size: 60px; font-family: BACS"">vmuLlAvdk</p>","","","","","","","","",""
"html-keyboard-response","22","231274","0.0-7.0-0.15","58f50400f4ce600001016db5","64e77d7b61f440b60e28659d","64eca324faf48537a772746b","null","null","<p style=""font-size: 60px; font-family: BACS"">lcOcQGb</p>","","","","","","","","",""
"html-keyboard-response","23","232276","0.0-7.0-0.16","58f50400f4ce600001016db5","64e77d7b61f440b60e28659d","64eca324faf48537a772746b","null","null","<p style=""font-size: 60px; font-family: BACS"">YQbcLkNc</p>","","","","","","","","",""
"html-keyboard-response","24","233277","0.0-7.0-0.17","58f50400f4ce600001016db5","64e77d7b61f440b60e28659d","64eca324faf48537a772746b","null","null","<p style=""font-size: 60px; font-family: BACS"">dKRDEPBT</p>","","","","","","","","",""
"html-keyboard-response","25","234278","0.0-7.0-0.18","58f50400f4ce600001016db5","64e77d7b61f440b60e28659d","64eca324faf48537a772746b","null","null","<p style=""font-size: 60px; font-family: BACS"">YQbckbu</p>","","","","","","","","",""
"html-keyboard-response","26","235279","0.0-7.0-0.19","58f50400f4ce600001016db5","64e77d7b61f440b60e28659d","64eca324faf48537a772746b","null","null","<p style=""font-size: 60px; font-family: BACS"">vmuLlrULv</p>","","","","","","","","",""
"html-keyboard-response","27","236281","0.0-7.0-0.20","58f50400f4ce600001016db5","64e77d7b61f440b60e28659d","64eca324faf48537a772746b","null","null","<p style=""font-size: 60px; font-family: BACS"">BEPOtcB</p>","","","","","","","","",""
"html-keyboard-response","28","237282","0.0-7.0-0.21","58f50400f4ce600001016db5","64e77d7b61f440b60e28659d","64eca324faf48537a772746b","null","null","<p style=""font-size: 60px; font-family: BACS"">YQbcQGb</p>","","","","","","","","",""
"html-keyboard-response","29","238284","0.0-7.0-0.22","58f50400f4ce600001016db5","64e77d7b61f440b60e28659d","64eca324faf48537a772746b","null","null","<p style=""font-size: 60px; font-family: BACS"">BEPORCdc</p>","","","","","","","","",""
"html-keyboard-response","30","239285","0.0-7.0-0.23","58f50400f4ce600001016db5","64e77d7b61f440b60e28659d","64eca324faf48537a772746b","null","null","<p style=""font-size: 60px; font-family: BACS"">AlNUkbu</p>","","","","","","","","",""
"html-keyboard-response","31","240285","0.0-7.0-0.24","58f50400f4ce600001016db5","64e77d7b61f440b60e28659d","64eca324faf48537a772746b","null","null","<p style=""font-size: 60px; font-family: BACS"">CYPcYcM</p>","","","","","","","","",""
"html-keyboard-response","32","241286","0.0-7.0-0.25","58f50400f4ce600001016db5","64e77d7b61f440b60e28659d","64eca324faf48537a772746b","null","null","<p style=""font-size: 60px; font-family: BACS"">rdLJaQGb</p>","","","","","","","","",""
"html-keyboard-response","33","242289","0.0-7.0-0.26","58f50400f4ce600001016db5","64e77d7b61f440b60e28659d","64eca324faf48537a772746b","null","null","<p style=""font-size: 60px; font-family: BACS"">vmuLlkbu</p>","","","","","","","","",""
"html-keyboard-response","34","243290","0.0-7.0-0.27","58f50400f4ce600001016db5","64e77d7b61f440b60e28659d","64eca324faf48537a772746b","null","null","<p style=""font-size: 60px; font-family: BACS"">dKRDkhMD</p>","","","","","","","","",""
"html-keyboard-response","35","244291","0.0-7.0-0.28","58f50400f4ce600001016db5","64e77d7b61f440b60e28659d","64eca324faf48537a772746b","null","null","<p style=""font-size: 60px; font-family: BACS"">UaZmaAvdk</p>","","","","","","","","",""
"html-keyboard-response","36","245291","0.0-7.0-0.29","58f50400f4ce600001016db5","64e77d7b61f440b60e28659d","64eca324faf48537a772746b","null","null","<p style=""font-size: 60px; font-family: BACS"">YOZNLkNc</p>","","","","","","","","",""
"html-keyboard-response","37","246293","0.0-7.0-0.30","58f50400f4ce600001016db5","64e77d7b61f440b60e28659d","64eca324faf48537a772746b","null","null","<p style=""font-size: 60px; font-family: BACS"">AlNUrULv</p>","","","","","","","","",""
"html-keyboard-response","38","247293","0.0-7.0-0.31","58f50400f4ce600001016db5","64e77d7b61f440b60e28659d","64eca324faf48537a772746b","null","null","<p style=""font-size: 60px; font-family: BACS"">rdLJaAvdk</p>","","","","","","","","",""
"html-keyboard-response","39","248294","0.0-7.0-0.32","58f50400f4ce600001016db5","64e77d7b61f440b60e28659d","64eca324faf48537a772746b","null","null","<p style=""font-size: 60px; font-family: BACS"">Amaclkbu</p>","","","","","","","","",""
"html-keyboard-response","40","249296","0.0-7.0-0.33","58f50400f4ce600001016db5","64e77d7b61f440b60e28659d","64eca324faf48537a772746b","null","null","<p style=""font-size: 60px; font-family: BACS"">dTmEDkhMD</p>","","","","","","","","",""
"html-keyboard-response","41","250296","0.0-7.0-0.34","58f50400f4ce600001016db5","64e77d7b61f440b60e28659d","64eca324faf48537a772746b","null","null","<p style=""font-size: 60px; font-family: BACS"">tmAKRCdc</p>","","","","","","","","",""
"html-keyboard-response","42","251301","0.0-7.0-0.35","58f50400f4ce600001016db5","64e77d7b61f440b60e28659d","64eca324faf48537a772746b","null","null","<p style=""font-size: 60px; font-family: BACS"">UaZmaQGb</p>","","","","","","","","",""
"html-keyboard-response","43","252304","0.0-7.0-0.36","58f50400f4ce600001016db5","64e77d7b61f440b60e28659d","64eca324faf48537a772746b","null","null","<p style=""font-size: 60px; font-family: BACS"">KDPAkhMD</p>","","","","","","","","",""
"html-keyboard-response","44","253305","0.0-7.0-0.37","58f50400f4ce600001016db5","64e77d7b61f440b60e28659d","64eca324faf48537a772746b","null","null","<p style=""font-size: 60px; font-family: BACS"">YOZNAvdk</p>","","","","","","","","",""
"html-keyboard-response","45","254306","0.0-7.0-0.38","58f50400f4ce600001016db5","64e77d7b61f440b60e28659d","64eca324faf48537a772746b","null","null","<p style=""font-size: 60px; font-family: BACS"">vclYQGb</p>","","","","","","","","",""
"html-keyboard-response","46","255312","0.0-7.0-0.39","58f50400f4ce600001016db5","64e77d7b61f440b60e28659d","64eca324faf48537a772746b","null","null","<p style=""font-size: 60px; font-family: BACS"">CYPcEPBT</p>","","","","","","","","",""
"html-keyboard-response","47","256317","0.0-7.0-0.40","58f50400f4ce600001016db5","64e77d7b61f440b60e28659d","64eca324faf48537a772746b","null","null","<p style=""font-size: 60px; font-family: BACS"">vclYLkNc</p>","","","","","","","","",""
"html-keyboard-response","48","257319","0.0-7.0-0.41","58f50400f4ce600001016db5","64e77d7b61f440b60e28659d","64eca324faf48537a772746b","null","null","<p style=""font-size: 60px; font-family: BACS"">YOZNkbu</p>","","","","","","","","",""
"html-keyboard-response","49","258320","0.0-7.0-0.42","58f50400f4ce600001016db5","64e77d7b61f440b60e28659d","64eca324faf48537a772746b","null","null","<p style=""font-size: 60px; font-family: BACS"">BEPOYcM</p>","","","","","","","","",""
"html-keyboard-response","50","259322","0.0-7.0-0.43","58f50400f4ce600001016db5","64e77d7b61f440b60e28659d","64eca324faf48537a772746b","null","null","<p style=""font-size: 60px; font-family: BACS"">CYPctcB</p>","","","","","","","","",""
"html-keyboard-response","51","260323","0.0-7.0-0.44","58f50400f4ce600001016db5","64e77d7b61f440b60e28659d","64eca324faf48537a772746b","null","null","<p style=""font-size: 60px; font-family: BACS"">lcOckbu</p>","","","","","","","","",""
"html-keyboard-response","52","261325","0.0-7.0-0.45","58f50400f4ce600001016db5","64e77d7b61f440b60e28659d","64eca324faf48537a772746b","null","null","<p style=""font-size: 60px; font-family: BACS"">UaZmaLkNc</p>","","","","","","","","",""
"html-keyboard-response","53","262327","0.0-7.0-0.46","58f50400f4ce600001016db5","64e77d7b61f440b60e28659d","64eca324faf48537a772746b","null","null","<p style=""font-size: 60px; font-family: BACS"">QcQAJAvdk</p>","","","","","","","","",""
"html-keyboard-response","54","263329","0.0-7.0-0.47","58f50400f4ce600001016db5","64e77d7b61f440b60e28659d","64eca324faf48537a772746b","null","null","<p style=""font-size: 60px; font-family: BACS"">tmAKYcM</p>","","","","","","","","",""
"html-keyboard-response","55","264340","0.0-7.0-0.48","58f50400f4ce600001016db5","64e77d7b61f440b60e28659d","64eca324faf48537a772746b","null","null","<p style=""font-size: 60px; font-family: BACS"">kDRKcRCdc</p>","","","","","","","","",""
"html-keyboard-response","56","265342","0.0-7.0-0.49","58f50400f4ce600001016db5","64e77d7b61f440b60e28659d","64eca324faf48537a772746b","null","null","<p style=""font-size: 60px; font-family: BACS"">dKRDtcB</p>","","","","","","","","",""
"html-keyboard-response","57","266343","0.0-7.0-0.50","58f50400f4ce600001016db5","64e77d7b61f440b60e28659d","64eca324faf48537a772746b","null","null","<p style=""font-size: 60px; font-family: BACS"">KABAYcM</p>","","","","","","","","",""
"html-keyboard-response","58","267345","0.0-7.0-0.51","58f50400f4ce600001016db5","64e77d7b61f440b60e28659d","64eca324faf48537a772746b","null","null","<p style=""font-size: 60px; font-family: BACS"">cDOEBtcB</p>","","","","","","","","",""
"html-keyboard-response","59","268357","0.0-7.0-0.52","58f50400f4ce600001016db5","64e77d7b61f440b60e28659d","64eca324faf48537a772746b","null","null","<p style=""font-size: 60px; font-family: BACS"">KABAEPBT</p>","","","","","","","","",""
"html-keyboard-response","60","269358","0.0-7.0-0.53","58f50400f4ce600001016db5","64e77d7b61f440b60e28659d","64eca324faf48537a772746b","null","null","<p style=""font-size: 60px; font-family: BACS"">QcQAJQGb</p>","","","","","","","","",""
"html-keyboard-response","61","270359","0.0-7.0-0.54","58f50400f4ce600001016db5","64e77d7b61f440b60e28659d","64eca324faf48537a772746b","null","null","<p style=""font-size: 60px; font-family: BACS"">AlNUAvdk</p>","","","","","","","","",""
"html-keyboard-response","62","271372","0.0-7.0-0.55","58f50400f4ce600001016db5","64e77d7b61f440b60e28659d","64eca324faf48537a772746b","null","null","<p style=""font-size: 60px; font-family: BACS"">BEPOkhMD</p>","","","","","","","","",""
"html-keyboard-response","63","272373","0.0-7.0-0.56","58f50400f4ce600001016db5","64e77d7b61f440b60e28659d","64eca324faf48537a772746b","null","null","<p style=""font-size: 60px; font-family: BACS"">KDPAEPBT</p>","","","","","","","","",""
"html-keyboard-response","64","273374","0.0-7.0-0.57","58f50400f4ce600001016db5","64e77d7b61f440b60e28659d","64eca324faf48537a772746b","null","null","<p style=""font-size: 60px; font-family: BACS"">UaZmarULv</p>","","","","","","","","",""
"html-keyboard-response","65","274375","0.0-7.0-0.58","58f50400f4ce600001016db5","64e77d7b61f440b60e28659d","64eca324faf48537a772746b","null","null","<p style=""font-size: 60px; font-family: BACS"">rdLJakbu</p>","","","","","","","","",""
"html-keyboard-response","66","275375","0.0-7.0-0.59","58f50400f4ce600001016db5","64e77d7b61f440b60e28659d","64eca324faf48537a772746b","null","null","<p style=""font-size: 60px; font-family: BACS"">lcOcLkNc</p>","","","","","","","","",""
"html-keyboard-response","67","276376","0.0-7.0-0.60","58f50400f4ce600001016db5","64e77d7b61f440b60e28659d","64eca324faf48537a772746b","null","null","<p style=""font-size: 60px; font-family: BACS"">OAmAdEPBT</p>","","","","","","","","",""
"html-keyboard-response","68","277378","0.0-7.0-0.61","58f50400f4ce600001016db5","64e77d7b61f440b60e28659d","64eca324faf48537a772746b","null","null","<p style=""font-size: 60px; font-family: BACS"">kDRKctcB</p>","","","","","","","","",""
"html-keyboard-response","69","278379","0.0-7.0-0.62","58f50400f4ce600001016db5","64e77d7b61f440b60e28659d","64eca324faf48537a772746b","null","null","<p style=""font-size: 60px; font-family: BACS"">QcQAJrULv</p>","","","","","","","","",""
"html-keyboard-response","70","279380","0.0-7.0-0.63","58f50400f4ce600001016db5","64e77d7b61f440b60e28659d","64eca324faf48537a772746b","null","null","<p style=""font-size: 60px; font-family: BACS"">dTmEDYcM</p>","","","","","","","","",""
"html-keyboard-response","71","280382","0.0-7.0-0.64","58f50400f4ce600001016db5","64e77d7b61f440b60e28659d","64eca324faf48537a772746b","null","null","<p style=""font-size: 60px; font-family: BACS"">AlNUQGb</p>","","","","","","","","",""
"html-keyboard-response","72","281383","0.0-7.0-0.65","58f50400f4ce600001016db5","64e77d7b61f440b60e28659d","64eca324faf48537a772746b","null","null","<p style=""font-size: 60px; font-family: BACS"">KDPAtcB</p>","","","","","","","","",""
"html-keyboard-response","73","282383","0.0-7.0-0.66","58f50400f4ce600001016db5","64e77d7b61f440b60e28659d","64eca324faf48537a772746b","null","null","<p style=""font-size: 60px; font-family: BACS"">QcQAJLkNc</p>","","","","","","","","",""
"html-keyboard-response","74","283384","0.0-7.0-0.67","58f50400f4ce600001016db5","64e77d7b61f440b60e28659d","64eca324faf48537a772746b","null","null","<p style=""font-size: 60px; font-family: BACS"">vclYkbu</p>","","","","","","","","",""
"html-keyboard-response","75","284385","0.0-7.0-0.68","58f50400f4ce600001016db5","64e77d7b61f440b60e28659d","64eca324faf48537a772746b","null","null","<p style=""font-size: 60px; font-family: BACS"">cDOEBEPBT</p>","","","","","","","","",""
"html-keyboard-response","76","285392","0.0-7.0-0.69","58f50400f4ce600001016db5","64e77d7b61f440b60e28659d","64eca324faf48537a772746b","null","null","<p style=""font-size: 60px; font-family: BACS"">AmaclAvdk</p>","","","","","","","","",""
"html-keyboard-response","77","286399","0.0-7.0-0.70","58f50400f4ce600001016db5","64e77d7b61f440b60e28659d","64eca324faf48537a772746b","null","null","<p style=""font-size: 60px; font-family: BACS"">tmAKtcB</p>","","","","","","","","",""
"html-keyboard-response","78","287400","0.0-7.0-0.71","58f50400f4ce600001016db5","64e77d7b61f440b60e28659d","64eca324faf48537a772746b","null","null","<p style=""font-size: 60px; font-family: BACS"">KDPARCdc</p>","","","","","","","","",""
"html-keyboard-response","79","288401","0.0-7.0-0.72","58f50400f4ce600001016db5","64e77d7b61f440b60e28659d","64eca324faf48537a772746b","null","null","<p style=""font-size: 60px; font-family: BACS"">kDRKcEPBT</p>","","","","","","","","",""
"html-keyboard-response","80","289401","0.0-7.0-0.73","58f50400f4ce600001016db5","64e77d7b61f440b60e28659d","64eca324faf48537a772746b","null","null","<p style=""font-size: 60px; font-family: BACS"">AmaclrULv</p>","","","","","","","","",""
"html-keyboard-response","81","290403","0.0-7.0-0.74","58f50400f4ce600001016db5","64e77d7b61f440b60e28659d","64eca324faf48537a772746b","null","null","<p style=""font-size: 60px; font-family: BACS"">dKRDYcM</p>","","","","","","","","",""
"html-keyboard-response","82","291405","0.0-7.0-0.75","58f50400f4ce600001016db5","64e77d7b61f440b60e28659d","64eca324faf48537a772746b","null","null","<p style=""font-size: 60px; font-family: BACS"">CYPcRCdc</p>","","","","","","","","",""
"html-keyboard-response","83","292407","0.0-7.0-0.76","58f50400f4ce600001016db5","64e77d7b61f440b60e28659d","64eca324faf48537a772746b","null","null","<p style=""font-size: 60px; font-family: BACS"">vmuLlLkNc</p>","","","","","","","","",""
"html-keyboard-response","84","293407","0.0-7.0-0.77","58f50400f4ce600001016db5","64e77d7b61f440b60e28659d","64eca324faf48537a772746b","null","null","<p style=""font-size: 60px; font-family: BACS"">KABAkhMD</p>","","","","","","","","",""
"html-keyboard-response","85","294408","0.0-7.0-0.78","58f50400f4ce600001016db5","64e77d7b61f440b60e28659d","64eca324faf48537a772746b","null","null","<p style=""font-size: 60px; font-family: BACS"">vclYrULv</p>","","","","","","","","",""
"html-keyboard-response","86","295409","0.0-7.0-0.79","58f50400f4ce600001016db5","64e77d7b61f440b60e28659d","64eca324faf48537a772746b","null","null","<p style=""font-size: 60px; font-family: BACS"">dTmEDRCdc</p>","","","","","","","","",""
"html-keyboard-response","87","302160","0.0-8.0","58f50400f4ce600001016db5","64e77d7b61f440b60e28659d","64eca324faf48537a772746b","6750"," ","<p>Great, you've seen the first block of words. You may now take a short break.</p>
      <p>Press the spacebar when you're ready to continue.</p>","","","","","","","","",""
"html-keyboard-response","88","303162","0.0-9.0-0.0","58f50400f4ce600001016db5","64e77d7b61f440b60e28659d","64eca324faf48537a772746b","null","null","<p style=""font-size: 60px; font-family: BACS"">dKRDtcB</p>","","","","","","","","",""
"html-keyboard-response","89","304165","0.0-9.0-0.1","58f50400f4ce600001016db5","64e77d7b61f440b60e28659d","64eca324faf48537a772746b","null","null","<p style=""font-size: 60px; font-family: BACS"">AmaclAvdk</p>","","","","","","","","",""
"html-keyboard-response","90","305171","0.0-9.0-0.2","58f50400f4ce600001016db5","64e77d7b61f440b60e28659d","64eca324faf48537a772746b","null","null","<p style=""font-size: 60px; font-family: BACS"">OAmAdkhMD</p>","","","","","","","","",""
"html-keyboard-response","91","306172","0.0-9.0-0.3","58f50400f4ce600001016db5","64e77d7b61f440b60e28659d","64eca324faf48537a772746b","null","null","<p style=""font-size: 60px; font-family: BACS"">AmaclrULv</p>","","","","","","","","",""
"html-keyboard-response","92","307185","0.0-9.0-0.4","58f50400f4ce600001016db5","64e77d7b61f440b60e28659d","64eca324faf48537a772746b","null","null","<p style=""font-size: 60px; font-family: BACS"">UaZmaQGb</p>","","","","","","","","",""
"html-keyboard-response","93","308187","0.0-9.0-0.5","58f50400f4ce600001016db5","64e77d7b61f440b60e28659d","64eca324faf48537a772746b","null","null","<p style=""font-size: 60px; font-family: BACS"">KDPAEPBT</p>","","","","","","","","",""
"html-keyboard-response","94","309187","0.0-9.0-0.6","58f50400f4ce600001016db5","64e77d7b61f440b60e28659d","64eca324faf48537a772746b","null","null","<p style=""font-size: 60px; font-family: BACS"">vmuLlrULv</p>","","","","","","","","",""
"html-keyboard-response","95","310193","0.0-9.0-0.7","58f50400f4ce600001016db5","64e77d7b61f440b60e28659d","64eca324faf48537a772746b","null","null","<p style=""font-size: 60px; font-family: BACS"">AlNUQGb</p>","","","","","","","","",""
"html-keyboard-response","96","311195","0.0-9.0-0.8","58f50400f4ce600001016db5","64e77d7b61f440b60e28659d","64eca324faf48537a772746b","null","null","<p style=""font-size: 60px; font-family: BACS"">UaZmaLkNc</p>","","","","","","","","",""
"html-keyboard-response","97","312201","0.0-9.0-0.9","58f50400f4ce600001016db5","64e77d7b61f440b60e28659d","64eca324faf48537a772746b","null","null","<p style=""font-size: 60px; font-family: BACS"">CYPcRCdc</p>","","","","","","","","",""
"html-keyboard-response","98","313209","0.0-9.0-0.10","58f50400f4ce600001016db5","64e77d7b61f440b60e28659d","64eca324faf48537a772746b","null","null","<p style=""font-size: 60px; font-family: BACS"">cDOEBkhMD</p>","","","","","","","","",""
"html-keyboard-response","99","314211","0.0-9.0-0.11","58f50400f4ce600001016db5","64e77d7b61f440b60e28659d","64eca324faf48537a772746b","null","null","<p style=""font-size: 60px; font-family: BACS"">vclYLkNc</p>","","","","","","","","",""
"html-keyboard-response","100","315212","0.0-9.0-0.12","58f50400f4ce600001016db5","64e77d7b61f440b60e28659d","64eca324faf48537a772746b","null","null","<p style=""font-size: 60px; font-family: BACS"">BEPOtcB</p>","","","","","","","","",""
"html-keyboard-response","101","316213","0.0-9.0-0.13","58f50400f4ce600001016db5","64e77d7b61f440b60e28659d","64eca324faf48537a772746b","null","null","<p style=""font-size: 60px; font-family: BACS"">KDPAkhMD</p>","","","","","","","","",""
"html-keyboard-response","102","317215","0.0-9.0-0.14","58f50400f4ce600001016db5","64e77d7b61f440b60e28659d","64eca324faf48537a772746b","null","null","<p style=""font-size: 60px; font-family: BACS"">rdLJaQGb</p>","","","","","","","","",""
"html-keyboard-response","103","318216","0.0-9.0-0.15","58f50400f4ce600001016db5","64e77d7b61f440b60e28659d","64eca324faf48537a772746b","null","null","<p style=""font-size: 60px; font-family: BACS"">QcQAJLkNc</p>","","","","","","","","",""
"html-keyboard-response","104","319229","0.0-9.0-0.16","58f50400f4ce600001016db5","64e77d7b61f440b60e28659d","64eca324faf48537a772746b","null","null","<p style=""font-size: 60px; font-family: BACS"">CYPcEPBT</p>","","","","","","","","",""
"html-keyboard-response","105","320235","0.0-9.0-0.17","58f50400f4ce600001016db5","64e77d7b61f440b60e28659d","64eca324faf48537a772746b","null","null","<p style=""font-size: 60px; font-family: BACS"">AlNUAvdk</p>","","","","","","","","",""
"html-keyboard-response","106","321235","0.0-9.0-0.18","58f50400f4ce600001016db5","64e77d7b61f440b60e28659d","64eca324faf48537a772746b","null","null","<p style=""font-size: 60px; font-family: BACS"">rdLJakbu</p>","","","","","","","","",""
"html-keyboard-response","107","322237","0.0-9.0-0.19","58f50400f4ce600001016db5","64e77d7b61f440b60e28659d","64eca324faf48537a772746b","null","null","<p style=""font-size: 60px; font-family: BACS"">lcOcLkNc</p>","","","","","","","","",""
"html-keyboard-response","108","323237","0.0-9.0-0.20","58f50400f4ce600001016db5","64e77d7b61f440b60e28659d","64eca324faf48537a772746b","null","null","<p style=""font-size: 60px; font-family: BACS"">YQbcAvdk</p>","","","","","","","","",""
"html-keyboard-response","109","324238","0.0-9.0-0.21","58f50400f4ce600001016db5","64e77d7b61f440b60e28659d","64eca324faf48537a772746b","null","null","<p style=""font-size: 60px; font-family: BACS"">BEPORCdc</p>","","","","","","","","",""
"html-keyboard-response","110","325238","0.0-9.0-0.22","58f50400f4ce600001016db5","64e77d7b61f440b60e28659d","64eca324faf48537a772746b","null","null","<p style=""font-size: 60px; font-family: BACS"">Amaclkbu</p>","","","","","","","","",""
"html-keyboard-response","111","326240","0.0-9.0-0.23","58f50400f4ce600001016db5","64e77d7b61f440b60e28659d","64eca324faf48537a772746b","null","null","<p style=""font-size: 60px; font-family: BACS"">kDRKcYcM</p>","","","","","","","","",""
"html-keyboard-response","112","327253","0.0-9.0-0.24","58f50400f4ce600001016db5","64e77d7b61f440b60e28659d","64eca324faf48537a772746b","null","null","<p style=""font-size: 60px; font-family: BACS"">KDPAtcB</p>","","","","","","","","",""
"html-keyboard-response","113","328264","0.0-9.0-0.25","58f50400f4ce600001016db5","64e77d7b61f440b60e28659d","64eca324faf48537a772746b","null","null","<p style=""font-size: 60px; font-family: BACS"">cDOEBRCdc</p>","","","","","","","","",""
"html-keyboard-response","114","329268","0.0-9.0-0.26","58f50400f4ce600001016db5","64e77d7b61f440b60e28659d","64eca324faf48537a772746b","null","null","<p style=""font-size: 60px; font-family: BACS"">lcOcQGb</p>","","","","","","","","",""
"html-keyboard-response","115","330276","0.0-9.0-0.27","58f50400f4ce600001016db5","64e77d7b61f440b60e28659d","64eca324faf48537a772746b","null","null","<p style=""font-size: 60px; font-family: BACS"">tmAKRCdc</p>","","","","","","","","",""
"html-keyboard-response","116","331278","0.0-9.0-0.28","58f50400f4ce600001016db5","64e77d7b61f440b60e28659d","64eca324faf48537a772746b","null","null","<p style=""font-size: 60px; font-family: BACS"">KABAYcM</p>","","","","","","","","",""
"html-keyboard-response","117","332285","0.0-9.0-0.29","58f50400f4ce600001016db5","64e77d7b61f440b60e28659d","64eca324faf48537a772746b","null","null","<p style=""font-size: 60px; font-family: BACS"">KDPARCdc</p>","","","","","","","","",""
"html-keyboard-response","118","333286","0.0-9.0-0.30","58f50400f4ce600001016db5","64e77d7b61f440b60e28659d","64eca324faf48537a772746b","null","null","<p style=""font-size: 60px; font-family: BACS"">BEPOYcM</p>","","","","","","","","",""
"html-keyboard-response","119","334302","0.0-9.0-0.31","58f50400f4ce600001016db5","64e77d7b61f440b60e28659d","64eca324faf48537a772746b","null","null","<p style=""font-size: 60px; font-family: BACS"">vclYrULv</p>","","","","","","","","",""
"html-keyboard-response","120","335303","0.0-9.0-0.32","58f50400f4ce600001016db5","64e77d7b61f440b60e28659d","64eca324faf48537a772746b","null","null","<p style=""font-size: 60px; font-family: BACS"">dTmEDEPBT</p>","","","","","","","","",""
"html-keyboard-response","121","336305","0.0-9.0-0.33","58f50400f4ce600001016db5","64e77d7b61f440b60e28659d","64eca324faf48537a772746b","null","null","<p style=""font-size: 60px; font-family: BACS"">dKRDYcM</p>","","","","","","","","",""
"html-keyboard-response","122","337312","0.0-9.0-0.34","58f50400f4ce600001016db5","64e77d7b61f440b60e28659d","64eca324faf48537a772746b","null","null","<p style=""font-size: 60px; font-family: BACS"">AmaclQGb</p>","","","","","","","","",""
"html-keyboard-response","123","338313","0.0-9.0-0.35","58f50400f4ce600001016db5","64e77d7b61f440b60e28659d","64eca324faf48537a772746b","null","null","<p style=""font-size: 60px; font-family: BACS"">AlNUkbu</p>","","","","","","","","",""
"html-keyboard-response","124","339314","0.0-9.0-0.36","58f50400f4ce600001016db5","64e77d7b61f440b60e28659d","64eca324faf48537a772746b","null","null","<p style=""font-size: 60px; font-family: BACS"">QcQAJAvdk</p>","","","","","","","","",""
"html-keyboard-response","125","340315","0.0-9.0-0.37","58f50400f4ce600001016db5","64e77d7b61f440b60e28659d","64eca324faf48537a772746b","null","null","<p style=""font-size: 60px; font-family: BACS"">UaZmarULv</p>","","","","","","","","",""
"html-keyboard-response","126","341317","0.0-9.0-0.38","58f50400f4ce600001016db5","64e77d7b61f440b60e28659d","64eca324faf48537a772746b","null","null","<p style=""font-size: 60px; font-family: BACS"">lcOckbu</p>","","","","","","","","",""
"html-keyboard-response","127","342318","0.0-9.0-0.39","58f50400f4ce600001016db5","64e77d7b61f440b60e28659d","64eca324faf48537a772746b","null","null","<p style=""font-size: 60px; font-family: BACS"">dKRDEPBT</p>","","","","","","","","",""
"html-keyboard-response","128","343319","0.0-9.0-0.40","58f50400f4ce600001016db5","64e77d7b61f440b60e28659d","64eca324faf48537a772746b","null","null","<p style=""font-size: 60px; font-family: BACS"">dTmEDYcM</p>","","","","","","","","",""
"html-keyboard-response","129","344320","0.0-9.0-0.41","58f50400f4ce600001016db5","64e77d7b61f440b60e28659d","64eca324faf48537a772746b","null","null","<p style=""font-size: 60px; font-family: BACS"">YOZNrULv</p>","","","","","","","","",""
"html-keyboard-response","130","345322","0.0-9.0-0.42","58f50400f4ce600001016db5","64e77d7b61f440b60e28659d","64eca324faf48537a772746b","null","null","<p style=""font-size: 60px; font-family: BACS"">YQbcLkNc</p>","","","","","","","","",""
"html-keyboard-response","131","346323","0.0-9.0-0.43","58f50400f4ce600001016db5","64e77d7b61f440b60e28659d","64eca324faf48537a772746b","null","null","<p style=""font-size: 60px; font-family: BACS"">BEPOkhMD</p>","","","","","","","","",""
"html-keyboard-response","132","347323","0.0-9.0-0.44","58f50400f4ce600001016db5","64e77d7b61f440b60e28659d","64eca324faf48537a772746b","null","null","<p style=""font-size: 60px; font-family: BACS"">CYPctcB</p>","","","","","","","","",""
"html-keyboard-response","133","348325","0.0-9.0-0.45","58f50400f4ce600001016db5","64e77d7b61f440b60e28659d","64eca324faf48537a772746b","null","null","<p style=""font-size: 60px; font-family: BACS"">vclYkbu</p>","","","","","","","","",""
"html-keyboard-response","134","349325","0.0-9.0-0.46","58f50400f4ce600001016db5","64e77d7b61f440b60e28659d","64eca324faf48537a772746b","null","null","<p style=""font-size: 60px; font-family: BACS"">QcQAJQGb</p>","","","","","","","","",""
"html-keyboard-response","135","350337","0.0-9.0-0.47","58f50400f4ce600001016db5","64e77d7b61f440b60e28659d","64eca324faf48537a772746b","null","null","<p style=""font-size: 60px; font-family: BACS"">tmAKYcM</p>","","","","","","","","",""
"html-keyboard-response","136","351337","0.0-9.0-0.48","58f50400f4ce600001016db5","64e77d7b61f440b60e28659d","64eca324faf48537a772746b","null","null","<p style=""font-size: 60px; font-family: BACS"">vmuLlLkNc</p>","","","","","","","","",""
"html-keyboard-response","137","352338","0.0-9.0-0.49","58f50400f4ce600001016db5","64e77d7b61f440b60e28659d","64eca324faf48537a772746b","null","null","<p style=""font-size: 60px; font-family: BACS"">CYPcYcM</p>","","","","","","","","",""
"html-keyboard-response","138","353340","0.0-9.0-0.50","58f50400f4ce600001016db5","64e77d7b61f440b60e28659d","64eca324faf48537a772746b","null","null","<p style=""font-size: 60px; font-family: BACS"">OAmAdRCdc</p>","","","","","","","","",""
"html-keyboard-response","139","354341","0.0-9.0-0.51","58f50400f4ce600001016db5","64e77d7b61f440b60e28659d","64eca324faf48537a772746b","null","null","<p style=""font-size: 60px; font-family: BACS"">vclYQGb</p>","","","","","","","","",""
"html-keyboard-response","140","355345","0.0-9.0-0.52","58f50400f4ce600001016db5","64e77d7b61f440b60e28659d","64eca324faf48537a772746b","null","null","<p style=""font-size: 60px; font-family: BACS"">kDRKctcB</p>","","","","","","","","",""
"html-keyboard-response","141","356346","0.0-9.0-0.53","58f50400f4ce600001016db5","64e77d7b61f440b60e28659d","64eca324faf48537a772746b","null","null","<p style=""font-size: 60px; font-family: BACS"">OAmAdYcM</p>","","","","","","","","",""
"html-keyboard-response","142","357346","0.0-9.0-0.54","58f50400f4ce600001016db5","64e77d7b61f440b60e28659d","64eca324faf48537a772746b","null","null","<p style=""font-size: 60px; font-family: BACS"">YOZNkbu</p>","","","","","","","","",""
"html-keyboard-response","143","358355","0.0-9.0-0.55","58f50400f4ce600001016db5","64e77d7b61f440b60e28659d","64eca324faf48537a772746b","null","null","<p style=""font-size: 60px; font-family: BACS"">KABAtcB</p>","","","","","","","","",""
"html-keyboard-response","144","359357","0.0-9.0-0.56","58f50400f4ce600001016db5","64e77d7b61f440b60e28659d","64eca324faf48537a772746b","null","null","<p style=""font-size: 60px; font-family: BACS"">rdLJaLkNc</p>","","","","","","","","",""
"html-keyboard-response","145","360358","0.0-9.0-0.57","58f50400f4ce600001016db5","64e77d7b61f440b60e28659d","64eca324faf48537a772746b","null","null","<p style=""font-size: 60px; font-family: BACS"">vmuLlkbu</p>","","","","","","","","",""
"html-keyboard-response","146","361359","0.0-9.0-0.58","58f50400f4ce600001016db5","64e77d7b61f440b60e28659d","64eca324faf48537a772746b","null","null","<p style=""font-size: 60px; font-family: BACS"">YOZNAvdk</p>","","","","","","","","",""
"html-keyboard-response","147","362372","0.0-9.0-0.59","58f50400f4ce600001016db5","64e77d7b61f440b60e28659d","64eca324faf48537a772746b","null","null","<p style=""font-size: 60px; font-family: BACS"">cDOEBtcB</p>","","","","","","","","",""
"html-keyboard-response","148","363376","0.0-9.0-0.60","58f50400f4ce600001016db5","64e77d7b61f440b60e28659d","64eca324faf48537a772746b","null","null","<p style=""font-size: 60px; font-family: BACS"">rdLJaAvdk</p>","","","","","","","","",""
"html-keyboard-response","149","364377","0.0-9.0-0.61","58f50400f4ce600001016db5","64e77d7b61f440b60e28659d","64eca324faf48537a772746b","null","null","<p style=""font-size: 60px; font-family: BACS"">dTmEDkhMD</p>","","","","","","","","",""
"html-keyboard-response","150","365378","0.0-9.0-0.62","58f50400f4ce600001016db5","64e77d7b61f440b60e28659d","64eca324faf48537a772746b","null","null","<p style=""font-size: 60px; font-family: BACS"">KABAEPBT</p>","","","","","","","","",""
"html-keyboard-response","151","366392","0.0-9.0-0.63","58f50400f4ce600001016db5","64e77d7b61f440b60e28659d","64eca324faf48537a772746b","null","null","<p style=""font-size: 60px; font-family: BACS"">lcOcrULv</p>","","","","","","","","",""
"html-keyboard-response","152","367393","0.0-9.0-0.64","58f50400f4ce600001016db5","64e77d7b61f440b60e28659d","64eca324faf48537a772746b","null","null","<p style=""font-size: 60px; font-family: BACS"">kDRKcEPBT</p>","","","","","","","","",""
"html-keyboard-response","153","368395","0.0-9.0-0.65","58f50400f4ce600001016db5","64e77d7b61f440b60e28659d","64eca324faf48537a772746b","null","null","<p style=""font-size: 60px; font-family: BACS"">KABAkhMD</p>","","","","","","","","",""
"html-keyboard-response","154","369395","0.0-9.0-0.66","58f50400f4ce600001016db5","64e77d7b61f440b60e28659d","64eca324faf48537a772746b","null","null","<p style=""font-size: 60px; font-family: BACS"">dTmEDRCdc</p>","","","","","","","","",""
"html-keyboard-response","155","370409","0.0-9.0-0.67","58f50400f4ce600001016db5","64e77d7b61f440b60e28659d","64eca324faf48537a772746b","null","null","<p style=""font-size: 60px; font-family: BACS"">QcQAJrULv</p>","","","","","","","","",""
"html-keyboard-response","156","371410","0.0-9.0-0.68","58f50400f4ce600001016db5","64e77d7b61f440b60e28659d","64eca324faf48537a772746b","null","null","<p style=""font-size: 60px; font-family: BACS"">tmAKtcB</p>","","","","","","","","",""
"html-keyboard-response","157","372414","0.0-9.0-0.69","58f50400f4ce600001016db5","64e77d7b61f440b60e28659d","64eca324faf48537a772746b","null","null","<p style=""font-size: 60px; font-family: BACS"">dKRDkhMD</p>","","","","","","","","",""
"html-keyboard-response","158","373416","0.0-9.0-0.70","58f50400f4ce600001016db5","64e77d7b61f440b60e28659d","64eca324faf48537a772746b","null","null","<p style=""font-size: 60px; font-family: BACS"">YQbcQGb</p>","","","","","","","","",""
"html-keyboard-response","159","374418","0.0-9.0-0.71","58f50400f4ce600001016db5","64e77d7b61f440b60e28659d","64eca324faf48537a772746b","null","null","<p style=""font-size: 60px; font-family: BACS"">tmAKkhMD</p>","","","","","","","","",""
"html-keyboard-response","160","375419","0.0-9.0-0.72","58f50400f4ce600001016db5","64e77d7b61f440b60e28659d","64eca324faf48537a772746b","null","null","<p style=""font-size: 60px; font-family: BACS"">kDRKcRCdc</p>","","","","","","","","",""
"html-keyboard-response","161","376435","0.0-9.0-0.73","58f50400f4ce600001016db5","64e77d7b61f440b60e28659d","64eca324faf48537a772746b","null","null","<p style=""font-size: 60px; font-family: BACS"">cDOEBEPBT</p>","","","","","","","","",""
"html-keyboard-response","162","377435","0.0-9.0-0.74","58f50400f4ce600001016db5","64e77d7b61f440b60e28659d","64eca324faf48537a772746b","null","null","<p style=""font-size: 60px; font-family: BACS"">YQbckbu</p>","","","","","","","","",""
"html-keyboard-response","163","378437","0.0-9.0-0.75","58f50400f4ce600001016db5","64e77d7b61f440b60e28659d","64eca324faf48537a772746b","null","null","<p style=""font-size: 60px; font-family: BACS"">UaZmaAvdk</p>","","","","","","","","",""
"html-keyboard-response","164","379452","0.0-9.0-0.76","58f50400f4ce600001016db5","64e77d7b61f440b60e28659d","64eca324faf48537a772746b","null","null","<p style=""font-size: 60px; font-family: BACS"">AlNUrULv</p>","","","","","","","","",""
"html-keyboard-response","165","380454","0.0-9.0-0.77","58f50400f4ce600001016db5","64e77d7b61f440b60e28659d","64eca324faf48537a772746b","null","null","<p style=""font-size: 60px; font-family: BACS"">YOZNLkNc</p>","","","","","","","","",""
"html-keyboard-response","166","381456","0.0-9.0-0.78","58f50400f4ce600001016db5","64e77d7b61f440b60e28659d","64eca324faf48537a772746b","null","null","<p style=""font-size: 60px; font-family: BACS"">vmuLlAvdk</p>","","","","","","","","",""
"html-keyboard-response","167","382457","0.0-9.0-0.79","58f50400f4ce600001016db5","64e77d7b61f440b60e28659d","64eca324faf48537a772746b","null","null","<p style=""font-size: 60px; font-family: BACS"">OAmAdEPBT</p>","","","","","","","","",""
"html-keyboard-response","168","389141","0.0-10.0","58f50400f4ce600001016db5","64e77d7b61f440b60e28659d","64eca324faf48537a772746b","6684"," ","<p>Great, you've seen the second block of words. You may now take a short break.</p>
      <p>Press the spacebar when you're ready to continue.</p>","","","","","","","","",""
"html-keyboard-response","169","390146","0.0-11.0-0.0","58f50400f4ce600001016db5","64e77d7b61f440b60e28659d","64eca324faf48537a772746b","null","null","<p style=""font-size: 60px; font-family: BACS"">KABAYcM</p>","","","","","","","","",""
"html-keyboard-response","170","391147","0.0-11.0-0.1","58f50400f4ce600001016db5","64e77d7b61f440b60e28659d","64eca324faf48537a772746b","null","null","<p style=""font-size: 60px; font-family: BACS"">KDPAEPBT</p>","","","","","","","","",""
"html-keyboard-response","171","392158","0.0-11.0-0.2","58f50400f4ce600001016db5","64e77d7b61f440b60e28659d","64eca324faf48537a772746b","null","null","<p style=""font-size: 60px; font-family: BACS"">vclYLkNc</p>","","","","","","","","",""
"html-keyboard-response","172","393159","0.0-11.0-0.3","58f50400f4ce600001016db5","64e77d7b61f440b60e28659d","64eca324faf48537a772746b","null","null","<p style=""font-size: 60px; font-family: BACS"">kDRKcEPBT</p>","","","","","","","","",""
"html-keyboard-response","173","394172","0.0-11.0-0.4","58f50400f4ce600001016db5","64e77d7b61f440b60e28659d","64eca324faf48537a772746b","null","null","<p style=""font-size: 60px; font-family: BACS"">KABAtcB</p>","","","","","","","","",""
"html-keyboard-response","174","395186","0.0-11.0-0.5","58f50400f4ce600001016db5","64e77d7b61f440b60e28659d","64eca324faf48537a772746b","null","null","<p style=""font-size: 60px; font-family: BACS"">BEPOYcM</p>","","","","","","","","",""
"html-keyboard-response","175","396187","0.0-11.0-0.6","58f50400f4ce600001016db5","64e77d7b61f440b60e28659d","64eca324faf48537a772746b","null","null","<p style=""font-size: 60px; font-family: BACS"">AlNUAvdk</p>","","","","","","","","",""
"html-keyboard-response","176","397189","0.0-11.0-0.7","58f50400f4ce600001016db5","64e77d7b61f440b60e28659d","64eca324faf48537a772746b","null","null","<p style=""font-size: 60px; font-family: BACS"">tmAKtcB</p>","","","","","","","","",""
"html-keyboard-response","177","398190","0.0-11.0-0.8","58f50400f4ce600001016db5","64e77d7b61f440b60e28659d","64eca324faf48537a772746b","null","null","<p style=""font-size: 60px; font-family: BACS"">KDPAkhMD</p>","","","","","","","","",""
"html-keyboard-response","178","399191","0.0-11.0-0.9","58f50400f4ce600001016db5","64e77d7b61f440b60e28659d","64eca324faf48537a772746b","null","null","<p style=""font-size: 60px; font-family: BACS"">QcQAJAvdk</p>","","","","","","","","",""
"html-keyboard-response","179","400202","0.0-11.0-0.10","58f50400f4ce600001016db5","64e77d7b61f440b60e28659d","64eca324faf48537a772746b","null","null","<p style=""font-size: 60px; font-family: BACS"">dTmEDRCdc</p>","","","","","","","","",""
"html-keyboard-response","180","401203","0.0-11.0-0.11","58f50400f4ce600001016db5","64e77d7b61f440b60e28659d","64eca324faf48537a772746b","null","null","<p style=""font-size: 60px; font-family: BACS"">KDPAtcB</p>","","","","","","","","",""
"html-keyboard-response","181","402204","0.0-11.0-0.12","58f50400f4ce600001016db5","64e77d7b61f440b60e28659d","64eca324faf48537a772746b","null","null","<p style=""font-size: 60px; font-family: BACS"">dTmEDEPBT</p>","","","","","","","","",""
"html-keyboard-response","182","403208","0.0-11.0-0.13","58f50400f4ce600001016db5","64e77d7b61f440b60e28659d","64eca324faf48537a772746b","null","null","<p style=""font-size: 60px; font-family: BACS"">KABAkhMD</p>","","","","","","","","",""
"html-keyboard-response","183","404208","0.0-11.0-0.14","58f50400f4ce600001016db5","64e77d7b61f440b60e28659d","64eca324faf48537a772746b","null","null","<p style=""font-size: 60px; font-family: BACS"">lcOcQGb</p>","","","","","","","","",""
"html-keyboard-response","184","405210","0.0-11.0-0.15","58f50400f4ce600001016db5","64e77d7b61f440b60e28659d","64eca324faf48537a772746b","null","null","<p style=""font-size: 60px; font-family: BACS"">YQbckbu</p>","","","","","","","","",""
"html-keyboard-response","185","406210","0.0-11.0-0.16","58f50400f4ce600001016db5","64e77d7b61f440b60e28659d","64eca324faf48537a772746b","null","null","<p style=""font-size: 60px; font-family: BACS"">dKRDEPBT</p>","","","","","","","","",""
"html-keyboard-response","186","407211","0.0-11.0-0.17","58f50400f4ce600001016db5","64e77d7b61f440b60e28659d","64eca324faf48537a772746b","null","null","<p style=""font-size: 60px; font-family: BACS"">AmaclQGb</p>","","","","","","","","",""
"html-keyboard-response","187","408220","0.0-11.0-0.18","58f50400f4ce600001016db5","64e77d7b61f440b60e28659d","64eca324faf48537a772746b","null","null","<p style=""font-size: 60px; font-family: BACS"">YQbcLkNc</p>","","","","","","","","",""
"html-keyboard-response","188","409226","0.0-11.0-0.19","58f50400f4ce600001016db5","64e77d7b61f440b60e28659d","64eca324faf48537a772746b","null","null","<p style=""font-size: 60px; font-family: BACS"">dKRDtcB</p>","","","","","","","","",""
"html-keyboard-response","189","410227","0.0-11.0-0.20","58f50400f4ce600001016db5","64e77d7b61f440b60e28659d","64eca324faf48537a772746b","null","null","<p style=""font-size: 60px; font-family: BACS"">AlNUkbu</p>","","","","","","","","",""
"html-keyboard-response","190","411228","0.0-11.0-0.21","58f50400f4ce600001016db5","64e77d7b61f440b60e28659d","64eca324faf48537a772746b","null","null","<p style=""font-size: 60px; font-family: BACS"">rdLJaAvdk</p>","","","","","","","","",""
"html-keyboard-response","191","412229","0.0-11.0-0.22","58f50400f4ce600001016db5","64e77d7b61f440b60e28659d","64eca324faf48537a772746b","null","null","<p style=""font-size: 60px; font-family: BACS"">vclYQGb</p>","","","","","","","","",""
"html-keyboard-response","192","413229","0.0-11.0-0.23","58f50400f4ce600001016db5","64e77d7b61f440b60e28659d","64eca324faf48537a772746b","null","null","<p style=""font-size: 60px; font-family: BACS"">BEPORCdc</p>","","","","","","","","",""
"html-keyboard-response","193","414231","0.0-11.0-0.24","58f50400f4ce600001016db5","64e77d7b61f440b60e28659d","64eca324faf48537a772746b","null","null","<p style=""font-size: 60px; font-family: BACS"">cDOEBtcB</p>","","","","","","","","",""
"html-keyboard-response","194","415231","0.0-11.0-0.25","58f50400f4ce600001016db5","64e77d7b61f440b60e28659d","64eca324faf48537a772746b","null","null","<p style=""font-size: 60px; font-family: BACS"">AmaclrULv</p>","","","","","","","","",""
"html-keyboard-response","195","416233","0.0-11.0-0.26","58f50400f4ce600001016db5","64e77d7b61f440b60e28659d","64eca324faf48537a772746b","null","null","<p style=""font-size: 60px; font-family: BACS"">kDRKctcB</p>","","","","","","","","",""
"html-keyboard-response","196","417234","0.0-11.0-0.27","58f50400f4ce600001016db5","64e77d7b61f440b60e28659d","64eca324faf48537a772746b","null","null","<p style=""font-size: 60px; font-family: BACS"">cDOEBEPBT</p>","","","","","","","","",""
"html-keyboard-response","197","418234","0.0-11.0-0.28","58f50400f4ce600001016db5","64e77d7b61f440b60e28659d","64eca324faf48537a772746b","null","null","<p style=""font-size: 60px; font-family: BACS"">YOZNLkNc</p>","","","","","","","","",""
"html-keyboard-response","198","419236","0.0-11.0-0.29","58f50400f4ce600001016db5","64e77d7b61f440b60e28659d","64eca324faf48537a772746b","null","null","<p style=""font-size: 60px; font-family: BACS"">BEPOtcB</p>","","","","","","","","",""
"html-keyboard-response","199","420237","0.0-11.0-0.30","58f50400f4ce600001016db5","64e77d7b61f440b60e28659d","64eca324faf48537a772746b","null","null","<p style=""font-size: 60px; font-family: BACS"">cDOEBRCdc</p>","","","","","","","","",""
"html-keyboard-response","200","421238","0.0-11.0-0.31","58f50400f4ce600001016db5","64e77d7b61f440b60e28659d","64eca324faf48537a772746b","null","null","<p style=""font-size: 60px; font-family: BACS"">YQbcAvdk</p>","","","","","","","","",""
"html-keyboard-response","201","422238","0.0-11.0-0.32","58f50400f4ce600001016db5","64e77d7b61f440b60e28659d","64eca324faf48537a772746b","null","null","<p style=""font-size: 60px; font-family: BACS"">dTmEDYcM</p>","","","","","","","","",""
"html-keyboard-response","202","423240","0.0-11.0-0.33","58f50400f4ce600001016db5","64e77d7b61f440b60e28659d","64eca324faf48537a772746b","null","null","<p style=""font-size: 60px; font-family: BACS"">UaZmarULv</p>","","","","","","","","",""
"html-keyboard-response","203","424253","0.0-11.0-0.34","58f50400f4ce600001016db5","64e77d7b61f440b60e28659d","64eca324faf48537a772746b","null","null","<p style=""font-size: 60px; font-family: BACS"">lcOcLkNc</p>","","","","","","","","",""
"html-keyboard-response","204","425254","0.0-11.0-0.35","58f50400f4ce600001016db5","64e77d7b61f440b60e28659d","64eca324faf48537a772746b","null","null","<p style=""font-size: 60px; font-family: BACS"">vclYrULv</p>","","","","","","","","",""
"html-keyboard-response","205","426263","0.0-11.0-0.36","58f50400f4ce600001016db5","64e77d7b61f440b60e28659d","64eca324faf48537a772746b","null","null","<p style=""font-size: 60px; font-family: BACS"">QcQAJQGb</p>","","","","","","","","",""
"html-keyboard-response","206","427264","0.0-11.0-0.37","58f50400f4ce600001016db5","64e77d7b61f440b60e28659d","64eca324faf48537a772746b","null","null","<p style=""font-size: 60px; font-family: BACS"">tmAKYcM</p>","","","","","","","","",""
"html-keyboard-response","207","428265","0.0-11.0-0.38","58f50400f4ce600001016db5","64e77d7b61f440b60e28659d","64eca324faf48537a772746b","null","null","<p style=""font-size: 60px; font-family: BACS"">rdLJakbu</p>","","","","","","","","",""
"html-keyboard-response","208","429275","0.0-11.0-0.39","58f50400f4ce600001016db5","64e77d7b61f440b60e28659d","64eca324faf48537a772746b","null","null","<p style=""font-size: 60px; font-family: BACS"">vmuLlLkNc</p>","","","","","","","","",""
"html-keyboard-response","209","430276","0.0-11.0-0.40","58f50400f4ce600001016db5","64e77d7b61f440b60e28659d","64eca324faf48537a772746b","null","null","<p style=""font-size: 60px; font-family: BACS"">dKRDYcM</p>","","","","","","","","",""
"html-keyboard-response","210","431284","0.0-11.0-0.41","58f50400f4ce600001016db5","64e77d7b61f440b60e28659d","64eca324faf48537a772746b","null","null","<p style=""font-size: 60px; font-family: BACS"">KDPARCdc</p>","","","","","","","","",""
"html-keyboard-response","211","432285","0.0-11.0-0.42","58f50400f4ce600001016db5","64e77d7b61f440b60e28659d","64eca324faf48537a772746b","null","null","<p style=""font-size: 60px; font-family: BACS"">YOZNrULv</p>","","","","","","","","",""
"html-keyboard-response","212","433285","0.0-11.0-0.43","58f50400f4ce600001016db5","64e77d7b61f440b60e28659d","64eca324faf48537a772746b","null","null","<p style=""font-size: 60px; font-family: BACS"">dKRDkhMD</p>","","","","","","","","",""
"html-keyboard-response","213","434290","0.0-11.0-0.44","58f50400f4ce600001016db5","64e77d7b61f440b60e28659d","64eca324faf48537a772746b","null","null","<p style=""font-size: 60px; font-family: BACS"">AlNUrULv</p>","","","","","","","","",""
"html-keyboard-response","214","435302","0.0-11.0-0.45","58f50400f4ce600001016db5","64e77d7b61f440b60e28659d","64eca324faf48537a772746b","null","null","<p style=""font-size: 60px; font-family: BACS"">AmaclAvdk</p>","","","","","","","","",""
"html-keyboard-response","215","436303","0.0-11.0-0.46","58f50400f4ce600001016db5","64e77d7b61f440b60e28659d","64eca324faf48537a772746b","null","null","<p style=""font-size: 60px; font-family: BACS"">kDRKcRCdc</p>","","","","","","","","",""
"html-keyboard-response","216","437318","0.0-11.0-0.47","58f50400f4ce600001016db5","64e77d7b61f440b60e28659d","64eca324faf48537a772746b","null","null","<p style=""font-size: 60px; font-family: BACS"">CYPctcB</p>","","","","","","","","",""
"html-keyboard-response","217","438319","0.0-11.0-0.48","58f50400f4ce600001016db5","64e77d7b61f440b60e28659d","64eca324faf48537a772746b","null","null","<p style=""font-size: 60px; font-family: BACS"">YOZNkbu</p>","","","","","","","","",""
"html-keyboard-response","218","439321","0.0-11.0-0.49","58f50400f4ce600001016db5","64e77d7b61f440b60e28659d","64eca324faf48537a772746b","null","null","<p style=""font-size: 60px; font-family: BACS"">UaZmaLkNc</p>","","","","","","","","",""
"html-keyboard-response","219","440322","0.0-11.0-0.50","58f50400f4ce600001016db5","64e77d7b61f440b60e28659d","64eca324faf48537a772746b","null","null","<p style=""font-size: 60px; font-family: BACS"">dTmEDkhMD</p>","","","","","","","","",""
"html-keyboard-response","220","441330","0.0-11.0-0.51","58f50400f4ce600001016db5","64e77d7b61f440b60e28659d","64eca324faf48537a772746b","null","null","<p style=""font-size: 60px; font-family: BACS"">QcQAJrULv</p>","","","","","","","","",""
"html-keyboard-response","221","442346","0.0-11.0-0.52","58f50400f4ce600001016db5","64e77d7b61f440b60e28659d","64eca324faf48537a772746b","null","null","<p style=""font-size: 60px; font-family: BACS"">vclYkbu</p>","","","","","","","","",""
"html-keyboard-response","222","443346","0.0-11.0-0.53","58f50400f4ce600001016db5","64e77d7b61f440b60e28659d","64eca324faf48537a772746b","null","null","<p style=""font-size: 60px; font-family: BACS"">kDRKcYcM</p>","","","","","","","","",""
"html-keyboard-response","223","444348","0.0-11.0-0.54","58f50400f4ce600001016db5","64e77d7b61f440b60e28659d","64eca324faf48537a772746b","null","null","<p style=""font-size: 60px; font-family: BACS"">vmuLlAvdk</p>","","","","","","","","",""
"html-keyboard-response","224","445350","0.0-11.0-0.55","58f50400f4ce600001016db5","64e77d7b61f440b60e28659d","64eca324faf48537a772746b","null","null","<p style=""font-size: 60px; font-family: BACS"">lcOcrULv</p>","","","","","","","","",""
"html-keyboard-response","225","446360","0.0-11.0-0.56","58f50400f4ce600001016db5","64e77d7b61f440b60e28659d","64eca324faf48537a772746b","null","null","<p style=""font-size: 60px; font-family: BACS"">Amaclkbu</p>","","","","","","","","",""
"html-keyboard-response","226","447362","0.0-11.0-0.57","58f50400f4ce600001016db5","64e77d7b61f440b60e28659d","64eca324faf48537a772746b","null","null","<p style=""font-size: 60px; font-family: BACS"">CYPcEPBT</p>","","","","","","","","",""
"html-keyboard-response","227","448362","0.0-11.0-0.58","58f50400f4ce600001016db5","64e77d7b61f440b60e28659d","64eca324faf48537a772746b","null","null","<p style=""font-size: 60px; font-family: BACS"">BEPOkhMD</p>","","","","","","","","",""
"html-keyboard-response","228","449362","0.0-11.0-0.59","58f50400f4ce600001016db5","64e77d7b61f440b60e28659d","64eca324faf48537a772746b","null","null","<p style=""font-size: 60px; font-family: BACS"">AlNUQGb</p>","","","","","","","","",""
"html-keyboard-response","229","450363","0.0-11.0-0.60","58f50400f4ce600001016db5","64e77d7b61f440b60e28659d","64eca324faf48537a772746b","null","null","<p style=""font-size: 60px; font-family: BACS"">vmuLlrULv</p>","","","","","","","","",""
"html-keyboard-response","230","451364","0.0-11.0-0.61","58f50400f4ce600001016db5","64e77d7b61f440b60e28659d","64eca324faf48537a772746b","null","null","<p style=""font-size: 60px; font-family: BACS"">CYPcYcM</p>","","","","","","","","",""
"html-keyboard-response","231","452365","0.0-11.0-0.62","58f50400f4ce600001016db5","64e77d7b61f440b60e28659d","64eca324faf48537a772746b","null","null","<p style=""font-size: 60px; font-family: BACS"">rdLJaLkNc</p>","","","","","","","","",""
"html-keyboard-response","232","453370","0.0-11.0-0.63","58f50400f4ce600001016db5","64e77d7b61f440b60e28659d","64eca324faf48537a772746b","null","null","<p style=""font-size: 60px; font-family: BACS"">vmuLlkbu</p>","","","","","","","","",""
"html-keyboard-response","233","454371","0.0-11.0-0.64","58f50400f4ce600001016db5","64e77d7b61f440b60e28659d","64eca324faf48537a772746b","null","null","<p style=""font-size: 60px; font-family: BACS"">UaZmaQGb</p>","","","","","","","","",""
"html-keyboard-response","234","455372","0.0-11.0-0.65","58f50400f4ce600001016db5","64e77d7b61f440b60e28659d","64eca324faf48537a772746b","null","null","<p style=""font-size: 60px; font-family: BACS"">OAmAdRCdc</p>","","","","","","","","",""
"html-keyboard-response","235","456373","0.0-11.0-0.66","58f50400f4ce600001016db5","64e77d7b61f440b60e28659d","64eca324faf48537a772746b","null","null","<p style=""font-size: 60px; font-family: BACS"">lcOckbu</p>","","","","","","","","",""
"html-keyboard-response","236","457374","0.0-11.0-0.67","58f50400f4ce600001016db5","64e77d7b61f440b60e28659d","64eca324faf48537a772746b","null","null","<p style=""font-size: 60px; font-family: BACS"">cDOEBkhMD</p>","","","","","","","","",""
"html-keyboard-response","237","458376","0.0-11.0-0.68","58f50400f4ce600001016db5","64e77d7b61f440b60e28659d","64eca324faf48537a772746b","null","null","<p style=""font-size: 60px; font-family: BACS"">OAmAdYcM</p>","","","","","","","","",""
"html-keyboard-response","238","459377","0.0-11.0-0.69","58f50400f4ce600001016db5","64e77d7b61f440b60e28659d","64eca324faf48537a772746b","null","null","<p style=""font-size: 60px; font-family: BACS"">rdLJaQGb</p>","","","","","","","","",""
"html-keyboard-response","239","460378","0.0-11.0-0.70","58f50400f4ce600001016db5","64e77d7b61f440b60e28659d","64eca324faf48537a772746b","null","null","<p style=""font-size: 60px; font-family: BACS"">YOZNAvdk</p>","","","","","","","","",""
"html-keyboard-response","240","461380","0.0-11.0-0.71","58f50400f4ce600001016db5","64e77d7b61f440b60e28659d","64eca324faf48537a772746b","null","null","<p style=""font-size: 60px; font-family: BACS"">KABAEPBT</p>","","","","","","","","",""
"html-keyboard-response","241","462381","0.0-11.0-0.72","58f50400f4ce600001016db5","64e77d7b61f440b60e28659d","64eca324faf48537a772746b","null","null","<p style=""font-size: 60px; font-family: BACS"">tmAKRCdc</p>","","","","","","","","",""
"html-keyboard-response","242","463382","0.0-11.0-0.73","58f50400f4ce600001016db5","64e77d7b61f440b60e28659d","64eca324faf48537a772746b","null","null","<p style=""font-size: 60px; font-family: BACS"">YQbcQGb</p>","","","","","","","","",""
"html-keyboard-response","243","464394","0.0-11.0-0.74","58f50400f4ce600001016db5","64e77d7b61f440b60e28659d","64eca324faf48537a772746b","null","null","<p style=""font-size: 60px; font-family: BACS"">OAmAdkhMD</p>","","","","","","","","",""
"html-keyboard-response","244","465402","0.0-11.0-0.75","58f50400f4ce600001016db5","64e77d7b61f440b60e28659d","64eca324faf48537a772746b","null","null","<p style=""font-size: 60px; font-family: BACS"">QcQAJLkNc</p>","","","","","","","","",""
"html-keyboard-response","245","466404","0.0-11.0-0.76","58f50400f4ce600001016db5","64e77d7b61f440b60e28659d","64eca324faf48537a772746b","null","null","<p style=""font-size: 60px; font-family: BACS"">CYPcRCdc</p>","","","","","","","","",""
"html-keyboard-response","246","467404","0.0-11.0-0.77","58f50400f4ce600001016db5","64e77d7b61f440b60e28659d","64eca324faf48537a772746b","null","null","<p style=""font-size: 60px; font-family: BACS"">tmAKkhMD</p>","","","","","","","","",""
"html-keyboard-response","247","468405","0.0-11.0-0.78","58f50400f4ce600001016db5","64e77d7b61f440b60e28659d","64eca324faf48537a772746b","null","null","<p style=""font-size: 60px; font-family: BACS"">OAmAdEPBT</p>","","","","","","","","",""
"html-keyboard-response","248","469405","0.0-11.0-0.79","58f50400f4ce600001016db5","64e77d7b61f440b60e28659d","64eca324faf48537a772746b","null","null","<p style=""font-size: 60px; font-family: BACS"">UaZmaAvdk</p>","","","","","","","","",""
"html-keyboard-response","249","474458","0.0-12.0","58f50400f4ce600001016db5","64e77d7b61f440b60e28659d","64eca324faf48537a772746b","5052"," ","<p>Great, you've seen the third block of words. You may now take a short break.</p>
      <p>Press the spacebar when you're ready to continue.</p>","","","","","","","","",""
"html-keyboard-response","250","475465","0.0-13.0-0.0","58f50400f4ce600001016db5","64e77d7b61f440b60e28659d","64eca324faf48537a772746b","null","null","<p style=""font-size: 60px; font-family: BACS"">Amaclkbu</p>","","","","","","","","",""
"html-keyboard-response","251","476473","0.0-13.0-0.1","58f50400f4ce600001016db5","64e77d7b61f440b60e28659d","64eca324faf48537a772746b","null","null","<p style=""font-size: 60px; font-family: BACS"">tmAKRCdc</p>","","","","","","","","",""
"html-keyboard-response","252","477476","0.0-13.0-0.2","58f50400f4ce600001016db5","64e77d7b61f440b60e28659d","64eca324faf48537a772746b","null","null","<p style=""font-size: 60px; font-family: BACS"">vclYLkNc</p>","","","","","","","","",""
"html-keyboard-response","253","478477","0.0-13.0-0.3","58f50400f4ce600001016db5","64e77d7b61f440b60e28659d","64eca324faf48537a772746b","null","null","<p style=""font-size: 60px; font-family: BACS"">YOZNkbu</p>","","","","","","","","",""
"html-keyboard-response","254","479488","0.0-13.0-0.4","58f50400f4ce600001016db5","64e77d7b61f440b60e28659d","64eca324faf48537a772746b","null","null","<p style=""font-size: 60px; font-family: BACS"">BEPOkhMD</p>","","","","","","","","",""
"html-keyboard-response","255","480496","0.0-13.0-0.5","58f50400f4ce600001016db5","64e77d7b61f440b60e28659d","64eca324faf48537a772746b","null","null","<p style=""font-size: 60px; font-family: BACS"">kDRKcEPBT</p>","","","","","","","","",""
"html-keyboard-response","256","481500","0.0-13.0-0.6","58f50400f4ce600001016db5","64e77d7b61f440b60e28659d","64eca324faf48537a772746b","null","null","<p style=""font-size: 60px; font-family: BACS"">lcOcQGb</p>","","","","","","","","",""
"html-keyboard-response","257","482502","0.0-13.0-0.7","58f50400f4ce600001016db5","64e77d7b61f440b60e28659d","64eca324faf48537a772746b","null","null","<p style=""font-size: 60px; font-family: BACS"">KABAYcM</p>","","","","","","","","",""
"html-keyboard-response","258","483503","0.0-13.0-0.8","58f50400f4ce600001016db5","64e77d7b61f440b60e28659d","64eca324faf48537a772746b","null","null","<p style=""font-size: 60px; font-family: BACS"">QcQAJAvdk</p>","","","","","","","","",""
"html-keyboard-response","259","484504","0.0-13.0-0.9","58f50400f4ce600001016db5","64e77d7b61f440b60e28659d","64eca324faf48537a772746b","null","null","<p style=""font-size: 60px; font-family: BACS"">AlNUQGb</p>","","","","","","","","",""
"html-keyboard-response","260","485505","0.0-13.0-0.10","58f50400f4ce600001016db5","64e77d7b61f440b60e28659d","64eca324faf48537a772746b","null","null","<p style=""font-size: 60px; font-family: BACS"">cDOEBkhMD</p>","","","","","","","","",""
"html-keyboard-response","261","486506","0.0-13.0-0.11","58f50400f4ce600001016db5","64e77d7b61f440b60e28659d","64eca324faf48537a772746b","null","null","<p style=""font-size: 60px; font-family: BACS"">lcOckbu</p>","","","","","","","","",""
"html-keyboard-response","262","487507","0.0-13.0-0.12","58f50400f4ce600001016db5","64e77d7b61f440b60e28659d","64eca324faf48537a772746b","null","null","<p style=""font-size: 60px; font-family: BACS"">OAmAdYcM</p>","","","","","","","","",""
"html-keyboard-response","263","488510","0.0-13.0-0.13","58f50400f4ce600001016db5","64e77d7b61f440b60e28659d","64eca324faf48537a772746b","null","null","<p style=""font-size: 60px; font-family: BACS"">UaZmaAvdk</p>","","","","","","","","",""
"html-keyboard-response","264","489511","0.0-13.0-0.14","58f50400f4ce600001016db5","64e77d7b61f440b60e28659d","64eca324faf48537a772746b","null","null","<p style=""font-size: 60px; font-family: BACS"">dKRDkhMD</p>","","","","","","","","",""
"html-keyboard-response","265","490512","0.0-13.0-0.15","58f50400f4ce600001016db5","64e77d7b61f440b60e28659d","64eca324faf48537a772746b","null","null","<p style=""font-size: 60px; font-family: BACS"">vmuLlLkNc</p>","","","","","","","","",""
"html-keyboard-response","266","491515","0.0-13.0-0.16","58f50400f4ce600001016db5","64e77d7b61f440b60e28659d","64eca324faf48537a772746b","null","null","<p style=""font-size: 60px; font-family: BACS"">UaZmarULv</p>","","","","","","","","",""
"html-keyboard-response","267","492525","0.0-13.0-0.17","58f50400f4ce600001016db5","64e77d7b61f440b60e28659d","64eca324faf48537a772746b","null","null","<p style=""font-size: 60px; font-family: BACS"">YQbckbu</p>","","","","","","","","",""
"html-keyboard-response","268","493540","0.0-13.0-0.18","58f50400f4ce600001016db5","64e77d7b61f440b60e28659d","64eca324faf48537a772746b","null","null","<p style=""font-size: 60px; font-family: BACS"">AmaclQGb</p>","","","","","","","","",""
"html-keyboard-response","269","494551","0.0-13.0-0.19","58f50400f4ce600001016db5","64e77d7b61f440b60e28659d","64eca324faf48537a772746b","null","null","<p style=""font-size: 60px; font-family: BACS"">vmuLlrULv</p>","","","","","","","","",""
"html-keyboard-response","270","495554","0.0-13.0-0.20","58f50400f4ce600001016db5","64e77d7b61f440b60e28659d","64eca324faf48537a772746b","null","null","<p style=""font-size: 60px; font-family: BACS"">cDOEBEPBT</p>","","","","","","","","",""
"html-keyboard-response","271","496556","0.0-13.0-0.21","58f50400f4ce600001016db5","64e77d7b61f440b60e28659d","64eca324faf48537a772746b","null","null","<p style=""font-size: 60px; font-family: BACS"">CYPcYcM</p>","","","","","","","","",""
"html-keyboard-response","272","497566","0.0-13.0-0.22","58f50400f4ce600001016db5","64e77d7b61f440b60e28659d","64eca324faf48537a772746b","null","null","<p style=""font-size: 60px; font-family: BACS"">YQbcAvdk</p>","","","","","","","","",""
"html-keyboard-response","273","498572","0.0-13.0-0.23","58f50400f4ce600001016db5","64e77d7b61f440b60e28659d","64eca324faf48537a772746b","null","null","<p style=""font-size: 60px; font-family: BACS"">QcQAJrULv</p>","","","","","","","","",""
"html-keyboard-response","274","499584","0.0-13.0-0.24","58f50400f4ce600001016db5","64e77d7b61f440b60e28659d","64eca324faf48537a772746b","null","null","<p style=""font-size: 60px; font-family: BACS"">UaZmaQGb</p>","","","","","","","","",""
"html-keyboard-response","275","500593","0.0-13.0-0.25","58f50400f4ce600001016db5","64e77d7b61f440b60e28659d","64eca324faf48537a772746b","null","null","<p style=""font-size: 60px; font-family: BACS"">vmuLlkbu</p>","","","","","","","","",""
"html-keyboard-response","276","501603","0.0-13.0-0.26","58f50400f4ce600001016db5","64e77d7b61f440b60e28659d","64eca324faf48537a772746b","null","null","<p style=""font-size: 60px; font-family: BACS"">YQbcLkNc</p>","","","","","","","","",""
"html-keyboard-response","277","502613","0.0-13.0-0.27","58f50400f4ce600001016db5","64e77d7b61f440b60e28659d","64eca324faf48537a772746b","null","null","<p style=""font-size: 60px; font-family: BACS"">CYPcEPBT</p>","","","","","","","","",""
"html-keyboard-response","278","503628","0.0-13.0-0.28","58f50400f4ce600001016db5","64e77d7b61f440b60e28659d","64eca324faf48537a772746b","null","null","<p style=""font-size: 60px; font-family: BACS"">QcQAJQGb</p>","","","","","","","","",""
"html-keyboard-response","279","504631","0.0-13.0-0.29","58f50400f4ce600001016db5","64e77d7b61f440b60e28659d","64eca324faf48537a772746b","null","null","<p style=""font-size: 60px; font-family: BACS"">AlNUAvdk</p>","","","","","","","","",""
"html-keyboard-response","280","505634","0.0-13.0-0.30","58f50400f4ce600001016db5","64e77d7b61f440b60e28659d","64eca324faf48537a772746b","null","null","<p style=""font-size: 60px; font-family: BACS"">KABAtcB</p>","","","","","","","","",""
"html-keyboard-response","281","506649","0.0-13.0-0.31","58f50400f4ce600001016db5","64e77d7b61f440b60e28659d","64eca324faf48537a772746b","null","null","<p style=""font-size: 60px; font-family: BACS"">rdLJakbu</p>","","","","","","","","",""
"html-keyboard-response","282","507655","0.0-13.0-0.32","58f50400f4ce600001016db5","64e77d7b61f440b60e28659d","64eca324faf48537a772746b","null","null","<p style=""font-size: 60px; font-family: BACS"">BEPORCdc</p>","","","","","","","","",""
"html-keyboard-response","283","508670","0.0-13.0-0.33","58f50400f4ce600001016db5","64e77d7b61f440b60e28659d","64eca324faf48537a772746b","null","null","<p style=""font-size: 60px; font-family: BACS"">kDRKcYcM</p>","","","","","","","","",""
"html-keyboard-response","284","509680","0.0-13.0-0.34","58f50400f4ce600001016db5","64e77d7b61f440b60e28659d","64eca324faf48537a772746b","null","null","<p style=""font-size: 60px; font-family: BACS"">dKRDtcB</p>","","","","","","","","",""
"html-keyboard-response","285","510686","0.0-13.0-0.35","58f50400f4ce600001016db5","64e77d7b61f440b60e28659d","64eca324faf48537a772746b","null","null","<p style=""font-size: 60px; font-family: BACS"">AmaclrULv</p>","","","","","","","","",""
"html-keyboard-response","286","511701","0.0-13.0-0.36","58f50400f4ce600001016db5","64e77d7b61f440b60e28659d","64eca324faf48537a772746b","null","null","<p style=""font-size: 60px; font-family: BACS"">kDRKctcB</p>","","","","","","","","",""
"html-keyboard-response","287","512710","0.0-13.0-0.37","58f50400f4ce600001016db5","64e77d7b61f440b60e28659d","64eca324faf48537a772746b","null","null","<p style=""font-size: 60px; font-family: BACS"">KDPAkhMD</p>","","","","","","","","",""
"html-keyboard-response","288","513720","0.0-13.0-0.38","58f50400f4ce600001016db5","64e77d7b61f440b60e28659d","64eca324faf48537a772746b","null","null","<p style=""font-size: 60px; font-family: BACS"">rdLJaQGb</p>","","","","","","","","",""
"html-keyboard-response","289","514735","0.0-13.0-0.39","58f50400f4ce600001016db5","64e77d7b61f440b60e28659d","64eca324faf48537a772746b","null","null","<p style=""font-size: 60px; font-family: BACS"">OAmAdEPBT</p>","","","","","","","","",""
"html-keyboard-response","290","515743","0.0-13.0-0.40","58f50400f4ce600001016db5","64e77d7b61f440b60e28659d","64eca324faf48537a772746b","null","null","<p style=""font-size: 60px; font-family: BACS"">BEPOtcB</p>","","","","","","","","",""
"html-keyboard-response","291","516747","0.0-13.0-0.41","58f50400f4ce600001016db5","64e77d7b61f440b60e28659d","64eca324faf48537a772746b","null","null","<p style=""font-size: 60px; font-family: BACS"">AmaclAvdk</p>","","","","","","","","",""
"html-keyboard-response","292","517752","0.0-13.0-0.42","58f50400f4ce600001016db5","64e77d7b61f440b60e28659d","64eca324faf48537a772746b","null","null","<p style=""font-size: 60px; font-family: BACS"">OAmAdRCdc</p>","","","","","","","","",""
"html-keyboard-response","293","518756","0.0-13.0-0.43","58f50400f4ce600001016db5","64e77d7b61f440b60e28659d","64eca324faf48537a772746b","null","null","<p style=""font-size: 60px; font-family: BACS"">AlNUrULv</p>","","","","","","","","",""
"html-keyboard-response","294","519759","0.0-13.0-0.44","58f50400f4ce600001016db5","64e77d7b61f440b60e28659d","64eca324faf48537a772746b","null","null","<p style=""font-size: 60px; font-family: BACS"">dTmEDYcM</p>","","","","","","","","",""
"html-keyboard-response","295","520765","0.0-13.0-0.45","58f50400f4ce600001016db5","64e77d7b61f440b60e28659d","64eca324faf48537a772746b","null","null","<p style=""font-size: 60px; font-family: BACS"">YOZNLkNc</p>","","","","","","","","",""
"html-keyboard-response","296","521769","0.0-13.0-0.46","58f50400f4ce600001016db5","64e77d7b61f440b60e28659d","64eca324faf48537a772746b","null","null","<p style=""font-size: 60px; font-family: BACS"">dTmEDRCdc</p>","","","","","","","","",""
"html-keyboard-response","297","522784","0.0-13.0-0.47","58f50400f4ce600001016db5","64e77d7b61f440b60e28659d","64eca324faf48537a772746b","null","null","<p style=""font-size: 60px; font-family: BACS"">vmuLlAvdk</p>","","","","","","","","",""
"html-keyboard-response","298","523795","0.0-13.0-0.48","58f50400f4ce600001016db5","64e77d7b61f440b60e28659d","64eca324faf48537a772746b","null","null","<p style=""font-size: 60px; font-family: BACS"">tmAKYcM</p>","","","","","","","","",""
"html-keyboard-response","299","524802","0.0-13.0-0.49","58f50400f4ce600001016db5","64e77d7b61f440b60e28659d","64eca324faf48537a772746b","null","null","<p style=""font-size: 60px; font-family: BACS"">KDPAtcB</p>","","","","","","","","",""
"html-keyboard-response","300","525814","0.0-13.0-0.50","58f50400f4ce600001016db5","64e77d7b61f440b60e28659d","64eca324faf48537a772746b","null","null","<p style=""font-size: 60px; font-family: BACS"">UaZmaLkNc</p>","","","","","","","","",""
"html-keyboard-response","301","526815","0.0-13.0-0.51","58f50400f4ce600001016db5","64e77d7b61f440b60e28659d","64eca324faf48537a772746b","null","null","<p style=""font-size: 60px; font-family: BACS"">YOZNrULv</p>","","","","","","","","",""
"html-keyboard-response","302","527821","0.0-13.0-0.52","58f50400f4ce600001016db5","64e77d7b61f440b60e28659d","64eca324faf48537a772746b","null","null","<p style=""font-size: 60px; font-family: BACS"">lcOcLkNc</p>","","","","","","","","",""
"html-keyboard-response","303","528828","0.0-13.0-0.53","58f50400f4ce600001016db5","64e77d7b61f440b60e28659d","64eca324faf48537a772746b","null","null","<p style=""font-size: 60px; font-family: BACS"">KABAEPBT</p>","","","","","","","","",""
"html-keyboard-response","304","529834","0.0-13.0-0.54","58f50400f4ce600001016db5","64e77d7b61f440b60e28659d","64eca324faf48537a772746b","null","null","<p style=""font-size: 60px; font-family: BACS"">cDOEBtcB</p>","","","","","","","","",""
"html-keyboard-response","305","530840","0.0-13.0-0.55","58f50400f4ce600001016db5","64e77d7b61f440b60e28659d","64eca324faf48537a772746b","null","null","<p style=""font-size: 60px; font-family: BACS"">KDPAEPBT</p>","","","","","","","","",""
"html-keyboard-response","306","531849","0.0-13.0-0.56","58f50400f4ce600001016db5","64e77d7b61f440b60e28659d","64eca324faf48537a772746b","null","null","<p style=""font-size: 60px; font-family: BACS"">lcOcrULv</p>","","","","","","","","",""
"html-keyboard-response","307","532854","0.0-13.0-0.57","58f50400f4ce600001016db5","64e77d7b61f440b60e28659d","64eca324faf48537a772746b","null","null","<p style=""font-size: 60px; font-family: BACS"">cDOEBRCdc</p>","","","","","","","","",""
"html-keyboard-response","308","533866","0.0-13.0-0.58","58f50400f4ce600001016db5","64e77d7b61f440b60e28659d","64eca324faf48537a772746b","null","null","<p style=""font-size: 60px; font-family: BACS"">vclYkbu</p>","","","","","","","","",""
"html-keyboard-response","309","534874","0.0-13.0-0.59","58f50400f4ce600001016db5","64e77d7b61f440b60e28659d","64eca324faf48537a772746b","null","null","<p style=""font-size: 60px; font-family: BACS"">CYPctcB</p>","","","","","","","","",""
"html-keyboard-response","310","535879","0.0-13.0-0.60","58f50400f4ce600001016db5","64e77d7b61f440b60e28659d","64eca324faf48537a772746b","null","null","<p style=""font-size: 60px; font-family: BACS"">AlNUkbu</p>","","","","","","","","",""
"html-keyboard-response","311","536888","0.0-13.0-0.61","58f50400f4ce600001016db5","64e77d7b61f440b60e28659d","64eca324faf48537a772746b","null","null","<p style=""font-size: 60px; font-family: BACS"">YOZNAvdk</p>","","","","","","","","",""
"html-keyboard-response","312","537896","0.0-13.0-0.62","58f50400f4ce600001016db5","64e77d7b61f440b60e28659d","64eca324faf48537a772746b","null","null","<p style=""font-size: 60px; font-family: BACS"">CYPcRCdc</p>","","","","","","","","",""
"html-keyboard-response","313","538910","0.0-13.0-0.63","58f50400f4ce600001016db5","64e77d7b61f440b60e28659d","64eca324faf48537a772746b","null","null","<p style=""font-size: 60px; font-family: BACS"">QcQAJLkNc</p>","","","","","","","","",""
"html-keyboard-response","314","539922","0.0-13.0-0.64","58f50400f4ce600001016db5","64e77d7b61f440b60e28659d","64eca324faf48537a772746b","null","null","<p style=""font-size: 60px; font-family: BACS"">YQbcQGb</p>","","","","","","","","",""
"html-keyboard-response","315","540932","0.0-13.0-0.65","58f50400f4ce600001016db5","64e77d7b61f440b60e28659d","64eca324faf48537a772746b","null","null","<p style=""font-size: 60px; font-family: BACS"">dKRDYcM</p>","","","","","","","","",""
"html-keyboard-response","316","541938","0.0-13.0-0.66","58f50400f4ce600001016db5","64e77d7b61f440b60e28659d","64eca324faf48537a772746b","null","null","<p style=""font-size: 60px; font-family: BACS"">KDPARCdc</p>","","","","","","","","",""
"html-keyboard-response","317","542952","0.0-13.0-0.67","58f50400f4ce600001016db5","64e77d7b61f440b60e28659d","64eca324faf48537a772746b","null","null","<p style=""font-size: 60px; font-family: BACS"">rdLJaLkNc</p>","","","","","","","","",""
"html-keyboard-response","318","543961","0.0-13.0-0.68","58f50400f4ce600001016db5","64e77d7b61f440b60e28659d","64eca324faf48537a772746b","null","null","<p style=""font-size: 60px; font-family: BACS"">OAmAdkhMD</p>","","","","","","","","",""
"html-keyboard-response","319","544971","0.0-13.0-0.69","58f50400f4ce600001016db5","64e77d7b61f440b60e28659d","64eca324faf48537a772746b","null","null","<p style=""font-size: 60px; font-family: BACS"">dTmEDEPBT</p>","","","","","","","","",""
"html-keyboard-response","320","545982","0.0-13.0-0.70","58f50400f4ce600001016db5","64e77d7b61f440b60e28659d","64eca324faf48537a772746b","null","null","<p style=""font-size: 60px; font-family: BACS"">tmAKkhMD</p>","","","","","","","","",""
"html-keyboard-response","321","546992","0.0-13.0-0.71","58f50400f4ce600001016db5","64e77d7b61f440b60e28659d","64eca324faf48537a772746b","null","null","<p style=""font-size: 60px; font-family: BACS"">BEPOYcM</p>","","","","","","","","",""
"html-keyboard-response","322","547995","0.0-13.0-0.72","58f50400f4ce600001016db5","64e77d7b61f440b60e28659d","64eca324faf48537a772746b","null","null","<p style=""font-size: 60px; font-family: BACS"">dTmEDkhMD</p>","","","","","","","","",""
"html-keyboard-response","323","549005","0.0-13.0-0.73","58f50400f4ce600001016db5","64e77d7b61f440b60e28659d","64eca324faf48537a772746b","null","null","<p style=""font-size: 60px; font-family: BACS"">dKRDEPBT</p>","","","","","","","","",""
"html-keyboard-response","324","550015","0.0-13.0-0.74","58f50400f4ce600001016db5","64e77d7b61f440b60e28659d","64eca324faf48537a772746b","null","null","<p style=""font-size: 60px; font-family: BACS"">rdLJaAvdk</p>","","","","","","","","",""
"html-keyboard-response","325","551028","0.0-13.0-0.75","58f50400f4ce600001016db5","64e77d7b61f440b60e28659d","64eca324faf48537a772746b","null","null","<p style=""font-size: 60px; font-family: BACS"">vclYQGb</p>","","","","","","","","",""
"html-keyboard-response","326","552033","0.0-13.0-0.76","58f50400f4ce600001016db5","64e77d7b61f440b60e28659d","64eca324faf48537a772746b","null","null","<p style=""font-size: 60px; font-family: BACS"">kDRKcRCdc</p>","","","","","","","","",""
"html-keyboard-response","327","553037","0.0-13.0-0.77","58f50400f4ce600001016db5","64e77d7b61f440b60e28659d","64eca324faf48537a772746b","null","null","<p style=""font-size: 60px; font-family: BACS"">vclYrULv</p>","","","","","","","","",""
"html-keyboard-response","328","554038","0.0-13.0-0.78","58f50400f4ce600001016db5","64e77d7b61f440b60e28659d","64eca324faf48537a772746b","null","null","<p style=""font-size: 60px; font-family: BACS"">KABAkhMD</p>","","","","","","","","",""
"html-keyboard-response","329","555039","0.0-13.0-0.79","58f50400f4ce600001016db5","64e77d7b61f440b60e28659d","64eca324faf48537a772746b","null","null","<p style=""font-size: 60px; font-family: BACS"">tmAKtcB</p>","","","","","","","","",""
"html-keyboard-response","330","565354","0.0-14.0","58f50400f4ce600001016db5","64e77d7b61f440b60e28659d","64eca324faf48537a772746b","10314"," ","<p>Great, you've seen the fourth block of words. You may now take a short break.</p>
      <p>Press the spacebar when you're ready to continue.</p>","","","","","","","","",""
"html-keyboard-response","331","566355","0.0-15.0-0.0","58f50400f4ce600001016db5","64e77d7b61f440b60e28659d","64eca324faf48537a772746b","null","null","<p style=""font-size: 60px; font-family: BACS"">dTmEDRCdc</p>","","","","","","","","",""
"html-keyboard-response","332","567356","0.0-15.0-0.1","58f50400f4ce600001016db5","64e77d7b61f440b60e28659d","64eca324faf48537a772746b","null","null","<p style=""font-size: 60px; font-family: BACS"">dTmEDRCdc</p>","","","","","","","","",""
"html-keyboard-response","333","568357","0.0-15.0-0.2","58f50400f4ce600001016db5","64e77d7b61f440b60e28659d","64eca324faf48537a772746b","null","null","<p style=""font-size: 60px; font-family: BACS"">dTmEDRCdc</p>","","","","","","","","",""
"html-keyboard-response","334","569372","0.0-15.0-0.3","58f50400f4ce600001016db5","64e77d7b61f440b60e28659d","64eca324faf48537a772746b","null","null","<p style=""font-size: 60px; font-family: BACS"">dTmEDRCdc</p>","","","","","","","","",""
"html-keyboard-response","335","570373","0.0-15.0-0.4","58f50400f4ce600001016db5","64e77d7b61f440b60e28659d","64eca324faf48537a772746b","null","null","<p style=""font-size: 60px; font-family: BACS"">dTmEDRCdc</p>","","","","","","","","",""
"html-keyboard-response","336","571374","0.0-15.0-0.5","58f50400f4ce600001016db5","64e77d7b61f440b60e28659d","64eca324faf48537a772746b","null","null","<p style=""font-size: 60px; font-family: BACS"">dTmEDRCdc</p>","","","","","","","","",""
"html-keyboard-response","337","572375","0.0-15.0-0.6","58f50400f4ce600001016db5","64e77d7b61f440b60e28659d","64eca324faf48537a772746b","null","null","<p style=""font-size: 60px; font-family: BACS"">dTmEDRCdc</p>","","","","","","","","",""
"html-keyboard-response","338","573377","0.0-15.0-0.7","58f50400f4ce600001016db5","64e77d7b61f440b60e28659d","64eca324faf48537a772746b","null","null","<p style=""font-size: 60px; font-family: BACS"">dTmEDRCdc</p>","","","","","","","","",""
"html-keyboard-response","339","574378","0.0-15.0-0.8","58f50400f4ce600001016db5","64e77d7b61f440b60e28659d","64eca324faf48537a772746b","null","null","<p style=""font-size: 60px; font-family: BACS"">dTmEDRCdc</p>","","","","","","","","",""
"html-keyboard-response","340","575379","0.0-15.0-0.9","58f50400f4ce600001016db5","64e77d7b61f440b60e28659d","64eca324faf48537a772746b","null","null","<p style=""font-size: 60px; font-family: BACS"">dTmEDRCdc</p>","","","","","","","","",""
"html-keyboard-response","341","576380","0.0-15.0-0.10","58f50400f4ce600001016db5","64e77d7b61f440b60e28659d","64eca324faf48537a772746b","null","null","<p style=""font-size: 60px; font-family: BACS"">dTmEDRCdc</p>","","","","","","","","",""
"html-keyboard-response","342","577381","0.0-15.0-0.11","58f50400f4ce600001016db5","64e77d7b61f440b60e28659d","64eca324faf48537a772746b","null","null","<p style=""font-size: 60px; font-family: BACS"">dTmEDRCdc</p>","","","","","","","","",""
"html-keyboard-response","343","578382","0.0-15.0-0.12","58f50400f4ce600001016db5","64e77d7b61f440b60e28659d","64eca324faf48537a772746b","null","null","<p style=""font-size: 60px; font-family: BACS"">dTmEDRCdc</p>","","","","","","","","",""
"html-keyboard-response","344","579394","0.0-15.0-0.13","58f50400f4ce600001016db5","64e77d7b61f440b60e28659d","64eca324faf48537a772746b","null","null","<p style=""font-size: 60px; font-family: BACS"">dTmEDRCdc</p>","","","","","","","","",""
"html-keyboard-response","345","580400","0.0-15.0-0.14","58f50400f4ce600001016db5","64e77d7b61f440b60e28659d","64eca324faf48537a772746b","null","null","<p style=""font-size: 60px; font-family: BACS"">dTmEDRCdc</p>","","","","","","","","",""
"html-keyboard-response","346","581410","0.0-15.0-0.15","58f50400f4ce600001016db5","64e77d7b61f440b60e28659d","64eca324faf48537a772746b","null","null","<p style=""font-size: 60px; font-family: BACS"">dTmEDRCdc</p>","","","","","","","","",""
"html-keyboard-response","347","582412","0.0-15.0-0.16","58f50400f4ce600001016db5","64e77d7b61f440b60e28659d","64eca324faf48537a772746b","null","null","<p style=""font-size: 60px; font-family: BACS"">dTmEDRCdc</p>","","","","","","","","",""
"html-keyboard-response","348","583413","0.0-15.0-0.17","58f50400f4ce600001016db5","64e77d7b61f440b60e28659d","64eca324faf48537a772746b","null","null","<p style=""font-size: 60px; font-family: BACS"">dTmEDRCdc</p>","","","","","","","","",""
"html-keyboard-response","349","584419","0.0-15.0-0.18","58f50400f4ce600001016db5","64e77d7b61f440b60e28659d","64eca324faf48537a772746b","null","null","<p style=""font-size: 60px; font-family: BACS"">dTmEDRCdc</p>","","","","","","","","",""
"html-keyboard-response","350","585420","0.0-15.0-0.19","58f50400f4ce600001016db5","64e77d7b61f440b60e28659d","64eca324faf48537a772746b","null","null","<p style=""font-size: 60px; font-family: BACS"">dTmEDRCdc</p>","","","","","","","","",""
"html-keyboard-response","351","586421","0.0-15.0-0.20","58f50400f4ce600001016db5","64e77d7b61f440b60e28659d","64eca324faf48537a772746b","null","null","<p style=""font-size: 60px; font-family: BACS"">dTmEDRCdc</p>","","","","","","","","",""
"html-keyboard-response","352","587422","0.0-15.0-0.21","58f50400f4ce600001016db5","64e77d7b61f440b60e28659d","64eca324faf48537a772746b","null","null","<p style=""font-size: 60px; font-family: BACS"">dTmEDRCdc</p>","","","","","","","","",""
"html-keyboard-response","353","588422","0.0-15.0-0.22","58f50400f4ce600001016db5","64e77d7b61f440b60e28659d","64eca324faf48537a772746b","null","null","<p style=""font-size: 60px; font-family: BACS"">dTmEDRCdc</p>","","","","","","","","",""
"html-keyboard-response","354","589424","0.0-15.0-0.23","58f50400f4ce600001016db5","64e77d7b61f440b60e28659d","64eca324faf48537a772746b","null","null","<p style=""font-size: 60px; font-family: BACS"">dTmEDRCdc</p>","","","","","","","","",""
"html-keyboard-response","355","590425","0.0-15.0-0.24","58f50400f4ce600001016db5","64e77d7b61f440b60e28659d","64eca324faf48537a772746b","null","null","<p style=""font-size: 60px; font-family: BACS"">dTmEDRCdc</p>","","","","","","","","",""
"html-keyboard-response","356","591426","0.0-15.0-0.25","58f50400f4ce600001016db5","64e77d7b61f440b60e28659d","64eca324faf48537a772746b","null","null","<p style=""font-size: 60px; font-family: BACS"">dTmEDRCdc</p>","","","","","","","","",""
"html-keyboard-response","357","592429","0.0-15.0-0.26","58f50400f4ce600001016db5","64e77d7b61f440b60e28659d","64eca324faf48537a772746b","null","null","<p style=""font-size: 60px; font-family: BACS"">dTmEDRCdc</p>","","","","","","","","",""
"html-keyboard-response","358","593430","0.0-15.0-0.27","58f50400f4ce600001016db5","64e77d7b61f440b60e28659d","64eca324faf48537a772746b","null","null","<p style=""font-size: 60px; font-family: BACS"">dTmEDRCdc</p>","","","","","","","","",""
"html-keyboard-response","359","594434","0.0-15.0-0.28","58f50400f4ce600001016db5","64e77d7b61f440b60e28659d","64eca324faf48537a772746b","null","null","<p style=""font-size: 60px; font-family: BACS"">dTmEDRCdc</p>","","","","","","","","",""
"html-keyboard-response","360","595435","0.0-15.0-0.29","58f50400f4ce600001016db5","64e77d7b61f440b60e28659d","64eca324faf48537a772746b","null","null","<p style=""font-size: 60px; font-family: BACS"">dTmEDRCdc</p>","","","","","","","","",""
"html-keyboard-response","361","596436","0.0-15.0-0.30","58f50400f4ce600001016db5","64e77d7b61f440b60e28659d","64eca324faf48537a772746b","null","null","<p style=""font-size: 60px; font-family: BACS"">dTmEDRCdc</p>","","","","","","","","",""
"html-keyboard-response","362","597437","0.0-15.0-0.31","58f50400f4ce600001016db5","64e77d7b61f440b60e28659d","64eca324faf48537a772746b","null","null","<p style=""font-size: 60px; font-family: BACS"">dTmEDRCdc</p>","","","","","","","","",""
"html-keyboard-response","363","598446","0.0-15.0-0.32","58f50400f4ce600001016db5","64e77d7b61f440b60e28659d","64eca324faf48537a772746b","null","null","<p style=""font-size: 60px; font-family: BACS"">dTmEDRCdc</p>","","","","","","","","",""
"html-keyboard-response","364","599447","0.0-15.0-0.33","58f50400f4ce600001016db5","64e77d7b61f440b60e28659d","64eca324faf48537a772746b","null","null","<p style=""font-size: 60px; font-family: BACS"">dTmEDRCdc</p>","","","","","","","","",""
"html-keyboard-response","365","600448","0.0-15.0-0.34","58f50400f4ce600001016db5","64e77d7b61f440b60e28659d","64eca324faf48537a772746b","null","null","<p style=""font-size: 60px; font-family: BACS"">dTmEDRCdc</p>","","","","","","","","",""
"html-keyboard-response","366","601450","0.0-15.0-0.35","58f50400f4ce600001016db5","64e77d7b61f440b60e28659d","64eca324faf48537a772746b","null","null","<p style=""font-size: 60px; font-family: BACS"">dTmEDRCdc</p>","","","","","","","","",""
"html-keyboard-response","367","602464","0.0-15.0-0.36","58f50400f4ce600001016db5","64e77d7b61f440b60e28659d","64eca324faf48537a772746b","null","null","<p style=""font-size: 60px; font-family: BACS"">dTmEDRCdc</p>","","","","","","","","",""
"html-keyboard-response","368","603465","0.0-15.0-0.37","58f50400f4ce600001016db5","64e77d7b61f440b60e28659d","64eca324faf48537a772746b","null","null","<p style=""font-size: 60px; font-family: BACS"">dTmEDRCdc</p>","","","","","","","","",""
"html-keyboard-response","369","604480","0.0-15.0-0.38","58f50400f4ce600001016db5","64e77d7b61f440b60e28659d","64eca324faf48537a772746b","null","null","<p style=""font-size: 60px; font-family: BACS"">dTmEDRCdc</p>","","","","","","","","",""
"html-keyboard-response","370","605481","0.0-15.0-0.39","58f50400f4ce600001016db5","64e77d7b61f440b60e28659d","64eca324faf48537a772746b","null","null","<p style=""font-size: 60px; font-family: BACS"">dTmEDRCdc</p>","","","","","","","","",""
"html-keyboard-response","371","606483","0.0-15.0-0.40","58f50400f4ce600001016db5","64e77d7b61f440b60e28659d","64eca324faf48537a772746b","null","null","<p style=""font-size: 60px; font-family: BACS"">dTmEDRCdc</p>","","","","","","","","",""
"html-keyboard-response","372","607486","0.0-15.0-0.41","58f50400f4ce600001016db5","64e77d7b61f440b60e28659d","64eca324faf48537a772746b","null","null","<p style=""font-size: 60px; font-family: BACS"">dTmEDRCdc</p>","","","","","","","","",""
"html-keyboard-response","373","608487","0.0-15.0-0.42","58f50400f4ce600001016db5","64e77d7b61f440b60e28659d","64eca324faf48537a772746b","null","null","<p style=""font-size: 60px; font-family: BACS"">dTmEDRCdc</p>","","","","","","","","",""
"html-keyboard-response","374","609489","0.0-15.0-0.43","58f50400f4ce600001016db5","64e77d7b61f440b60e28659d","64eca324faf48537a772746b","null","null","<p style=""font-size: 60px; font-family: BACS"">dTmEDRCdc</p>","","","","","","","","",""
"html-keyboard-response","375","610493","0.0-15.0-0.44","58f50400f4ce600001016db5","64e77d7b61f440b60e28659d","64eca324faf48537a772746b","null","null","<p style=""font-size: 60px; font-family: BACS"">dTmEDRCdc</p>","","","","","","","","",""
"html-keyboard-response","376","611494","0.0-15.0-0.45","58f50400f4ce600001016db5","64e77d7b61f440b60e28659d","64eca324faf48537a772746b","null","null","<p style=""font-size: 60px; font-family: BACS"">dTmEDRCdc</p>","","","","","","","","",""
"html-keyboard-response","377","612497","0.0-15.0-0.46","58f50400f4ce600001016db5","64e77d7b61f440b60e28659d","64eca324faf48537a772746b","null","null","<p style=""font-size: 60px; font-family: BACS"">dTmEDRCdc</p>","","","","","","","","",""
"html-keyboard-response","378","613510","0.0-15.0-0.47","58f50400f4ce600001016db5","64e77d7b61f440b60e28659d","64eca324faf48537a772746b","null","null","<p style=""font-size: 60px; font-family: BACS"">dTmEDRCdc</p>","","","","","","","","",""
"html-keyboard-response","379","614519","0.0-15.0-0.48","58f50400f4ce600001016db5","64e77d7b61f440b60e28659d","64eca324faf48537a772746b","null","null","<p style=""font-size: 60px; font-family: BACS"">dTmEDRCdc</p>","","","","","","","","",""
"html-keyboard-response","380","615531","0.0-15.0-0.49","58f50400f4ce600001016db5","64e77d7b61f440b60e28659d","64eca324faf48537a772746b","null","null","<p style=""font-size: 60px; font-family: BACS"">dTmEDRCdc</p>","","","","","","","","",""
"html-keyboard-response","381","616533","0.0-15.0-0.50","58f50400f4ce600001016db5","64e77d7b61f440b60e28659d","64eca324faf48537a772746b","null","null","<p style=""font-size: 60px; font-family: BACS"">dTmEDRCdc</p>","","","","","","","","",""
"html-keyboard-response","382","617544","0.0-15.0-0.51","58f50400f4ce600001016db5","64e77d7b61f440b60e28659d","64eca324faf48537a772746b","null","null","<p style=""font-size: 60px; font-family: BACS"">dTmEDRCdc</p>","","","","","","","","",""
"html-keyboard-response","383","618551","0.0-15.0-0.52","58f50400f4ce600001016db5","64e77d7b61f440b60e28659d","64eca324faf48537a772746b","null","null","<p style=""font-size: 60px; font-family: BACS"">dTmEDRCdc</p>","","","","","","","","",""
"html-keyboard-response","384","619560","0.0-15.0-0.53","58f50400f4ce600001016db5","64e77d7b61f440b60e28659d","64eca324faf48537a772746b","null","null","<p style=""font-size: 60px; font-family: BACS"">dTmEDRCdc</p>","","","","","","","","",""
"html-keyboard-response","385","620567","0.0-15.0-0.54","58f50400f4ce600001016db5","64e77d7b61f440b60e28659d","64eca324faf48537a772746b","null","null","<p style=""font-size: 60px; font-family: BACS"">dTmEDRCdc</p>","","","","","","","","",""
"html-keyboard-response","386","621570","0.0-15.0-0.55","58f50400f4ce600001016db5","64e77d7b61f440b60e28659d","64eca324faf48537a772746b","null","null","<p style=""font-size: 60px; font-family: BACS"">dTmEDRCdc</p>","","","","","","","","",""
"html-keyboard-response","387","622575","0.0-15.0-0.56","58f50400f4ce600001016db5","64e77d7b61f440b60e28659d","64eca324faf48537a772746b","null","null","<p style=""font-size: 60px; font-family: BACS"">dTmEDRCdc</p>","","","","","","","","",""
"html-keyboard-response","388","623582","0.0-15.0-0.57","58f50400f4ce600001016db5","64e77d7b61f440b60e28659d","64eca324faf48537a772746b","null","null","<p style=""font-size: 60px; font-family: BACS"">dTmEDRCdc</p>","","","","","","","","",""
"html-keyboard-response","389","624589","0.0-15.0-0.58","58f50400f4ce600001016db5","64e77d7b61f440b60e28659d","64eca324faf48537a772746b","null","null","<p style=""font-size: 60px; font-family: BACS"">dTmEDRCdc</p>","","","","","","","","",""
"html-keyboard-response","390","625601","0.0-15.0-0.59","58f50400f4ce600001016db5","64e77d7b61f440b60e28659d","64eca324faf48537a772746b","null","null","<p style=""font-size: 60px; font-family: BACS"">dTmEDRCdc</p>","","","","","","","","",""
"html-keyboard-response","391","626607","0.0-15.0-0.60","58f50400f4ce600001016db5","64e77d7b61f440b60e28659d","64eca324faf48537a772746b","null","null","<p style=""font-size: 60px; font-family: BACS"">dTmEDRCdc</p>","","","","","","","","",""
"html-keyboard-response","392","627609","0.0-15.0-0.61","58f50400f4ce600001016db5","64e77d7b61f440b60e28659d","64eca324faf48537a772746b","null","null","<p style=""font-size: 60px; font-family: BACS"">dTmEDRCdc</p>","","","","","","","","",""
"html-keyboard-response","393","628622","0.0-15.0-0.62","58f50400f4ce600001016db5","64e77d7b61f440b60e28659d","64eca324faf48537a772746b","null","null","<p style=""font-size: 60px; font-family: BACS"">dTmEDRCdc</p>","","","","","","","","",""
"html-keyboard-response","394","629626","0.0-15.0-0.63","58f50400f4ce600001016db5","64e77d7b61f440b60e28659d","64eca324faf48537a772746b","null","null","<p style=""font-size: 60px; font-family: BACS"">dTmEDRCdc</p>","","","","","","","","",""
"html-keyboard-response","395","630636","0.0-15.0-0.64","58f50400f4ce600001016db5","64e77d7b61f440b60e28659d","64eca324faf48537a772746b","null","null","<p style=""font-size: 60px; font-family: BACS"">dTmEDRCdc</p>","","","","","","","","",""
"html-keyboard-response","396","631642","0.0-15.0-0.65","58f50400f4ce600001016db5","64e77d7b61f440b60e28659d","64eca324faf48537a772746b","null","null","<p style=""font-size: 60px; font-family: BACS"">dTmEDRCdc</p>","","","","","","","","",""
"html-keyboard-response","397","632648","0.0-15.0-0.66","58f50400f4ce600001016db5","64e77d7b61f440b60e28659d","64eca324faf48537a772746b","null","null","<p style=""font-size: 60px; font-family: BACS"">dTmEDRCdc</p>","","","","","","","","",""
"html-keyboard-response","398","633656","0.0-15.0-0.67","58f50400f4ce600001016db5","64e77d7b61f440b60e28659d","64eca324faf48537a772746b","null","null","<p style=""font-size: 60px; font-family: BACS"">dTmEDRCdc</p>","","","","","","","","",""
