"trial_type","trial_index","time_elapsed","internal_node_id","subject_id","study_id","session_id","rt","response","stimulus","success","item","task","correct_response","correct","target","confound","name"
"pavlovia","0","3778","0.0-0.0","5e80c7d61a07dd7b0d8f0111","64b003020eef62ee308107cc","64b1091b43ebe68af96e600c","","","","","","","","","","",""
"survey-html-form","1","12989","0.0-1.0","5e80c7d61a07dd7b0d8f0111","64b003020eef62ee308107cc","64b1091b43ebe68af96e600c","9208","{""ID"":""5e80c7d61a07dd7b0d8f0111""}","","","","","","","","",""
"html-keyboard-response","2","17266","0.0-2.0","5e80c7d61a07dd7b0d8f0111","64b003020eef62ee308107cc","64b1091b43ebe68af96e600c","4269"," ","<p style=""font-size: 15px;"">Prima di cominciare, le chiediamo di leggere il modulo di consenso informato e confermare la sua volontà di partecipare all'esperimento.</p>
      <p style=""font-size: 15px;""> La preghiamo di ricordare che questo è un progetto di ricerca e che la sua partecipazione è completamente volontaria. Lei si potra' ritirare in qualunque momento, senza necessariamente dover dare alcuna spiegazione. Lo studio al quale Le si chiede di partecipare ha lo scopo di esaminare come i lettori elaborano le parole scritte. La somministrazione delle prove è individuale. Lei sarà impegnato in una sessione di lavoro della durata media di 10 minuti, e un questionario di 10 minuti. L’ordine delle prove ed il loro svolgimento sono stabiliti in modo tale da evitare un eventuale affaticamento. Tutte le prove saranno precedute da un breve addestramento in modo tale che abbia la possibilità di familiarizzare con il compito. Sono previste alcune pause nel corso dello svolgimento dell’esperimento. Una ricompensa di £4 (£8 per ora) Le verrà consegnata al termine della sessione di testing. Nonostante il testing preveda delle prove cognitive, il presente esperimento non costituisce una prova clinica che permetta la diagnosi di eventuali patologie.</p>
      <p style=""font-size: 15px;"">Tutti i dati raccolti grazie alla partecipazione Sua e di altre persone volontarie saranno custoditi in server sicuri e protetti da password, e non sarà consentito ad alcuna persona non autorizzata di accedervi. Le Sue informazioni personali saranno conservate separatamente dai risultati della presente ricerca, cui saranno associati soltanto attraverso un ID arbitrario. Grazie a questo processo di anonimizzazione dei dati, a nessun ricercatore sarà possibile analizzare i risultati sapendo da quale specifico partecipante essi provengono. Inoltre, questa procedura renderà impossibile la Sua identificazione anche nel momento in cui i risultati della ricerca fossero pubblicati su riviste scientifiche, o presentati a congressi o in qualsiasi altro pubblico consesso. Più in generale, i dati raccolti saranno trattati in accordo con le leggi sulla privacy e in conformità al Decreto Legislativo 30 giugno 2003 n. 196 “Codice in materia di protezione dei dati personali” e al Regolamento Europeo 2016/679 (General Data Protection Regulation - GDPR). Il Responsabile della protezione dei dati (RPD) è l’Avv. Valentina Carollo che può essere contattato ai seguenti indirizzi email: <a href=""mailto:dpo@sissa.it"">dpo@sissa.it</a> oppure <a href=""mailto:rpd@sissa.it"">rpd@sissa.it</a> - PEC: <a href=""mailto:protocollo@pec.sissa.it"">protocollo@pec.sissa.it</a>.</p>
      <p style=""font-size: 15px;""> Prima di esprimere il suo consenso alla partecipazione, Le ricordiamo ancora che in caso Lei abbia bisogno di delucidazioni su qualunque aspetto della procedura sperimentale, il ricercatore è a Sua completa disposizione (<a href=""mailto:aliebelt@sissa.it"">aliebelt@sissa.it</a>, <a href=""mailto:davide.crepaldi@sissa.it"">davide.crepaldi@sissa.it</a>).</p>
      <p style=""font-size: 15px;"">Se vuole scaricare il modulo di consenso informato, clicca qui: <a href=""BASL_modulo_consenso.pdf"" download>modulo di consenso</a>.</p>
      <p style=""font-size: 15px;""> Le chiediamo di premere la barra per continuare al consenso.</p>","","","","","","","",""
"survey-html-form","3","24011","0.0-3.0","5e80c7d61a07dd7b0d8f0111","64b003020eef62ee308107cc","64b1091b43ebe68af96e600c","6742","{""consent1"":""YES"",""consent2"":""YES"",""consent3"":""YES"",""consent4"":""YES"",""consent5"":""YES"",""consent6"":""YES""}","","","","","","","","",""
"fullscreen","4","28265","0.0-4.0","5e80c7d61a07dd7b0d8f0111","64b003020eef62ee308107cc","64b1091b43ebe68af96e600c","","","","true","","","","","","",""
"html-keyboard-response","5","33846","0.0-5.0","5e80c7d61a07dd7b0d8f0111","64b003020eef62ee308107cc","64b1091b43ebe68af96e600c","5580"," ","<p>Benvenuta/o, e grazie mille del tuo tempo!</p>
      <p>In questo esperimento sarai un esperto/un'esperta di linguaggio cui è stato chiesto di dare un'occhiata ad alcuni messaggi che la Terra ha ricevuto dallo spazio. Il tuo compito, in questa prima parte dell'esperimento, sarà di fare molta attenzione alle parole che ti verranno mostrate; più tardi, i leader del mondo ti chiederanno qualche informazione su quello che hai visto. Le parole si susseguiranno abbastanza velocemente; sembra che questi alieni abbiano una certa fretta :-) </p>
      <p>Per favore, chiama lo sperimentatore se ha qualche domanda.</p><p>Premi la barra per continuare.</p>","","","","","","","",""
"html-keyboard-response","6","36587","0.0-6.0","5e80c7d61a07dd7b0d8f0111","64b003020eef62ee308107cc","64b1091b43ebe68af96e600c","2740"," ","<p>Ecco un esempio delle parole che vedrai:</p>
      <img src='esempio.png' height='400px'>
      <p>Quando sei pronti per iniziare, premi la barra.</p></div>","","","","","","","",""
"html-keyboard-response","7","37590","0.0-7.0-0.0","5e80c7d61a07dd7b0d8f0111","64b003020eef62ee308107cc","64b1091b43ebe68af96e600c","null","null","<p style=""font-size: 60px; font-family: BACS"">kdaAJOcZJ</p>","","","","","","","",""
"html-keyboard-response","8","38598","0.0-7.0-0.1","5e80c7d61a07dd7b0d8f0111","64b003020eef62ee308107cc","64b1091b43ebe68af96e600c","null","null","<p style=""font-size: 60px; font-family: BACS"">tmYhtAY</p>","","","","","","","",""
"html-keyboard-response","9","39602","0.0-7.0-0.2","5e80c7d61a07dd7b0d8f0111","64b003020eef62ee308107cc","64b1091b43ebe68af96e600c","null","null","<p style=""font-size: 60px; font-family: BACS"">MDKPYTOM</p>","","","","","","","",""
"html-keyboard-response","10","40619","0.0-7.0-0.3","5e80c7d61a07dd7b0d8f0111","64b003020eef62ee308107cc","64b1091b43ebe68af96e600c","null","null","<p style=""font-size: 60px; font-family: BACS"">OAblcGUOA</p>","","","","","","","",""
"html-keyboard-response","11","41621","0.0-7.0-0.4","5e80c7d61a07dd7b0d8f0111","64b003020eef62ee308107cc","64b1091b43ebe68af96e600c","null","null","<p style=""font-size: 60px; font-family: BACS"">COTKYTOM</p>","","","","","","","",""
"html-keyboard-response","12","42633","0.0-7.0-0.5","5e80c7d61a07dd7b0d8f0111","64b003020eef62ee308107cc","64b1091b43ebe68af96e600c","null","null","<p style=""font-size: 60px; font-family: BACS"">OAblcrba</p>","","","","","","","",""
"html-keyboard-response","13","43647","0.0-7.0-0.6","5e80c7d61a07dd7b0d8f0111","64b003020eef62ee308107cc","64b1091b43ebe68af96e600c","null","null","<p style=""font-size: 60px; font-family: BACS"">bAdkmAM</p>","","","","","","","",""
"html-keyboard-response","14","44655","0.0-7.0-0.7","5e80c7d61a07dd7b0d8f0111","64b003020eef62ee308107cc","64b1091b43ebe68af96e600c","null","null","<p style=""font-size: 60px; font-family: BACS"">PcBTtAY</p>","","","","","","","",""
"html-keyboard-response","15","45670","0.0-7.0-0.8","5e80c7d61a07dd7b0d8f0111","64b003020eef62ee308107cc","64b1091b43ebe68af96e600c","null","null","<p style=""font-size: 60px; font-family: BACS"">cuOJbNac</p>","","","","","","","",""
"html-keyboard-response","16","46678","0.0-7.0-0.9","5e80c7d61a07dd7b0d8f0111","64b003020eef62ee308107cc","64b1091b43ebe68af96e600c","null","null","<p style=""font-size: 60px; font-family: BACS"">kdaAJrba</p>","","","","","","","",""
"html-keyboard-response","17","47686","0.0-7.0-0.10","5e80c7d61a07dd7b0d8f0111","64b003020eef62ee308107cc","64b1091b43ebe68af96e600c","null","null","<p style=""font-size: 60px; font-family: BACS"">YZJmGUOA</p>","","","","","","","",""
"html-keyboard-response","18","48695","0.0-7.0-0.11","5e80c7d61a07dd7b0d8f0111","64b003020eef62ee308107cc","64b1091b43ebe68af96e600c","null","null","<p style=""font-size: 60px; font-family: BACS"">ldAaNac</p>","","","","","","","",""
"html-keyboard-response","19","49710","0.0-7.0-0.12","5e80c7d61a07dd7b0d8f0111","64b003020eef62ee308107cc","64b1091b43ebe68af96e600c","null","null","<p style=""font-size: 60px; font-family: BACS"">YZJmOcZJ</p>","","","","","","","",""
"html-keyboard-response","20","50719","0.0-7.0-0.13","5e80c7d61a07dd7b0d8f0111","64b003020eef62ee308107cc","64b1091b43ebe68af96e600c","null","null","<p style=""font-size: 60px; font-family: BACS"">ldAaGUOA</p>","","","","","","","",""
"html-keyboard-response","21","51733","0.0-7.0-0.14","5e80c7d61a07dd7b0d8f0111","64b003020eef62ee308107cc","64b1091b43ebe68af96e600c","null","null","<p style=""font-size: 60px; font-family: BACS"">DmAMEtAY</p>","","","","","","","",""
"html-keyboard-response","22","52734","0.0-7.0-0.15","5e80c7d61a07dd7b0d8f0111","64b003020eef62ee308107cc","64b1091b43ebe68af96e600c","null","null","<p style=""font-size: 60px; font-family: BACS"">tmYhdTAh</p>","","","","","","","",""
"html-keyboard-response","23","53741","0.0-7.0-0.16","5e80c7d61a07dd7b0d8f0111","64b003020eef62ee308107cc","64b1091b43ebe68af96e600c","null","null","<p style=""font-size: 60px; font-family: BACS"">mZUrQGUOA</p>","","","","","","","",""
"html-keyboard-response","24","54751","0.0-7.0-0.17","5e80c7d61a07dd7b0d8f0111","64b003020eef62ee308107cc","64b1091b43ebe68af96e600c","null","null","<p style=""font-size: 60px; font-family: BACS"">NbmQUrAm</p>","","","","","","","",""
"html-keyboard-response","25","55766","0.0-7.0-0.18","5e80c7d61a07dd7b0d8f0111","64b003020eef62ee308107cc","64b1091b43ebe68af96e600c","null","null","<p style=""font-size: 60px; font-family: BACS"">cuOJbOcZJ</p>","","","","","","","",""
"html-keyboard-response","26","56774","0.0-7.0-0.19","5e80c7d61a07dd7b0d8f0111","64b003020eef62ee308107cc","64b1091b43ebe68af96e600c","null","null","<p style=""font-size: 60px; font-family: BACS"">bAdktAY</p>","","","","","","","",""
"html-keyboard-response","27","57775","0.0-7.0-0.20","5e80c7d61a07dd7b0d8f0111","64b003020eef62ee308107cc","64b1091b43ebe68af96e600c","null","null","<p style=""font-size: 60px; font-family: BACS"">tmYhYTOM</p>","","","","","","","",""
"html-keyboard-response","28","58784","0.0-7.0-0.21","5e80c7d61a07dd7b0d8f0111","64b003020eef62ee308107cc","64b1091b43ebe68af96e600c","null","null","<p style=""font-size: 60px; font-family: BACS"">uQuZcrAm</p>","","","","","","","",""
"html-keyboard-response","29","59790","0.0-7.0-0.22","5e80c7d61a07dd7b0d8f0111","64b003020eef62ee308107cc","64b1091b43ebe68af96e600c","null","null","<p style=""font-size: 60px; font-family: BACS"">KBKBEtAY</p>","","","","","","","",""
"html-keyboard-response","30","60799","0.0-7.0-0.23","5e80c7d61a07dd7b0d8f0111","64b003020eef62ee308107cc","64b1091b43ebe68af96e600c","null","null","<p style=""font-size: 60px; font-family: BACS"">cuOJbrba</p>","","","","","","","",""
"html-keyboard-response","31","61817","0.0-7.0-0.24","5e80c7d61a07dd7b0d8f0111","64b003020eef62ee308107cc","64b1091b43ebe68af96e600c","null","null","<p style=""font-size: 60px; font-family: BACS"">YZJmNac</p>","","","","","","","",""
"html-keyboard-response","32","62823","0.0-7.0-0.25","5e80c7d61a07dd7b0d8f0111","64b003020eef62ee308107cc","64b1091b43ebe68af96e600c","null","null","<p style=""font-size: 60px; font-family: BACS"">BATOcYTOM</p>","","","","","","","",""
"html-keyboard-response","33","63832","0.0-7.0-0.26","5e80c7d61a07dd7b0d8f0111","64b003020eef62ee308107cc","64b1091b43ebe68af96e600c","null","null","<p style=""font-size: 60px; font-family: BACS"">MDKPdTAh</p>","","","","","","","",""
"html-keyboard-response","34","64841","0.0-7.0-0.27","5e80c7d61a07dd7b0d8f0111","64b003020eef62ee308107cc","64b1091b43ebe68af96e600c","null","null","<p style=""font-size: 60px; font-family: BACS"">aUZAOcZJ</p>","","","","","","","",""
"html-keyboard-response","35","65842","0.0-7.0-0.28","5e80c7d61a07dd7b0d8f0111","64b003020eef62ee308107cc","64b1091b43ebe68af96e600c","null","null","<p style=""font-size: 60px; font-family: BACS"">NbmQUNac</p>","","","","","","","",""
"html-keyboard-response","36","66855","0.0-7.0-0.29","5e80c7d61a07dd7b0d8f0111","64b003020eef62ee308107cc","64b1091b43ebe68af96e600c","null","null","<p style=""font-size: 60px; font-family: BACS"">COTKmCd</p>","","","","","","","",""
"html-keyboard-response","37","67864","0.0-7.0-0.30","5e80c7d61a07dd7b0d8f0111","64b003020eef62ee308107cc","64b1091b43ebe68af96e600c","null","null","<p style=""font-size: 60px; font-family: BACS"">KBKBEdTAh</p>","","","","","","","",""
"html-keyboard-response","38","68874","0.0-7.0-0.31","5e80c7d61a07dd7b0d8f0111","64b003020eef62ee308107cc","64b1091b43ebe68af96e600c","null","null","<p style=""font-size: 60px; font-family: BACS"">MDKPmCd</p>","","","","","","","",""
"html-keyboard-response","39","69887","0.0-7.0-0.32","5e80c7d61a07dd7b0d8f0111","64b003020eef62ee308107cc","64b1091b43ebe68af96e600c","null","null","<p style=""font-size: 60px; font-family: BACS"">MBKREdTAh</p>","","","","","","","",""
"html-keyboard-response","40","70895","0.0-7.0-0.33","5e80c7d61a07dd7b0d8f0111","64b003020eef62ee308107cc","64b1091b43ebe68af96e600c","null","null","<p style=""font-size: 60px; font-family: BACS"">PcBTYTOM</p>","","","","","","","",""
"html-keyboard-response","41","71912","0.0-7.0-0.34","5e80c7d61a07dd7b0d8f0111","64b003020eef62ee308107cc","64b1091b43ebe68af96e600c","null","null","<p style=""font-size: 60px; font-family: BACS"">chEDOmAM</p>","","","","","","","",""
"html-keyboard-response","42","72920","0.0-7.0-0.35","5e80c7d61a07dd7b0d8f0111","64b003020eef62ee308107cc","64b1091b43ebe68af96e600c","null","null","<p style=""font-size: 60px; font-family: BACS"">aUZAGUOA</p>","","","","","","","",""
"html-keyboard-response","43","73929","0.0-7.0-0.36","5e80c7d61a07dd7b0d8f0111","64b003020eef62ee308107cc","64b1091b43ebe68af96e600c","null","null","<p style=""font-size: 60px; font-family: BACS"">COTKdTAh</p>","","","","","","","",""
"html-keyboard-response","44","74937","0.0-7.0-0.37","5e80c7d61a07dd7b0d8f0111","64b003020eef62ee308107cc","64b1091b43ebe68af96e600c","null","null","<p style=""font-size: 60px; font-family: BACS"">BATOctAY</p>","","","","","","","",""
"html-keyboard-response","45","75938","0.0-7.0-0.38","5e80c7d61a07dd7b0d8f0111","64b003020eef62ee308107cc","64b1091b43ebe68af96e600c","null","null","<p style=""font-size: 60px; font-family: BACS"">ZNLOvGUOA</p>","","","","","","","",""
"html-keyboard-response","46","76944","0.0-7.0-0.39","5e80c7d61a07dd7b0d8f0111","64b003020eef62ee308107cc","64b1091b43ebe68af96e600c","null","null","<p style=""font-size: 60px; font-family: BACS"">tmYhmCd</p>","","","","","","","",""
"html-keyboard-response","47","77959","0.0-7.0-0.40","5e80c7d61a07dd7b0d8f0111","64b003020eef62ee308107cc","64b1091b43ebe68af96e600c","null","null","<p style=""font-size: 60px; font-family: BACS"">MBKREYTOM</p>","","","","","","","",""
"html-keyboard-response","48","78968","0.0-7.0-0.41","5e80c7d61a07dd7b0d8f0111","64b003020eef62ee308107cc","64b1091b43ebe68af96e600c","null","null","<p style=""font-size: 60px; font-family: BACS"">cuOJbrAm</p>","","","","","","","",""
"html-keyboard-response","49","79969","0.0-7.0-0.42","5e80c7d61a07dd7b0d8f0111","64b003020eef62ee308107cc","64b1091b43ebe68af96e600c","null","null","<p style=""font-size: 60px; font-family: BACS"">mZUrQOcZJ</p>","","","","","","","",""
"html-keyboard-response","50","80977","0.0-7.0-0.43","5e80c7d61a07dd7b0d8f0111","64b003020eef62ee308107cc","64b1091b43ebe68af96e600c","null","null","<p style=""font-size: 60px; font-family: BACS"">NbmQUGUOA</p>","","","","","","","",""
"html-keyboard-response","51","81992","0.0-7.0-0.44","5e80c7d61a07dd7b0d8f0111","64b003020eef62ee308107cc","64b1091b43ebe68af96e600c","null","null","<p style=""font-size: 60px; font-family: BACS"">bAdkmCd</p>","","","","","","","",""
"html-keyboard-response","52","83001","0.0-7.0-0.45","5e80c7d61a07dd7b0d8f0111","64b003020eef62ee308107cc","64b1091b43ebe68af96e600c","null","null","<p style=""font-size: 60px; font-family: BACS"">uQuZcrba</p>","","","","","","","",""
"html-keyboard-response","53","84005","0.0-7.0-0.46","5e80c7d61a07dd7b0d8f0111","64b003020eef62ee308107cc","64b1091b43ebe68af96e600c","null","null","<p style=""font-size: 60px; font-family: BACS"">BATOcmAM</p>","","","","","","","",""
"html-keyboard-response","54","85008","0.0-7.0-0.47","5e80c7d61a07dd7b0d8f0111","64b003020eef62ee308107cc","64b1091b43ebe68af96e600c","null","null","<p style=""font-size: 60px; font-family: BACS"">ldAarAm</p>","","","","","","","",""
"html-keyboard-response","55","86023","0.0-7.0-0.48","5e80c7d61a07dd7b0d8f0111","64b003020eef62ee308107cc","64b1091b43ebe68af96e600c","null","null","<p style=""font-size: 60px; font-family: BACS"">MBKREmCd</p>","","","","","","","",""
"html-keyboard-response","56","87033","0.0-7.0-0.49","5e80c7d61a07dd7b0d8f0111","64b003020eef62ee308107cc","64b1091b43ebe68af96e600c","null","null","<p style=""font-size: 60px; font-family: BACS"">ldAarba</p>","","","","","","","",""
"html-keyboard-response","57","88040","0.0-7.0-0.50","5e80c7d61a07dd7b0d8f0111","64b003020eef62ee308107cc","64b1091b43ebe68af96e600c","null","null","<p style=""font-size: 60px; font-family: BACS"">MDKPmAM</p>","","","","","","","",""
"html-keyboard-response","58","89056","0.0-7.0-0.51","5e80c7d61a07dd7b0d8f0111","64b003020eef62ee308107cc","64b1091b43ebe68af96e600c","null","null","<p style=""font-size: 60px; font-family: BACS"">BATOcmCd</p>","","","","","","","",""
"html-keyboard-response","59","90073","0.0-7.0-0.52","5e80c7d61a07dd7b0d8f0111","64b003020eef62ee308107cc","64b1091b43ebe68af96e600c","null","null","<p style=""font-size: 60px; font-family: BACS"">ZNLOvrba</p>","","","","","","","",""
"html-keyboard-response","60","91074","0.0-7.0-0.53","5e80c7d61a07dd7b0d8f0111","64b003020eef62ee308107cc","64b1091b43ebe68af96e600c","null","null","<p style=""font-size: 60px; font-family: BACS"">NbmQUOcZJ</p>","","","","","","","",""
"html-keyboard-response","61","92088","0.0-7.0-0.54","5e80c7d61a07dd7b0d8f0111","64b003020eef62ee308107cc","64b1091b43ebe68af96e600c","null","null","<p style=""font-size: 60px; font-family: BACS"">PcBTmAM</p>","","","","","","","",""
"html-keyboard-response","62","93104","0.0-7.0-0.55","5e80c7d61a07dd7b0d8f0111","64b003020eef62ee308107cc","64b1091b43ebe68af96e600c","null","null","<p style=""font-size: 60px; font-family: BACS"">uQuZcGUOA</p>","","","","","","","",""
"html-keyboard-response","63","94107","0.0-7.0-0.56","5e80c7d61a07dd7b0d8f0111","64b003020eef62ee308107cc","64b1091b43ebe68af96e600c","null","null","<p style=""font-size: 60px; font-family: BACS"">OAblcNac</p>","","","","","","","",""
"html-keyboard-response","64","95120","0.0-7.0-0.57","5e80c7d61a07dd7b0d8f0111","64b003020eef62ee308107cc","64b1091b43ebe68af96e600c","null","null","<p style=""font-size: 60px; font-family: BACS"">ZNLOvrAm</p>","","","","","","","",""
"html-keyboard-response","65","96124","0.0-7.0-0.58","5e80c7d61a07dd7b0d8f0111","64b003020eef62ee308107cc","64b1091b43ebe68af96e600c","null","null","<p style=""font-size: 60px; font-family: BACS"">mZUrQNac</p>","","","","","","","",""
"html-keyboard-response","66","97135","0.0-7.0-0.59","5e80c7d61a07dd7b0d8f0111","64b003020eef62ee308107cc","64b1091b43ebe68af96e600c","null","null","<p style=""font-size: 60px; font-family: BACS"">kdaAJrAm</p>","","","","","","","",""
"html-keyboard-response","67","98145","0.0-7.0-0.60","5e80c7d61a07dd7b0d8f0111","64b003020eef62ee308107cc","64b1091b43ebe68af96e600c","null","null","<p style=""font-size: 60px; font-family: BACS"">uQuZcOcZJ</p>","","","","","","","",""
"html-keyboard-response","68","99154","0.0-7.0-0.61","5e80c7d61a07dd7b0d8f0111","64b003020eef62ee308107cc","64b1091b43ebe68af96e600c","null","null","<p style=""font-size: 60px; font-family: BACS"">DmAMEmAM</p>","","","","","","","",""
"html-keyboard-response","69","100168","0.0-7.0-0.62","5e80c7d61a07dd7b0d8f0111","64b003020eef62ee308107cc","64b1091b43ebe68af96e600c","null","null","<p style=""font-size: 60px; font-family: BACS"">KBKBEYTOM</p>","","","","","","","",""
"html-keyboard-response","70","101170","0.0-7.0-0.63","5e80c7d61a07dd7b0d8f0111","64b003020eef62ee308107cc","64b1091b43ebe68af96e600c","null","null","<p style=""font-size: 60px; font-family: BACS"">aUZArAm</p>","","","","","","","",""
"html-keyboard-response","71","102177","0.0-7.0-0.64","5e80c7d61a07dd7b0d8f0111","64b003020eef62ee308107cc","64b1091b43ebe68af96e600c","null","null","<p style=""font-size: 60px; font-family: BACS"">YZJmrba</p>","","","","","","","",""
"html-keyboard-response","72","103187","0.0-7.0-0.65","5e80c7d61a07dd7b0d8f0111","64b003020eef62ee308107cc","64b1091b43ebe68af96e600c","null","null","<p style=""font-size: 60px; font-family: BACS"">PcBTmCd</p>","","","","","","","",""
"html-keyboard-response","73","104195","0.0-7.0-0.66","5e80c7d61a07dd7b0d8f0111","64b003020eef62ee308107cc","64b1091b43ebe68af96e600c","null","null","<p style=""font-size: 60px; font-family: BACS"">bAdkdTAh</p>","","","","","","","",""
"html-keyboard-response","74","105210","0.0-7.0-0.67","5e80c7d61a07dd7b0d8f0111","64b003020eef62ee308107cc","64b1091b43ebe68af96e600c","null","null","<p style=""font-size: 60px; font-family: BACS"">ZNLOvOcZJ</p>","","","","","","","",""
"html-keyboard-response","75","106219","0.0-7.0-0.68","5e80c7d61a07dd7b0d8f0111","64b003020eef62ee308107cc","64b1091b43ebe68af96e600c","null","null","<p style=""font-size: 60px; font-family: BACS"">chEDOdTAh</p>","","","","","","","",""
"html-keyboard-response","76","107226","0.0-7.0-0.69","5e80c7d61a07dd7b0d8f0111","64b003020eef62ee308107cc","64b1091b43ebe68af96e600c","null","null","<p style=""font-size: 60px; font-family: BACS"">DmAMEYTOM</p>","","","","","","","",""
"html-keyboard-response","77","108234","0.0-7.0-0.70","5e80c7d61a07dd7b0d8f0111","64b003020eef62ee308107cc","64b1091b43ebe68af96e600c","null","null","<p style=""font-size: 60px; font-family: BACS"">COTKmAM</p>","","","","","","","",""
"html-keyboard-response","78","109249","0.0-7.0-0.71","5e80c7d61a07dd7b0d8f0111","64b003020eef62ee308107cc","64b1091b43ebe68af96e600c","null","null","<p style=""font-size: 60px; font-family: BACS"">MBKREtAY</p>","","","","","","","",""
"html-keyboard-response","79","110251","0.0-7.0-0.72","5e80c7d61a07dd7b0d8f0111","64b003020eef62ee308107cc","64b1091b43ebe68af96e600c","null","null","<p style=""font-size: 60px; font-family: BACS"">kdaAJNac</p>","","","","","","","",""
"html-keyboard-response","80","111266","0.0-7.0-0.73","5e80c7d61a07dd7b0d8f0111","64b003020eef62ee308107cc","64b1091b43ebe68af96e600c","null","null","<p style=""font-size: 60px; font-family: BACS"">mZUrQrba</p>","","","","","","","",""
"html-keyboard-response","81","112275","0.0-7.0-0.74","5e80c7d61a07dd7b0d8f0111","64b003020eef62ee308107cc","64b1091b43ebe68af96e600c","null","null","<p style=""font-size: 60px; font-family: BACS"">KBKBEmAM</p>","","","","","","","",""
"html-keyboard-response","82","113290","0.0-7.0-0.75","5e80c7d61a07dd7b0d8f0111","64b003020eef62ee308107cc","64b1091b43ebe68af96e600c","null","null","<p style=""font-size: 60px; font-family: BACS"">OAblcrAm</p>","","","","","","","",""
"html-keyboard-response","83","114299","0.0-7.0-0.76","5e80c7d61a07dd7b0d8f0111","64b003020eef62ee308107cc","64b1091b43ebe68af96e600c","null","null","<p style=""font-size: 60px; font-family: BACS"">chEDOtAY</p>","","","","","","","",""
"html-keyboard-response","84","115306","0.0-7.0-0.77","5e80c7d61a07dd7b0d8f0111","64b003020eef62ee308107cc","64b1091b43ebe68af96e600c","null","null","<p style=""font-size: 60px; font-family: BACS"">DmAMEdTAh</p>","","","","","","","",""
"html-keyboard-response","85","116315","0.0-7.0-0.78","5e80c7d61a07dd7b0d8f0111","64b003020eef62ee308107cc","64b1091b43ebe68af96e600c","null","null","<p style=""font-size: 60px; font-family: BACS"">aUZANac</p>","","","","","","","",""
"html-keyboard-response","86","117331","0.0-7.0-0.79","5e80c7d61a07dd7b0d8f0111","64b003020eef62ee308107cc","64b1091b43ebe68af96e600c","null","null","<p style=""font-size: 60px; font-family: BACS"">chEDOmCd</p>","","","","","","","",""
"html-keyboard-response","87","119727","0.0-8.0","5e80c7d61a07dd7b0d8f0111","64b003020eef62ee308107cc","64b1091b43ebe68af96e600c","2396"," ","<p>Ottimo, hai visto il primo blocco di parole. Ora puoi prenderti una piccola pausa.</p>
      <p>Premi la barra quando sei pronta/o per riprendere.</p>","","","","","","","",""
"html-keyboard-response","88","120731","0.0-9.0-0.0","5e80c7d61a07dd7b0d8f0111","64b003020eef62ee308107cc","64b1091b43ebe68af96e600c","null","null","<p style=""font-size: 60px; font-family: BACS"">uQuZcrAm</p>","","","","","","","",""
"html-keyboard-response","89","121743","0.0-9.0-0.1","5e80c7d61a07dd7b0d8f0111","64b003020eef62ee308107cc","64b1091b43ebe68af96e600c","null","null","<p style=""font-size: 60px; font-family: BACS"">MBKREmCd</p>","","","","","","","",""
"html-keyboard-response","90","122755","0.0-9.0-0.2","5e80c7d61a07dd7b0d8f0111","64b003020eef62ee308107cc","64b1091b43ebe68af96e600c","null","null","<p style=""font-size: 60px; font-family: BACS"">NbmQUNac</p>","","","","","","","",""
"html-keyboard-response","91","123761","0.0-9.0-0.3","5e80c7d61a07dd7b0d8f0111","64b003020eef62ee308107cc","64b1091b43ebe68af96e600c","null","null","<p style=""font-size: 60px; font-family: BACS"">MBKREtAY</p>","","","","","","","",""
"html-keyboard-response","92","124776","0.0-9.0-0.4","5e80c7d61a07dd7b0d8f0111","64b003020eef62ee308107cc","64b1091b43ebe68af96e600c","null","null","<p style=""font-size: 60px; font-family: BACS"">aUZArAm</p>","","","","","","","",""
"html-keyboard-response","93","125786","0.0-9.0-0.5","5e80c7d61a07dd7b0d8f0111","64b003020eef62ee308107cc","64b1091b43ebe68af96e600c","null","null","<p style=""font-size: 60px; font-family: BACS"">BATOcmCd</p>","","","","","","","",""
"html-keyboard-response","94","126788","0.0-9.0-0.6","5e80c7d61a07dd7b0d8f0111","64b003020eef62ee308107cc","64b1091b43ebe68af96e600c","null","null","<p style=""font-size: 60px; font-family: BACS"">kdaAJOcZJ</p>","","","","","","","",""
"html-keyboard-response","95","127805","0.0-9.0-0.7","5e80c7d61a07dd7b0d8f0111","64b003020eef62ee308107cc","64b1091b43ebe68af96e600c","null","null","<p style=""font-size: 60px; font-family: BACS"">COTKmCd</p>","","","","","","","",""
"html-keyboard-response","96","128808","0.0-9.0-0.8","5e80c7d61a07dd7b0d8f0111","64b003020eef62ee308107cc","64b1091b43ebe68af96e600c","null","null","<p style=""font-size: 60px; font-family: BACS"">aUZAGUOA</p>","","","","","","","",""
"html-keyboard-response","97","129819","0.0-9.0-0.9","5e80c7d61a07dd7b0d8f0111","64b003020eef62ee308107cc","64b1091b43ebe68af96e600c","null","null","<p style=""font-size: 60px; font-family: BACS"">DmAMEYTOM</p>","","","","","","","",""
"html-keyboard-response","98","130826","0.0-9.0-0.10","5e80c7d61a07dd7b0d8f0111","64b003020eef62ee308107cc","64b1091b43ebe68af96e600c","null","null","<p style=""font-size: 60px; font-family: BACS"">tmYhdTAh</p>","","","","","","","",""
"html-keyboard-response","99","131835","0.0-9.0-0.11","5e80c7d61a07dd7b0d8f0111","64b003020eef62ee308107cc","64b1091b43ebe68af96e600c","null","null","<p style=""font-size: 60px; font-family: BACS"">OAblcNac</p>","","","","","","","",""
"html-keyboard-response","100","132850","0.0-9.0-0.12","5e80c7d61a07dd7b0d8f0111","64b003020eef62ee308107cc","64b1091b43ebe68af96e600c","null","null","<p style=""font-size: 60px; font-family: BACS"">MBKREdTAh</p>","","","","","","","",""
"html-keyboard-response","101","133858","0.0-9.0-0.13","5e80c7d61a07dd7b0d8f0111","64b003020eef62ee308107cc","64b1091b43ebe68af96e600c","null","null","<p style=""font-size: 60px; font-family: BACS"">BATOcmAM</p>","","","","","","","",""
"html-keyboard-response","102","134875","0.0-9.0-0.14","5e80c7d61a07dd7b0d8f0111","64b003020eef62ee308107cc","64b1091b43ebe68af96e600c","null","null","<p style=""font-size: 60px; font-family: BACS"">ldAarAm</p>","","","","","","","",""
"html-keyboard-response","103","135885","0.0-9.0-0.15","5e80c7d61a07dd7b0d8f0111","64b003020eef62ee308107cc","64b1091b43ebe68af96e600c","null","null","<p style=""font-size: 60px; font-family: BACS"">uQuZcOcZJ</p>","","","","","","","",""
"html-keyboard-response","104","136890","0.0-9.0-0.16","5e80c7d61a07dd7b0d8f0111","64b003020eef62ee308107cc","64b1091b43ebe68af96e600c","null","null","<p style=""font-size: 60px; font-family: BACS"">KBKBEYTOM</p>","","","","","","","",""
"html-keyboard-response","105","137902","0.0-9.0-0.17","5e80c7d61a07dd7b0d8f0111","64b003020eef62ee308107cc","64b1091b43ebe68af96e600c","null","null","<p style=""font-size: 60px; font-family: BACS"">DmAMEtAY</p>","","","","","","","",""
"html-keyboard-response","106","138916","0.0-9.0-0.18","5e80c7d61a07dd7b0d8f0111","64b003020eef62ee308107cc","64b1091b43ebe68af96e600c","null","null","<p style=""font-size: 60px; font-family: BACS"">OAblcrAm</p>","","","","","","","",""
"html-keyboard-response","107","139931","0.0-9.0-0.19","5e80c7d61a07dd7b0d8f0111","64b003020eef62ee308107cc","64b1091b43ebe68af96e600c","null","null","<p style=""font-size: 60px; font-family: BACS"">COTKdTAh</p>","","","","","","","",""
"html-keyboard-response","108","140940","0.0-9.0-0.20","5e80c7d61a07dd7b0d8f0111","64b003020eef62ee308107cc","64b1091b43ebe68af96e600c","null","null","<p style=""font-size: 60px; font-family: BACS"">bAdkmCd</p>","","","","","","","",""
"html-keyboard-response","109","141941","0.0-9.0-0.21","5e80c7d61a07dd7b0d8f0111","64b003020eef62ee308107cc","64b1091b43ebe68af96e600c","null","null","<p style=""font-size: 60px; font-family: BACS"">chEDOtAY</p>","","","","","","","",""
"html-keyboard-response","110","142956","0.0-9.0-0.22","5e80c7d61a07dd7b0d8f0111","64b003020eef62ee308107cc","64b1091b43ebe68af96e600c","null","null","<p style=""font-size: 60px; font-family: BACS"">tmYhmCd</p>","","","","","","","",""
"html-keyboard-response","111","143957","0.0-9.0-0.23","5e80c7d61a07dd7b0d8f0111","64b003020eef62ee308107cc","64b1091b43ebe68af96e600c","null","null","<p style=""font-size: 60px; font-family: BACS"">COTKYTOM</p>","","","","","","","",""
"html-keyboard-response","112","144964","0.0-9.0-0.24","5e80c7d61a07dd7b0d8f0111","64b003020eef62ee308107cc","64b1091b43ebe68af96e600c","null","null","<p style=""font-size: 60px; font-family: BACS"">kdaAJrAm</p>","","","","","","","",""
"html-keyboard-response","113","145980","0.0-9.0-0.25","5e80c7d61a07dd7b0d8f0111","64b003020eef62ee308107cc","64b1091b43ebe68af96e600c","null","null","<p style=""font-size: 60px; font-family: BACS"">YZJmOcZJ</p>","","","","","","","",""
"html-keyboard-response","114","146985","0.0-9.0-0.26","5e80c7d61a07dd7b0d8f0111","64b003020eef62ee308107cc","64b1091b43ebe68af96e600c","null","null","<p style=""font-size: 60px; font-family: BACS"">bAdkdTAh</p>","","","","","","","",""
"html-keyboard-response","115","147989","0.0-9.0-0.27","5e80c7d61a07dd7b0d8f0111","64b003020eef62ee308107cc","64b1091b43ebe68af96e600c","null","null","<p style=""font-size: 60px; font-family: BACS"">MDKPmAM</p>","","","","","","","",""
"html-keyboard-response","116","148997","0.0-9.0-0.28","5e80c7d61a07dd7b0d8f0111","64b003020eef62ee308107cc","64b1091b43ebe68af96e600c","null","null","<p style=""font-size: 60px; font-family: BACS"">ZNLOvOcZJ</p>","","","","","","","",""
"html-keyboard-response","117","150003","0.0-9.0-0.29","5e80c7d61a07dd7b0d8f0111","64b003020eef62ee308107cc","64b1091b43ebe68af96e600c","null","null","<p style=""font-size: 60px; font-family: BACS"">uQuZcGUOA</p>","","","","","","","",""
"html-keyboard-response","118","151018","0.0-9.0-0.30","5e80c7d61a07dd7b0d8f0111","64b003020eef62ee308107cc","64b1091b43ebe68af96e600c","null","null","<p style=""font-size: 60px; font-family: BACS"">aUZAOcZJ</p>","","","","","","","",""
"html-keyboard-response","119","152021","0.0-9.0-0.31","5e80c7d61a07dd7b0d8f0111","64b003020eef62ee308107cc","64b1091b43ebe68af96e600c","null","null","<p style=""font-size: 60px; font-family: BACS"">tmYhYTOM</p>","","","","","","","",""
"html-keyboard-response","120","153026","0.0-9.0-0.32","5e80c7d61a07dd7b0d8f0111","64b003020eef62ee308107cc","64b1091b43ebe68af96e600c","null","null","<p style=""font-size: 60px; font-family: BACS"">ldAaGUOA</p>","","","","","","","",""
"html-keyboard-response","121","154036","0.0-9.0-0.33","5e80c7d61a07dd7b0d8f0111","64b003020eef62ee308107cc","64b1091b43ebe68af96e600c","null","null","<p style=""font-size: 60px; font-family: BACS"">KBKBEdTAh</p>","","","","","","","",""
"html-keyboard-response","122","155052","0.0-9.0-0.34","5e80c7d61a07dd7b0d8f0111","64b003020eef62ee308107cc","64b1091b43ebe68af96e600c","null","null","<p style=""font-size: 60px; font-family: BACS"">OAblcrba</p>","","","","","","","",""
"html-keyboard-response","123","156053","0.0-9.0-0.35","5e80c7d61a07dd7b0d8f0111","64b003020eef62ee308107cc","64b1091b43ebe68af96e600c","null","null","<p style=""font-size: 60px; font-family: BACS"">DmAMEmAM</p>","","","","","","","",""
"html-keyboard-response","124","157069","0.0-9.0-0.36","5e80c7d61a07dd7b0d8f0111","64b003020eef62ee308107cc","64b1091b43ebe68af96e600c","null","null","<p style=""font-size: 60px; font-family: BACS"">uQuZcrba</p>","","","","","","","",""
"html-keyboard-response","125","158085","0.0-9.0-0.37","5e80c7d61a07dd7b0d8f0111","64b003020eef62ee308107cc","64b1091b43ebe68af96e600c","null","null","<p style=""font-size: 60px; font-family: BACS"">aUZANac</p>","","","","","","","",""
"html-keyboard-response","126","159093","0.0-9.0-0.38","5e80c7d61a07dd7b0d8f0111","64b003020eef62ee308107cc","64b1091b43ebe68af96e600c","null","null","<p style=""font-size: 60px; font-family: BACS"">chEDOdTAh</p>","","","","","","","",""
"html-keyboard-response","127","160110","0.0-9.0-0.39","5e80c7d61a07dd7b0d8f0111","64b003020eef62ee308107cc","64b1091b43ebe68af96e600c","null","null","<p style=""font-size: 60px; font-family: BACS"">bAdktAY</p>","","","","","","","",""
"html-keyboard-response","128","161119","0.0-9.0-0.40","5e80c7d61a07dd7b0d8f0111","64b003020eef62ee308107cc","64b1091b43ebe68af96e600c","null","null","<p style=""font-size: 60px; font-family: BACS"">mZUrQGUOA</p>","","","","","","","",""
"html-keyboard-response","129","162133","0.0-9.0-0.41","5e80c7d61a07dd7b0d8f0111","64b003020eef62ee308107cc","64b1091b43ebe68af96e600c","null","null","<p style=""font-size: 60px; font-family: BACS"">ZNLOvrAm</p>","","","","","","","",""
"html-keyboard-response","130","163141","0.0-9.0-0.42","5e80c7d61a07dd7b0d8f0111","64b003020eef62ee308107cc","64b1091b43ebe68af96e600c","null","null","<p style=""font-size: 60px; font-family: BACS"">cuOJbOcZJ</p>","","","","","","","",""
"html-keyboard-response","131","164150","0.0-9.0-0.43","5e80c7d61a07dd7b0d8f0111","64b003020eef62ee308107cc","64b1091b43ebe68af96e600c","null","null","<p style=""font-size: 60px; font-family: BACS"">BATOcYTOM</p>","","","","","","","",""
"html-keyboard-response","132","165158","0.0-9.0-0.44","5e80c7d61a07dd7b0d8f0111","64b003020eef62ee308107cc","64b1091b43ebe68af96e600c","null","null","<p style=""font-size: 60px; font-family: BACS"">kdaAJNac</p>","","","","","","","",""
"html-keyboard-response","133","166167","0.0-9.0-0.45","5e80c7d61a07dd7b0d8f0111","64b003020eef62ee308107cc","64b1091b43ebe68af96e600c","null","null","<p style=""font-size: 60px; font-family: BACS"">MBKREYTOM</p>","","","","","","","",""
"html-keyboard-response","134","167175","0.0-9.0-0.46","5e80c7d61a07dd7b0d8f0111","64b003020eef62ee308107cc","64b1091b43ebe68af96e600c","null","null","<p style=""font-size: 60px; font-family: BACS"">NbmQUOcZJ</p>","","","","","","","",""
"html-keyboard-response","135","168182","0.0-9.0-0.47","5e80c7d61a07dd7b0d8f0111","64b003020eef62ee308107cc","64b1091b43ebe68af96e600c","null","null","<p style=""font-size: 60px; font-family: BACS"">YZJmNac</p>","","","","","","","",""
"html-keyboard-response","136","169192","0.0-9.0-0.48","5e80c7d61a07dd7b0d8f0111","64b003020eef62ee308107cc","64b1091b43ebe68af96e600c","null","null","<p style=""font-size: 60px; font-family: BACS"">KBKBEmAM</p>","","","","","","","",""
"html-keyboard-response","137","170199","0.0-9.0-0.49","5e80c7d61a07dd7b0d8f0111","64b003020eef62ee308107cc","64b1091b43ebe68af96e600c","null","null","<p style=""font-size: 60px; font-family: BACS"">MDKPmCd</p>","","","","","","","",""
"html-keyboard-response","138","171214","0.0-9.0-0.50","5e80c7d61a07dd7b0d8f0111","64b003020eef62ee308107cc","64b1091b43ebe68af96e600c","null","null","<p style=""font-size: 60px; font-family: BACS"">cuOJbrAm</p>","","","","","","","",""
"html-keyboard-response","139","172216","0.0-9.0-0.51","5e80c7d61a07dd7b0d8f0111","64b003020eef62ee308107cc","64b1091b43ebe68af96e600c","null","null","<p style=""font-size: 60px; font-family: BACS"">COTKmAM</p>","","","","","","","",""
"html-keyboard-response","140","173222","0.0-9.0-0.52","5e80c7d61a07dd7b0d8f0111","64b003020eef62ee308107cc","64b1091b43ebe68af96e600c","null","null","<p style=""font-size: 60px; font-family: BACS"">YZJmrba</p>","","","","","","","",""
"html-keyboard-response","141","174226","0.0-9.0-0.53","5e80c7d61a07dd7b0d8f0111","64b003020eef62ee308107cc","64b1091b43ebe68af96e600c","null","null","<p style=""font-size: 60px; font-family: BACS"">MDKPYTOM</p>","","","","","","","",""
"html-keyboard-response","142","175231","0.0-9.0-0.54","5e80c7d61a07dd7b0d8f0111","64b003020eef62ee308107cc","64b1091b43ebe68af96e600c","null","null","<p style=""font-size: 60px; font-family: BACS"">KBKBEtAY</p>","","","","","","","",""
"html-keyboard-response","143","176246","0.0-9.0-0.55","5e80c7d61a07dd7b0d8f0111","64b003020eef62ee308107cc","64b1091b43ebe68af96e600c","null","null","<p style=""font-size: 60px; font-family: BACS"">cuOJbrba</p>","","","","","","","",""
"html-keyboard-response","144","177255","0.0-9.0-0.56","5e80c7d61a07dd7b0d8f0111","64b003020eef62ee308107cc","64b1091b43ebe68af96e600c","null","null","<p style=""font-size: 60px; font-family: BACS"">NbmQUGUOA</p>","","","","","","","",""
"html-keyboard-response","145","178262","0.0-9.0-0.57","5e80c7d61a07dd7b0d8f0111","64b003020eef62ee308107cc","64b1091b43ebe68af96e600c","null","null","<p style=""font-size: 60px; font-family: BACS"">tmYhtAY</p>","","","","","","","",""
"html-keyboard-response","146","179278","0.0-9.0-0.58","5e80c7d61a07dd7b0d8f0111","64b003020eef62ee308107cc","64b1091b43ebe68af96e600c","null","null","<p style=""font-size: 60px; font-family: BACS"">PcBTYTOM</p>","","","","","","","",""
"html-keyboard-response","147","180285","0.0-9.0-0.59","5e80c7d61a07dd7b0d8f0111","64b003020eef62ee308107cc","64b1091b43ebe68af96e600c","null","null","<p style=""font-size: 60px; font-family: BACS"">mZUrQOcZJ</p>","","","","","","","",""
"html-keyboard-response","148","181289","0.0-9.0-0.60","5e80c7d61a07dd7b0d8f0111","64b003020eef62ee308107cc","64b1091b43ebe68af96e600c","null","null","<p style=""font-size: 60px; font-family: BACS"">ldAaNac</p>","","","","","","","",""
"html-keyboard-response","149","182295","0.0-9.0-0.61","5e80c7d61a07dd7b0d8f0111","64b003020eef62ee308107cc","64b1091b43ebe68af96e600c","null","null","<p style=""font-size: 60px; font-family: BACS"">bAdkmAM</p>","","","","","","","",""
"html-keyboard-response","150","183302","0.0-9.0-0.62","5e80c7d61a07dd7b0d8f0111","64b003020eef62ee308107cc","64b1091b43ebe68af96e600c","null","null","<p style=""font-size: 60px; font-family: BACS"">chEDOmCd</p>","","","","","","","",""
"html-keyboard-response","151","184317","0.0-9.0-0.63","5e80c7d61a07dd7b0d8f0111","64b003020eef62ee308107cc","64b1091b43ebe68af96e600c","null","null","<p style=""font-size: 60px; font-family: BACS"">cuOJbNac</p>","","","","","","","",""
"html-keyboard-response","152","185326","0.0-9.0-0.64","5e80c7d61a07dd7b0d8f0111","64b003020eef62ee308107cc","64b1091b43ebe68af96e600c","null","null","<p style=""font-size: 60px; font-family: BACS"">OAblcGUOA</p>","","","","","","","",""
"html-keyboard-response","153","186335","0.0-9.0-0.65","5e80c7d61a07dd7b0d8f0111","64b003020eef62ee308107cc","64b1091b43ebe68af96e600c","null","null","<p style=""font-size: 60px; font-family: BACS"">MDKPdTAh</p>","","","","","","","",""
"html-keyboard-response","154","187351","0.0-9.0-0.66","5e80c7d61a07dd7b0d8f0111","64b003020eef62ee308107cc","64b1091b43ebe68af96e600c","null","null","<p style=""font-size: 60px; font-family: BACS"">YZJmGUOA</p>","","","","","","","",""
"html-keyboard-response","155","188358","0.0-9.0-0.67","5e80c7d61a07dd7b0d8f0111","64b003020eef62ee308107cc","64b1091b43ebe68af96e600c","null","null","<p style=""font-size: 60px; font-family: BACS"">mZUrQrba</p>","","","","","","","",""
"html-keyboard-response","156","189360","0.0-9.0-0.68","5e80c7d61a07dd7b0d8f0111","64b003020eef62ee308107cc","64b1091b43ebe68af96e600c","null","null","<p style=""font-size: 60px; font-family: BACS"">PcBTmCd</p>","","","","","","","",""
"html-keyboard-response","157","190375","0.0-9.0-0.69","5e80c7d61a07dd7b0d8f0111","64b003020eef62ee308107cc","64b1091b43ebe68af96e600c","null","null","<p style=""font-size: 60px; font-family: BACS"">ZNLOvGUOA</p>","","","","","","","",""
"html-keyboard-response","158","191391","0.0-9.0-0.70","5e80c7d61a07dd7b0d8f0111","64b003020eef62ee308107cc","64b1091b43ebe68af96e600c","null","null","<p style=""font-size: 60px; font-family: BACS"">chEDOmAM</p>","","","","","","","",""
"html-keyboard-response","159","192400","0.0-9.0-0.71","5e80c7d61a07dd7b0d8f0111","64b003020eef62ee308107cc","64b1091b43ebe68af96e600c","null","null","<p style=""font-size: 60px; font-family: BACS"">NbmQUrAm</p>","","","","","","","",""
"html-keyboard-response","160","193408","0.0-9.0-0.72","5e80c7d61a07dd7b0d8f0111","64b003020eef62ee308107cc","64b1091b43ebe68af96e600c","null","null","<p style=""font-size: 60px; font-family: BACS"">ZNLOvrba</p>","","","","","","","",""
"html-keyboard-response","161","194417","0.0-9.0-0.73","5e80c7d61a07dd7b0d8f0111","64b003020eef62ee308107cc","64b1091b43ebe68af96e600c","null","null","<p style=""font-size: 60px; font-family: BACS"">PcBTtAY</p>","","","","","","","",""
"html-keyboard-response","162","195425","0.0-9.0-0.74","5e80c7d61a07dd7b0d8f0111","64b003020eef62ee308107cc","64b1091b43ebe68af96e600c","null","null","<p style=""font-size: 60px; font-family: BACS"">ldAarba</p>","","","","","","","",""
"html-keyboard-response","163","196431","0.0-9.0-0.75","5e80c7d61a07dd7b0d8f0111","64b003020eef62ee308107cc","64b1091b43ebe68af96e600c","null","null","<p style=""font-size: 60px; font-family: BACS"">PcBTmAM</p>","","","","","","","",""
"html-keyboard-response","164","197440","0.0-9.0-0.76","5e80c7d61a07dd7b0d8f0111","64b003020eef62ee308107cc","64b1091b43ebe68af96e600c","null","null","<p style=""font-size: 60px; font-family: BACS"">DmAMEdTAh</p>","","","","","","","",""
"html-keyboard-response","165","198446","0.0-9.0-0.77","5e80c7d61a07dd7b0d8f0111","64b003020eef62ee308107cc","64b1091b43ebe68af96e600c","null","null","<p style=""font-size: 60px; font-family: BACS"">kdaAJrba</p>","","","","","","","",""
"html-keyboard-response","166","199448","0.0-9.0-0.78","5e80c7d61a07dd7b0d8f0111","64b003020eef62ee308107cc","64b1091b43ebe68af96e600c","null","null","<p style=""font-size: 60px; font-family: BACS"">BATOctAY</p>","","","","","","","",""
"html-keyboard-response","167","200456","0.0-9.0-0.79","5e80c7d61a07dd7b0d8f0111","64b003020eef62ee308107cc","64b1091b43ebe68af96e600c","null","null","<p style=""font-size: 60px; font-family: BACS"">mZUrQNac</p>","","","","","","","",""
"html-keyboard-response","168","202108","0.0-10.0","5e80c7d61a07dd7b0d8f0111","64b003020eef62ee308107cc","64b1091b43ebe68af96e600c","1651"," ","<p>Ottimo, hai visto il secondo blocco di parole. Ora puoi prenderti una piccola pausa.</p>
      <p>Premi la barra quando sei pronta/o per riprendere.</p>","","","","","","","",""
"html-keyboard-response","169","203114","0.0-11.0-0.0","5e80c7d61a07dd7b0d8f0111","64b003020eef62ee308107cc","64b1091b43ebe68af96e600c","null","null","<p style=""font-size: 60px; font-family: BACS"">YZJmNac</p>","","","","","","","",""
"html-keyboard-response","170","204120","0.0-11.0-0.1","5e80c7d61a07dd7b0d8f0111","64b003020eef62ee308107cc","64b1091b43ebe68af96e600c","null","null","<p style=""font-size: 60px; font-family: BACS"">uQuZcrAm</p>","","","","","","","",""
"html-keyboard-response","171","205130","0.0-11.0-0.2","5e80c7d61a07dd7b0d8f0111","64b003020eef62ee308107cc","64b1091b43ebe68af96e600c","null","null","<p style=""font-size: 60px; font-family: BACS"">ldAaGUOA</p>","","","","","","","",""
"html-keyboard-response","172","206145","0.0-11.0-0.3","5e80c7d61a07dd7b0d8f0111","64b003020eef62ee308107cc","64b1091b43ebe68af96e600c","null","null","<p style=""font-size: 60px; font-family: BACS"">kdaAJrAm</p>","","","","","","","",""
"html-keyboard-response","173","207147","0.0-11.0-0.4","5e80c7d61a07dd7b0d8f0111","64b003020eef62ee308107cc","64b1091b43ebe68af96e600c","null","null","<p style=""font-size: 60px; font-family: BACS"">BATOcmAM</p>","","","","","","","",""
"html-keyboard-response","174","208153","0.0-11.0-0.5","5e80c7d61a07dd7b0d8f0111","64b003020eef62ee308107cc","64b1091b43ebe68af96e600c","null","null","<p style=""font-size: 60px; font-family: BACS"">tmYhtAY</p>","","","","","","","",""
"html-keyboard-response","175","209168","0.0-11.0-0.6","5e80c7d61a07dd7b0d8f0111","64b003020eef62ee308107cc","64b1091b43ebe68af96e600c","null","null","<p style=""font-size: 60px; font-family: BACS"">DmAMEYTOM</p>","","","","","","","",""
"html-keyboard-response","176","210177","0.0-11.0-0.7","5e80c7d61a07dd7b0d8f0111","64b003020eef62ee308107cc","64b1091b43ebe68af96e600c","null","null","<p style=""font-size: 60px; font-family: BACS"">chEDOmCd</p>","","","","","","","",""
"html-keyboard-response","177","211185","0.0-11.0-0.8","5e80c7d61a07dd7b0d8f0111","64b003020eef62ee308107cc","64b1091b43ebe68af96e600c","null","null","<p style=""font-size: 60px; font-family: BACS"">OAblcrba</p>","","","","","","","",""
"html-keyboard-response","178","212198","0.0-11.0-0.9","5e80c7d61a07dd7b0d8f0111","64b003020eef62ee308107cc","64b1091b43ebe68af96e600c","null","null","<p style=""font-size: 60px; font-family: BACS"">NbmQUrAm</p>","","","","","","","",""
"html-keyboard-response","179","213203","0.0-11.0-0.10","5e80c7d61a07dd7b0d8f0111","64b003020eef62ee308107cc","64b1091b43ebe68af96e600c","null","null","<p style=""font-size: 60px; font-family: BACS"">ldAaNac</p>","","","","","","","",""
"html-keyboard-response","180","214215","0.0-11.0-0.11","5e80c7d61a07dd7b0d8f0111","64b003020eef62ee308107cc","64b1091b43ebe68af96e600c","null","null","<p style=""font-size: 60px; font-family: BACS"">DmAMEmAM</p>","","","","","","","",""
"html-keyboard-response","181","215225","0.0-11.0-0.12","5e80c7d61a07dd7b0d8f0111","64b003020eef62ee308107cc","64b1091b43ebe68af96e600c","null","null","<p style=""font-size: 60px; font-family: BACS"">cuOJbOcZJ</p>","","","","","","","",""
"html-keyboard-response","182","216240","0.0-11.0-0.13","5e80c7d61a07dd7b0d8f0111","64b003020eef62ee308107cc","64b1091b43ebe68af96e600c","null","null","<p style=""font-size: 60px; font-family: BACS"">mZUrQGUOA</p>","","","","","","","",""
"html-keyboard-response","183","217249","0.0-11.0-0.14","5e80c7d61a07dd7b0d8f0111","64b003020eef62ee308107cc","64b1091b43ebe68af96e600c","null","null","<p style=""font-size: 60px; font-family: BACS"">BATOctAY</p>","","","","","","","",""
"html-keyboard-response","184","218250","0.0-11.0-0.15","5e80c7d61a07dd7b0d8f0111","64b003020eef62ee308107cc","64b1091b43ebe68af96e600c","null","null","<p style=""font-size: 60px; font-family: BACS"">tmYhYTOM</p>","","","","","","","",""
"html-keyboard-response","185","219252","0.0-11.0-0.16","5e80c7d61a07dd7b0d8f0111","64b003020eef62ee308107cc","64b1091b43ebe68af96e600c","null","null","<p style=""font-size: 60px; font-family: BACS"">cuOJbrba</p>","","","","","","","",""
"html-keyboard-response","186","220257","0.0-11.0-0.17","5e80c7d61a07dd7b0d8f0111","64b003020eef62ee308107cc","64b1091b43ebe68af96e600c","null","null","<p style=""font-size: 60px; font-family: BACS"">aUZANac</p>","","","","","","","",""
"html-keyboard-response","187","221265","0.0-11.0-0.18","5e80c7d61a07dd7b0d8f0111","64b003020eef62ee308107cc","64b1091b43ebe68af96e600c","null","null","<p style=""font-size: 60px; font-family: BACS"">PcBTmCd</p>","","","","","","","",""
"html-keyboard-response","188","222272","0.0-11.0-0.19","5e80c7d61a07dd7b0d8f0111","64b003020eef62ee308107cc","64b1091b43ebe68af96e600c","null","null","<p style=""font-size: 60px; font-family: BACS"">OAblcGUOA</p>","","","","","","","",""
"html-keyboard-response","189","223282","0.0-11.0-0.20","5e80c7d61a07dd7b0d8f0111","64b003020eef62ee308107cc","64b1091b43ebe68af96e600c","null","null","<p style=""font-size: 60px; font-family: BACS"">ZNLOvrAm</p>","","","","","","","",""
"html-keyboard-response","190","224289","0.0-11.0-0.21","5e80c7d61a07dd7b0d8f0111","64b003020eef62ee308107cc","64b1091b43ebe68af96e600c","null","null","<p style=""font-size: 60px; font-family: BACS"">NbmQUNac</p>","","","","","","","",""
"html-keyboard-response","191","225298","0.0-11.0-0.22","5e80c7d61a07dd7b0d8f0111","64b003020eef62ee308107cc","64b1091b43ebe68af96e600c","null","null","<p style=""font-size: 60px; font-family: BACS"">mZUrQOcZJ</p>","","","","","","","",""
"html-keyboard-response","192","226303","0.0-11.0-0.23","5e80c7d61a07dd7b0d8f0111","64b003020eef62ee308107cc","64b1091b43ebe68af96e600c","null","null","<p style=""font-size: 60px; font-family: BACS"">ZNLOvGUOA</p>","","","","","","","",""
"html-keyboard-response","193","227313","0.0-11.0-0.24","5e80c7d61a07dd7b0d8f0111","64b003020eef62ee308107cc","64b1091b43ebe68af96e600c","null","null","<p style=""font-size: 60px; font-family: BACS"">COTKYTOM</p>","","","","","","","",""
"html-keyboard-response","194","228328","0.0-11.0-0.25","5e80c7d61a07dd7b0d8f0111","64b003020eef62ee308107cc","64b1091b43ebe68af96e600c","null","null","<p style=""font-size: 60px; font-family: BACS"">kdaAJrba</p>","","","","","","","",""
"html-keyboard-response","195","229330","0.0-11.0-0.26","5e80c7d61a07dd7b0d8f0111","64b003020eef62ee308107cc","64b1091b43ebe68af96e600c","null","null","<p style=""font-size: 60px; font-family: BACS"">MBKREtAY</p>","","","","","","","",""
"html-keyboard-response","196","230338","0.0-11.0-0.27","5e80c7d61a07dd7b0d8f0111","64b003020eef62ee308107cc","64b1091b43ebe68af96e600c","null","null","<p style=""font-size: 60px; font-family: BACS"">bAdkmAM</p>","","","","","","","",""
"html-keyboard-response","197","231346","0.0-11.0-0.28","5e80c7d61a07dd7b0d8f0111","64b003020eef62ee308107cc","64b1091b43ebe68af96e600c","null","null","<p style=""font-size: 60px; font-family: BACS"">MBKREmCd</p>","","","","","","","",""
"html-keyboard-response","198","232354","0.0-11.0-0.29","5e80c7d61a07dd7b0d8f0111","64b003020eef62ee308107cc","64b1091b43ebe68af96e600c","null","null","<p style=""font-size: 60px; font-family: BACS"">ldAarAm</p>","","","","","","","",""
"html-keyboard-response","199","233361","0.0-11.0-0.30","5e80c7d61a07dd7b0d8f0111","64b003020eef62ee308107cc","64b1091b43ebe68af96e600c","null","null","<p style=""font-size: 60px; font-family: BACS"">bAdkmCd</p>","","","","","","","",""
"html-keyboard-response","200","234376","0.0-11.0-0.31","5e80c7d61a07dd7b0d8f0111","64b003020eef62ee308107cc","64b1091b43ebe68af96e600c","null","null","<p style=""font-size: 60px; font-family: BACS"">tmYhdTAh</p>","","","","","","","",""
"html-keyboard-response","201","235378","0.0-11.0-0.32","5e80c7d61a07dd7b0d8f0111","64b003020eef62ee308107cc","64b1091b43ebe68af96e600c","null","null","<p style=""font-size: 60px; font-family: BACS"">aUZAOcZJ</p>","","","","","","","",""
"html-keyboard-response","202","236385","0.0-11.0-0.33","5e80c7d61a07dd7b0d8f0111","64b003020eef62ee308107cc","64b1091b43ebe68af96e600c","null","null","<p style=""font-size: 60px; font-family: BACS"">DmAMEtAY</p>","","","","","","","",""
"html-keyboard-response","203","237388","0.0-11.0-0.34","5e80c7d61a07dd7b0d8f0111","64b003020eef62ee308107cc","64b1091b43ebe68af96e600c","null","null","<p style=""font-size: 60px; font-family: BACS"">PcBTmAM</p>","","","","","","","",""
"html-keyboard-response","204","238394","0.0-11.0-0.35","5e80c7d61a07dd7b0d8f0111","64b003020eef62ee308107cc","64b1091b43ebe68af96e600c","null","null","<p style=""font-size: 60px; font-family: BACS"">mZUrQrba</p>","","","","","","","",""
"html-keyboard-response","205","239409","0.0-11.0-0.36","5e80c7d61a07dd7b0d8f0111","64b003020eef62ee308107cc","64b1091b43ebe68af96e600c","null","null","<p style=""font-size: 60px; font-family: BACS"">MBKREdTAh</p>","","","","","","","",""
"html-keyboard-response","206","240426","0.0-11.0-0.37","5e80c7d61a07dd7b0d8f0111","64b003020eef62ee308107cc","64b1091b43ebe68af96e600c","null","null","<p style=""font-size: 60px; font-family: BACS"">MDKPmCd</p>","","","","","","","",""
"html-keyboard-response","207","241442","0.0-11.0-0.38","5e80c7d61a07dd7b0d8f0111","64b003020eef62ee308107cc","64b1091b43ebe68af96e600c","null","null","<p style=""font-size: 60px; font-family: BACS"">ldAarba</p>","","","","","","","",""
"html-keyboard-response","208","242450","0.0-11.0-0.39","5e80c7d61a07dd7b0d8f0111","64b003020eef62ee308107cc","64b1091b43ebe68af96e600c","null","null","<p style=""font-size: 60px; font-family: BACS"">aUZArAm</p>","","","","","","","",""
"html-keyboard-response","209","243452","0.0-11.0-0.40","5e80c7d61a07dd7b0d8f0111","64b003020eef62ee308107cc","64b1091b43ebe68af96e600c","null","null","<p style=""font-size: 60px; font-family: BACS"">BATOcmCd</p>","","","","","","","",""
"html-keyboard-response","210","244459","0.0-11.0-0.41","5e80c7d61a07dd7b0d8f0111","64b003020eef62ee308107cc","64b1091b43ebe68af96e600c","null","null","<p style=""font-size: 60px; font-family: BACS"">YZJmGUOA</p>","","","","","","","",""
"html-keyboard-response","211","245473","0.0-11.0-0.42","5e80c7d61a07dd7b0d8f0111","64b003020eef62ee308107cc","64b1091b43ebe68af96e600c","null","null","<p style=""font-size: 60px; font-family: BACS"">NbmQUOcZJ</p>","","","","","","","",""
"html-keyboard-response","212","246489","0.0-11.0-0.43","5e80c7d61a07dd7b0d8f0111","64b003020eef62ee308107cc","64b1091b43ebe68af96e600c","null","null","<p style=""font-size: 60px; font-family: BACS"">MBKREYTOM</p>","","","","","","","",""
"html-keyboard-response","213","247505","0.0-11.0-0.44","5e80c7d61a07dd7b0d8f0111","64b003020eef62ee308107cc","64b1091b43ebe68af96e600c","null","null","<p style=""font-size: 60px; font-family: BACS"">mZUrQNac</p>","","","","","","","",""
"html-keyboard-response","214","248520","0.0-11.0-0.45","5e80c7d61a07dd7b0d8f0111","64b003020eef62ee308107cc","64b1091b43ebe68af96e600c","null","null","<p style=""font-size: 60px; font-family: BACS"">MDKPdTAh</p>","","","","","","","",""
"html-keyboard-response","215","249533","0.0-11.0-0.46","5e80c7d61a07dd7b0d8f0111","64b003020eef62ee308107cc","64b1091b43ebe68af96e600c","null","null","<p style=""font-size: 60px; font-family: BACS"">YZJmrba</p>","","","","","","","",""
"html-keyboard-response","216","250538","0.0-11.0-0.47","5e80c7d61a07dd7b0d8f0111","64b003020eef62ee308107cc","64b1091b43ebe68af96e600c","null","null","<p style=""font-size: 60px; font-family: BACS"">MDKPYTOM</p>","","","","","","","",""
"html-keyboard-response","217","251542","0.0-11.0-0.48","5e80c7d61a07dd7b0d8f0111","64b003020eef62ee308107cc","64b1091b43ebe68af96e600c","null","null","<p style=""font-size: 60px; font-family: BACS"">chEDOtAY</p>","","","","","","","",""
"html-keyboard-response","218","252549","0.0-11.0-0.49","5e80c7d61a07dd7b0d8f0111","64b003020eef62ee308107cc","64b1091b43ebe68af96e600c","null","null","<p style=""font-size: 60px; font-family: BACS"">kdaAJOcZJ</p>","","","","","","","",""
"html-keyboard-response","219","253562","0.0-11.0-0.50","5e80c7d61a07dd7b0d8f0111","64b003020eef62ee308107cc","64b1091b43ebe68af96e600c","null","null","<p style=""font-size: 60px; font-family: BACS"">bAdktAY</p>","","","","","","","",""
"html-keyboard-response","220","254579","0.0-11.0-0.51","5e80c7d61a07dd7b0d8f0111","64b003020eef62ee308107cc","64b1091b43ebe68af96e600c","null","null","<p style=""font-size: 60px; font-family: BACS"">COTKdTAh</p>","","","","","","","",""
"html-keyboard-response","221","255581","0.0-11.0-0.52","5e80c7d61a07dd7b0d8f0111","64b003020eef62ee308107cc","64b1091b43ebe68af96e600c","null","null","<p style=""font-size: 60px; font-family: BACS"">cuOJbNac</p>","","","","","","","",""
"html-keyboard-response","222","256587","0.0-11.0-0.53","5e80c7d61a07dd7b0d8f0111","64b003020eef62ee308107cc","64b1091b43ebe68af96e600c","null","null","<p style=""font-size: 60px; font-family: BACS"">uQuZcrba</p>","","","","","","","",""
"html-keyboard-response","223","257596","0.0-11.0-0.54","5e80c7d61a07dd7b0d8f0111","64b003020eef62ee308107cc","64b1091b43ebe68af96e600c","null","null","<p style=""font-size: 60px; font-family: BACS"">NbmQUGUOA</p>","","","","","","","",""
"html-keyboard-response","224","258611","0.0-11.0-0.55","5e80c7d61a07dd7b0d8f0111","64b003020eef62ee308107cc","64b1091b43ebe68af96e600c","null","null","<p style=""font-size: 60px; font-family: BACS"">KBKBEmAM</p>","","","","","","","",""
"html-keyboard-response","225","259620","0.0-11.0-0.56","5e80c7d61a07dd7b0d8f0111","64b003020eef62ee308107cc","64b1091b43ebe68af96e600c","null","null","<p style=""font-size: 60px; font-family: BACS"">cuOJbrAm</p>","","","","","","","",""
"html-keyboard-response","226","260628","0.0-11.0-0.57","5e80c7d61a07dd7b0d8f0111","64b003020eef62ee308107cc","64b1091b43ebe68af96e600c","null","null","<p style=""font-size: 60px; font-family: BACS"">KBKBEtAY</p>","","","","","","","",""
"html-keyboard-response","227","261644","0.0-11.0-0.58","5e80c7d61a07dd7b0d8f0111","64b003020eef62ee308107cc","64b1091b43ebe68af96e600c","null","null","<p style=""font-size: 60px; font-family: BACS"">chEDOmAM</p>","","","","","","","",""
"html-keyboard-response","228","262645","0.0-11.0-0.59","5e80c7d61a07dd7b0d8f0111","64b003020eef62ee308107cc","64b1091b43ebe68af96e600c","null","null","<p style=""font-size: 60px; font-family: BACS"">OAblcNac</p>","","","","","","","",""
"html-keyboard-response","229","263661","0.0-11.0-0.60","5e80c7d61a07dd7b0d8f0111","64b003020eef62ee308107cc","64b1091b43ebe68af96e600c","null","null","<p style=""font-size: 60px; font-family: BACS"">MDKPmAM</p>","","","","","","","",""
"html-keyboard-response","230","264676","0.0-11.0-0.61","5e80c7d61a07dd7b0d8f0111","64b003020eef62ee308107cc","64b1091b43ebe68af96e600c","null","null","<p style=""font-size: 60px; font-family: BACS"">YZJmOcZJ</p>","","","","","","","",""
"html-keyboard-response","231","265685","0.0-11.0-0.62","5e80c7d61a07dd7b0d8f0111","64b003020eef62ee308107cc","64b1091b43ebe68af96e600c","null","null","<p style=""font-size: 60px; font-family: BACS"">OAblcrAm</p>","","","","","","","",""
"html-keyboard-response","232","266701","0.0-11.0-0.63","5e80c7d61a07dd7b0d8f0111","64b003020eef62ee308107cc","64b1091b43ebe68af96e600c","null","null","<p style=""font-size: 60px; font-family: BACS"">aUZAGUOA</p>","","","","","","","",""
"html-keyboard-response","233","267717","0.0-11.0-0.64","5e80c7d61a07dd7b0d8f0111","64b003020eef62ee308107cc","64b1091b43ebe68af96e600c","null","null","<p style=""font-size: 60px; font-family: BACS"">PcBTtAY</p>","","","","","","","",""
"html-keyboard-response","234","268733","0.0-11.0-0.65","5e80c7d61a07dd7b0d8f0111","64b003020eef62ee308107cc","64b1091b43ebe68af96e600c","null","null","<p style=""font-size: 60px; font-family: BACS"">KBKBEYTOM</p>","","","","","","","",""
"html-keyboard-response","235","269741","0.0-11.0-0.66","5e80c7d61a07dd7b0d8f0111","64b003020eef62ee308107cc","64b1091b43ebe68af96e600c","null","null","<p style=""font-size: 60px; font-family: BACS"">ZNLOvOcZJ</p>","","","","","","","",""
"html-keyboard-response","236","270750","0.0-11.0-0.67","5e80c7d61a07dd7b0d8f0111","64b003020eef62ee308107cc","64b1091b43ebe68af96e600c","null","null","<p style=""font-size: 60px; font-family: BACS"">COTKmAM</p>","","","","","","","",""
"html-keyboard-response","237","271765","0.0-11.0-0.68","5e80c7d61a07dd7b0d8f0111","64b003020eef62ee308107cc","64b1091b43ebe68af96e600c","null","null","<p style=""font-size: 60px; font-family: BACS"">BATOcYTOM</p>","","","","","","","",""
"html-keyboard-response","238","272773","0.0-11.0-0.69","5e80c7d61a07dd7b0d8f0111","64b003020eef62ee308107cc","64b1091b43ebe68af96e600c","null","null","<p style=""font-size: 60px; font-family: BACS"">tmYhmCd</p>","","","","","","","",""
"html-keyboard-response","239","273783","0.0-11.0-0.70","5e80c7d61a07dd7b0d8f0111","64b003020eef62ee308107cc","64b1091b43ebe68af96e600c","null","null","<p style=""font-size: 60px; font-family: BACS"">uQuZcOcZJ</p>","","","","","","","",""
"html-keyboard-response","240","274791","0.0-11.0-0.71","5e80c7d61a07dd7b0d8f0111","64b003020eef62ee308107cc","64b1091b43ebe68af96e600c","null","null","<p style=""font-size: 60px; font-family: BACS"">chEDOdTAh</p>","","","","","","","",""
"html-keyboard-response","241","275799","0.0-11.0-0.72","5e80c7d61a07dd7b0d8f0111","64b003020eef62ee308107cc","64b1091b43ebe68af96e600c","null","null","<p style=""font-size: 60px; font-family: BACS"">kdaAJNac</p>","","","","","","","",""
"html-keyboard-response","242","276814","0.0-11.0-0.73","5e80c7d61a07dd7b0d8f0111","64b003020eef62ee308107cc","64b1091b43ebe68af96e600c","null","null","<p style=""font-size: 60px; font-family: BACS"">PcBTYTOM</p>","","","","","","","",""
"html-keyboard-response","243","277829","0.0-11.0-0.74","5e80c7d61a07dd7b0d8f0111","64b003020eef62ee308107cc","64b1091b43ebe68af96e600c","null","null","<p style=""font-size: 60px; font-family: BACS"">COTKmCd</p>","","","","","","","",""
"html-keyboard-response","244","278838","0.0-11.0-0.75","5e80c7d61a07dd7b0d8f0111","64b003020eef62ee308107cc","64b1091b43ebe68af96e600c","null","null","<p style=""font-size: 60px; font-family: BACS"">KBKBEdTAh</p>","","","","","","","",""
"html-keyboard-response","245","279848","0.0-11.0-0.76","5e80c7d61a07dd7b0d8f0111","64b003020eef62ee308107cc","64b1091b43ebe68af96e600c","null","null","<p style=""font-size: 60px; font-family: BACS"">ZNLOvrba</p>","","","","","","","",""
"html-keyboard-response","246","280864","0.0-11.0-0.77","5e80c7d61a07dd7b0d8f0111","64b003020eef62ee308107cc","64b1091b43ebe68af96e600c","null","null","<p style=""font-size: 60px; font-family: BACS"">bAdkdTAh</p>","","","","","","","",""
"html-keyboard-response","247","281878","0.0-11.0-0.78","5e80c7d61a07dd7b0d8f0111","64b003020eef62ee308107cc","64b1091b43ebe68af96e600c","null","null","<p style=""font-size: 60px; font-family: BACS"">uQuZcGUOA</p>","","","","","","","",""
"html-keyboard-response","248","282890","0.0-11.0-0.79","5e80c7d61a07dd7b0d8f0111","64b003020eef62ee308107cc","64b1091b43ebe68af96e600c","null","null","<p style=""font-size: 60px; font-family: BACS"">DmAMEdTAh</p>","","","","","","","",""
"html-keyboard-response","249","286228","0.0-12.0","5e80c7d61a07dd7b0d8f0111","64b003020eef62ee308107cc","64b1091b43ebe68af96e600c","3337"," ","<p>Ottimo, hai visto il terzo blocco di parole. Ora puoi prenderti una piccola pausa.</p>
      <p>Premi la barra quando sei pronta/o per riprendere.</p>","","","","","","","",""
"html-keyboard-response","250","287237","0.0-13.0-0.0","5e80c7d61a07dd7b0d8f0111","64b003020eef62ee308107cc","64b1091b43ebe68af96e600c","null","null","<p style=""font-size: 60px; font-family: BACS"">mZUrQNac</p>","","","","","","","",""
"html-keyboard-response","251","288254","0.0-13.0-0.1","5e80c7d61a07dd7b0d8f0111","64b003020eef62ee308107cc","64b1091b43ebe68af96e600c","null","null","<p style=""font-size: 60px; font-family: BACS"">MDKPmAM</p>","","","","","","","",""
"html-keyboard-response","252","289257","0.0-13.0-0.2","5e80c7d61a07dd7b0d8f0111","64b003020eef62ee308107cc","64b1091b43ebe68af96e600c","null","null","<p style=""font-size: 60px; font-family: BACS"">YZJmrba</p>","","","","","","","",""
"html-keyboard-response","253","290270","0.0-13.0-0.3","5e80c7d61a07dd7b0d8f0111","64b003020eef62ee308107cc","64b1091b43ebe68af96e600c","null","null","<p style=""font-size: 60px; font-family: BACS"">aUZANac</p>","","","","","","","",""
"html-keyboard-response","254","291278","0.0-13.0-0.4","5e80c7d61a07dd7b0d8f0111","64b003020eef62ee308107cc","64b1091b43ebe68af96e600c","null","null","<p style=""font-size: 60px; font-family: BACS"">ZNLOvOcZJ</p>","","","","","","","",""
"html-keyboard-response","255","292285","0.0-13.0-0.5","5e80c7d61a07dd7b0d8f0111","64b003020eef62ee308107cc","64b1091b43ebe68af96e600c","null","null","<p style=""font-size: 60px; font-family: BACS"">YZJmNac</p>","","","","","","","",""
"html-keyboard-response","256","293288","0.0-13.0-0.6","5e80c7d61a07dd7b0d8f0111","64b003020eef62ee308107cc","64b1091b43ebe68af96e600c","null","null","<p style=""font-size: 60px; font-family: BACS"">ldAarba</p>","","","","","","","",""
"html-keyboard-response","257","294300","0.0-13.0-0.7","5e80c7d61a07dd7b0d8f0111","64b003020eef62ee308107cc","64b1091b43ebe68af96e600c","null","null","<p style=""font-size: 60px; font-family: BACS"">mZUrQGUOA</p>","","","","","","","",""
"html-keyboard-response","258","295316","0.0-13.0-0.8","5e80c7d61a07dd7b0d8f0111","64b003020eef62ee308107cc","64b1091b43ebe68af96e600c","null","null","<p style=""font-size: 60px; font-family: BACS"">NbmQUrAm</p>","","","","","","","",""
"html-keyboard-response","259","296323","0.0-13.0-0.9","5e80c7d61a07dd7b0d8f0111","64b003020eef62ee308107cc","64b1091b43ebe68af96e600c","null","null","<p style=""font-size: 60px; font-family: BACS"">YZJmOcZJ</p>","","","","","","","",""
"html-keyboard-response","260","297332","0.0-13.0-0.10","5e80c7d61a07dd7b0d8f0111","64b003020eef62ee308107cc","64b1091b43ebe68af96e600c","null","null","<p style=""font-size: 60px; font-family: BACS"">MDKPmCd</p>","","","","","","","",""
"html-keyboard-response","261","298342","0.0-13.0-0.11","5e80c7d61a07dd7b0d8f0111","64b003020eef62ee308107cc","64b1091b43ebe68af96e600c","null","null","<p style=""font-size: 60px; font-family: BACS"">DmAMEYTOM</p>","","","","","","","",""
"html-keyboard-response","262","299356","0.0-13.0-0.12","5e80c7d61a07dd7b0d8f0111","64b003020eef62ee308107cc","64b1091b43ebe68af96e600c","null","null","<p style=""font-size: 60px; font-family: BACS"">bAdktAY</p>","","","","","","","",""
"html-keyboard-response","263","300372","0.0-13.0-0.13","5e80c7d61a07dd7b0d8f0111","64b003020eef62ee308107cc","64b1091b43ebe68af96e600c","null","null","<p style=""font-size: 60px; font-family: BACS"">DmAMEdTAh</p>","","","","","","","",""
"html-keyboard-response","264","301385","0.0-13.0-0.14","5e80c7d61a07dd7b0d8f0111","64b003020eef62ee308107cc","64b1091b43ebe68af96e600c","null","null","<p style=""font-size: 60px; font-family: BACS"">cuOJbrAm</p>","","","","","","","",""
"html-keyboard-response","265","302398","0.0-13.0-0.15","5e80c7d61a07dd7b0d8f0111","64b003020eef62ee308107cc","64b1091b43ebe68af96e600c","null","null","<p style=""font-size: 60px; font-family: BACS"">COTKYTOM</p>","","","","","","","",""
"html-keyboard-response","266","303403","0.0-13.0-0.16","5e80c7d61a07dd7b0d8f0111","64b003020eef62ee308107cc","64b1091b43ebe68af96e600c","null","null","<p style=""font-size: 60px; font-family: BACS"">BATOcmCd</p>","","","","","","","",""
"html-keyboard-response","267","304413","0.0-13.0-0.17","5e80c7d61a07dd7b0d8f0111","64b003020eef62ee308107cc","64b1091b43ebe68af96e600c","null","null","<p style=""font-size: 60px; font-family: BACS"">KBKBEmAM</p>","","","","","","","",""
"html-keyboard-response","268","305421","0.0-13.0-0.18","5e80c7d61a07dd7b0d8f0111","64b003020eef62ee308107cc","64b1091b43ebe68af96e600c","null","null","<p style=""font-size: 60px; font-family: BACS"">BATOctAY</p>","","","","","","","",""
"html-keyboard-response","269","306437","0.0-13.0-0.19","5e80c7d61a07dd7b0d8f0111","64b003020eef62ee308107cc","64b1091b43ebe68af96e600c","null","null","<p style=""font-size: 60px; font-family: BACS"">MBKREYTOM</p>","","","","","","","",""
"html-keyboard-response","270","307448","0.0-13.0-0.20","5e80c7d61a07dd7b0d8f0111","64b003020eef62ee308107cc","64b1091b43ebe68af96e600c","null","null","<p style=""font-size: 60px; font-family: BACS"">ldAaGUOA</p>","","","","","","","",""
"html-keyboard-response","271","308463","0.0-13.0-0.21","5e80c7d61a07dd7b0d8f0111","64b003020eef62ee308107cc","64b1091b43ebe68af96e600c","null","null","<p style=""font-size: 60px; font-family: BACS"">bAdkmAM</p>","","","","","","","",""
"html-keyboard-response","272","309479","0.0-13.0-0.22","5e80c7d61a07dd7b0d8f0111","64b003020eef62ee308107cc","64b1091b43ebe68af96e600c","null","null","<p style=""font-size: 60px; font-family: BACS"">aUZAOcZJ</p>","","","","","","","",""
"html-keyboard-response","273","310495","0.0-13.0-0.23","5e80c7d61a07dd7b0d8f0111","64b003020eef62ee308107cc","64b1091b43ebe68af96e600c","null","null","<p style=""font-size: 60px; font-family: BACS"">PcBTYTOM</p>","","","","","","","",""
"html-keyboard-response","274","311505","0.0-13.0-0.24","5e80c7d61a07dd7b0d8f0111","64b003020eef62ee308107cc","64b1091b43ebe68af96e600c","null","null","<p style=""font-size: 60px; font-family: BACS"">MBKREmCd</p>","","","","","","","",""
"html-keyboard-response","275","312519","0.0-13.0-0.25","5e80c7d61a07dd7b0d8f0111","64b003020eef62ee308107cc","64b1091b43ebe68af96e600c","null","null","<p style=""font-size: 60px; font-family: BACS"">OAblcrba</p>","","","","","","","",""
"html-keyboard-response","276","313531","0.0-13.0-0.26","5e80c7d61a07dd7b0d8f0111","64b003020eef62ee308107cc","64b1091b43ebe68af96e600c","null","null","<p style=""font-size: 60px; font-family: BACS"">mZUrQOcZJ</p>","","","","","","","",""
"html-keyboard-response","277","314537","0.0-13.0-0.27","5e80c7d61a07dd7b0d8f0111","64b003020eef62ee308107cc","64b1091b43ebe68af96e600c","null","null","<p style=""font-size: 60px; font-family: BACS"">PcBTmCd</p>","","","","","","","",""
"html-keyboard-response","278","315553","0.0-13.0-0.28","5e80c7d61a07dd7b0d8f0111","64b003020eef62ee308107cc","64b1091b43ebe68af96e600c","null","null","<p style=""font-size: 60px; font-family: BACS"">uQuZcOcZJ</p>","","","","","","","",""
"html-keyboard-response","279","316569","0.0-13.0-0.29","5e80c7d61a07dd7b0d8f0111","64b003020eef62ee308107cc","64b1091b43ebe68af96e600c","null","null","<p style=""font-size: 60px; font-family: BACS"">kdaAJNac</p>","","","","","","","",""
"html-keyboard-response","280","317570","0.0-13.0-0.30","5e80c7d61a07dd7b0d8f0111","64b003020eef62ee308107cc","64b1091b43ebe68af96e600c","null","null","<p style=""font-size: 60px; font-family: BACS"">MBKREtAY</p>","","","","","","","",""
"html-keyboard-response","281","318576","0.0-13.0-0.31","5e80c7d61a07dd7b0d8f0111","64b003020eef62ee308107cc","64b1091b43ebe68af96e600c","null","null","<p style=""font-size: 60px; font-family: BACS"">bAdkmCd</p>","","","","","","","",""
"html-keyboard-response","282","319586","0.0-13.0-0.32","5e80c7d61a07dd7b0d8f0111","64b003020eef62ee308107cc","64b1091b43ebe68af96e600c","null","null","<p style=""font-size: 60px; font-family: BACS"">COTKmAM</p>","","","","","","","",""
"html-keyboard-response","283","320594","0.0-13.0-0.33","5e80c7d61a07dd7b0d8f0111","64b003020eef62ee308107cc","64b1091b43ebe68af96e600c","null","null","<p style=""font-size: 60px; font-family: BACS"">tmYhtAY</p>","","","","","","","",""
"html-keyboard-response","284","321601","0.0-13.0-0.34","5e80c7d61a07dd7b0d8f0111","64b003020eef62ee308107cc","64b1091b43ebe68af96e600c","null","null","<p style=""font-size: 60px; font-family: BACS"">COTKdTAh</p>","","","","","","","",""
"html-keyboard-response","285","322616","0.0-13.0-0.35","5e80c7d61a07dd7b0d8f0111","64b003020eef62ee308107cc","64b1091b43ebe68af96e600c","null","null","<p style=""font-size: 60px; font-family: BACS"">chEDOtAY</p>","","","","","","","",""
"html-keyboard-response","286","323628","0.0-13.0-0.36","5e80c7d61a07dd7b0d8f0111","64b003020eef62ee308107cc","64b1091b43ebe68af96e600c","null","null","<p style=""font-size: 60px; font-family: BACS"">ZNLOvGUOA</p>","","","","","","","",""
"html-keyboard-response","287","324642","0.0-13.0-0.37","5e80c7d61a07dd7b0d8f0111","64b003020eef62ee308107cc","64b1091b43ebe68af96e600c","null","null","<p style=""font-size: 60px; font-family: BACS"">cuOJbOcZJ</p>","","","","","","","",""
"html-keyboard-response","288","325651","0.0-13.0-0.38","5e80c7d61a07dd7b0d8f0111","64b003020eef62ee308107cc","64b1091b43ebe68af96e600c","null","null","<p style=""font-size: 60px; font-family: BACS"">ldAarAm</p>","","","","","","","",""
"html-keyboard-response","289","326659","0.0-13.0-0.39","5e80c7d61a07dd7b0d8f0111","64b003020eef62ee308107cc","64b1091b43ebe68af96e600c","null","null","<p style=""font-size: 60px; font-family: BACS"">tmYhmCd</p>","","","","","","","",""
"html-keyboard-response","290","327666","0.0-13.0-0.40","5e80c7d61a07dd7b0d8f0111","64b003020eef62ee308107cc","64b1091b43ebe68af96e600c","null","null","<p style=""font-size: 60px; font-family: BACS"">kdaAJrba</p>","","","","","","","",""
"html-keyboard-response","291","328682","0.0-13.0-0.41","5e80c7d61a07dd7b0d8f0111","64b003020eef62ee308107cc","64b1091b43ebe68af96e600c","null","null","<p style=""font-size: 60px; font-family: BACS"">OAblcrAm</p>","","","","","","","",""
"html-keyboard-response","292","329697","0.0-13.0-0.42","5e80c7d61a07dd7b0d8f0111","64b003020eef62ee308107cc","64b1091b43ebe68af96e600c","null","null","<p style=""font-size: 60px; font-family: BACS"">YZJmGUOA</p>","","","","","","","",""
"html-keyboard-response","293","330707","0.0-13.0-0.43","5e80c7d61a07dd7b0d8f0111","64b003020eef62ee308107cc","64b1091b43ebe68af96e600c","null","null","<p style=""font-size: 60px; font-family: BACS"">COTKmCd</p>","","","","","","","",""
"html-keyboard-response","294","331715","0.0-13.0-0.44","5e80c7d61a07dd7b0d8f0111","64b003020eef62ee308107cc","64b1091b43ebe68af96e600c","null","null","<p style=""font-size: 60px; font-family: BACS"">uQuZcGUOA</p>","","","","","","","",""
"html-keyboard-response","295","332730","0.0-13.0-0.45","5e80c7d61a07dd7b0d8f0111","64b003020eef62ee308107cc","64b1091b43ebe68af96e600c","null","null","<p style=""font-size: 60px; font-family: BACS"">NbmQUNac</p>","","","","","","","",""
"html-keyboard-response","296","333746","0.0-13.0-0.46","5e80c7d61a07dd7b0d8f0111","64b003020eef62ee308107cc","64b1091b43ebe68af96e600c","null","null","<p style=""font-size: 60px; font-family: BACS"">tmYhYTOM</p>","","","","","","","",""
"html-keyboard-response","297","334762","0.0-13.0-0.47","5e80c7d61a07dd7b0d8f0111","64b003020eef62ee308107cc","64b1091b43ebe68af96e600c","null","null","<p style=""font-size: 60px; font-family: BACS"">OAblcGUOA</p>","","","","","","","",""
"html-keyboard-response","298","335764","0.0-13.0-0.48","5e80c7d61a07dd7b0d8f0111","64b003020eef62ee308107cc","64b1091b43ebe68af96e600c","null","null","<p style=""font-size: 60px; font-family: BACS"">PcBTmAM</p>","","","","","","","",""
"html-keyboard-response","299","336772","0.0-13.0-0.49","5e80c7d61a07dd7b0d8f0111","64b003020eef62ee308107cc","64b1091b43ebe68af96e600c","null","null","<p style=""font-size: 60px; font-family: BACS"">mZUrQrba</p>","","","","","","","",""
"html-keyboard-response","300","337789","0.0-13.0-0.50","5e80c7d61a07dd7b0d8f0111","64b003020eef62ee308107cc","64b1091b43ebe68af96e600c","null","null","<p style=""font-size: 60px; font-family: BACS"">NbmQUGUOA</p>","","","","","","","",""
"html-keyboard-response","301","338796","0.0-13.0-0.51","5e80c7d61a07dd7b0d8f0111","64b003020eef62ee308107cc","64b1091b43ebe68af96e600c","null","null","<p style=""font-size: 60px; font-family: BACS"">BATOcYTOM</p>","","","","","","","",""
"html-keyboard-response","302","339811","0.0-13.0-0.52","5e80c7d61a07dd7b0d8f0111","64b003020eef62ee308107cc","64b1091b43ebe68af96e600c","null","null","<p style=""font-size: 60px; font-family: BACS"">PcBTtAY</p>","","","","","","","",""
"html-keyboard-response","303","340820","0.0-13.0-0.53","5e80c7d61a07dd7b0d8f0111","64b003020eef62ee308107cc","64b1091b43ebe68af96e600c","null","null","<p style=""font-size: 60px; font-family: BACS"">KBKBEYTOM</p>","","","","","","","",""
"html-keyboard-response","304","341835","0.0-13.0-0.54","5e80c7d61a07dd7b0d8f0111","64b003020eef62ee308107cc","64b1091b43ebe68af96e600c","null","null","<p style=""font-size: 60px; font-family: BACS"">kdaAJrAm</p>","","","","","","","",""
"html-keyboard-response","305","342837","0.0-13.0-0.55","5e80c7d61a07dd7b0d8f0111","64b003020eef62ee308107cc","64b1091b43ebe68af96e600c","null","null","<p style=""font-size: 60px; font-family: BACS"">KBKBEtAY</p>","","","","","","","",""
"html-keyboard-response","306","343845","0.0-13.0-0.56","5e80c7d61a07dd7b0d8f0111","64b003020eef62ee308107cc","64b1091b43ebe68af96e600c","null","null","<p style=""font-size: 60px; font-family: BACS"">MDKPYTOM</p>","","","","","","","",""
"html-keyboard-response","307","344852","0.0-13.0-0.57","5e80c7d61a07dd7b0d8f0111","64b003020eef62ee308107cc","64b1091b43ebe68af96e600c","null","null","<p style=""font-size: 60px; font-family: BACS"">NbmQUOcZJ</p>","","","","","","","",""
"html-keyboard-response","308","345854","0.0-13.0-0.58","5e80c7d61a07dd7b0d8f0111","64b003020eef62ee308107cc","64b1091b43ebe68af96e600c","null","null","<p style=""font-size: 60px; font-family: BACS"">ZNLOvrba</p>","","","","","","","",""
"html-keyboard-response","309","346856","0.0-13.0-0.59","5e80c7d61a07dd7b0d8f0111","64b003020eef62ee308107cc","64b1091b43ebe68af96e600c","null","null","<p style=""font-size: 60px; font-family: BACS"">tmYhdTAh</p>","","","","","","","",""
"html-keyboard-response","310","347861","0.0-13.0-0.60","5e80c7d61a07dd7b0d8f0111","64b003020eef62ee308107cc","64b1091b43ebe68af96e600c","null","null","<p style=""font-size: 60px; font-family: BACS"">chEDOmAM</p>","","","","","","","",""
"html-keyboard-response","311","348875","0.0-13.0-0.61","5e80c7d61a07dd7b0d8f0111","64b003020eef62ee308107cc","64b1091b43ebe68af96e600c","null","null","<p style=""font-size: 60px; font-family: BACS"">KBKBEdTAh</p>","","","","","","","",""
"html-keyboard-response","312","349892","0.0-13.0-0.62","5e80c7d61a07dd7b0d8f0111","64b003020eef62ee308107cc","64b1091b43ebe68af96e600c","null","null","<p style=""font-size: 60px; font-family: BACS"">aUZArAm</p>","","","","","","","",""
"html-keyboard-response","313","350900","0.0-13.0-0.63","5e80c7d61a07dd7b0d8f0111","64b003020eef62ee308107cc","64b1091b43ebe68af96e600c","null","null","<p style=""font-size: 60px; font-family: BACS"">ldAaNac</p>","","","","","","","",""
"html-keyboard-response","314","351909","0.0-13.0-0.64","5e80c7d61a07dd7b0d8f0111","64b003020eef62ee308107cc","64b1091b43ebe68af96e600c","null","null","<p style=""font-size: 60px; font-family: BACS"">uQuZcrAm</p>","","","","","","","",""
"html-keyboard-response","315","352916","0.0-13.0-0.65","5e80c7d61a07dd7b0d8f0111","64b003020eef62ee308107cc","64b1091b43ebe68af96e600c","null","null","<p style=""font-size: 60px; font-family: BACS"">MDKPdTAh</p>","","","","","","","",""
"html-keyboard-response","316","353925","0.0-13.0-0.66","5e80c7d61a07dd7b0d8f0111","64b003020eef62ee308107cc","64b1091b43ebe68af96e600c","null","null","<p style=""font-size: 60px; font-family: BACS"">OAblcNac</p>","","","","","","","",""
"html-keyboard-response","317","354941","0.0-13.0-0.67","5e80c7d61a07dd7b0d8f0111","64b003020eef62ee308107cc","64b1091b43ebe68af96e600c","null","null","<p style=""font-size: 60px; font-family: BACS"">chEDOmCd</p>","","","","","","","",""
"html-keyboard-response","318","355956","0.0-13.0-0.68","5e80c7d61a07dd7b0d8f0111","64b003020eef62ee308107cc","64b1091b43ebe68af96e600c","null","null","<p style=""font-size: 60px; font-family: BACS"">bAdkdTAh</p>","","","","","","","",""
"html-keyboard-response","319","356973","0.0-13.0-0.69","5e80c7d61a07dd7b0d8f0111","64b003020eef62ee308107cc","64b1091b43ebe68af96e600c","null","null","<p style=""font-size: 60px; font-family: BACS"">DmAMEtAY</p>","","","","","","","",""
"html-keyboard-response","320","357983","0.0-13.0-0.70","5e80c7d61a07dd7b0d8f0111","64b003020eef62ee308107cc","64b1091b43ebe68af96e600c","null","null","<p style=""font-size: 60px; font-family: BACS"">kdaAJOcZJ</p>","","","","","","","",""
"html-keyboard-response","321","358999","0.0-13.0-0.71","5e80c7d61a07dd7b0d8f0111","64b003020eef62ee308107cc","64b1091b43ebe68af96e600c","null","null","<p style=""font-size: 60px; font-family: BACS"">uQuZcrba</p>","","","","","","","",""
"html-keyboard-response","322","360015","0.0-13.0-0.72","5e80c7d61a07dd7b0d8f0111","64b003020eef62ee308107cc","64b1091b43ebe68af96e600c","null","null","<p style=""font-size: 60px; font-family: BACS"">chEDOdTAh</p>","","","","","","","",""
"html-keyboard-response","323","361021","0.0-13.0-0.73","5e80c7d61a07dd7b0d8f0111","64b003020eef62ee308107cc","64b1091b43ebe68af96e600c","null","null","<p style=""font-size: 60px; font-family: BACS"">cuOJbrba</p>","","","","","","","",""
"html-keyboard-response","324","362031","0.0-13.0-0.74","5e80c7d61a07dd7b0d8f0111","64b003020eef62ee308107cc","64b1091b43ebe68af96e600c","null","null","<p style=""font-size: 60px; font-family: BACS"">DmAMEmAM</p>","","","","","","","",""
"html-keyboard-response","325","363032","0.0-13.0-0.75","5e80c7d61a07dd7b0d8f0111","64b003020eef62ee308107cc","64b1091b43ebe68af96e600c","null","null","<p style=""font-size: 60px; font-family: BACS"">aUZAGUOA</p>","","","","","","","",""
"html-keyboard-response","326","364038","0.0-13.0-0.76","5e80c7d61a07dd7b0d8f0111","64b003020eef62ee308107cc","64b1091b43ebe68af96e600c","null","null","<p style=""font-size: 60px; font-family: BACS"">MBKREdTAh</p>","","","","","","","",""
"html-keyboard-response","327","365046","0.0-13.0-0.77","5e80c7d61a07dd7b0d8f0111","64b003020eef62ee308107cc","64b1091b43ebe68af96e600c","null","null","<p style=""font-size: 60px; font-family: BACS"">BATOcmAM</p>","","","","","","","",""
"html-keyboard-response","328","366063","0.0-13.0-0.78","5e80c7d61a07dd7b0d8f0111","64b003020eef62ee308107cc","64b1091b43ebe68af96e600c","null","null","<p style=""font-size: 60px; font-family: BACS"">ZNLOvrAm</p>","","","","","","","",""
"html-keyboard-response","329","367078","0.0-13.0-0.79","5e80c7d61a07dd7b0d8f0111","64b003020eef62ee308107cc","64b1091b43ebe68af96e600c","null","null","<p style=""font-size: 60px; font-family: BACS"">cuOJbNac</p>","","","","","","","",""
"html-keyboard-response","330","369563","0.0-14.0","5e80c7d61a07dd7b0d8f0111","64b003020eef62ee308107cc","64b1091b43ebe68af96e600c","2484"," ","<p>Ottimo, hai visto il quarto blocco di parole. Ora puoi prenderti una piccola pausa.</p>
      <p>Premi la barra quando sei pronta/o per riprendere.</p>","","","","","","","",""
"html-keyboard-response","331","370569","0.0-15.0-0.0","5e80c7d61a07dd7b0d8f0111","64b003020eef62ee308107cc","64b1091b43ebe68af96e600c","null","null","<p style=""font-size: 60px; font-family: BACS"">chEDOmCd</p>","","","","","","","",""
"html-keyboard-response","332","371585","0.0-15.0-0.1","5e80c7d61a07dd7b0d8f0111","64b003020eef62ee308107cc","64b1091b43ebe68af96e600c","null","null","<p style=""font-size: 60px; font-family: BACS"">chEDOmCd</p>","","","","","","","",""
"html-keyboard-response","333","372594","0.0-15.0-0.2","5e80c7d61a07dd7b0d8f0111","64b003020eef62ee308107cc","64b1091b43ebe68af96e600c","null","null","<p style=""font-size: 60px; font-family: BACS"">chEDOmCd</p>","","","","","","","",""
"html-keyboard-response","334","373601","0.0-15.0-0.3","5e80c7d61a07dd7b0d8f0111","64b003020eef62ee308107cc","64b1091b43ebe68af96e600c","null","null","<p style=""font-size: 60px; font-family: BACS"">chEDOmCd</p>","","","","","","","",""
"html-keyboard-response","335","374615","0.0-15.0-0.4","5e80c7d61a07dd7b0d8f0111","64b003020eef62ee308107cc","64b1091b43ebe68af96e600c","null","null","<p style=""font-size: 60px; font-family: BACS"">chEDOmCd</p>","","","","","","","",""
"html-keyboard-response","336","375626","0.0-15.0-0.5","5e80c7d61a07dd7b0d8f0111","64b003020eef62ee308107cc","64b1091b43ebe68af96e600c","null","null","<p style=""font-size: 60px; font-family: BACS"">chEDOmCd</p>","","","","","","","",""
"html-keyboard-response","337","376633","0.0-15.0-0.6","5e80c7d61a07dd7b0d8f0111","64b003020eef62ee308107cc","64b1091b43ebe68af96e600c","null","null","<p style=""font-size: 60px; font-family: BACS"">chEDOmCd</p>","","","","","","","",""
"html-keyboard-response","338","377642","0.0-15.0-0.7","5e80c7d61a07dd7b0d8f0111","64b003020eef62ee308107cc","64b1091b43ebe68af96e600c","null","null","<p style=""font-size: 60px; font-family: BACS"">chEDOmCd</p>","","","","","","","",""
"html-keyboard-response","339","378648","0.0-15.0-0.8","5e80c7d61a07dd7b0d8f0111","64b003020eef62ee308107cc","64b1091b43ebe68af96e600c","null","null","<p style=""font-size: 60px; font-family: BACS"">chEDOmCd</p>","","","","","","","",""
"html-keyboard-response","340","379663","0.0-15.0-0.9","5e80c7d61a07dd7b0d8f0111","64b003020eef62ee308107cc","64b1091b43ebe68af96e600c","null","null","<p style=""font-size: 60px; font-family: BACS"">chEDOmCd</p>","","","","","","","",""
"html-keyboard-response","341","380674","0.0-15.0-0.10","5e80c7d61a07dd7b0d8f0111","64b003020eef62ee308107cc","64b1091b43ebe68af96e600c","null","null","<p style=""font-size: 60px; font-family: BACS"">chEDOmCd</p>","","","","","","","",""
"html-keyboard-response","342","381683","0.0-15.0-0.11","5e80c7d61a07dd7b0d8f0111","64b003020eef62ee308107cc","64b1091b43ebe68af96e600c","null","null","<p style=""font-size: 60px; font-family: BACS"">chEDOmCd</p>","","","","","","","",""
"html-keyboard-response","343","382699","0.0-15.0-0.12","5e80c7d61a07dd7b0d8f0111","64b003020eef62ee308107cc","64b1091b43ebe68af96e600c","null","null","<p style=""font-size: 60px; font-family: BACS"">chEDOmCd</p>","","","","","","","",""
"html-keyboard-response","344","383707","0.0-15.0-0.13","5e80c7d61a07dd7b0d8f0111","64b003020eef62ee308107cc","64b1091b43ebe68af96e600c","null","null","<p style=""font-size: 60px; font-family: BACS"">chEDOmCd</p>","","","","","","","",""
"html-keyboard-response","345","384723","0.0-15.0-0.14","5e80c7d61a07dd7b0d8f0111","64b003020eef62ee308107cc","64b1091b43ebe68af96e600c","null","null","<p style=""font-size: 60px; font-family: BACS"">chEDOmCd</p>","","","","","","","",""
"html-keyboard-response","346","385731","0.0-15.0-0.15","5e80c7d61a07dd7b0d8f0111","64b003020eef62ee308107cc","64b1091b43ebe68af96e600c","null","null","<p style=""font-size: 60px; font-family: BACS"">chEDOmCd</p>","","","","","","","",""
"html-keyboard-response","347","386739","0.0-15.0-0.16","5e80c7d61a07dd7b0d8f0111","64b003020eef62ee308107cc","64b1091b43ebe68af96e600c","null","null","<p style=""font-size: 60px; font-family: BACS"">chEDOmCd</p>","","","","","","","",""
"html-keyboard-response","348","387745","0.0-15.0-0.17","5e80c7d61a07dd7b0d8f0111","64b003020eef62ee308107cc","64b1091b43ebe68af96e600c","null","null","<p style=""font-size: 60px; font-family: BACS"">chEDOmCd</p>","","","","","","","",""
"html-keyboard-response","349","388747","0.0-15.0-0.18","5e80c7d61a07dd7b0d8f0111","64b003020eef62ee308107cc","64b1091b43ebe68af96e600c","null","null","<p style=""font-size: 60px; font-family: BACS"">chEDOmCd</p>","","","","","","","",""
"html-keyboard-response","350","389755","0.0-15.0-0.19","5e80c7d61a07dd7b0d8f0111","64b003020eef62ee308107cc","64b1091b43ebe68af96e600c","null","null","<p style=""font-size: 60px; font-family: BACS"">chEDOmCd</p>","","","","","","","",""
"html-keyboard-response","351","390764","0.0-15.0-0.20","5e80c7d61a07dd7b0d8f0111","64b003020eef62ee308107cc","64b1091b43ebe68af96e600c","null","null","<p style=""font-size: 60px; font-family: BACS"">chEDOmCd</p>","","","","","","","",""
"html-keyboard-response","352","391771","0.0-15.0-0.21","5e80c7d61a07dd7b0d8f0111","64b003020eef62ee308107cc","64b1091b43ebe68af96e600c","null","null","<p style=""font-size: 60px; font-family: BACS"">chEDOmCd</p>","","","","","","","",""
"html-keyboard-response","353","392779","0.0-15.0-0.22","5e80c7d61a07dd7b0d8f0111","64b003020eef62ee308107cc","64b1091b43ebe68af96e600c","null","null","<p style=""font-size: 60px; font-family: BACS"">chEDOmCd</p>","","","","","","","",""
"html-keyboard-response","354","393792","0.0-15.0-0.23","5e80c7d61a07dd7b0d8f0111","64b003020eef62ee308107cc","64b1091b43ebe68af96e600c","null","null","<p style=""font-size: 60px; font-family: BACS"">chEDOmCd</p>","","","","","","","",""
"html-keyboard-response","355","394803","0.0-15.0-0.24","5e80c7d61a07dd7b0d8f0111","64b003020eef62ee308107cc","64b1091b43ebe68af96e600c","null","null","<p style=""font-size: 60px; font-family: BACS"">chEDOmCd</p>","","","","","","","",""
"html-keyboard-response","356","395809","0.0-15.0-0.25","5e80c7d61a07dd7b0d8f0111","64b003020eef62ee308107cc","64b1091b43ebe68af96e600c","null","null","<p style=""font-size: 60px; font-family: BACS"">chEDOmCd</p>","","","","","","","",""
"html-keyboard-response","357","396819","0.0-15.0-0.26","5e80c7d61a07dd7b0d8f0111","64b003020eef62ee308107cc","64b1091b43ebe68af96e600c","null","null","<p style=""font-size: 60px; font-family: BACS"">chEDOmCd</p>","","","","","","","",""
"html-keyboard-response","358","397827","0.0-15.0-0.27","5e80c7d61a07dd7b0d8f0111","64b003020eef62ee308107cc","64b1091b43ebe68af96e600c","null","null","<p style=""font-size: 60px; font-family: BACS"">chEDOmCd</p>","","","","","","","",""
"html-keyboard-response","359","398837","0.0-15.0-0.28","5e80c7d61a07dd7b0d8f0111","64b003020eef62ee308107cc","64b1091b43ebe68af96e600c","null","null","<p style=""font-size: 60px; font-family: BACS"">chEDOmCd</p>","","","","","","","",""
"html-keyboard-response","360","399852","0.0-15.0-0.29","5e80c7d61a07dd7b0d8f0111","64b003020eef62ee308107cc","64b1091b43ebe68af96e600c","null","null","<p style=""font-size: 60px; font-family: BACS"">chEDOmCd</p>","","","","","","","",""
"html-keyboard-response","361","400859","0.0-15.0-0.30","5e80c7d61a07dd7b0d8f0111","64b003020eef62ee308107cc","64b1091b43ebe68af96e600c","null","null","<p style=""font-size: 60px; font-family: BACS"">chEDOmCd</p>","","","","","","","",""
"html-keyboard-response","362","401868","0.0-15.0-0.31","5e80c7d61a07dd7b0d8f0111","64b003020eef62ee308107cc","64b1091b43ebe68af96e600c","null","null","<p style=""font-size: 60px; font-family: BACS"">chEDOmCd</p>","","","","","","","",""
"html-keyboard-response","363","402870","0.0-15.0-0.32","5e80c7d61a07dd7b0d8f0111","64b003020eef62ee308107cc","64b1091b43ebe68af96e600c","null","null","<p style=""font-size: 60px; font-family: BACS"">chEDOmCd</p>","","","","","","","",""
"html-keyboard-response","364","403876","0.0-15.0-0.33","5e80c7d61a07dd7b0d8f0111","64b003020eef62ee308107cc","64b1091b43ebe68af96e600c","null","null","<p style=""font-size: 60px; font-family: BACS"">chEDOmCd</p>","","","","","","","",""
"html-keyboard-response","365","404883","0.0-15.0-0.34","5e80c7d61a07dd7b0d8f0111","64b003020eef62ee308107cc","64b1091b43ebe68af96e600c","null","null","<p style=""font-size: 60px; font-family: BACS"">chEDOmCd</p>","","","","","","","",""
"html-keyboard-response","366","405890","0.0-15.0-0.35","5e80c7d61a07dd7b0d8f0111","64b003020eef62ee308107cc","64b1091b43ebe68af96e600c","null","null","<p style=""font-size: 60px; font-family: BACS"">chEDOmCd</p>","","","","","","","",""
"html-keyboard-response","367","406907","0.0-15.0-0.36","5e80c7d61a07dd7b0d8f0111","64b003020eef62ee308107cc","64b1091b43ebe68af96e600c","null","null","<p style=""font-size: 60px; font-family: BACS"">chEDOmCd</p>","","","","","","","",""
"html-keyboard-response","368","407908","0.0-15.0-0.37","5e80c7d61a07dd7b0d8f0111","64b003020eef62ee308107cc","64b1091b43ebe68af96e600c","null","null","<p style=""font-size: 60px; font-family: BACS"">chEDOmCd</p>","","","","","","","",""
"html-keyboard-response","369","408924","0.0-15.0-0.38","5e80c7d61a07dd7b0d8f0111","64b003020eef62ee308107cc","64b1091b43ebe68af96e600c","null","null","<p style=""font-size: 60px; font-family: BACS"">chEDOmCd</p>","","","","","","","",""
"html-keyboard-response","370","409939","0.0-15.0-0.39","5e80c7d61a07dd7b0d8f0111","64b003020eef62ee308107cc","64b1091b43ebe68af96e600c","null","null","<p style=""font-size: 60px; font-family: BACS"">chEDOmCd</p>","","","","","","","",""
"html-keyboard-response","371","410948","0.0-15.0-0.40","5e80c7d61a07dd7b0d8f0111","64b003020eef62ee308107cc","64b1091b43ebe68af96e600c","null","null","<p style=""font-size: 60px; font-family: BACS"">chEDOmCd</p>","","","","","","","",""
"html-keyboard-response","372","411956","0.0-15.0-0.41","5e80c7d61a07dd7b0d8f0111","64b003020eef62ee308107cc","64b1091b43ebe68af96e600c","null","null","<p style=""font-size: 60px; font-family: BACS"">chEDOmCd</p>","","","","","","","",""
"html-keyboard-response","373","412967","0.0-15.0-0.42","5e80c7d61a07dd7b0d8f0111","64b003020eef62ee308107cc","64b1091b43ebe68af96e600c","null","null","<p style=""font-size: 60px; font-family: BACS"">chEDOmCd</p>","","","","","","","",""
"html-keyboard-response","374","413973","0.0-15.0-0.43","5e80c7d61a07dd7b0d8f0111","64b003020eef62ee308107cc","64b1091b43ebe68af96e600c","null","null","<p style=""font-size: 60px; font-family: BACS"">chEDOmCd</p>","","","","","","","",""
"html-keyboard-response","375","414988","0.0-15.0-0.44","5e80c7d61a07dd7b0d8f0111","64b003020eef62ee308107cc","64b1091b43ebe68af96e600c","null","null","<p style=""font-size: 60px; font-family: BACS"">chEDOmCd</p>","","","","","","","",""
"html-keyboard-response","376","415996","0.0-15.0-0.45","5e80c7d61a07dd7b0d8f0111","64b003020eef62ee308107cc","64b1091b43ebe68af96e600c","null","null","<p style=""font-size: 60px; font-family: BACS"">chEDOmCd</p>","","","","","","","",""
"html-keyboard-response","377","417005","0.0-15.0-0.46","5e80c7d61a07dd7b0d8f0111","64b003020eef62ee308107cc","64b1091b43ebe68af96e600c","null","null","<p style=""font-size: 60px; font-family: BACS"">chEDOmCd</p>","","","","","","","",""
"html-keyboard-response","378","418021","0.0-15.0-0.47","5e80c7d61a07dd7b0d8f0111","64b003020eef62ee308107cc","64b1091b43ebe68af96e600c","null","null","<p style=""font-size: 60px; font-family: BACS"">chEDOmCd</p>","","","","","","","",""
"html-keyboard-response","379","419029","0.0-15.0-0.48","5e80c7d61a07dd7b0d8f0111","64b003020eef62ee308107cc","64b1091b43ebe68af96e600c","null","null","<p style=""font-size: 60px; font-family: BACS"">chEDOmCd</p>","","","","","","","",""
"html-keyboard-response","380","420045","0.0-15.0-0.49","5e80c7d61a07dd7b0d8f0111","64b003020eef62ee308107cc","64b1091b43ebe68af96e600c","null","null","<p style=""font-size: 60px; font-family: BACS"">chEDOmCd</p>","","","","","","","",""
"html-keyboard-response","381","421054","0.0-15.0-0.50","5e80c7d61a07dd7b0d8f0111","64b003020eef62ee308107cc","64b1091b43ebe68af96e600c","null","null","<p style=""font-size: 60px; font-family: BACS"">chEDOmCd</p>","","","","","","","",""
"html-keyboard-response","382","422062","0.0-15.0-0.51","5e80c7d61a07dd7b0d8f0111","64b003020eef62ee308107cc","64b1091b43ebe68af96e600c","null","null","<p style=""font-size: 60px; font-family: BACS"">chEDOmCd</p>","","","","","","","",""
"html-keyboard-response","383","423068","0.0-15.0-0.52","5e80c7d61a07dd7b0d8f0111","64b003020eef62ee308107cc","64b1091b43ebe68af96e600c","null","null","<p style=""font-size: 60px; font-family: BACS"">chEDOmCd</p>","","","","","","","",""
"html-keyboard-response","384","424083","0.0-15.0-0.53","5e80c7d61a07dd7b0d8f0111","64b003020eef62ee308107cc","64b1091b43ebe68af96e600c","null","null","<p style=""font-size: 60px; font-family: BACS"">chEDOmCd</p>","","","","","","","",""
"html-keyboard-response","385","425086","0.0-15.0-0.54","5e80c7d61a07dd7b0d8f0111","64b003020eef62ee308107cc","64b1091b43ebe68af96e600c","null","null","<p style=""font-size: 60px; font-family: BACS"">chEDOmCd</p>","","","","","","","",""
"html-keyboard-response","386","426101","0.0-15.0-0.55","5e80c7d61a07dd7b0d8f0111","64b003020eef62ee308107cc","64b1091b43ebe68af96e600c","null","null","<p style=""font-size: 60px; font-family: BACS"">chEDOmCd</p>","","","","","","","",""
"html-keyboard-response","387","427103","0.0-15.0-0.56","5e80c7d61a07dd7b0d8f0111","64b003020eef62ee308107cc","64b1091b43ebe68af96e600c","null","null","<p style=""font-size: 60px; font-family: BACS"">chEDOmCd</p>","","","","","","","",""
"html-keyboard-response","388","428110","0.0-15.0-0.57","5e80c7d61a07dd7b0d8f0111","64b003020eef62ee308107cc","64b1091b43ebe68af96e600c","null","null","<p style=""font-size: 60px; font-family: BACS"">chEDOmCd</p>","","","","","","","",""
"html-keyboard-response","389","429115","0.0-15.0-0.58","5e80c7d61a07dd7b0d8f0111","64b003020eef62ee308107cc","64b1091b43ebe68af96e600c","null","null","<p style=""font-size: 60px; font-family: BACS"">chEDOmCd</p>","","","","","","","",""
"html-keyboard-response","390","430118","0.0-15.0-0.59","5e80c7d61a07dd7b0d8f0111","64b003020eef62ee308107cc","64b1091b43ebe68af96e600c","null","null","<p style=""font-size: 60px; font-family: BACS"">chEDOmCd</p>","","","","","","","",""
"html-keyboard-response","391","431126","0.0-15.0-0.60","5e80c7d61a07dd7b0d8f0111","64b003020eef62ee308107cc","64b1091b43ebe68af96e600c","null","null","<p style=""font-size: 60px; font-family: BACS"">chEDOmCd</p>","","","","","","","",""
"html-keyboard-response","392","432133","0.0-15.0-0.61","5e80c7d61a07dd7b0d8f0111","64b003020eef62ee308107cc","64b1091b43ebe68af96e600c","null","null","<p style=""font-size: 60px; font-family: BACS"">chEDOmCd</p>","","","","","","","",""
"html-keyboard-response","393","433141","0.0-15.0-0.62","5e80c7d61a07dd7b0d8f0111","64b003020eef62ee308107cc","64b1091b43ebe68af96e600c","null","null","<p style=""font-size: 60px; font-family: BACS"">chEDOmCd</p>","","","","","","","",""
"html-keyboard-response","394","434157","0.0-15.0-0.63","5e80c7d61a07dd7b0d8f0111","64b003020eef62ee308107cc","64b1091b43ebe68af96e600c","null","null","<p style=""font-size: 60px; font-family: BACS"">chEDOmCd</p>","","","","","","","",""
"html-keyboard-response","395","435166","0.0-15.0-0.64","5e80c7d61a07dd7b0d8f0111","64b003020eef62ee308107cc","64b1091b43ebe68af96e600c","null","null","<p style=""font-size: 60px; font-family: BACS"">chEDOmCd</p>","","","","","","","",""
"html-keyboard-response","396","436174","0.0-15.0-0.65","5e80c7d61a07dd7b0d8f0111","64b003020eef62ee308107cc","64b1091b43ebe68af96e600c","null","null","<p style=""font-size: 60px; font-family: BACS"">chEDOmCd</p>","","","","","","","",""
"html-keyboard-response","397","437177","0.0-15.0-0.66","5e80c7d61a07dd7b0d8f0111","64b003020eef62ee308107cc","64b1091b43ebe68af96e600c","null","null","<p style=""font-size: 60px; font-family: BACS"">chEDOmCd</p>","","","","","","","",""
"html-keyboard-response","398","438189","0.0-15.0-0.67","5e80c7d61a07dd7b0d8f0111","64b003020eef62ee308107cc","64b1091b43ebe68af96e600c","null","null","<p style=""font-size: 60px; font-family: BACS"">chEDOmCd</p>","","","","","","","",""
"html-keyboard-response","399","439198","0.0-15.0-0.68","5e80c7d61a07dd7b0d8f0111","64b003020eef62ee308107cc","64b1091b43ebe68af96e600c","null","null","<p style=""font-size: 60px; font-family: BACS"">chEDOmCd</p>","","","","","","","",""
"html-keyboard-response","400","440202","0.0-15.0-0.69","5e80c7d61a07dd7b0d8f0111","64b003020eef62ee308107cc","64b1091b43ebe68af96e600c","null","null","<p style=""font-size: 60px; font-family: BACS"">chEDOmCd</p>","","","","","","","",""
