"trial_type","trial_index","time_elapsed","internal_node_id","subject_id","study_id","session_id","rt","response","stimulus","success","item","task","correct_response","testing_condition","correct","target","confound","name"
"pavlovia","0","717","0.0-0.0","5c19254b0b9f6b00014769ee","650c16f0f2faf8d7a0d14c09","651c1d8e02e85bb8995fdc29","","","","","","","","","","","",""
"survey-html-form","1","885324","0.0-1.0","5c19254b0b9f6b00014769ee","650c16f0f2faf8d7a0d14c09","651c1d8e02e85bb8995fdc29","884605","{""ID"":""5c19254b0b9f6b00014769ee""}","","","","","","","","","",""
"html-keyboard-response","2","888288","0.0-2.0","5c19254b0b9f6b00014769ee","650c16f0f2faf8d7a0d14c09","651c1d8e02e85bb8995fdc29","2962"," ","<p style=""font-size: 15px;"">Before beginning, we ask that you read the consent information and confirm your agreement to participate in the experiment.</p>
      <p style=""font-size: 15px;""> We ask that you remember that this is a research project and that your participation is entirely voluntary. You can stop your participation at any time, without needing to provide any explanation. The study we're asking you to participate in aims at examining how readers process written words. You will be engaged in a session of apprximately 20 minutes, followed by a brief questionnaire. You will have the opportunity to take a few breaks during the experiment. You will be paid £4 for your participation, corresponding to a rate of £8/hour. While this experiment looks at cognitive faculties, this experiment doesn't constitute clinical proof of eventual pathologies.</p>
      <p style=""font-size: 15px;"">All of the information collected thanks to yours and others' participation will be held in a secure password-protected server, and will not be shared with anyone not authorised to view it. Your personal information will be kept with an arbitrary participant ID. Thanks to this data anonymity process, any researcher analysing the data won't be able to track the information back to a specific participant. Therefore, this process will make identifying you impossibile, even when results from the study will be published in scientific reviews, presented at congresses, or at any other public forum. More generally, the collected data will be treated in accordance with the laws on privacy and conformity to the Legislative Degree n. 196 ""Code regarding the protection of personal data"" of the 30th of June 2003 and to the European Regulation 2016/670 (General Data Protection Regulation - GDPR). The Data Protection Officer is Avv. Valentina Carollo, who can be contacted at the following email addresses: <a href=""mailto:dpo@sissa.it"">dpo@sissa.it</a> or <a href=""mailto:rpd@sissa.it"">rpd@sissa.it</a> - PEC: <a href=""mailto:protocollo@pec.sissa.it"">protocollo@pec.sissa.it</a>.</p>
      <p style=""font-size: 15px;""> Before expressing your consent to participate, we would like to remind you again that in case you need explanations on any aspect of the experimental procedure, the researcher is at your disposition (<a href=""mailto:aliebelt@sissa.it"">aliebelt@sissa.it</a>, <a href=""mailto:davide.crepaldi@sissa.it"">davide.crepaldi@sissa.it</a>).</p>
      <p style=""font-size: 15px;"">If you would like to download the informed consent form, you can do so here: <a href=""BASL-Informed_Consent.pdf"" download>informed consent form</a>.</p>
      <p style=""font-size: 15px;"">We ask that you press the spacebar to proceed to the consent section.</p>","","","","","","","","",""
"survey-html-form","3","1111745","0.0-3.0","5c19254b0b9f6b00014769ee","650c16f0f2faf8d7a0d14c09","651c1d8e02e85bb8995fdc29","223456","{""consent1"":""YES"",""consent2"":""YES"",""consent3"":""YES"",""consent4"":""YES"",""consent5"":""YES"",""consent6"":""YES""}","","","","","","","","","",""
"fullscreen","4","1120473","0.0-4.0","5c19254b0b9f6b00014769ee","650c16f0f2faf8d7a0d14c09","651c1d8e02e85bb8995fdc29","","","","true","","","","","","","",""
"html-keyboard-response","5","1126297","0.0-5.0","5c19254b0b9f6b00014769ee","650c16f0f2faf8d7a0d14c09","651c1d8e02e85bb8995fdc29","5823"," ","<p>Welcome, and thank you very much for your time!</p>
      <p>In this experiment, you'll be a language expert who's been asked to take a look at words that Earth has received in its first communication with aliens. Your task, in this first part of the experiment, is to pay close attention to the words you'll be shown; later, world leaders will ask you questions on what you saw. The words will be shown to you quite quickly; it seems that the aliens were in a hurry :-)</p>
      <p>Press the spacebar to continue.<p>","","","","","","","","",""
"html-keyboard-response","6","1126350","0.0-6.0","5c19254b0b9f6b00014769ee","650c16f0f2faf8d7a0d14c09","651c1d8e02e85bb8995fdc29","null","null","<p style=""font-size: 120px; font-family: BACS""> </p>","","","","","","","","",""
"html-keyboard-response","7","1129523","0.0-7.0","5c19254b0b9f6b00014769ee","650c16f0f2faf8d7a0d14c09","651c1d8e02e85bb8995fdc29","3172"," ","<p>Here is an example of the words you'll see:</p>
      <img src='esempio.png' height='400px'>
      <p>When you're ready to begin, press the spacebar.</p></div>","","","","","","","","",""
"html-keyboard-response","8","1130529","0.0-8.0-0.0","5c19254b0b9f6b00014769ee","650c16f0f2faf8d7a0d14c09","651c1d8e02e85bb8995fdc29","null","null","<p style=""font-size: 60px; font-family: BACS"">dRhtYht</p>","","","","","","","","",""
"html-keyboard-response","9","1131539","0.0-8.0-0.1","5c19254b0b9f6b00014769ee","650c16f0f2faf8d7a0d14c09","651c1d8e02e85bb8995fdc29","null","null","<p style=""font-size: 60px; font-family: BACS"">DlDdBCAd</p>","","","","","","","","",""
"html-keyboard-response","10","1132547","0.0-8.0-0.2","5c19254b0b9f6b00014769ee","650c16f0f2faf8d7a0d14c09","651c1d8e02e85bb8995fdc29","null","null","<p style=""font-size: 60px; font-family: BACS"">QcQAJcrdY</p>","","","","","","","","",""
"html-keyboard-response","11","1133548","0.0-8.0-0.3","5c19254b0b9f6b00014769ee","650c16f0f2faf8d7a0d14c09","651c1d8e02e85bb8995fdc29","null","null","<p style=""font-size: 60px; font-family: BACS"">dKRDBCAd</p>","","","","","","","","",""
"html-keyboard-response","12","1134557","0.0-8.0-0.4","5c19254b0b9f6b00014769ee","650c16f0f2faf8d7a0d14c09","651c1d8e02e85bb8995fdc29","null","null","<p style=""font-size: 60px; font-family: BACS"">kKRCAkd</p>","","","","","","","","",""
"html-keyboard-response","13","1135558","0.0-8.0-0.5","5c19254b0b9f6b00014769ee","650c16f0f2faf8d7a0d14c09","651c1d8e02e85bb8995fdc29","null","null","<p style=""font-size: 60px; font-family: BACS"">JdOAYAvdk</p>","","","","","","","","",""
"html-keyboard-response","14","1136560","0.0-8.0-0.6","5c19254b0b9f6b00014769ee","650c16f0f2faf8d7a0d14c09","651c1d8e02e85bb8995fdc29","null","null","<p style=""font-size: 60px; font-family: BACS"">ctktABb</p>","","","","","","","","",""
"html-keyboard-response","15","1137572","0.0-8.0-0.7","5c19254b0b9f6b00014769ee","650c16f0f2faf8d7a0d14c09","651c1d8e02e85bb8995fdc29","null","null","<p style=""font-size: 60px; font-family: BACS"">mhtcRCdc</p>","","","","","","","","",""
"html-keyboard-response","16","1138574","0.0-8.0-0.8","5c19254b0b9f6b00014769ee","650c16f0f2faf8d7a0d14c09","651c1d8e02e85bb8995fdc29","null","null","<p style=""font-size: 60px; font-family: BACS"">LuNZmLJ</p>","","","","","","","","",""
"html-keyboard-response","17","1139589","0.0-8.0-0.9","5c19254b0b9f6b00014769ee","650c16f0f2faf8d7a0d14c09","651c1d8e02e85bb8995fdc29","null","null","<p style=""font-size: 60px; font-family: BACS"">cAZucrdY</p>","","","","","","","","",""
"html-keyboard-response","18","1140598","0.0-8.0-0.10","5c19254b0b9f6b00014769ee","650c16f0f2faf8d7a0d14c09","651c1d8e02e85bb8995fdc29","null","null","<p style=""font-size: 60px; font-family: BACS"">DlDdYht</p>","","","","","","","","",""
"html-keyboard-response","19","1141600","0.0-8.0-0.11","5c19254b0b9f6b00014769ee","650c16f0f2faf8d7a0d14c09","651c1d8e02e85bb8995fdc29","null","null","<p style=""font-size: 60px; font-family: BACS"">bYuQGrbk</p>","","","","","","","","",""
"html-keyboard-response","20","1142613","0.0-8.0-0.12","5c19254b0b9f6b00014769ee","650c16f0f2faf8d7a0d14c09","651c1d8e02e85bb8995fdc29","null","null","<p style=""font-size: 60px; font-family: BACS"">ctktBCAd</p>","","","","","","","","",""
"html-keyboard-response","21","1143623","0.0-8.0-0.13","5c19254b0b9f6b00014769ee","650c16f0f2faf8d7a0d14c09","651c1d8e02e85bb8995fdc29","null","null","<p style=""font-size: 60px; font-family: BACS"">vclYGrbk</p>","","","","","","","","",""
"html-keyboard-response","22","1144633","0.0-8.0-0.14","5c19254b0b9f6b00014769ee","650c16f0f2faf8d7a0d14c09","651c1d8e02e85bb8995fdc29","null","null","<p style=""font-size: 60px; font-family: BACS"">ctktAkd</p>","","","","","","","","",""
"html-keyboard-response","23","1145634","0.0-8.0-0.15","5c19254b0b9f6b00014769ee","650c16f0f2faf8d7a0d14c09","651c1d8e02e85bb8995fdc29","null","null","<p style=""font-size: 60px; font-family: BACS"">vclYcrdY</p>","","","","","","","","",""
"html-keyboard-response","24","1146644","0.0-8.0-0.16","5c19254b0b9f6b00014769ee","650c16f0f2faf8d7a0d14c09","651c1d8e02e85bb8995fdc29","null","null","<p style=""font-size: 60px; font-family: BACS"">OcYMBCAd</p>","","","","","","","","",""
"html-keyboard-response","25","1147648","0.0-8.0-0.17","5c19254b0b9f6b00014769ee","650c16f0f2faf8d7a0d14c09","651c1d8e02e85bb8995fdc29","null","null","<p style=""font-size: 60px; font-family: BACS"">krGuAvdk</p>","","","","","","","","",""
"html-keyboard-response","26","1148650","0.0-8.0-0.18","5c19254b0b9f6b00014769ee","650c16f0f2faf8d7a0d14c09","651c1d8e02e85bb8995fdc29","null","null","<p style=""font-size: 60px; font-family: BACS"">JdOAYcrdY</p>","","","","","","","","",""
"html-keyboard-response","27","1149655","0.0-8.0-0.19","5c19254b0b9f6b00014769ee","650c16f0f2faf8d7a0d14c09","651c1d8e02e85bb8995fdc29","null","null","<p style=""font-size: 60px; font-family: BACS"">LuNZlLG</p>","","","","","","","","",""
"html-keyboard-response","28","1150656","0.0-8.0-0.20","5c19254b0b9f6b00014769ee","650c16f0f2faf8d7a0d14c09","651c1d8e02e85bb8995fdc29","null","null","<p style=""font-size: 60px; font-family: BACS"">kKRCABb</p>","","","","","","","","",""
"html-keyboard-response","29","1151658","0.0-8.0-0.21","5c19254b0b9f6b00014769ee","650c16f0f2faf8d7a0d14c09","651c1d8e02e85bb8995fdc29","null","null","<p style=""font-size: 60px; font-family: BACS"">bYuQAvdk</p>","","","","","","","","",""
"html-keyboard-response","30","1152659","0.0-8.0-0.22","5c19254b0b9f6b00014769ee","650c16f0f2faf8d7a0d14c09","651c1d8e02e85bb8995fdc29","null","null","<p style=""font-size: 60px; font-family: BACS"">krGumLJ</p>","","","","","","","","",""
"html-keyboard-response","31","1153660","0.0-8.0-0.23","5c19254b0b9f6b00014769ee","650c16f0f2faf8d7a0d14c09","651c1d8e02e85bb8995fdc29","null","null","<p style=""font-size: 60px; font-family: BACS"">hmKPMABb</p>","","","","","","","","",""
"html-keyboard-response","32","1154661","0.0-8.0-0.24","5c19254b0b9f6b00014769ee","650c16f0f2faf8d7a0d14c09","651c1d8e02e85bb8995fdc29","null","null","<p style=""font-size: 60px; font-family: BACS"">cAZulLG</p>","","","","","","","","",""
"html-keyboard-response","33","1155674","0.0-8.0-0.25","5c19254b0b9f6b00014769ee","650c16f0f2faf8d7a0d14c09","651c1d8e02e85bb8995fdc29","null","null","<p style=""font-size: 60px; font-family: BACS"">JdOAYGrbk</p>","","","","","","","","",""
"html-keyboard-response","34","1156675","0.0-8.0-0.26","5c19254b0b9f6b00014769ee","650c16f0f2faf8d7a0d14c09","651c1d8e02e85bb8995fdc29","null","null","<p style=""font-size: 60px; font-family: BACS"">bYuQcrdY</p>","","","","","","","","",""
"html-keyboard-response","35","1157681","0.0-8.0-0.27","5c19254b0b9f6b00014769ee","650c16f0f2faf8d7a0d14c09","651c1d8e02e85bb8995fdc29","null","null","<p style=""font-size: 60px; font-family: BACS"">MBmEYht</p>","","","","","","","","",""
"html-keyboard-response","36","1158687","0.0-8.0-0.28","5c19254b0b9f6b00014769ee","650c16f0f2faf8d7a0d14c09","651c1d8e02e85bb8995fdc29","null","null","<p style=""font-size: 60px; font-family: BACS"">bYuQlLG</p>","","","","","","","","",""
"html-keyboard-response","37","1159692","0.0-8.0-0.29","5c19254b0b9f6b00014769ee","650c16f0f2faf8d7a0d14c09","651c1d8e02e85bb8995fdc29","null","null","<p style=""font-size: 60px; font-family: BACS"">krGucrdY</p>","","","","","","","","",""
"html-keyboard-response","38","1160694","0.0-8.0-0.30","5c19254b0b9f6b00014769ee","650c16f0f2faf8d7a0d14c09","651c1d8e02e85bb8995fdc29","null","null","<p style=""font-size: 60px; font-family: BACS"">dKRDABb</p>","","","","","","","","",""
"html-keyboard-response","39","1161699","0.0-8.0-0.31","5c19254b0b9f6b00014769ee","650c16f0f2faf8d7a0d14c09","651c1d8e02e85bb8995fdc29","null","null","<p style=""font-size: 60px; font-family: BACS"">QcQAJAvdk</p>","","","","","","","","",""
"html-keyboard-response","40","1162703","0.0-8.0-0.32","5c19254b0b9f6b00014769ee","650c16f0f2faf8d7a0d14c09","651c1d8e02e85bb8995fdc29","null","null","<p style=""font-size: 60px; font-family: BACS"">UdlGQGrbk</p>","","","","","","","","",""
"html-keyboard-response","41","1163704","0.0-8.0-0.33","5c19254b0b9f6b00014769ee","650c16f0f2faf8d7a0d14c09","651c1d8e02e85bb8995fdc29","null","null","<p style=""font-size: 60px; font-family: BACS"">kKRCYht</p>","","","","","","","","",""
"html-keyboard-response","42","1164714","0.0-8.0-0.34","5c19254b0b9f6b00014769ee","650c16f0f2faf8d7a0d14c09","651c1d8e02e85bb8995fdc29","null","null","<p style=""font-size: 60px; font-family: BACS"">JdOAYmLJ</p>","","","","","","","","",""
"html-keyboard-response","43","1165720","0.0-8.0-0.35","5c19254b0b9f6b00014769ee","650c16f0f2faf8d7a0d14c09","651c1d8e02e85bb8995fdc29","null","null","<p style=""font-size: 60px; font-family: BACS"">OcYMAkd</p>","","","","","","","","",""
"html-keyboard-response","44","1166725","0.0-8.0-0.36","5c19254b0b9f6b00014769ee","650c16f0f2faf8d7a0d14c09","651c1d8e02e85bb8995fdc29","null","null","<p style=""font-size: 60px; font-family: BACS"">ZcGdNcrdY</p>","","","","","","","","",""
"html-keyboard-response","45","1167727","0.0-8.0-0.37","5c19254b0b9f6b00014769ee","650c16f0f2faf8d7a0d14c09","651c1d8e02e85bb8995fdc29","null","null","<p style=""font-size: 60px; font-family: BACS"">hmKPMAkd</p>","","","","","","","","",""
"html-keyboard-response","46","1168727","0.0-8.0-0.38","5c19254b0b9f6b00014769ee","650c16f0f2faf8d7a0d14c09","651c1d8e02e85bb8995fdc29","null","null","<p style=""font-size: 60px; font-family: BACS"">kKRCRCdc</p>","","","","","","","","",""
"html-keyboard-response","47","1169728","0.0-8.0-0.39","5c19254b0b9f6b00014769ee","650c16f0f2faf8d7a0d14c09","651c1d8e02e85bb8995fdc29","null","null","<p style=""font-size: 60px; font-family: BACS"">QcQAJlLG</p>","","","","","","","","",""
"html-keyboard-response","48","1170730","0.0-8.0-0.40","5c19254b0b9f6b00014769ee","650c16f0f2faf8d7a0d14c09","651c1d8e02e85bb8995fdc29","null","null","<p style=""font-size: 60px; font-family: BACS"">ArQumLJ</p>","","","","","","","","",""
"html-keyboard-response","49","1171736","0.0-8.0-0.41","5c19254b0b9f6b00014769ee","650c16f0f2faf8d7a0d14c09","651c1d8e02e85bb8995fdc29","null","null","<p style=""font-size: 60px; font-family: BACS"">ctktRCdc</p>","","","","","","","","",""
"html-keyboard-response","50","1172742","0.0-8.0-0.42","5c19254b0b9f6b00014769ee","650c16f0f2faf8d7a0d14c09","651c1d8e02e85bb8995fdc29","null","null","<p style=""font-size: 60px; font-family: BACS"">hTDdYht</p>","","","","","","","","",""
"html-keyboard-response","51","1173759","0.0-8.0-0.43","5c19254b0b9f6b00014769ee","650c16f0f2faf8d7a0d14c09","651c1d8e02e85bb8995fdc29","null","null","<p style=""font-size: 60px; font-family: BACS"">ZcGdNmLJ</p>","","","","","","","","",""
"html-keyboard-response","52","1174764","0.0-8.0-0.44","5c19254b0b9f6b00014769ee","650c16f0f2faf8d7a0d14c09","651c1d8e02e85bb8995fdc29","null","null","<p style=""font-size: 60px; font-family: BACS"">hTDdRCdc</p>","","","","","","","","",""
"html-keyboard-response","53","1175765","0.0-8.0-0.45","5c19254b0b9f6b00014769ee","650c16f0f2faf8d7a0d14c09","651c1d8e02e85bb8995fdc29","null","null","<p style=""font-size: 60px; font-family: BACS"">mhtcBCAd</p>","","","","","","","","",""
"html-keyboard-response","54","1176769","0.0-8.0-0.46","5c19254b0b9f6b00014769ee","650c16f0f2faf8d7a0d14c09","651c1d8e02e85bb8995fdc29","null","null","<p style=""font-size: 60px; font-family: BACS"">cAZumLJ</p>","","","","","","","","",""
"html-keyboard-response","55","1177776","0.0-8.0-0.47","5c19254b0b9f6b00014769ee","650c16f0f2faf8d7a0d14c09","651c1d8e02e85bb8995fdc29","null","null","<p style=""font-size: 60px; font-family: BACS"">MBmEAkd</p>","","","","","","","","",""
"html-keyboard-response","56","1178777","0.0-8.0-0.48","5c19254b0b9f6b00014769ee","650c16f0f2faf8d7a0d14c09","651c1d8e02e85bb8995fdc29","null","null","<p style=""font-size: 60px; font-family: BACS"">mhtcYht</p>","","","","","","","","",""
"html-keyboard-response","57","1179779","0.0-8.0-0.49","5c19254b0b9f6b00014769ee","650c16f0f2faf8d7a0d14c09","651c1d8e02e85bb8995fdc29","null","null","<p style=""font-size: 60px; font-family: BACS"">OcYMABb</p>","","","","","","","","",""
"html-keyboard-response","58","1180796","0.0-8.0-0.50","5c19254b0b9f6b00014769ee","650c16f0f2faf8d7a0d14c09","651c1d8e02e85bb8995fdc29","null","null","<p style=""font-size: 60px; font-family: BACS"">UdlGQmLJ</p>","","","","","","","","",""
"html-keyboard-response","59","1181798","0.0-8.0-0.51","5c19254b0b9f6b00014769ee","650c16f0f2faf8d7a0d14c09","651c1d8e02e85bb8995fdc29","null","null","<p style=""font-size: 60px; font-family: BACS"">hmKPMBCAd</p>","","","","","","","","",""
"html-keyboard-response","60","1182807","0.0-8.0-0.52","5c19254b0b9f6b00014769ee","650c16f0f2faf8d7a0d14c09","651c1d8e02e85bb8995fdc29","null","null","<p style=""font-size: 60px; font-family: BACS"">dRhtABb</p>","","","","","","","","",""
"html-keyboard-response","61","1183814","0.0-8.0-0.53","5c19254b0b9f6b00014769ee","650c16f0f2faf8d7a0d14c09","651c1d8e02e85bb8995fdc29","null","null","<p style=""font-size: 60px; font-family: BACS"">hmKPMYht</p>","","","","","","","","",""
"html-keyboard-response","62","1184819","0.0-8.0-0.54","5c19254b0b9f6b00014769ee","650c16f0f2faf8d7a0d14c09","651c1d8e02e85bb8995fdc29","null","null","<p style=""font-size: 60px; font-family: BACS"">QcQAJGrbk</p>","","","","","","","","",""
"html-keyboard-response","63","1185825","0.0-8.0-0.55","5c19254b0b9f6b00014769ee","650c16f0f2faf8d7a0d14c09","651c1d8e02e85bb8995fdc29","null","null","<p style=""font-size: 60px; font-family: BACS"">LuNZAvdk</p>","","","","","","","","",""
"html-keyboard-response","64","1186827","0.0-8.0-0.56","5c19254b0b9f6b00014769ee","650c16f0f2faf8d7a0d14c09","651c1d8e02e85bb8995fdc29","null","null","<p style=""font-size: 60px; font-family: BACS"">hTDdABb</p>","","","","","","","","",""
"html-keyboard-response","65","1187833","0.0-8.0-0.57","5c19254b0b9f6b00014769ee","650c16f0f2faf8d7a0d14c09","651c1d8e02e85bb8995fdc29","null","null","<p style=""font-size: 60px; font-family: BACS"">cAZuGrbk</p>","","","","","","","","",""
"html-keyboard-response","66","1188842","0.0-8.0-0.58","5c19254b0b9f6b00014769ee","650c16f0f2faf8d7a0d14c09","651c1d8e02e85bb8995fdc29","null","null","<p style=""font-size: 60px; font-family: BACS"">DlDdAkd</p>","","","","","","","","",""
"html-keyboard-response","67","1189843","0.0-8.0-0.59","5c19254b0b9f6b00014769ee","650c16f0f2faf8d7a0d14c09","651c1d8e02e85bb8995fdc29","null","null","<p style=""font-size: 60px; font-family: BACS"">MBmERCdc</p>","","","","","","","","",""
"html-keyboard-response","68","1190844","0.0-8.0-0.60","5c19254b0b9f6b00014769ee","650c16f0f2faf8d7a0d14c09","651c1d8e02e85bb8995fdc29","null","null","<p style=""font-size: 60px; font-family: BACS"">vclYlLG</p>","","","","","","","","",""
"html-keyboard-response","69","1191846","0.0-8.0-0.61","5c19254b0b9f6b00014769ee","650c16f0f2faf8d7a0d14c09","651c1d8e02e85bb8995fdc29","null","null","<p style=""font-size: 60px; font-family: BACS"">LuNZGrbk</p>","","","","","","","","",""
"html-keyboard-response","70","1192847","0.0-8.0-0.62","5c19254b0b9f6b00014769ee","650c16f0f2faf8d7a0d14c09","651c1d8e02e85bb8995fdc29","null","null","<p style=""font-size: 60px; font-family: BACS"">mhtcAkd</p>","","","","","","","","",""
"html-keyboard-response","71","1193849","0.0-8.0-0.63","5c19254b0b9f6b00014769ee","650c16f0f2faf8d7a0d14c09","651c1d8e02e85bb8995fdc29","null","null","<p style=""font-size: 60px; font-family: BACS"">ArQuAvdk</p>","","","","","","","","",""
"html-keyboard-response","72","1194862","0.0-8.0-0.64","5c19254b0b9f6b00014769ee","650c16f0f2faf8d7a0d14c09","651c1d8e02e85bb8995fdc29","null","null","<p style=""font-size: 60px; font-family: BACS"">OcYMRCdc</p>","","","","","","","","",""
"html-keyboard-response","73","1195863","0.0-8.0-0.65","5c19254b0b9f6b00014769ee","650c16f0f2faf8d7a0d14c09","651c1d8e02e85bb8995fdc29","null","null","<p style=""font-size: 60px; font-family: BACS"">UdlGQAvdk</p>","","","","","","","","",""
"html-keyboard-response","74","1196870","0.0-8.0-0.66","5c19254b0b9f6b00014769ee","650c16f0f2faf8d7a0d14c09","651c1d8e02e85bb8995fdc29","null","null","<p style=""font-size: 60px; font-family: BACS"">ArQulLG</p>","","","","","","","","",""
"html-keyboard-response","75","1197871","0.0-8.0-0.67","5c19254b0b9f6b00014769ee","650c16f0f2faf8d7a0d14c09","651c1d8e02e85bb8995fdc29","null","null","<p style=""font-size: 60px; font-family: BACS"">DlDdRCdc</p>","","","","","","","","",""
"html-keyboard-response","76","1198873","0.0-8.0-0.68","5c19254b0b9f6b00014769ee","650c16f0f2faf8d7a0d14c09","651c1d8e02e85bb8995fdc29","null","null","<p style=""font-size: 60px; font-family: BACS"">dKRDAkd</p>","","","","","","","","",""
"html-keyboard-response","77","1199873","0.0-8.0-0.69","5c19254b0b9f6b00014769ee","650c16f0f2faf8d7a0d14c09","651c1d8e02e85bb8995fdc29","null","null","<p style=""font-size: 60px; font-family: BACS"">MBmEABb</p>","","","","","","","","",""
"html-keyboard-response","78","1200875","0.0-8.0-0.70","5c19254b0b9f6b00014769ee","650c16f0f2faf8d7a0d14c09","651c1d8e02e85bb8995fdc29","null","null","<p style=""font-size: 60px; font-family: BACS"">vclYmLJ</p>","","","","","","","","",""
"html-keyboard-response","79","1201883","0.0-8.0-0.71","5c19254b0b9f6b00014769ee","650c16f0f2faf8d7a0d14c09","651c1d8e02e85bb8995fdc29","null","null","<p style=""font-size: 60px; font-family: BACS"">krGulLG</p>","","","","","","","","",""
"html-keyboard-response","80","1202885","0.0-8.0-0.72","5c19254b0b9f6b00014769ee","650c16f0f2faf8d7a0d14c09","651c1d8e02e85bb8995fdc29","null","null","<p style=""font-size: 60px; font-family: BACS"">dKRDYht</p>","","","","","","","","",""
"html-keyboard-response","81","1203887","0.0-8.0-0.73","5c19254b0b9f6b00014769ee","650c16f0f2faf8d7a0d14c09","651c1d8e02e85bb8995fdc29","null","null","<p style=""font-size: 60px; font-family: BACS"">ZcGdNlLG</p>","","","","","","","","",""
"html-keyboard-response","82","1204899","0.0-8.0-0.74","5c19254b0b9f6b00014769ee","650c16f0f2faf8d7a0d14c09","651c1d8e02e85bb8995fdc29","null","null","<p style=""font-size: 60px; font-family: BACS"">hTDdBCAd</p>","","","","","","","","",""
"html-keyboard-response","83","1205904","0.0-8.0-0.75","5c19254b0b9f6b00014769ee","650c16f0f2faf8d7a0d14c09","651c1d8e02e85bb8995fdc29","null","null","<p style=""font-size: 60px; font-family: BACS"">UdlGQcrdY</p>","","","","","","","","",""
"html-keyboard-response","84","1206909","0.0-8.0-0.76","5c19254b0b9f6b00014769ee","650c16f0f2faf8d7a0d14c09","651c1d8e02e85bb8995fdc29","null","null","<p style=""font-size: 60px; font-family: BACS"">ArQuGrbk</p>","","","","","","","","",""
"html-keyboard-response","85","1207921","0.0-8.0-0.77","5c19254b0b9f6b00014769ee","650c16f0f2faf8d7a0d14c09","651c1d8e02e85bb8995fdc29","null","null","<p style=""font-size: 60px; font-family: BACS"">dRhtBCAd</p>","","","","","","","","",""
"html-keyboard-response","86","1208926","0.0-8.0-0.78","5c19254b0b9f6b00014769ee","650c16f0f2faf8d7a0d14c09","651c1d8e02e85bb8995fdc29","null","null","<p style=""font-size: 60px; font-family: BACS"">ZcGdNAvdk</p>","","","","","","","","",""
"html-keyboard-response","87","1209938","0.0-8.0-0.79","5c19254b0b9f6b00014769ee","650c16f0f2faf8d7a0d14c09","651c1d8e02e85bb8995fdc29","null","null","<p style=""font-size: 60px; font-family: BACS"">dRhtRCdc</p>","","","","","","","","",""
"html-keyboard-response","88","1239667","0.0-9.0","5c19254b0b9f6b00014769ee","650c16f0f2faf8d7a0d14c09","651c1d8e02e85bb8995fdc29","29729"," ","<p>Great, you've seen the first block of words. You may now take a short break.</p>
      <p>Press the spacebar when you're ready to continue.</p>","","","","","","","","",""
"html-keyboard-response","89","1240668","0.0-10.0-0.0","5c19254b0b9f6b00014769ee","650c16f0f2faf8d7a0d14c09","651c1d8e02e85bb8995fdc29","null","null","<p style=""font-size: 60px; font-family: BACS"">mhtcYht</p>","","","","","","","","",""
"html-keyboard-response","90","1241670","0.0-10.0-0.1","5c19254b0b9f6b00014769ee","650c16f0f2faf8d7a0d14c09","651c1d8e02e85bb8995fdc29","null","null","<p style=""font-size: 60px; font-family: BACS"">ArQulLG</p>","","","","","","","","",""
"html-keyboard-response","91","1242672","0.0-10.0-0.2","5c19254b0b9f6b00014769ee","650c16f0f2faf8d7a0d14c09","651c1d8e02e85bb8995fdc29","null","null","<p style=""font-size: 60px; font-family: BACS"">kKRCRCdc</p>","","","","","","","","",""
"html-keyboard-response","92","1243673","0.0-10.0-0.3","5c19254b0b9f6b00014769ee","650c16f0f2faf8d7a0d14c09","651c1d8e02e85bb8995fdc29","null","null","<p style=""font-size: 60px; font-family: BACS"">LuNZGrbk</p>","","","","","","","","",""
"html-keyboard-response","93","1244674","0.0-10.0-0.4","5c19254b0b9f6b00014769ee","650c16f0f2faf8d7a0d14c09","651c1d8e02e85bb8995fdc29","null","null","<p style=""font-size: 60px; font-family: BACS"">DlDdAkd</p>","","","","","","","","",""
"html-keyboard-response","94","1245676","0.0-10.0-0.5","5c19254b0b9f6b00014769ee","650c16f0f2faf8d7a0d14c09","651c1d8e02e85bb8995fdc29","null","null","<p style=""font-size: 60px; font-family: BACS"">ZcGdNmLJ</p>","","","","","","","","",""
"html-keyboard-response","95","1246686","0.0-10.0-0.6","5c19254b0b9f6b00014769ee","650c16f0f2faf8d7a0d14c09","651c1d8e02e85bb8995fdc29","null","null","<p style=""font-size: 60px; font-family: BACS"">dRhtYht</p>","","","","","","","","",""
"html-keyboard-response","96","1247687","0.0-10.0-0.7","5c19254b0b9f6b00014769ee","650c16f0f2faf8d7a0d14c09","651c1d8e02e85bb8995fdc29","null","null","<p style=""font-size: 60px; font-family: BACS"">bYuQAvdk</p>","","","","","","","","",""
"html-keyboard-response","97","1248689","0.0-10.0-0.8","5c19254b0b9f6b00014769ee","650c16f0f2faf8d7a0d14c09","651c1d8e02e85bb8995fdc29","null","null","<p style=""font-size: 60px; font-family: BACS"">kKRCYht</p>","","","","","","","","",""
"html-keyboard-response","98","1249690","0.0-10.0-0.9","5c19254b0b9f6b00014769ee","650c16f0f2faf8d7a0d14c09","651c1d8e02e85bb8995fdc29","null","null","<p style=""font-size: 60px; font-family: BACS"">krGumLJ</p>","","","","","","","","",""
"html-keyboard-response","99","1250700","0.0-10.0-0.10","5c19254b0b9f6b00014769ee","650c16f0f2faf8d7a0d14c09","651c1d8e02e85bb8995fdc29","null","null","<p style=""font-size: 60px; font-family: BACS"">ZcGdNlLG</p>","","","","","","","","",""
"html-keyboard-response","100","1251704","0.0-10.0-0.11","5c19254b0b9f6b00014769ee","650c16f0f2faf8d7a0d14c09","651c1d8e02e85bb8995fdc29","null","null","<p style=""font-size: 60px; font-family: BACS"">hTDdYht</p>","","","","","","","","",""
"html-keyboard-response","101","1252706","0.0-10.0-0.12","5c19254b0b9f6b00014769ee","650c16f0f2faf8d7a0d14c09","651c1d8e02e85bb8995fdc29","null","null","<p style=""font-size: 60px; font-family: BACS"">mhtcAkd</p>","","","","","","","","",""
"html-keyboard-response","102","1253716","0.0-10.0-0.13","5c19254b0b9f6b00014769ee","650c16f0f2faf8d7a0d14c09","651c1d8e02e85bb8995fdc29","null","null","<p style=""font-size: 60px; font-family: BACS"">ZcGdNcrdY</p>","","","","","","","","",""
"html-keyboard-response","103","1254717","0.0-10.0-0.14","5c19254b0b9f6b00014769ee","650c16f0f2faf8d7a0d14c09","651c1d8e02e85bb8995fdc29","null","null","<p style=""font-size: 60px; font-family: BACS"">kKRCABb</p>","","","","","","","","",""
"html-keyboard-response","104","1255718","0.0-10.0-0.15","5c19254b0b9f6b00014769ee","650c16f0f2faf8d7a0d14c09","651c1d8e02e85bb8995fdc29","null","null","<p style=""font-size: 60px; font-family: BACS"">ArQuAvdk</p>","","","","","","","","",""
"html-keyboard-response","105","1256732","0.0-10.0-0.16","5c19254b0b9f6b00014769ee","650c16f0f2faf8d7a0d14c09","651c1d8e02e85bb8995fdc29","null","null","<p style=""font-size: 60px; font-family: BACS"">dRhtABb</p>","","","","","","","","",""
"html-keyboard-response","106","1257733","0.0-10.0-0.17","5c19254b0b9f6b00014769ee","650c16f0f2faf8d7a0d14c09","651c1d8e02e85bb8995fdc29","null","null","<p style=""font-size: 60px; font-family: BACS"">JdOAYcrdY</p>","","","","","","","","",""
"html-keyboard-response","107","1258743","0.0-10.0-0.18","5c19254b0b9f6b00014769ee","650c16f0f2faf8d7a0d14c09","651c1d8e02e85bb8995fdc29","null","null","<p style=""font-size: 60px; font-family: BACS"">ArQuGrbk</p>","","","","","","","","",""
"html-keyboard-response","108","1259745","0.0-10.0-0.19","5c19254b0b9f6b00014769ee","650c16f0f2faf8d7a0d14c09","651c1d8e02e85bb8995fdc29","null","null","<p style=""font-size: 60px; font-family: BACS"">dKRDYht</p>","","","","","","","","",""
"html-keyboard-response","109","1260752","0.0-10.0-0.20","5c19254b0b9f6b00014769ee","650c16f0f2faf8d7a0d14c09","651c1d8e02e85bb8995fdc29","null","null","<p style=""font-size: 60px; font-family: BACS"">cAZulLG</p>","","","","","","","","",""
"html-keyboard-response","110","1261753","0.0-10.0-0.21","5c19254b0b9f6b00014769ee","650c16f0f2faf8d7a0d14c09","651c1d8e02e85bb8995fdc29","null","null","<p style=""font-size: 60px; font-family: BACS"">UdlGQGrbk</p>","","","","","","","","",""
"html-keyboard-response","111","1262755","0.0-10.0-0.22","5c19254b0b9f6b00014769ee","650c16f0f2faf8d7a0d14c09","651c1d8e02e85bb8995fdc29","null","null","<p style=""font-size: 60px; font-family: BACS"">OcYMRCdc</p>","","","","","","","","",""
"html-keyboard-response","112","1263767","0.0-10.0-0.23","5c19254b0b9f6b00014769ee","650c16f0f2faf8d7a0d14c09","651c1d8e02e85bb8995fdc29","null","null","<p style=""font-size: 60px; font-family: BACS"">vclYcrdY</p>","","","","","","","","",""
"html-keyboard-response","113","1264768","0.0-10.0-0.24","5c19254b0b9f6b00014769ee","650c16f0f2faf8d7a0d14c09","651c1d8e02e85bb8995fdc29","null","null","<p style=""font-size: 60px; font-family: BACS"">LuNZmLJ</p>","","","","","","","","",""
"html-keyboard-response","114","1265769","0.0-10.0-0.25","5c19254b0b9f6b00014769ee","650c16f0f2faf8d7a0d14c09","651c1d8e02e85bb8995fdc29","null","null","<p style=""font-size: 60px; font-family: BACS"">cAZucrdY</p>","","","","","","","","",""
"html-keyboard-response","115","1266771","0.0-10.0-0.26","5c19254b0b9f6b00014769ee","650c16f0f2faf8d7a0d14c09","651c1d8e02e85bb8995fdc29","null","null","<p style=""font-size: 60px; font-family: BACS"">DlDdRCdc</p>","","","","","","","","",""
"html-keyboard-response","116","1267772","0.0-10.0-0.27","5c19254b0b9f6b00014769ee","650c16f0f2faf8d7a0d14c09","651c1d8e02e85bb8995fdc29","null","null","<p style=""font-size: 60px; font-family: BACS"">ctktABb</p>","","","","","","","","",""
"html-keyboard-response","117","1268777","0.0-10.0-0.28","5c19254b0b9f6b00014769ee","650c16f0f2faf8d7a0d14c09","651c1d8e02e85bb8995fdc29","null","null","<p style=""font-size: 60px; font-family: BACS"">hmKPMBCAd</p>","","","","","","","","",""
"html-keyboard-response","118","1269784","0.0-10.0-0.29","5c19254b0b9f6b00014769ee","650c16f0f2faf8d7a0d14c09","651c1d8e02e85bb8995fdc29","null","null","<p style=""font-size: 60px; font-family: BACS"">MBmEAkd</p>","","","","","","","","",""
"html-keyboard-response","119","1270791","0.0-10.0-0.30","5c19254b0b9f6b00014769ee","650c16f0f2faf8d7a0d14c09","651c1d8e02e85bb8995fdc29","null","null","<p style=""font-size: 60px; font-family: BACS"">ctktBCAd</p>","","","","","","","","",""
"html-keyboard-response","120","1271793","0.0-10.0-0.31","5c19254b0b9f6b00014769ee","650c16f0f2faf8d7a0d14c09","651c1d8e02e85bb8995fdc29","null","null","<p style=""font-size: 60px; font-family: BACS"">krGulLG</p>","","","","","","","","",""
"html-keyboard-response","121","1272793","0.0-10.0-0.32","5c19254b0b9f6b00014769ee","650c16f0f2faf8d7a0d14c09","651c1d8e02e85bb8995fdc29","null","null","<p style=""font-size: 60px; font-family: BACS"">vclYGrbk</p>","","","","","","","","",""
"html-keyboard-response","122","1273801","0.0-10.0-0.33","5c19254b0b9f6b00014769ee","650c16f0f2faf8d7a0d14c09","651c1d8e02e85bb8995fdc29","null","null","<p style=""font-size: 60px; font-family: BACS"">dRhtRCdc</p>","","","","","","","","",""
"html-keyboard-response","123","1274802","0.0-10.0-0.34","5c19254b0b9f6b00014769ee","650c16f0f2faf8d7a0d14c09","651c1d8e02e85bb8995fdc29","null","null","<p style=""font-size: 60px; font-family: BACS"">LuNZAvdk</p>","","","","","","","","",""
"html-keyboard-response","124","1275811","0.0-10.0-0.35","5c19254b0b9f6b00014769ee","650c16f0f2faf8d7a0d14c09","651c1d8e02e85bb8995fdc29","null","null","<p style=""font-size: 60px; font-family: BACS"">OcYMAkd</p>","","","","","","","","",""
"html-keyboard-response","125","1276827","0.0-10.0-0.36","5c19254b0b9f6b00014769ee","650c16f0f2faf8d7a0d14c09","651c1d8e02e85bb8995fdc29","null","null","<p style=""font-size: 60px; font-family: BACS"">UdlGQcrdY</p>","","","","","","","","",""
"html-keyboard-response","126","1277828","0.0-10.0-0.37","5c19254b0b9f6b00014769ee","650c16f0f2faf8d7a0d14c09","651c1d8e02e85bb8995fdc29","null","null","<p style=""font-size: 60px; font-family: BACS"">dKRDAkd</p>","","","","","","","","",""
"html-keyboard-response","127","1278830","0.0-10.0-0.38","5c19254b0b9f6b00014769ee","650c16f0f2faf8d7a0d14c09","651c1d8e02e85bb8995fdc29","null","null","<p style=""font-size: 60px; font-family: BACS"">ZcGdNAvdk</p>","","","","","","","","",""
"html-keyboard-response","128","1279831","0.0-10.0-0.39","5c19254b0b9f6b00014769ee","650c16f0f2faf8d7a0d14c09","651c1d8e02e85bb8995fdc29","null","null","<p style=""font-size: 60px; font-family: BACS"">MBmEABb</p>","","","","","","","","",""
"html-keyboard-response","129","1280832","0.0-10.0-0.40","5c19254b0b9f6b00014769ee","650c16f0f2faf8d7a0d14c09","651c1d8e02e85bb8995fdc29","null","null","<p style=""font-size: 60px; font-family: BACS"">krGucrdY</p>","","","","","","","","",""
"html-keyboard-response","130","1281847","0.0-10.0-0.41","5c19254b0b9f6b00014769ee","650c16f0f2faf8d7a0d14c09","651c1d8e02e85bb8995fdc29","null","null","<p style=""font-size: 60px; font-family: BACS"">UdlGQAvdk</p>","","","","","","","","",""
"html-keyboard-response","131","1282848","0.0-10.0-0.42","5c19254b0b9f6b00014769ee","650c16f0f2faf8d7a0d14c09","651c1d8e02e85bb8995fdc29","null","null","<p style=""font-size: 60px; font-family: BACS"">DlDdYht</p>","","","","","","","","",""
"html-keyboard-response","132","1283849","0.0-10.0-0.43","5c19254b0b9f6b00014769ee","650c16f0f2faf8d7a0d14c09","651c1d8e02e85bb8995fdc29","null","null","<p style=""font-size: 60px; font-family: BACS"">hmKPMAkd</p>","","","","","","","","",""
"html-keyboard-response","133","1284849","0.0-10.0-0.44","5c19254b0b9f6b00014769ee","650c16f0f2faf8d7a0d14c09","651c1d8e02e85bb8995fdc29","null","null","<p style=""font-size: 60px; font-family: BACS"">UdlGQmLJ</p>","","","","","","","","",""
"html-keyboard-response","134","1285863","0.0-10.0-0.45","5c19254b0b9f6b00014769ee","650c16f0f2faf8d7a0d14c09","651c1d8e02e85bb8995fdc29","null","null","<p style=""font-size: 60px; font-family: BACS"">JdOAYGrbk</p>","","","","","","","","",""
"html-keyboard-response","135","1286863","0.0-10.0-0.46","5c19254b0b9f6b00014769ee","650c16f0f2faf8d7a0d14c09","651c1d8e02e85bb8995fdc29","null","null","<p style=""font-size: 60px; font-family: BACS"">QcQAJcrdY</p>","","","","","","","","",""
"html-keyboard-response","136","1287865","0.0-10.0-0.47","5c19254b0b9f6b00014769ee","650c16f0f2faf8d7a0d14c09","651c1d8e02e85bb8995fdc29","null","null","<p style=""font-size: 60px; font-family: BACS"">vclYmLJ</p>","","","","","","","","",""
"html-keyboard-response","137","1288867","0.0-10.0-0.48","5c19254b0b9f6b00014769ee","650c16f0f2faf8d7a0d14c09","651c1d8e02e85bb8995fdc29","null","null","<p style=""font-size: 60px; font-family: BACS"">QcQAJAvdk</p>","","","","","","","","",""
"html-keyboard-response","138","1289872","0.0-10.0-0.49","5c19254b0b9f6b00014769ee","650c16f0f2faf8d7a0d14c09","651c1d8e02e85bb8995fdc29","null","null","<p style=""font-size: 60px; font-family: BACS"">bYuQGrbk</p>","","","","","","","","",""
"html-keyboard-response","139","1290874","0.0-10.0-0.50","5c19254b0b9f6b00014769ee","650c16f0f2faf8d7a0d14c09","651c1d8e02e85bb8995fdc29","null","null","<p style=""font-size: 60px; font-family: BACS"">dKRDBCAd</p>","","","","","","","","",""
"html-keyboard-response","140","1291880","0.0-10.0-0.51","5c19254b0b9f6b00014769ee","650c16f0f2faf8d7a0d14c09","651c1d8e02e85bb8995fdc29","null","null","<p style=""font-size: 60px; font-family: BACS"">ArQumLJ</p>","","","","","","","","",""
"html-keyboard-response","141","1292885","0.0-10.0-0.52","5c19254b0b9f6b00014769ee","650c16f0f2faf8d7a0d14c09","651c1d8e02e85bb8995fdc29","null","null","<p style=""font-size: 60px; font-family: BACS"">MBmERCdc</p>","","","","","","","","",""
"html-keyboard-response","142","1293886","0.0-10.0-0.53","5c19254b0b9f6b00014769ee","650c16f0f2faf8d7a0d14c09","651c1d8e02e85bb8995fdc29","null","null","<p style=""font-size: 60px; font-family: BACS"">dRhtBCAd</p>","","","","","","","","",""
"html-keyboard-response","143","1294898","0.0-10.0-0.54","5c19254b0b9f6b00014769ee","650c16f0f2faf8d7a0d14c09","651c1d8e02e85bb8995fdc29","null","null","<p style=""font-size: 60px; font-family: BACS"">hTDdRCdc</p>","","","","","","","","",""
"html-keyboard-response","144","1295913","0.0-10.0-0.55","5c19254b0b9f6b00014769ee","650c16f0f2faf8d7a0d14c09","651c1d8e02e85bb8995fdc29","null","null","<p style=""font-size: 60px; font-family: BACS"">vclYlLG</p>","","","","","","","","",""
"html-keyboard-response","145","1296918","0.0-10.0-0.56","5c19254b0b9f6b00014769ee","650c16f0f2faf8d7a0d14c09","651c1d8e02e85bb8995fdc29","null","null","<p style=""font-size: 60px; font-family: BACS"">JdOAYAvdk</p>","","","","","","","","",""
"html-keyboard-response","146","1297920","0.0-10.0-0.57","5c19254b0b9f6b00014769ee","650c16f0f2faf8d7a0d14c09","651c1d8e02e85bb8995fdc29","null","null","<p style=""font-size: 60px; font-family: BACS"">hTDdABb</p>","","","","","","","","",""
"html-keyboard-response","147","1298921","0.0-10.0-0.58","5c19254b0b9f6b00014769ee","650c16f0f2faf8d7a0d14c09","651c1d8e02e85bb8995fdc29","null","null","<p style=""font-size: 60px; font-family: BACS"">QcQAJGrbk</p>","","","","","","","","",""
"html-keyboard-response","148","1299922","0.0-10.0-0.59","5c19254b0b9f6b00014769ee","650c16f0f2faf8d7a0d14c09","651c1d8e02e85bb8995fdc29","null","null","<p style=""font-size: 60px; font-family: BACS"">hmKPMABb</p>","","","","","","","","",""
"html-keyboard-response","149","1300922","0.0-10.0-0.60","5c19254b0b9f6b00014769ee","650c16f0f2faf8d7a0d14c09","651c1d8e02e85bb8995fdc29","null","null","<p style=""font-size: 60px; font-family: BACS"">bYuQlLG</p>","","","","","","","","",""
"html-keyboard-response","150","1301939","0.0-10.0-0.61","5c19254b0b9f6b00014769ee","650c16f0f2faf8d7a0d14c09","651c1d8e02e85bb8995fdc29","null","null","<p style=""font-size: 60px; font-family: BACS"">OcYMABb</p>","","","","","","","","",""
"html-keyboard-response","151","1302942","0.0-10.0-0.62","5c19254b0b9f6b00014769ee","650c16f0f2faf8d7a0d14c09","651c1d8e02e85bb8995fdc29","null","null","<p style=""font-size: 60px; font-family: BACS"">JdOAYmLJ</p>","","","","","","","","",""
"html-keyboard-response","152","1303943","0.0-10.0-0.63","5c19254b0b9f6b00014769ee","650c16f0f2faf8d7a0d14c09","651c1d8e02e85bb8995fdc29","null","null","<p style=""font-size: 60px; font-family: BACS"">dKRDABb</p>","","","","","","","","",""
"html-keyboard-response","153","1304951","0.0-10.0-0.64","5c19254b0b9f6b00014769ee","650c16f0f2faf8d7a0d14c09","651c1d8e02e85bb8995fdc29","null","null","<p style=""font-size: 60px; font-family: BACS"">kKRCAkd</p>","","","","","","","","",""
"html-keyboard-response","154","1305952","0.0-10.0-0.65","5c19254b0b9f6b00014769ee","650c16f0f2faf8d7a0d14c09","651c1d8e02e85bb8995fdc29","null","null","<p style=""font-size: 60px; font-family: BACS"">hTDdBCAd</p>","","","","","","","","",""
"html-keyboard-response","155","1306955","0.0-10.0-0.66","5c19254b0b9f6b00014769ee","650c16f0f2faf8d7a0d14c09","651c1d8e02e85bb8995fdc29","null","null","<p style=""font-size: 60px; font-family: BACS"">LuNZlLG</p>","","","","","","","","",""
"html-keyboard-response","156","1307960","0.0-10.0-0.67","5c19254b0b9f6b00014769ee","650c16f0f2faf8d7a0d14c09","651c1d8e02e85bb8995fdc29","null","null","<p style=""font-size: 60px; font-family: BACS"">DlDdBCAd</p>","","","","","","","","",""
"html-keyboard-response","157","1308962","0.0-10.0-0.68","5c19254b0b9f6b00014769ee","650c16f0f2faf8d7a0d14c09","651c1d8e02e85bb8995fdc29","null","null","<p style=""font-size: 60px; font-family: BACS"">cAZumLJ</p>","","","","","","","","",""
"html-keyboard-response","158","1309963","0.0-10.0-0.69","5c19254b0b9f6b00014769ee","650c16f0f2faf8d7a0d14c09","651c1d8e02e85bb8995fdc29","null","null","<p style=""font-size: 60px; font-family: BACS"">mhtcRCdc</p>","","","","","","","","",""
"html-keyboard-response","159","1310963","0.0-10.0-0.70","5c19254b0b9f6b00014769ee","650c16f0f2faf8d7a0d14c09","651c1d8e02e85bb8995fdc29","null","null","<p style=""font-size: 60px; font-family: BACS"">krGuAvdk</p>","","","","","","","","",""
"html-keyboard-response","160","1311976","0.0-10.0-0.71","5c19254b0b9f6b00014769ee","650c16f0f2faf8d7a0d14c09","651c1d8e02e85bb8995fdc29","null","null","<p style=""font-size: 60px; font-family: BACS"">bYuQcrdY</p>","","","","","","","","",""
"html-keyboard-response","161","1312983","0.0-10.0-0.72","5c19254b0b9f6b00014769ee","650c16f0f2faf8d7a0d14c09","651c1d8e02e85bb8995fdc29","null","null","<p style=""font-size: 60px; font-family: BACS"">ctktRCdc</p>","","","","","","","","",""
"html-keyboard-response","162","1313984","0.0-10.0-0.73","5c19254b0b9f6b00014769ee","650c16f0f2faf8d7a0d14c09","651c1d8e02e85bb8995fdc29","null","null","<p style=""font-size: 60px; font-family: BACS"">mhtcBCAd</p>","","","","","","","","",""
"html-keyboard-response","163","1314988","0.0-10.0-0.74","5c19254b0b9f6b00014769ee","650c16f0f2faf8d7a0d14c09","651c1d8e02e85bb8995fdc29","null","null","<p style=""font-size: 60px; font-family: BACS"">cAZuGrbk</p>","","","","","","","","",""
"html-keyboard-response","164","1315997","0.0-10.0-0.75","5c19254b0b9f6b00014769ee","650c16f0f2faf8d7a0d14c09","651c1d8e02e85bb8995fdc29","null","null","<p style=""font-size: 60px; font-family: BACS"">OcYMBCAd</p>","","","","","","","","",""
"html-keyboard-response","165","1316998","0.0-10.0-0.76","5c19254b0b9f6b00014769ee","650c16f0f2faf8d7a0d14c09","651c1d8e02e85bb8995fdc29","null","null","<p style=""font-size: 60px; font-family: BACS"">MBmEYht</p>","","","","","","","","",""
"html-keyboard-response","166","1318000","0.0-10.0-0.77","5c19254b0b9f6b00014769ee","650c16f0f2faf8d7a0d14c09","651c1d8e02e85bb8995fdc29","null","null","<p style=""font-size: 60px; font-family: BACS"">ctktAkd</p>","","","","","","","","",""
"html-keyboard-response","167","1319009","0.0-10.0-0.78","5c19254b0b9f6b00014769ee","650c16f0f2faf8d7a0d14c09","651c1d8e02e85bb8995fdc29","null","null","<p style=""font-size: 60px; font-family: BACS"">hmKPMYht</p>","","","","","","","","",""
"html-keyboard-response","168","1320010","0.0-10.0-0.79","5c19254b0b9f6b00014769ee","650c16f0f2faf8d7a0d14c09","651c1d8e02e85bb8995fdc29","null","null","<p style=""font-size: 60px; font-family: BACS"">QcQAJlLG</p>","","","","","","","","",""
"html-keyboard-response","169","1328436","0.0-11.0","5c19254b0b9f6b00014769ee","650c16f0f2faf8d7a0d14c09","651c1d8e02e85bb8995fdc29","8426"," ","<p>Great, you've seen the second block of words. You may now take a short break.</p>
      <p>Press the spacebar when you're ready to continue.</p>","","","","","","","","",""
"html-keyboard-response","170","1329445","0.0-12.0-0.0","5c19254b0b9f6b00014769ee","650c16f0f2faf8d7a0d14c09","651c1d8e02e85bb8995fdc29","null","null","<p style=""font-size: 60px; font-family: BACS"">MBmEABb</p>","","","","","","","","",""
"html-keyboard-response","171","1330446","0.0-12.0-0.1","5c19254b0b9f6b00014769ee","650c16f0f2faf8d7a0d14c09","651c1d8e02e85bb8995fdc29","null","null","<p style=""font-size: 60px; font-family: BACS"">hTDdBCAd</p>","","","","","","","","",""
"html-keyboard-response","172","1331447","0.0-12.0-0.2","5c19254b0b9f6b00014769ee","650c16f0f2faf8d7a0d14c09","651c1d8e02e85bb8995fdc29","null","null","<p style=""font-size: 60px; font-family: BACS"">vclYlLG</p>","","","","","","","","",""
"html-keyboard-response","173","1332448","0.0-12.0-0.3","5c19254b0b9f6b00014769ee","650c16f0f2faf8d7a0d14c09","651c1d8e02e85bb8995fdc29","null","null","<p style=""font-size: 60px; font-family: BACS"">kKRCRCdc</p>","","","","","","","","",""
"html-keyboard-response","174","1333458","0.0-12.0-0.4","5c19254b0b9f6b00014769ee","650c16f0f2faf8d7a0d14c09","651c1d8e02e85bb8995fdc29","null","null","<p style=""font-size: 60px; font-family: BACS"">LuNZGrbk</p>","","","","","","","","",""
"html-keyboard-response","175","1334459","0.0-12.0-0.5","5c19254b0b9f6b00014769ee","650c16f0f2faf8d7a0d14c09","651c1d8e02e85bb8995fdc29","null","null","<p style=""font-size: 60px; font-family: BACS"">krGucrdY</p>","","","","","","","","",""
"html-keyboard-response","176","1335468","0.0-12.0-0.6","5c19254b0b9f6b00014769ee","650c16f0f2faf8d7a0d14c09","651c1d8e02e85bb8995fdc29","null","null","<p style=""font-size: 60px; font-family: BACS"">ctktBCAd</p>","","","","","","","","",""
"html-keyboard-response","177","1336473","0.0-12.0-0.7","5c19254b0b9f6b00014769ee","650c16f0f2faf8d7a0d14c09","651c1d8e02e85bb8995fdc29","null","null","<p style=""font-size: 60px; font-family: BACS"">LuNZlLG</p>","","","","","","","","",""
"html-keyboard-response","178","1337480","0.0-12.0-0.8","5c19254b0b9f6b00014769ee","650c16f0f2faf8d7a0d14c09","651c1d8e02e85bb8995fdc29","null","null","<p style=""font-size: 60px; font-family: BACS"">JdOAYGrbk</p>","","","","","","","","",""
"html-keyboard-response","179","1338486","0.0-12.0-0.9","5c19254b0b9f6b00014769ee","650c16f0f2faf8d7a0d14c09","651c1d8e02e85bb8995fdc29","null","null","<p style=""font-size: 60px; font-family: BACS"">bYuQcrdY</p>","","","","","","","","",""
"html-keyboard-response","180","1339494","0.0-12.0-0.10","5c19254b0b9f6b00014769ee","650c16f0f2faf8d7a0d14c09","651c1d8e02e85bb8995fdc29","null","null","<p style=""font-size: 60px; font-family: BACS"">kKRCYht</p>","","","","","","","","",""
"html-keyboard-response","181","1340497","0.0-12.0-0.11","5c19254b0b9f6b00014769ee","650c16f0f2faf8d7a0d14c09","651c1d8e02e85bb8995fdc29","null","null","<p style=""font-size: 60px; font-family: BACS"">dRhtBCAd</p>","","","","","","","","",""
"html-keyboard-response","182","1341512","0.0-12.0-0.12","5c19254b0b9f6b00014769ee","650c16f0f2faf8d7a0d14c09","651c1d8e02e85bb8995fdc29","null","null","<p style=""font-size: 60px; font-family: BACS"">QcQAJAvdk</p>","","","","","","","","",""
"html-keyboard-response","183","1342512","0.0-12.0-0.13","5c19254b0b9f6b00014769ee","650c16f0f2faf8d7a0d14c09","651c1d8e02e85bb8995fdc29","null","null","<p style=""font-size: 60px; font-family: BACS"">dKRDABb</p>","","","","","","","","",""
"html-keyboard-response","184","1343513","0.0-12.0-0.14","5c19254b0b9f6b00014769ee","650c16f0f2faf8d7a0d14c09","651c1d8e02e85bb8995fdc29","null","null","<p style=""font-size: 60px; font-family: BACS"">krGulLG</p>","","","","","","","","",""
"html-keyboard-response","185","1344516","0.0-12.0-0.15","5c19254b0b9f6b00014769ee","650c16f0f2faf8d7a0d14c09","651c1d8e02e85bb8995fdc29","null","null","<p style=""font-size: 60px; font-family: BACS"">cAZumLJ</p>","","","","","","","","",""
"html-keyboard-response","186","1345528","0.0-12.0-0.16","5c19254b0b9f6b00014769ee","650c16f0f2faf8d7a0d14c09","651c1d8e02e85bb8995fdc29","null","null","<p style=""font-size: 60px; font-family: BACS"">ZcGdNcrdY</p>","","","","","","","","",""
"html-keyboard-response","187","1346529","0.0-12.0-0.17","5c19254b0b9f6b00014769ee","650c16f0f2faf8d7a0d14c09","651c1d8e02e85bb8995fdc29","null","null","<p style=""font-size: 60px; font-family: BACS"">ArQuGrbk</p>","","","","","","","","",""
"html-keyboard-response","188","1347530","0.0-12.0-0.18","5c19254b0b9f6b00014769ee","650c16f0f2faf8d7a0d14c09","651c1d8e02e85bb8995fdc29","null","null","<p style=""font-size: 60px; font-family: BACS"">QcQAJlLG</p>","","","","","","","","",""
"html-keyboard-response","189","1348545","0.0-12.0-0.19","5c19254b0b9f6b00014769ee","650c16f0f2faf8d7a0d14c09","651c1d8e02e85bb8995fdc29","null","null","<p style=""font-size: 60px; font-family: BACS"">ctktRCdc</p>","","","","","","","","",""
"html-keyboard-response","190","1349562","0.0-12.0-0.20","5c19254b0b9f6b00014769ee","650c16f0f2faf8d7a0d14c09","651c1d8e02e85bb8995fdc29","null","null","<p style=""font-size: 60px; font-family: BACS"">hmKPMABb</p>","","","","","","","","",""
"html-keyboard-response","191","1350563","0.0-12.0-0.21","5c19254b0b9f6b00014769ee","650c16f0f2faf8d7a0d14c09","651c1d8e02e85bb8995fdc29","null","null","<p style=""font-size: 60px; font-family: BACS"">LuNZAvdk</p>","","","","","","","","",""
"html-keyboard-response","192","1351572","0.0-12.0-0.22","5c19254b0b9f6b00014769ee","650c16f0f2faf8d7a0d14c09","651c1d8e02e85bb8995fdc29","null","null","<p style=""font-size: 60px; font-family: BACS"">OcYMBCAd</p>","","","","","","","","",""
"html-keyboard-response","193","1352574","0.0-12.0-0.23","5c19254b0b9f6b00014769ee","650c16f0f2faf8d7a0d14c09","651c1d8e02e85bb8995fdc29","null","null","<p style=""font-size: 60px; font-family: BACS"">vclYGrbk</p>","","","","","","","","",""
"html-keyboard-response","194","1353577","0.0-12.0-0.24","5c19254b0b9f6b00014769ee","650c16f0f2faf8d7a0d14c09","651c1d8e02e85bb8995fdc29","null","null","<p style=""font-size: 60px; font-family: BACS"">ZcGdNmLJ</p>","","","","","","","","",""
"html-keyboard-response","195","1354587","0.0-12.0-0.25","5c19254b0b9f6b00014769ee","650c16f0f2faf8d7a0d14c09","651c1d8e02e85bb8995fdc29","null","null","<p style=""font-size: 60px; font-family: BACS"">cAZulLG</p>","","","","","","","","",""
"html-keyboard-response","196","1355588","0.0-12.0-0.26","5c19254b0b9f6b00014769ee","650c16f0f2faf8d7a0d14c09","651c1d8e02e85bb8995fdc29","null","null","<p style=""font-size: 60px; font-family: BACS"">hmKPMYht</p>","","","","","","","","",""
"html-keyboard-response","197","1356598","0.0-12.0-0.27","5c19254b0b9f6b00014769ee","650c16f0f2faf8d7a0d14c09","651c1d8e02e85bb8995fdc29","null","null","<p style=""font-size: 60px; font-family: BACS"">ZcGdNAvdk</p>","","","","","","","","",""
"html-keyboard-response","198","1357598","0.0-12.0-0.28","5c19254b0b9f6b00014769ee","650c16f0f2faf8d7a0d14c09","651c1d8e02e85bb8995fdc29","null","null","<p style=""font-size: 60px; font-family: BACS"">ArQumLJ</p>","","","","","","","","",""
"html-keyboard-response","199","1358606","0.0-12.0-0.29","5c19254b0b9f6b00014769ee","650c16f0f2faf8d7a0d14c09","651c1d8e02e85bb8995fdc29","null","null","<p style=""font-size: 60px; font-family: BACS"">krGuAvdk</p>","","","","","","","","",""
"html-keyboard-response","200","1359622","0.0-12.0-0.30","5c19254b0b9f6b00014769ee","650c16f0f2faf8d7a0d14c09","651c1d8e02e85bb8995fdc29","null","null","<p style=""font-size: 60px; font-family: BACS"">UdlGQGrbk</p>","","","","","","","","",""
"html-keyboard-response","201","1360623","0.0-12.0-0.31","5c19254b0b9f6b00014769ee","650c16f0f2faf8d7a0d14c09","651c1d8e02e85bb8995fdc29","null","null","<p style=""font-size: 60px; font-family: BACS"">JdOAYAvdk</p>","","","","","","","","",""
"html-keyboard-response","202","1361625","0.0-12.0-0.32","5c19254b0b9f6b00014769ee","650c16f0f2faf8d7a0d14c09","651c1d8e02e85bb8995fdc29","null","null","<p style=""font-size: 60px; font-family: BACS"">dRhtABb</p>","","","","","","","","",""
"html-keyboard-response","203","1362637","0.0-12.0-0.33","5c19254b0b9f6b00014769ee","650c16f0f2faf8d7a0d14c09","651c1d8e02e85bb8995fdc29","null","null","<p style=""font-size: 60px; font-family: BACS"">mhtcAkd</p>","","","","","","","","",""
"html-keyboard-response","204","1363638","0.0-12.0-0.34","5c19254b0b9f6b00014769ee","650c16f0f2faf8d7a0d14c09","651c1d8e02e85bb8995fdc29","null","null","<p style=""font-size: 60px; font-family: BACS"">OcYMABb</p>","","","","","","","","",""
"html-keyboard-response","205","1364639","0.0-12.0-0.35","5c19254b0b9f6b00014769ee","650c16f0f2faf8d7a0d14c09","651c1d8e02e85bb8995fdc29","null","null","<p style=""font-size: 60px; font-family: BACS"">mhtcRCdc</p>","","","","","","","","",""
"html-keyboard-response","206","1365639","0.0-12.0-0.36","5c19254b0b9f6b00014769ee","650c16f0f2faf8d7a0d14c09","651c1d8e02e85bb8995fdc29","null","null","<p style=""font-size: 60px; font-family: BACS"">kKRCAkd</p>","","","","","","","","",""
"html-keyboard-response","207","1366651","0.0-12.0-0.37","5c19254b0b9f6b00014769ee","650c16f0f2faf8d7a0d14c09","651c1d8e02e85bb8995fdc29","null","null","<p style=""font-size: 60px; font-family: BACS"">bYuQlLG</p>","","","","","","","","",""
"html-keyboard-response","208","1367652","0.0-12.0-0.38","5c19254b0b9f6b00014769ee","650c16f0f2faf8d7a0d14c09","651c1d8e02e85bb8995fdc29","null","null","<p style=""font-size: 60px; font-family: BACS"">MBmEYht</p>","","","","","","","","",""
"html-keyboard-response","209","1368653","0.0-12.0-0.39","5c19254b0b9f6b00014769ee","650c16f0f2faf8d7a0d14c09","651c1d8e02e85bb8995fdc29","null","null","<p style=""font-size: 60px; font-family: BACS"">DlDdBCAd</p>","","","","","","","","",""
"html-keyboard-response","210","1369654","0.0-12.0-0.40","5c19254b0b9f6b00014769ee","650c16f0f2faf8d7a0d14c09","651c1d8e02e85bb8995fdc29","null","null","<p style=""font-size: 60px; font-family: BACS"">ArQuAvdk</p>","","","","","","","","",""
"html-keyboard-response","211","1370665","0.0-12.0-0.41","5c19254b0b9f6b00014769ee","650c16f0f2faf8d7a0d14c09","651c1d8e02e85bb8995fdc29","null","null","<p style=""font-size: 60px; font-family: BACS"">DlDdAkd</p>","","","","","","","","",""
"html-keyboard-response","212","1371667","0.0-12.0-0.42","5c19254b0b9f6b00014769ee","650c16f0f2faf8d7a0d14c09","651c1d8e02e85bb8995fdc29","null","null","<p style=""font-size: 60px; font-family: BACS"">JdOAYmLJ</p>","","","","","","","","",""
"html-keyboard-response","213","1372668","0.0-12.0-0.43","5c19254b0b9f6b00014769ee","650c16f0f2faf8d7a0d14c09","651c1d8e02e85bb8995fdc29","null","null","<p style=""font-size: 60px; font-family: BACS"">kKRCABb</p>","","","","","","","","",""
"html-keyboard-response","214","1373681","0.0-12.0-0.44","5c19254b0b9f6b00014769ee","650c16f0f2faf8d7a0d14c09","651c1d8e02e85bb8995fdc29","null","null","<p style=""font-size: 60px; font-family: BACS"">MBmERCdc</p>","","","","","","","","",""
"html-keyboard-response","215","1374682","0.0-12.0-0.45","5c19254b0b9f6b00014769ee","650c16f0f2faf8d7a0d14c09","651c1d8e02e85bb8995fdc29","null","null","<p style=""font-size: 60px; font-family: BACS"">OcYMAkd</p>","","","","","","","","",""
"html-keyboard-response","216","1375688","0.0-12.0-0.46","5c19254b0b9f6b00014769ee","650c16f0f2faf8d7a0d14c09","651c1d8e02e85bb8995fdc29","null","null","<p style=""font-size: 60px; font-family: BACS"">vclYcrdY</p>","","","","","","","","",""
"html-keyboard-response","217","1376702","0.0-12.0-0.47","5c19254b0b9f6b00014769ee","650c16f0f2faf8d7a0d14c09","651c1d8e02e85bb8995fdc29","null","null","<p style=""font-size: 60px; font-family: BACS"">DlDdYht</p>","","","","","","","","",""
"html-keyboard-response","218","1377708","0.0-12.0-0.48","5c19254b0b9f6b00014769ee","650c16f0f2faf8d7a0d14c09","651c1d8e02e85bb8995fdc29","null","null","<p style=""font-size: 60px; font-family: BACS"">QcQAJGrbk</p>","","","","","","","","",""
"html-keyboard-response","219","1378709","0.0-12.0-0.49","5c19254b0b9f6b00014769ee","650c16f0f2faf8d7a0d14c09","651c1d8e02e85bb8995fdc29","null","null","<p style=""font-size: 60px; font-family: BACS"">hmKPMBCAd</p>","","","","","","","","",""
"html-keyboard-response","220","1379720","0.0-12.0-0.50","5c19254b0b9f6b00014769ee","650c16f0f2faf8d7a0d14c09","651c1d8e02e85bb8995fdc29","null","null","<p style=""font-size: 60px; font-family: BACS"">JdOAYcrdY</p>","","","","","","","","",""
"html-keyboard-response","221","1380721","0.0-12.0-0.51","5c19254b0b9f6b00014769ee","650c16f0f2faf8d7a0d14c09","651c1d8e02e85bb8995fdc29","null","null","<p style=""font-size: 60px; font-family: BACS"">MBmEAkd</p>","","","","","","","","",""
"html-keyboard-response","222","1381729","0.0-12.0-0.52","5c19254b0b9f6b00014769ee","650c16f0f2faf8d7a0d14c09","651c1d8e02e85bb8995fdc29","null","null","<p style=""font-size: 60px; font-family: BACS"">ctktABb</p>","","","","","","","","",""
"html-keyboard-response","223","1382745","0.0-12.0-0.53","5c19254b0b9f6b00014769ee","650c16f0f2faf8d7a0d14c09","651c1d8e02e85bb8995fdc29","null","null","<p style=""font-size: 60px; font-family: BACS"">cAZucrdY</p>","","","","","","","","",""
"html-keyboard-response","224","1383751","0.0-12.0-0.54","5c19254b0b9f6b00014769ee","650c16f0f2faf8d7a0d14c09","651c1d8e02e85bb8995fdc29","null","null","<p style=""font-size: 60px; font-family: BACS"">ArQulLG</p>","","","","","","","","",""
"html-keyboard-response","225","1384756","0.0-12.0-0.55","5c19254b0b9f6b00014769ee","650c16f0f2faf8d7a0d14c09","651c1d8e02e85bb8995fdc29","null","null","<p style=""font-size: 60px; font-family: BACS"">dRhtYht</p>","","","","","","","","",""
"html-keyboard-response","226","1385757","0.0-12.0-0.56","5c19254b0b9f6b00014769ee","650c16f0f2faf8d7a0d14c09","651c1d8e02e85bb8995fdc29","null","null","<p style=""font-size: 60px; font-family: BACS"">UdlGQcrdY</p>","","","","","","","","",""
"html-keyboard-response","227","1386760","0.0-12.0-0.57","5c19254b0b9f6b00014769ee","650c16f0f2faf8d7a0d14c09","651c1d8e02e85bb8995fdc29","null","null","<p style=""font-size: 60px; font-family: BACS"">dRhtRCdc</p>","","","","","","","","",""
"html-keyboard-response","228","1387765","0.0-12.0-0.58","5c19254b0b9f6b00014769ee","650c16f0f2faf8d7a0d14c09","651c1d8e02e85bb8995fdc29","null","null","<p style=""font-size: 60px; font-family: BACS"">krGumLJ</p>","","","","","","","","",""
"html-keyboard-response","229","1388767","0.0-12.0-0.59","5c19254b0b9f6b00014769ee","650c16f0f2faf8d7a0d14c09","651c1d8e02e85bb8995fdc29","null","null","<p style=""font-size: 60px; font-family: BACS"">bYuQGrbk</p>","","","","","","","","",""
"html-keyboard-response","230","1389773","0.0-12.0-0.60","5c19254b0b9f6b00014769ee","650c16f0f2faf8d7a0d14c09","651c1d8e02e85bb8995fdc29","null","null","<p style=""font-size: 60px; font-family: BACS"">ZcGdNlLG</p>","","","","","","","","",""
"html-keyboard-response","231","1390776","0.0-12.0-0.61","5c19254b0b9f6b00014769ee","650c16f0f2faf8d7a0d14c09","651c1d8e02e85bb8995fdc29","null","null","<p style=""font-size: 60px; font-family: BACS"">DlDdRCdc</p>","","","","","","","","",""
"html-keyboard-response","232","1391781","0.0-12.0-0.62","5c19254b0b9f6b00014769ee","650c16f0f2faf8d7a0d14c09","651c1d8e02e85bb8995fdc29","null","null","<p style=""font-size: 60px; font-family: BACS"">LuNZmLJ</p>","","","","","","","","",""
"html-keyboard-response","233","1392791","0.0-12.0-0.63","5c19254b0b9f6b00014769ee","650c16f0f2faf8d7a0d14c09","651c1d8e02e85bb8995fdc29","null","null","<p style=""font-size: 60px; font-family: BACS"">hTDdRCdc</p>","","","","","","","","",""
"html-keyboard-response","234","1393796","0.0-12.0-0.64","5c19254b0b9f6b00014769ee","650c16f0f2faf8d7a0d14c09","651c1d8e02e85bb8995fdc29","null","null","<p style=""font-size: 60px; font-family: BACS"">hmKPMAkd</p>","","","","","","","","",""
"html-keyboard-response","235","1394798","0.0-12.0-0.65","5c19254b0b9f6b00014769ee","650c16f0f2faf8d7a0d14c09","651c1d8e02e85bb8995fdc29","null","null","<p style=""font-size: 60px; font-family: BACS"">mhtcBCAd</p>","","","","","","","","",""
"html-keyboard-response","236","1395808","0.0-12.0-0.66","5c19254b0b9f6b00014769ee","650c16f0f2faf8d7a0d14c09","651c1d8e02e85bb8995fdc29","null","null","<p style=""font-size: 60px; font-family: BACS"">QcQAJcrdY</p>","","","","","","","","",""
"html-keyboard-response","237","1396814","0.0-12.0-0.67","5c19254b0b9f6b00014769ee","650c16f0f2faf8d7a0d14c09","651c1d8e02e85bb8995fdc29","null","null","<p style=""font-size: 60px; font-family: BACS"">ctktAkd</p>","","","","","","","","",""
"html-keyboard-response","238","1397815","0.0-12.0-0.68","5c19254b0b9f6b00014769ee","650c16f0f2faf8d7a0d14c09","651c1d8e02e85bb8995fdc29","null","null","<p style=""font-size: 60px; font-family: BACS"">mhtcYht</p>","","","","","","","","",""
"html-keyboard-response","239","1398817","0.0-12.0-0.69","5c19254b0b9f6b00014769ee","650c16f0f2faf8d7a0d14c09","651c1d8e02e85bb8995fdc29","null","null","<p style=""font-size: 60px; font-family: BACS"">cAZuGrbk</p>","","","","","","","","",""
"html-keyboard-response","240","1399823","0.0-12.0-0.70","5c19254b0b9f6b00014769ee","650c16f0f2faf8d7a0d14c09","651c1d8e02e85bb8995fdc29","null","null","<p style=""font-size: 60px; font-family: BACS"">hTDdYht</p>","","","","","","","","",""
"html-keyboard-response","241","1400823","0.0-12.0-0.71","5c19254b0b9f6b00014769ee","650c16f0f2faf8d7a0d14c09","651c1d8e02e85bb8995fdc29","null","null","<p style=""font-size: 60px; font-family: BACS"">UdlGQAvdk</p>","","","","","","","","",""
"html-keyboard-response","242","1401824","0.0-12.0-0.72","5c19254b0b9f6b00014769ee","650c16f0f2faf8d7a0d14c09","651c1d8e02e85bb8995fdc29","null","null","<p style=""font-size: 60px; font-family: BACS"">vclYmLJ</p>","","","","","","","","",""
"html-keyboard-response","243","1402834","0.0-12.0-0.73","5c19254b0b9f6b00014769ee","650c16f0f2faf8d7a0d14c09","651c1d8e02e85bb8995fdc29","null","null","<p style=""font-size: 60px; font-family: BACS"">bYuQAvdk</p>","","","","","","","","",""
"html-keyboard-response","244","1403841","0.0-12.0-0.74","5c19254b0b9f6b00014769ee","650c16f0f2faf8d7a0d14c09","651c1d8e02e85bb8995fdc29","null","null","<p style=""font-size: 60px; font-family: BACS"">dKRDAkd</p>","","","","","","","","",""
"html-keyboard-response","245","1404842","0.0-12.0-0.75","5c19254b0b9f6b00014769ee","650c16f0f2faf8d7a0d14c09","651c1d8e02e85bb8995fdc29","null","null","<p style=""font-size: 60px; font-family: BACS"">hTDdABb</p>","","","","","","","","",""
"html-keyboard-response","246","1405852","0.0-12.0-0.76","5c19254b0b9f6b00014769ee","650c16f0f2faf8d7a0d14c09","651c1d8e02e85bb8995fdc29","null","null","<p style=""font-size: 60px; font-family: BACS"">OcYMRCdc</p>","","","","","","","","",""
"html-keyboard-response","247","1406860","0.0-12.0-0.77","5c19254b0b9f6b00014769ee","650c16f0f2faf8d7a0d14c09","651c1d8e02e85bb8995fdc29","null","null","<p style=""font-size: 60px; font-family: BACS"">dKRDYht</p>","","","","","","","","",""
"html-keyboard-response","248","1407876","0.0-12.0-0.78","5c19254b0b9f6b00014769ee","650c16f0f2faf8d7a0d14c09","651c1d8e02e85bb8995fdc29","null","null","<p style=""font-size: 60px; font-family: BACS"">UdlGQmLJ</p>","","","","","","","","",""
"html-keyboard-response","249","1408877","0.0-12.0-0.79","5c19254b0b9f6b00014769ee","650c16f0f2faf8d7a0d14c09","651c1d8e02e85bb8995fdc29","null","null","<p style=""font-size: 60px; font-family: BACS"">dKRDBCAd</p>","","","","","","","","",""
"html-keyboard-response","250","1416978","0.0-13.0","5c19254b0b9f6b00014769ee","650c16f0f2faf8d7a0d14c09","651c1d8e02e85bb8995fdc29","8101"," ","<p>Great, you've seen the third block of words. You may now take a short break.</p>
      <p>Press the spacebar when you're ready to continue.</p>","","","","","","","","",""
"html-keyboard-response","251","1417988","0.0-14.0-0.0","5c19254b0b9f6b00014769ee","650c16f0f2faf8d7a0d14c09","651c1d8e02e85bb8995fdc29","null","null","<p style=""font-size: 60px; font-family: BACS"">JdOAYmLJ</p>","","","","","","","","",""
"html-keyboard-response","252","1418992","0.0-14.0-0.1","5c19254b0b9f6b00014769ee","650c16f0f2faf8d7a0d14c09","651c1d8e02e85bb8995fdc29","null","null","<p style=""font-size: 60px; font-family: BACS"">cAZucrdY</p>","","","","","","","","",""
"html-keyboard-response","253","1419992","0.0-14.0-0.2","5c19254b0b9f6b00014769ee","650c16f0f2faf8d7a0d14c09","651c1d8e02e85bb8995fdc29","null","null","<p style=""font-size: 60px; font-family: BACS"">OcYMRCdc</p>","","","","","","","","",""
"html-keyboard-response","254","1420995","0.0-14.0-0.3","5c19254b0b9f6b00014769ee","650c16f0f2faf8d7a0d14c09","651c1d8e02e85bb8995fdc29","null","null","<p style=""font-size: 60px; font-family: BACS"">dKRDAkd</p>","","","","","","","","",""
"html-keyboard-response","255","1422001","0.0-14.0-0.4","5c19254b0b9f6b00014769ee","650c16f0f2faf8d7a0d14c09","651c1d8e02e85bb8995fdc29","null","null","<p style=""font-size: 60px; font-family: BACS"">JdOAYcrdY</p>","","","","","","","","",""
"html-keyboard-response","256","1423001","0.0-14.0-0.5","5c19254b0b9f6b00014769ee","650c16f0f2faf8d7a0d14c09","651c1d8e02e85bb8995fdc29","null","null","<p style=""font-size: 60px; font-family: BACS"">DlDdBCAd</p>","","","","","","","","",""
"html-keyboard-response","257","1424002","0.0-14.0-0.6","5c19254b0b9f6b00014769ee","650c16f0f2faf8d7a0d14c09","651c1d8e02e85bb8995fdc29","null","null","<p style=""font-size: 60px; font-family: BACS"">krGuAvdk</p>","","","","","","","","",""
"html-keyboard-response","258","1425003","0.0-14.0-0.7","5c19254b0b9f6b00014769ee","650c16f0f2faf8d7a0d14c09","651c1d8e02e85bb8995fdc29","null","null","<p style=""font-size: 60px; font-family: BACS"">hmKPMAkd</p>","","","","","","","","",""
"html-keyboard-response","259","1426011","0.0-14.0-0.8","5c19254b0b9f6b00014769ee","650c16f0f2faf8d7a0d14c09","651c1d8e02e85bb8995fdc29","null","null","<p style=""font-size: 60px; font-family: BACS"">dRhtYht</p>","","","","","","","","",""
"html-keyboard-response","260","1427027","0.0-14.0-0.9","5c19254b0b9f6b00014769ee","650c16f0f2faf8d7a0d14c09","651c1d8e02e85bb8995fdc29","null","null","<p style=""font-size: 60px; font-family: BACS"">DlDdAkd</p>","","","","","","","","",""
"html-keyboard-response","261","1428030","0.0-14.0-0.10","5c19254b0b9f6b00014769ee","650c16f0f2faf8d7a0d14c09","651c1d8e02e85bb8995fdc29","null","null","<p style=""font-size: 60px; font-family: BACS"">hTDdRCdc</p>","","","","","","","","",""
"html-keyboard-response","262","1429035","0.0-14.0-0.11","5c19254b0b9f6b00014769ee","650c16f0f2faf8d7a0d14c09","651c1d8e02e85bb8995fdc29","null","null","<p style=""font-size: 60px; font-family: BACS"">UdlGQAvdk</p>","","","","","","","","",""
"html-keyboard-response","263","1430043","0.0-14.0-0.12","5c19254b0b9f6b00014769ee","650c16f0f2faf8d7a0d14c09","651c1d8e02e85bb8995fdc29","null","null","<p style=""font-size: 60px; font-family: BACS"">bYuQGrbk</p>","","","","","","","","",""
"html-keyboard-response","264","1431048","0.0-14.0-0.13","5c19254b0b9f6b00014769ee","650c16f0f2faf8d7a0d14c09","651c1d8e02e85bb8995fdc29","null","null","<p style=""font-size: 60px; font-family: BACS"">MBmEAkd</p>","","","","","","","","",""
"html-keyboard-response","265","1432053","0.0-14.0-0.14","5c19254b0b9f6b00014769ee","650c16f0f2faf8d7a0d14c09","651c1d8e02e85bb8995fdc29","null","null","<p style=""font-size: 60px; font-family: BACS"">mhtcRCdc</p>","","","","","","","","",""
"html-keyboard-response","266","1433058","0.0-14.0-0.15","5c19254b0b9f6b00014769ee","650c16f0f2faf8d7a0d14c09","651c1d8e02e85bb8995fdc29","null","null","<p style=""font-size: 60px; font-family: BACS"">LuNZAvdk</p>","","","","","","","","",""
"html-keyboard-response","267","1434060","0.0-14.0-0.16","5c19254b0b9f6b00014769ee","650c16f0f2faf8d7a0d14c09","651c1d8e02e85bb8995fdc29","null","null","<p style=""font-size: 60px; font-family: BACS"">ZcGdNcrdY</p>","","","","","","","","",""
"html-keyboard-response","268","1435075","0.0-14.0-0.17","5c19254b0b9f6b00014769ee","650c16f0f2faf8d7a0d14c09","651c1d8e02e85bb8995fdc29","null","null","<p style=""font-size: 60px; font-family: BACS"">hTDdBCAd</p>","","","","","","","","",""
"html-keyboard-response","269","1436076","0.0-14.0-0.18","5c19254b0b9f6b00014769ee","650c16f0f2faf8d7a0d14c09","651c1d8e02e85bb8995fdc29","null","null","<p style=""font-size: 60px; font-family: BACS"">dRhtRCdc</p>","","","","","","","","",""
"html-keyboard-response","270","1437078","0.0-14.0-0.19","5c19254b0b9f6b00014769ee","650c16f0f2faf8d7a0d14c09","651c1d8e02e85bb8995fdc29","null","null","<p style=""font-size: 60px; font-family: BACS"">QcQAJcrdY</p>","","","","","","","","",""
"html-keyboard-response","271","1438085","0.0-14.0-0.20","5c19254b0b9f6b00014769ee","650c16f0f2faf8d7a0d14c09","651c1d8e02e85bb8995fdc29","null","null","<p style=""font-size: 60px; font-family: BACS"">ctktBCAd</p>","","","","","","","","",""
"html-keyboard-response","272","1439086","0.0-14.0-0.21","5c19254b0b9f6b00014769ee","650c16f0f2faf8d7a0d14c09","651c1d8e02e85bb8995fdc29","null","null","<p style=""font-size: 60px; font-family: BACS"">OcYMABb</p>","","","","","","","","",""
"html-keyboard-response","273","1440087","0.0-14.0-0.22","5c19254b0b9f6b00014769ee","650c16f0f2faf8d7a0d14c09","651c1d8e02e85bb8995fdc29","null","null","<p style=""font-size: 60px; font-family: BACS"">DlDdRCdc</p>","","","","","","","","",""
"html-keyboard-response","274","1441088","0.0-14.0-0.23","5c19254b0b9f6b00014769ee","650c16f0f2faf8d7a0d14c09","651c1d8e02e85bb8995fdc29","null","null","<p style=""font-size: 60px; font-family: BACS"">ZcGdNmLJ</p>","","","","","","","","",""
"html-keyboard-response","275","1442098","0.0-14.0-0.24","5c19254b0b9f6b00014769ee","650c16f0f2faf8d7a0d14c09","651c1d8e02e85bb8995fdc29","null","null","<p style=""font-size: 60px; font-family: BACS"">bYuQAvdk</p>","","","","","","","","",""
"html-keyboard-response","276","1443114","0.0-14.0-0.25","5c19254b0b9f6b00014769ee","650c16f0f2faf8d7a0d14c09","651c1d8e02e85bb8995fdc29","null","null","<p style=""font-size: 60px; font-family: BACS"">dKRDABb</p>","","","","","","","","",""
"html-keyboard-response","277","1444130","0.0-14.0-0.26","5c19254b0b9f6b00014769ee","650c16f0f2faf8d7a0d14c09","651c1d8e02e85bb8995fdc29","null","null","<p style=""font-size: 60px; font-family: BACS"">hmKPMBCAd</p>","","","","","","","","",""
"html-keyboard-response","278","1445132","0.0-14.0-0.27","5c19254b0b9f6b00014769ee","650c16f0f2faf8d7a0d14c09","651c1d8e02e85bb8995fdc29","null","null","<p style=""font-size: 60px; font-family: BACS"">ZcGdNAvdk</p>","","","","","","","","",""
"html-keyboard-response","279","1446133","0.0-14.0-0.28","5c19254b0b9f6b00014769ee","650c16f0f2faf8d7a0d14c09","651c1d8e02e85bb8995fdc29","null","null","<p style=""font-size: 60px; font-family: BACS"">ArQumLJ</p>","","","","","","","","",""
"html-keyboard-response","280","1447134","0.0-14.0-0.29","5c19254b0b9f6b00014769ee","650c16f0f2faf8d7a0d14c09","651c1d8e02e85bb8995fdc29","null","null","<p style=""font-size: 60px; font-family: BACS"">LuNZGrbk</p>","","","","","","","","",""
"html-keyboard-response","281","1448146","0.0-14.0-0.30","5c19254b0b9f6b00014769ee","650c16f0f2faf8d7a0d14c09","651c1d8e02e85bb8995fdc29","null","null","<p style=""font-size: 60px; font-family: BACS"">hTDdYht</p>","","","","","","","","",""
"html-keyboard-response","282","1449146","0.0-14.0-0.31","5c19254b0b9f6b00014769ee","650c16f0f2faf8d7a0d14c09","651c1d8e02e85bb8995fdc29","null","null","<p style=""font-size: 60px; font-family: BACS"">UdlGQGrbk</p>","","","","","","","","",""
"html-keyboard-response","283","1450149","0.0-14.0-0.32","5c19254b0b9f6b00014769ee","650c16f0f2faf8d7a0d14c09","651c1d8e02e85bb8995fdc29","null","null","<p style=""font-size: 60px; font-family: BACS"">ctktRCdc</p>","","","","","","","","",""
"html-keyboard-response","284","1451159","0.0-14.0-0.33","5c19254b0b9f6b00014769ee","650c16f0f2faf8d7a0d14c09","651c1d8e02e85bb8995fdc29","null","null","<p style=""font-size: 60px; font-family: BACS"">UdlGQcrdY</p>","","","","","","","","",""
"html-keyboard-response","285","1452171","0.0-14.0-0.34","5c19254b0b9f6b00014769ee","650c16f0f2faf8d7a0d14c09","651c1d8e02e85bb8995fdc29","null","null","<p style=""font-size: 60px; font-family: BACS"">LuNZlLG</p>","","","","","","","","",""
"html-keyboard-response","286","1453172","0.0-14.0-0.35","5c19254b0b9f6b00014769ee","650c16f0f2faf8d7a0d14c09","651c1d8e02e85bb8995fdc29","null","null","<p style=""font-size: 60px; font-family: BACS"">ctktABb</p>","","","","","","","","",""
"html-keyboard-response","287","1454173","0.0-14.0-0.36","5c19254b0b9f6b00014769ee","650c16f0f2faf8d7a0d14c09","651c1d8e02e85bb8995fdc29","null","null","<p style=""font-size: 60px; font-family: BACS"">LuNZmLJ</p>","","","","","","","","",""
"html-keyboard-response","288","1455181","0.0-14.0-0.37","5c19254b0b9f6b00014769ee","650c16f0f2faf8d7a0d14c09","651c1d8e02e85bb8995fdc29","null","null","<p style=""font-size: 60px; font-family: BACS"">cAZuGrbk</p>","","","","","","","","",""
"html-keyboard-response","289","1456184","0.0-14.0-0.38","5c19254b0b9f6b00014769ee","650c16f0f2faf8d7a0d14c09","651c1d8e02e85bb8995fdc29","null","null","<p style=""font-size: 60px; font-family: BACS"">QcQAJlLG</p>","","","","","","","","",""
"html-keyboard-response","290","1457194","0.0-14.0-0.39","5c19254b0b9f6b00014769ee","650c16f0f2faf8d7a0d14c09","651c1d8e02e85bb8995fdc29","null","null","<p style=""font-size: 60px; font-family: BACS"">dKRDYht</p>","","","","","","","","",""
"html-keyboard-response","291","1458208","0.0-14.0-0.40","5c19254b0b9f6b00014769ee","650c16f0f2faf8d7a0d14c09","651c1d8e02e85bb8995fdc29","null","null","<p style=""font-size: 60px; font-family: BACS"">vclYGrbk</p>","","","","","","","","",""
"html-keyboard-response","292","1459213","0.0-14.0-0.41","5c19254b0b9f6b00014769ee","650c16f0f2faf8d7a0d14c09","651c1d8e02e85bb8995fdc29","null","null","<p style=""font-size: 60px; font-family: BACS"">mhtcAkd</p>","","","","","","","","",""
"html-keyboard-response","293","1460215","0.0-14.0-0.42","5c19254b0b9f6b00014769ee","650c16f0f2faf8d7a0d14c09","651c1d8e02e85bb8995fdc29","null","null","<p style=""font-size: 60px; font-family: BACS"">vclYmLJ</p>","","","","","","","","",""
"html-keyboard-response","294","1461219","0.0-14.0-0.43","5c19254b0b9f6b00014769ee","650c16f0f2faf8d7a0d14c09","651c1d8e02e85bb8995fdc29","null","null","<p style=""font-size: 60px; font-family: BACS"">bYuQcrdY</p>","","","","","","","","",""
"html-keyboard-response","295","1462220","0.0-14.0-0.44","5c19254b0b9f6b00014769ee","650c16f0f2faf8d7a0d14c09","651c1d8e02e85bb8995fdc29","null","null","<p style=""font-size: 60px; font-family: BACS"">mhtcYht</p>","","","","","","","","",""
"html-keyboard-response","296","1463221","0.0-14.0-0.45","5c19254b0b9f6b00014769ee","650c16f0f2faf8d7a0d14c09","651c1d8e02e85bb8995fdc29","null","null","<p style=""font-size: 60px; font-family: BACS"">MBmERCdc</p>","","","","","","","","",""
"html-keyboard-response","297","1464236","0.0-14.0-0.46","5c19254b0b9f6b00014769ee","650c16f0f2faf8d7a0d14c09","651c1d8e02e85bb8995fdc29","null","null","<p style=""font-size: 60px; font-family: BACS"">ArQulLG</p>","","","","","","","","",""
"html-keyboard-response","298","1465238","0.0-14.0-0.47","5c19254b0b9f6b00014769ee","650c16f0f2faf8d7a0d14c09","651c1d8e02e85bb8995fdc29","null","null","<p style=""font-size: 60px; font-family: BACS"">dKRDBCAd</p>","","","","","","","","",""
"html-keyboard-response","299","1466241","0.0-14.0-0.48","5c19254b0b9f6b00014769ee","650c16f0f2faf8d7a0d14c09","651c1d8e02e85bb8995fdc29","null","null","<p style=""font-size: 60px; font-family: BACS"">kKRCRCdc</p>","","","","","","","","",""
"html-keyboard-response","300","1467242","0.0-14.0-0.49","5c19254b0b9f6b00014769ee","650c16f0f2faf8d7a0d14c09","651c1d8e02e85bb8995fdc29","null","null","<p style=""font-size: 60px; font-family: BACS"">QcQAJGrbk</p>","","","","","","","","",""
"html-keyboard-response","301","1468245","0.0-14.0-0.50","5c19254b0b9f6b00014769ee","650c16f0f2faf8d7a0d14c09","651c1d8e02e85bb8995fdc29","null","null","<p style=""font-size: 60px; font-family: BACS"">cAZulLG</p>","","","","","","","","",""
"html-keyboard-response","302","1469260","0.0-14.0-0.51","5c19254b0b9f6b00014769ee","650c16f0f2faf8d7a0d14c09","651c1d8e02e85bb8995fdc29","null","null","<p style=""font-size: 60px; font-family: BACS"">DlDdYht</p>","","","","","","","","",""
"html-keyboard-response","303","1470262","0.0-14.0-0.52","5c19254b0b9f6b00014769ee","650c16f0f2faf8d7a0d14c09","651c1d8e02e85bb8995fdc29","null","null","<p style=""font-size: 60px; font-family: BACS"">vclYlLG</p>","","","","","","","","",""
"html-keyboard-response","304","1471263","0.0-14.0-0.53","5c19254b0b9f6b00014769ee","650c16f0f2faf8d7a0d14c09","651c1d8e02e85bb8995fdc29","null","null","<p style=""font-size: 60px; font-family: BACS"">UdlGQmLJ</p>","","","","","","","","",""
"html-keyboard-response","305","1472267","0.0-14.0-0.54","5c19254b0b9f6b00014769ee","650c16f0f2faf8d7a0d14c09","651c1d8e02e85bb8995fdc29","null","null","<p style=""font-size: 60px; font-family: BACS"">OcYMBCAd</p>","","","","","","","","",""
"html-keyboard-response","306","1473278","0.0-14.0-0.55","5c19254b0b9f6b00014769ee","650c16f0f2faf8d7a0d14c09","651c1d8e02e85bb8995fdc29","null","null","<p style=""font-size: 60px; font-family: BACS"">QcQAJAvdk</p>","","","","","","","","",""
"html-keyboard-response","307","1474280","0.0-14.0-0.56","5c19254b0b9f6b00014769ee","650c16f0f2faf8d7a0d14c09","651c1d8e02e85bb8995fdc29","null","null","<p style=""font-size: 60px; font-family: BACS"">dRhtABb</p>","","","","","","","","",""
"html-keyboard-response","308","1475285","0.0-14.0-0.57","5c19254b0b9f6b00014769ee","650c16f0f2faf8d7a0d14c09","651c1d8e02e85bb8995fdc29","null","null","<p style=""font-size: 60px; font-family: BACS"">kKRCAkd</p>","","","","","","","","",""
"html-keyboard-response","309","1476292","0.0-14.0-0.58","5c19254b0b9f6b00014769ee","650c16f0f2faf8d7a0d14c09","651c1d8e02e85bb8995fdc29","null","null","<p style=""font-size: 60px; font-family: BACS"">JdOAYAvdk</p>","","","","","","","","",""
"html-keyboard-response","310","1477294","0.0-14.0-0.59","5c19254b0b9f6b00014769ee","650c16f0f2faf8d7a0d14c09","651c1d8e02e85bb8995fdc29","null","null","<p style=""font-size: 60px; font-family: BACS"">bYuQlLG</p>","","","","","","","","",""
"html-keyboard-response","311","1478295","0.0-14.0-0.60","5c19254b0b9f6b00014769ee","650c16f0f2faf8d7a0d14c09","651c1d8e02e85bb8995fdc29","null","null","<p style=""font-size: 60px; font-family: BACS"">kKRCYht</p>","","","","","","","","",""
"html-keyboard-response","312","1479296","0.0-14.0-0.61","5c19254b0b9f6b00014769ee","650c16f0f2faf8d7a0d14c09","651c1d8e02e85bb8995fdc29","null","null","<p style=""font-size: 60px; font-family: BACS"">krGumLJ</p>","","","","","","","","",""
"html-keyboard-response","313","1480298","0.0-14.0-0.62","5c19254b0b9f6b00014769ee","650c16f0f2faf8d7a0d14c09","651c1d8e02e85bb8995fdc29","null","null","<p style=""font-size: 60px; font-family: BACS"">hmKPMYht</p>","","","","","","","","",""
"html-keyboard-response","314","1481301","0.0-14.0-0.63","5c19254b0b9f6b00014769ee","650c16f0f2faf8d7a0d14c09","651c1d8e02e85bb8995fdc29","null","null","<p style=""font-size: 60px; font-family: BACS"">ZcGdNlLG</p>","","","","","","","","",""
"html-keyboard-response","315","1482306","0.0-14.0-0.64","5c19254b0b9f6b00014769ee","650c16f0f2faf8d7a0d14c09","651c1d8e02e85bb8995fdc29","null","null","<p style=""font-size: 60px; font-family: BACS"">OcYMAkd</p>","","","","","","","","",""
"html-keyboard-response","316","1483314","0.0-14.0-0.65","5c19254b0b9f6b00014769ee","650c16f0f2faf8d7a0d14c09","651c1d8e02e85bb8995fdc29","null","null","<p style=""font-size: 60px; font-family: BACS"">MBmEYht</p>","","","","","","","","",""
"html-keyboard-response","317","1484314","0.0-14.0-0.66","5c19254b0b9f6b00014769ee","650c16f0f2faf8d7a0d14c09","651c1d8e02e85bb8995fdc29","null","null","<p style=""font-size: 60px; font-family: BACS"">hmKPMABb</p>","","","","","","","","",""
"html-keyboard-response","318","1485317","0.0-14.0-0.67","5c19254b0b9f6b00014769ee","650c16f0f2faf8d7a0d14c09","651c1d8e02e85bb8995fdc29","null","null","<p style=""font-size: 60px; font-family: BACS"">krGulLG</p>","","","","","","","","",""
"html-keyboard-response","319","1486317","0.0-14.0-0.68","5c19254b0b9f6b00014769ee","650c16f0f2faf8d7a0d14c09","651c1d8e02e85bb8995fdc29","null","null","<p style=""font-size: 60px; font-family: BACS"">vclYcrdY</p>","","","","","","","","",""
"html-keyboard-response","320","1487319","0.0-14.0-0.69","5c19254b0b9f6b00014769ee","650c16f0f2faf8d7a0d14c09","651c1d8e02e85bb8995fdc29","null","null","<p style=""font-size: 60px; font-family: BACS"">mhtcBCAd</p>","","","","","","","","",""
"html-keyboard-response","321","1488320","0.0-14.0-0.70","5c19254b0b9f6b00014769ee","650c16f0f2faf8d7a0d14c09","651c1d8e02e85bb8995fdc29","null","null","<p style=""font-size: 60px; font-family: BACS"">JdOAYGrbk</p>","","","","","","","","",""
"html-keyboard-response","322","1489321","0.0-14.0-0.71","5c19254b0b9f6b00014769ee","650c16f0f2faf8d7a0d14c09","651c1d8e02e85bb8995fdc29","null","null","<p style=""font-size: 60px; font-family: BACS"">cAZumLJ</p>","","","","","","","","",""
"html-keyboard-response","323","1490329","0.0-14.0-0.72","5c19254b0b9f6b00014769ee","650c16f0f2faf8d7a0d14c09","651c1d8e02e85bb8995fdc29","null","null","<p style=""font-size: 60px; font-family: BACS"">dRhtBCAd</p>","","","","","","","","",""
"html-keyboard-response","324","1491338","0.0-14.0-0.73","5c19254b0b9f6b00014769ee","650c16f0f2faf8d7a0d14c09","651c1d8e02e85bb8995fdc29","null","null","<p style=""font-size: 60px; font-family: BACS"">MBmEABb</p>","","","","","","","","",""
"html-keyboard-response","325","1492340","0.0-14.0-0.74","5c19254b0b9f6b00014769ee","650c16f0f2faf8d7a0d14c09","651c1d8e02e85bb8995fdc29","null","null","<p style=""font-size: 60px; font-family: BACS"">ArQuGrbk</p>","","","","","","","","",""
"html-keyboard-response","326","1493347","0.0-14.0-0.75","5c19254b0b9f6b00014769ee","650c16f0f2faf8d7a0d14c09","651c1d8e02e85bb8995fdc29","null","null","<p style=""font-size: 60px; font-family: BACS"">krGucrdY</p>","","","","","","","","",""
"html-keyboard-response","327","1494348","0.0-14.0-0.76","5c19254b0b9f6b00014769ee","650c16f0f2faf8d7a0d14c09","651c1d8e02e85bb8995fdc29","null","null","<p style=""font-size: 60px; font-family: BACS"">kKRCABb</p>","","","","","","","","",""
"html-keyboard-response","328","1495356","0.0-14.0-0.77","5c19254b0b9f6b00014769ee","650c16f0f2faf8d7a0d14c09","651c1d8e02e85bb8995fdc29","null","null","<p style=""font-size: 60px; font-family: BACS"">ctktAkd</p>","","","","","","","","",""
"html-keyboard-response","329","1496357","0.0-14.0-0.78","5c19254b0b9f6b00014769ee","650c16f0f2faf8d7a0d14c09","651c1d8e02e85bb8995fdc29","null","null","<p style=""font-size: 60px; font-family: BACS"">hTDdABb</p>","","","","","","","","",""
"html-keyboard-response","330","1497358","0.0-14.0-0.79","5c19254b0b9f6b00014769ee","650c16f0f2faf8d7a0d14c09","651c1d8e02e85bb8995fdc29","null","null","<p style=""font-size: 60px; font-family: BACS"">ArQuAvdk</p>","","","","","","","","",""
"html-keyboard-response","331","1505226","0.0-15.0","5c19254b0b9f6b00014769ee","650c16f0f2faf8d7a0d14c09","651c1d8e02e85bb8995fdc29","7868"," ","<p>Great, you've seen the fourth block of words. You may now take a short break.</p>
      <p>Press the spacebar when you're ready to continue.</p>","","","","","","","","",""
"html-keyboard-response","332","1506241","0.0-16.0-0.0","5c19254b0b9f6b00014769ee","650c16f0f2faf8d7a0d14c09","651c1d8e02e85bb8995fdc29","null","null","<p style=""font-size: 60px; font-family: BACS"">dRhtRCdc</p>","","","","","","","","",""
"html-keyboard-response","333","1507243","0.0-16.0-0.1","5c19254b0b9f6b00014769ee","650c16f0f2faf8d7a0d14c09","651c1d8e02e85bb8995fdc29","null","null","<p style=""font-size: 60px; font-family: BACS"">dRhtRCdc</p>","","","","","","","","",""
"html-keyboard-response","334","1508244","0.0-16.0-0.2","5c19254b0b9f6b00014769ee","650c16f0f2faf8d7a0d14c09","651c1d8e02e85bb8995fdc29","null","null","<p style=""font-size: 60px; font-family: BACS"">dRhtRCdc</p>","","","","","","","","",""
"html-keyboard-response","335","1509245","0.0-16.0-0.3","5c19254b0b9f6b00014769ee","650c16f0f2faf8d7a0d14c09","651c1d8e02e85bb8995fdc29","null","null","<p style=""font-size: 60px; font-family: BACS"">dRhtRCdc</p>","","","","","","","","",""
"html-keyboard-response","336","1510253","0.0-16.0-0.4","5c19254b0b9f6b00014769ee","650c16f0f2faf8d7a0d14c09","651c1d8e02e85bb8995fdc29","null","null","<p style=""font-size: 60px; font-family: BACS"">dRhtRCdc</p>","","","","","","","","",""
"html-keyboard-response","337","1511254","0.0-16.0-0.5","5c19254b0b9f6b00014769ee","650c16f0f2faf8d7a0d14c09","651c1d8e02e85bb8995fdc29","null","null","<p style=""font-size: 60px; font-family: BACS"">dRhtRCdc</p>","","","","","","","","",""
"html-keyboard-response","338","1512255","0.0-16.0-0.6","5c19254b0b9f6b00014769ee","650c16f0f2faf8d7a0d14c09","651c1d8e02e85bb8995fdc29","null","null","<p style=""font-size: 60px; font-family: BACS"">dRhtRCdc</p>","","","","","","","","",""
"html-keyboard-response","339","1513269","0.0-16.0-0.7","5c19254b0b9f6b00014769ee","650c16f0f2faf8d7a0d14c09","651c1d8e02e85bb8995fdc29","null","null","<p style=""font-size: 60px; font-family: BACS"">dRhtRCdc</p>","","","","","","","","",""
"html-keyboard-response","340","1514270","0.0-16.0-0.8","5c19254b0b9f6b00014769ee","650c16f0f2faf8d7a0d14c09","651c1d8e02e85bb8995fdc29","null","null","<p style=""font-size: 60px; font-family: BACS"">dRhtRCdc</p>","","","","","","","","",""
"html-keyboard-response","341","1515284","0.0-16.0-0.9","5c19254b0b9f6b00014769ee","650c16f0f2faf8d7a0d14c09","651c1d8e02e85bb8995fdc29","null","null","<p style=""font-size: 60px; font-family: BACS"">dRhtRCdc</p>","","","","","","","","",""
"html-keyboard-response","342","1516289","0.0-16.0-0.10","5c19254b0b9f6b00014769ee","650c16f0f2faf8d7a0d14c09","651c1d8e02e85bb8995fdc29","null","null","<p style=""font-size: 60px; font-family: BACS"">dRhtRCdc</p>","","","","","","","","",""
"html-keyboard-response","343","1517289","0.0-16.0-0.11","5c19254b0b9f6b00014769ee","650c16f0f2faf8d7a0d14c09","651c1d8e02e85bb8995fdc29","null","null","<p style=""font-size: 60px; font-family: BACS"">dRhtRCdc</p>","","","","","","","","",""
"html-keyboard-response","344","1518295","0.0-16.0-0.12","5c19254b0b9f6b00014769ee","650c16f0f2faf8d7a0d14c09","651c1d8e02e85bb8995fdc29","null","null","<p style=""font-size: 60px; font-family: BACS"">dRhtRCdc</p>","","","","","","","","",""
"html-keyboard-response","345","1519302","0.0-16.0-0.13","5c19254b0b9f6b00014769ee","650c16f0f2faf8d7a0d14c09","651c1d8e02e85bb8995fdc29","null","null","<p style=""font-size: 60px; font-family: BACS"">dRhtRCdc</p>","","","","","","","","",""
"html-keyboard-response","346","1520306","0.0-16.0-0.14","5c19254b0b9f6b00014769ee","650c16f0f2faf8d7a0d14c09","651c1d8e02e85bb8995fdc29","null","null","<p style=""font-size: 60px; font-family: BACS"">dRhtRCdc</p>","","","","","","","","",""
"html-keyboard-response","347","1521308","0.0-16.0-0.15","5c19254b0b9f6b00014769ee","650c16f0f2faf8d7a0d14c09","651c1d8e02e85bb8995fdc29","null","null","<p style=""font-size: 60px; font-family: BACS"">dRhtRCdc</p>","","","","","","","","",""
"html-keyboard-response","348","1522309","0.0-16.0-0.16","5c19254b0b9f6b00014769ee","650c16f0f2faf8d7a0d14c09","651c1d8e02e85bb8995fdc29","null","null","<p style=""font-size: 60px; font-family: BACS"">dRhtRCdc</p>","","","","","","","","",""
"html-keyboard-response","349","1523318","0.0-16.0-0.17","5c19254b0b9f6b00014769ee","650c16f0f2faf8d7a0d14c09","651c1d8e02e85bb8995fdc29","null","null","<p style=""font-size: 60px; font-family: BACS"">dRhtRCdc</p>","","","","","","","","",""
"html-keyboard-response","350","1524324","0.0-16.0-0.18","5c19254b0b9f6b00014769ee","650c16f0f2faf8d7a0d14c09","651c1d8e02e85bb8995fdc29","null","null","<p style=""font-size: 60px; font-family: BACS"">dRhtRCdc</p>","","","","","","","","",""
"html-keyboard-response","351","1525324","0.0-16.0-0.19","5c19254b0b9f6b00014769ee","650c16f0f2faf8d7a0d14c09","651c1d8e02e85bb8995fdc29","null","null","<p style=""font-size: 60px; font-family: BACS"">dRhtRCdc</p>","","","","","","","","",""
"html-keyboard-response","352","1526325","0.0-16.0-0.20","5c19254b0b9f6b00014769ee","650c16f0f2faf8d7a0d14c09","651c1d8e02e85bb8995fdc29","null","null","<p style=""font-size: 60px; font-family: BACS"">dRhtRCdc</p>","","","","","","","","",""
"html-keyboard-response","353","1527326","0.0-16.0-0.21","5c19254b0b9f6b00014769ee","650c16f0f2faf8d7a0d14c09","651c1d8e02e85bb8995fdc29","null","null","<p style=""font-size: 60px; font-family: BACS"">dRhtRCdc</p>","","","","","","","","",""
"html-keyboard-response","354","1528327","0.0-16.0-0.22","5c19254b0b9f6b00014769ee","650c16f0f2faf8d7a0d14c09","651c1d8e02e85bb8995fdc29","null","null","<p style=""font-size: 60px; font-family: BACS"">dRhtRCdc</p>","","","","","","","","",""
"html-keyboard-response","355","1529328","0.0-16.0-0.23","5c19254b0b9f6b00014769ee","650c16f0f2faf8d7a0d14c09","651c1d8e02e85bb8995fdc29","null","null","<p style=""font-size: 60px; font-family: BACS"">dRhtRCdc</p>","","","","","","","","",""
"html-keyboard-response","356","1530329","0.0-16.0-0.24","5c19254b0b9f6b00014769ee","650c16f0f2faf8d7a0d14c09","651c1d8e02e85bb8995fdc29","null","null","<p style=""font-size: 60px; font-family: BACS"">dRhtRCdc</p>","","","","","","","","",""
"html-keyboard-response","357","1531343","0.0-16.0-0.25","5c19254b0b9f6b00014769ee","650c16f0f2faf8d7a0d14c09","651c1d8e02e85bb8995fdc29","null","null","<p style=""font-size: 60px; font-family: BACS"">dRhtRCdc</p>","","","","","","","","",""
"html-keyboard-response","358","1532357","0.0-16.0-0.26","5c19254b0b9f6b00014769ee","650c16f0f2faf8d7a0d14c09","651c1d8e02e85bb8995fdc29","null","null","<p style=""font-size: 60px; font-family: BACS"">dRhtRCdc</p>","","","","","","","","",""
"html-keyboard-response","359","1533359","0.0-16.0-0.27","5c19254b0b9f6b00014769ee","650c16f0f2faf8d7a0d14c09","651c1d8e02e85bb8995fdc29","null","null","<p style=""font-size: 60px; font-family: BACS"">dRhtRCdc</p>","","","","","","","","",""
"html-keyboard-response","360","1534363","0.0-16.0-0.28","5c19254b0b9f6b00014769ee","650c16f0f2faf8d7a0d14c09","651c1d8e02e85bb8995fdc29","null","null","<p style=""font-size: 60px; font-family: BACS"">dRhtRCdc</p>","","","","","","","","",""
"html-keyboard-response","361","1535370","0.0-16.0-0.29","5c19254b0b9f6b00014769ee","650c16f0f2faf8d7a0d14c09","651c1d8e02e85bb8995fdc29","null","null","<p style=""font-size: 60px; font-family: BACS"">dRhtRCdc</p>","","","","","","","","",""
"html-keyboard-response","362","1536374","0.0-16.0-0.30","5c19254b0b9f6b00014769ee","650c16f0f2faf8d7a0d14c09","651c1d8e02e85bb8995fdc29","null","null","<p style=""font-size: 60px; font-family: BACS"">dRhtRCdc</p>","","","","","","","","",""
"html-keyboard-response","363","1537375","0.0-16.0-0.31","5c19254b0b9f6b00014769ee","650c16f0f2faf8d7a0d14c09","651c1d8e02e85bb8995fdc29","null","null","<p style=""font-size: 60px; font-family: BACS"">dRhtRCdc</p>","","","","","","","","",""
"html-keyboard-response","364","1538383","0.0-16.0-0.32","5c19254b0b9f6b00014769ee","650c16f0f2faf8d7a0d14c09","651c1d8e02e85bb8995fdc29","null","null","<p style=""font-size: 60px; font-family: BACS"">dRhtRCdc</p>","","","","","","","","",""
"html-keyboard-response","365","1539384","0.0-16.0-0.33","5c19254b0b9f6b00014769ee","650c16f0f2faf8d7a0d14c09","651c1d8e02e85bb8995fdc29","null","null","<p style=""font-size: 60px; font-family: BACS"">dRhtRCdc</p>","","","","","","","","",""
"html-keyboard-response","366","1540386","0.0-16.0-0.34","5c19254b0b9f6b00014769ee","650c16f0f2faf8d7a0d14c09","651c1d8e02e85bb8995fdc29","null","null","<p style=""font-size: 60px; font-family: BACS"">dRhtRCdc</p>","","","","","","","","",""
"html-keyboard-response","367","1541387","0.0-16.0-0.35","5c19254b0b9f6b00014769ee","650c16f0f2faf8d7a0d14c09","651c1d8e02e85bb8995fdc29","null","null","<p style=""font-size: 60px; font-family: BACS"">dRhtRCdc</p>","","","","","","","","",""
"html-keyboard-response","368","1542388","0.0-16.0-0.36","5c19254b0b9f6b00014769ee","650c16f0f2faf8d7a0d14c09","651c1d8e02e85bb8995fdc29","null","null","<p style=""font-size: 60px; font-family: BACS"">dRhtRCdc</p>","","","","","","","","",""
"html-keyboard-response","369","1543390","0.0-16.0-0.37","5c19254b0b9f6b00014769ee","650c16f0f2faf8d7a0d14c09","651c1d8e02e85bb8995fdc29","null","null","<p style=""font-size: 60px; font-family: BACS"">dRhtRCdc</p>","","","","","","","","",""
"html-keyboard-response","370","1544396","0.0-16.0-0.38","5c19254b0b9f6b00014769ee","650c16f0f2faf8d7a0d14c09","651c1d8e02e85bb8995fdc29","null","null","<p style=""font-size: 60px; font-family: BACS"">dRhtRCdc</p>","","","","","","","","",""
"html-keyboard-response","371","1545406","0.0-16.0-0.39","5c19254b0b9f6b00014769ee","650c16f0f2faf8d7a0d14c09","651c1d8e02e85bb8995fdc29","null","null","<p style=""font-size: 60px; font-family: BACS"">dRhtRCdc</p>","","","","","","","","",""
"html-keyboard-response","372","1546407","0.0-16.0-0.40","5c19254b0b9f6b00014769ee","650c16f0f2faf8d7a0d14c09","651c1d8e02e85bb8995fdc29","null","null","<p style=""font-size: 60px; font-family: BACS"">dRhtRCdc</p>","","","","","","","","",""
"html-keyboard-response","373","1547409","0.0-16.0-0.41","5c19254b0b9f6b00014769ee","650c16f0f2faf8d7a0d14c09","651c1d8e02e85bb8995fdc29","null","null","<p style=""font-size: 60px; font-family: BACS"">dRhtRCdc</p>","","","","","","","","",""
"html-keyboard-response","374","1548419","0.0-16.0-0.42","5c19254b0b9f6b00014769ee","650c16f0f2faf8d7a0d14c09","651c1d8e02e85bb8995fdc29","null","null","<p style=""font-size: 60px; font-family: BACS"">dRhtRCdc</p>","","","","","","","","",""
"html-keyboard-response","375","1549434","0.0-16.0-0.43","5c19254b0b9f6b00014769ee","650c16f0f2faf8d7a0d14c09","651c1d8e02e85bb8995fdc29","null","null","<p style=""font-size: 60px; font-family: BACS"">dRhtRCdc</p>","","","","","","","","",""
"html-keyboard-response","376","1550437","0.0-16.0-0.44","5c19254b0b9f6b00014769ee","650c16f0f2faf8d7a0d14c09","651c1d8e02e85bb8995fdc29","null","null","<p style=""font-size: 60px; font-family: BACS"">dRhtRCdc</p>","","","","","","","","",""
"html-keyboard-response","377","1551450","0.0-16.0-0.45","5c19254b0b9f6b00014769ee","650c16f0f2faf8d7a0d14c09","651c1d8e02e85bb8995fdc29","null","null","<p style=""font-size: 60px; font-family: BACS"">dRhtRCdc</p>","","","","","","","","",""
"html-keyboard-response","378","1552453","0.0-16.0-0.46","5c19254b0b9f6b00014769ee","650c16f0f2faf8d7a0d14c09","651c1d8e02e85bb8995fdc29","null","null","<p style=""font-size: 60px; font-family: BACS"">dRhtRCdc</p>","","","","","","","","",""
"html-keyboard-response","379","1553454","0.0-16.0-0.47","5c19254b0b9f6b00014769ee","650c16f0f2faf8d7a0d14c09","651c1d8e02e85bb8995fdc29","null","null","<p style=""font-size: 60px; font-family: BACS"">dRhtRCdc</p>","","","","","","","","",""
"html-keyboard-response","380","1554455","0.0-16.0-0.48","5c19254b0b9f6b00014769ee","650c16f0f2faf8d7a0d14c09","651c1d8e02e85bb8995fdc29","null","null","<p style=""font-size: 60px; font-family: BACS"">dRhtRCdc</p>","","","","","","","","",""
"html-keyboard-response","381","1555459","0.0-16.0-0.49","5c19254b0b9f6b00014769ee","650c16f0f2faf8d7a0d14c09","651c1d8e02e85bb8995fdc29","null","null","<p style=""font-size: 60px; font-family: BACS"">dRhtRCdc</p>","","","","","","","","",""
"html-keyboard-response","382","1556465","0.0-16.0-0.50","5c19254b0b9f6b00014769ee","650c16f0f2faf8d7a0d14c09","651c1d8e02e85bb8995fdc29","null","null","<p style=""font-size: 60px; font-family: BACS"">dRhtRCdc</p>","","","","","","","","",""
"html-keyboard-response","383","1557467","0.0-16.0-0.51","5c19254b0b9f6b00014769ee","650c16f0f2faf8d7a0d14c09","651c1d8e02e85bb8995fdc29","null","null","<p style=""font-size: 60px; font-family: BACS"">dRhtRCdc</p>","","","","","","","","",""
"html-keyboard-response","384","1558470","0.0-16.0-0.52","5c19254b0b9f6b00014769ee","650c16f0f2faf8d7a0d14c09","651c1d8e02e85bb8995fdc29","null","null","<p style=""font-size: 60px; font-family: BACS"">dRhtRCdc</p>","","","","","","","","",""
"html-keyboard-response","385","1559472","0.0-16.0-0.53","5c19254b0b9f6b00014769ee","650c16f0f2faf8d7a0d14c09","651c1d8e02e85bb8995fdc29","null","null","<p style=""font-size: 60px; font-family: BACS"">dRhtRCdc</p>","","","","","","","","",""
"html-keyboard-response","386","1560477","0.0-16.0-0.54","5c19254b0b9f6b00014769ee","650c16f0f2faf8d7a0d14c09","651c1d8e02e85bb8995fdc29","null","null","<p style=""font-size: 60px; font-family: BACS"">dRhtRCdc</p>","","","","","","","","",""
"html-keyboard-response","387","1561481","0.0-16.0-0.55","5c19254b0b9f6b00014769ee","650c16f0f2faf8d7a0d14c09","651c1d8e02e85bb8995fdc29","null","null","<p style=""font-size: 60px; font-family: BACS"">dRhtRCdc</p>","","","","","","","","",""
"html-keyboard-response","388","1562482","0.0-16.0-0.56","5c19254b0b9f6b00014769ee","650c16f0f2faf8d7a0d14c09","651c1d8e02e85bb8995fdc29","null","null","<p style=""font-size: 60px; font-family: BACS"">dRhtRCdc</p>","","","","","","","","",""
"html-keyboard-response","389","1563484","0.0-16.0-0.57","5c19254b0b9f6b00014769ee","650c16f0f2faf8d7a0d14c09","651c1d8e02e85bb8995fdc29","null","null","<p style=""font-size: 60px; font-family: BACS"">dRhtRCdc</p>","","","","","","","","",""
"html-keyboard-response","390","1564486","0.0-16.0-0.58","5c19254b0b9f6b00014769ee","650c16f0f2faf8d7a0d14c09","651c1d8e02e85bb8995fdc29","null","null","<p style=""font-size: 60px; font-family: BACS"">dRhtRCdc</p>","","","","","","","","",""
"html-keyboard-response","391","1565489","0.0-16.0-0.59","5c19254b0b9f6b00014769ee","650c16f0f2faf8d7a0d14c09","651c1d8e02e85bb8995fdc29","null","null","<p style=""font-size: 60px; font-family: BACS"">dRhtRCdc</p>","","","","","","","","",""
"html-keyboard-response","392","1566492","0.0-16.0-0.60","5c19254b0b9f6b00014769ee","650c16f0f2faf8d7a0d14c09","651c1d8e02e85bb8995fdc29","null","null","<p style=""font-size: 60px; font-family: BACS"">dRhtRCdc</p>","","","","","","","","",""
"html-keyboard-response","393","1567493","0.0-16.0-0.61","5c19254b0b9f6b00014769ee","650c16f0f2faf8d7a0d14c09","651c1d8e02e85bb8995fdc29","null","null","<p style=""font-size: 60px; font-family: BACS"">dRhtRCdc</p>","","","","","","","","",""
"html-keyboard-response","394","1568500","0.0-16.0-0.62","5c19254b0b9f6b00014769ee","650c16f0f2faf8d7a0d14c09","651c1d8e02e85bb8995fdc29","null","null","<p style=""font-size: 60px; font-family: BACS"">dRhtRCdc</p>","","","","","","","","",""
"html-keyboard-response","395","1569513","0.0-16.0-0.63","5c19254b0b9f6b00014769ee","650c16f0f2faf8d7a0d14c09","651c1d8e02e85bb8995fdc29","null","null","<p style=""font-size: 60px; font-family: BACS"">dRhtRCdc</p>","","","","","","","","",""
"html-keyboard-response","396","1570518","0.0-16.0-0.64","5c19254b0b9f6b00014769ee","650c16f0f2faf8d7a0d14c09","651c1d8e02e85bb8995fdc29","null","null","<p style=""font-size: 60px; font-family: BACS"">dRhtRCdc</p>","","","","","","","","",""
