"trial_type","trial_index","time_elapsed","internal_node_id","subject_id","study_id","session_id","rt","response","stimulus","success","item","task","correct_response","testing_condition","correct","target","confound","name"
"pavlovia","0","698","0.0-0.0","5eaf1c50f3540c614eb973a5","650c16f0f2faf8d7a0d14c09","651c1cbc55bcdef806a46331","","","","","","","","","","","",""
"survey-html-form","1","9013","0.0-1.0","5eaf1c50f3540c614eb973a5","650c16f0f2faf8d7a0d14c09","651c1cbc55bcdef806a46331","8314","{""ID"":""5eaf1c50f3540c614eb973a5""}","","","","","","","","","",""
"html-keyboard-response","2","11959","0.0-2.0","5eaf1c50f3540c614eb973a5","650c16f0f2faf8d7a0d14c09","651c1cbc55bcdef806a46331","2945"," ","<p style=""font-size: 15px;"">Before beginning, we ask that you read the consent information and confirm your agreement to participate in the experiment.</p>
      <p style=""font-size: 15px;""> We ask that you remember that this is a research project and that your participation is entirely voluntary. You can stop your participation at any time, without needing to provide any explanation. The study we're asking you to participate in aims at examining how readers process written words. You will be engaged in a session of apprximately 20 minutes, followed by a brief questionnaire. You will have the opportunity to take a few breaks during the experiment. You will be paid £4 for your participation, corresponding to a rate of £8/hour. While this experiment looks at cognitive faculties, this experiment doesn't constitute clinical proof of eventual pathologies.</p>
      <p style=""font-size: 15px;"">All of the information collected thanks to yours and others' participation will be held in a secure password-protected server, and will not be shared with anyone not authorised to view it. Your personal information will be kept with an arbitrary participant ID. Thanks to this data anonymity process, any researcher analysing the data won't be able to track the information back to a specific participant. Therefore, this process will make identifying you impossibile, even when results from the study will be published in scientific reviews, presented at congresses, or at any other public forum. More generally, the collected data will be treated in accordance with the laws on privacy and conformity to the Legislative Degree n. 196 ""Code regarding the protection of personal data"" of the 30th of June 2003 and to the European Regulation 2016/670 (General Data Protection Regulation - GDPR). The Data Protection Officer is Avv. Valentina Carollo, who can be contacted at the following email addresses: <a href=""mailto:dpo@sissa.it"">dpo@sissa.it</a> or <a href=""mailto:rpd@sissa.it"">rpd@sissa.it</a> - PEC: <a href=""mailto:protocollo@pec.sissa.it"">protocollo@pec.sissa.it</a>.</p>
      <p style=""font-size: 15px;""> Before expressing your consent to participate, we would like to remind you again that in case you need explanations on any aspect of the experimental procedure, the researcher is at your disposition (<a href=""mailto:aliebelt@sissa.it"">aliebelt@sissa.it</a>, <a href=""mailto:davide.crepaldi@sissa.it"">davide.crepaldi@sissa.it</a>).</p>
      <p style=""font-size: 15px;"">If you would like to download the informed consent form, you can do so here: <a href=""BASL-Informed_Consent.pdf"" download>informed consent form</a>.</p>
      <p style=""font-size: 15px;"">We ask that you press the spacebar to proceed to the consent section.</p>","","","","","","","","",""
"survey-html-form","3","21785","0.0-3.0","5eaf1c50f3540c614eb973a5","650c16f0f2faf8d7a0d14c09","651c1cbc55bcdef806a46331","9825","{""consent1"":""YES"",""consent2"":""YES"",""consent3"":""YES"",""consent4"":""YES"",""consent5"":""YES"",""consent6"":""YES""}","","","","","","","","","",""
"fullscreen","4","29146","0.0-4.0","5eaf1c50f3540c614eb973a5","650c16f0f2faf8d7a0d14c09","651c1cbc55bcdef806a46331","","","","true","","","","","","","",""
"html-keyboard-response","5","44765","0.0-5.0","5eaf1c50f3540c614eb973a5","650c16f0f2faf8d7a0d14c09","651c1cbc55bcdef806a46331","15619"," ","<p>Welcome, and thank you very much for your time!</p>
      <p>In this experiment, you'll be a language expert who's been asked to take a look at words that Earth has received in its first communication with aliens. Your task, in this first part of the experiment, is to pay close attention to the words you'll be shown; later, world leaders will ask you questions on what you saw. The words will be shown to you quite quickly; it seems that the aliens were in a hurry :-)</p>
      <p>Press the spacebar to continue.<p>","","","","","","","","",""
"html-keyboard-response","6","44817","0.0-6.0","5eaf1c50f3540c614eb973a5","650c16f0f2faf8d7a0d14c09","651c1cbc55bcdef806a46331","null","null","<p style=""font-size: 120px; font-family: BACS""> </p>","","","","","","","","",""
"html-keyboard-response","7","49481","0.0-7.0","5eaf1c50f3540c614eb973a5","650c16f0f2faf8d7a0d14c09","651c1cbc55bcdef806a46331","4663"," ","<p>Here is an example of the words you'll see:</p>
      <img src='esempio.png' height='400px'>
      <p>When you're ready to begin, press the spacebar.</p></div>","","","","","","","","",""
"html-keyboard-response","8","50496","0.0-8.0-0.0","5eaf1c50f3540c614eb973a5","650c16f0f2faf8d7a0d14c09","651c1cbc55bcdef806a46331","null","null","<p style=""font-size: 60px; font-family: BACS"">lcOcOJlN</p>","","","","","","","","",""
"html-keyboard-response","9","51504","0.0-8.0-0.1","5eaf1c50f3540c614eb973a5","650c16f0f2faf8d7a0d14c09","651c1cbc55bcdef806a46331","null","null","<p style=""font-size: 60px; font-family: BACS"">PlEKRdCc</p>","","","","","","","","",""
"html-keyboard-response","10","52512","0.0-8.0-0.2","5eaf1c50f3540c614eb973a5","650c16f0f2faf8d7a0d14c09","651c1cbc55bcdef806a46331","null","null","<p style=""font-size: 60px; font-family: BACS"">KTDTBTmc</p>","","","","","","","","",""
"html-keyboard-response","11","53513","0.0-8.0-0.3","5eaf1c50f3540c614eb973a5","650c16f0f2faf8d7a0d14c09","651c1cbc55bcdef806a46331","null","null","<p style=""font-size: 60px; font-family: BACS"">auYAkrULv</p>","","","","","","","","",""
"html-keyboard-response","12","54519","0.0-8.0-0.4","5eaf1c50f3540c614eb973a5","650c16f0f2faf8d7a0d14c09","651c1cbc55bcdef806a46331","null","null","<p style=""font-size: 60px; font-family: BACS"">MhKdlRE</p>","","","","","","","","",""
"html-keyboard-response","13","55520","0.0-8.0-0.5","5eaf1c50f3540c614eb973a5","650c16f0f2faf8d7a0d14c09","651c1cbc55bcdef806a46331","null","null","<p style=""font-size: 60px; font-family: BACS"">lBKtYKPB</p>","","","","","","","","",""
"html-keyboard-response","14","56521","0.0-8.0-0.6","5eaf1c50f3540c614eb973a5","650c16f0f2faf8d7a0d14c09","651c1cbc55bcdef806a46331","null","null","<p style=""font-size: 60px; font-family: BACS"">LuaUGUa</p>","","","","","","","","",""
"html-keyboard-response","15","57522","0.0-8.0-0.7","5eaf1c50f3540c614eb973a5","650c16f0f2faf8d7a0d14c09","651c1cbc55bcdef806a46331","null","null","<p style=""font-size: 60px; font-family: BACS"">aOLZUJcUk</p>","","","","","","","","",""
"html-keyboard-response","16","58535","0.0-8.0-0.8","5eaf1c50f3540c614eb973a5","650c16f0f2faf8d7a0d14c09","651c1cbc55bcdef806a46331","null","null","<p style=""font-size: 60px; font-family: BACS"">aLNlkOJlN</p>","","","","","","","","",""
"html-keyboard-response","17","59544","0.0-8.0-0.9","5eaf1c50f3540c614eb973a5","650c16f0f2faf8d7a0d14c09","651c1cbc55bcdef806a46331","null","null","<p style=""font-size: 60px; font-family: BACS"">LuaUrULv</p>","","","","","","","","",""
"html-keyboard-response","18","60558","0.0-8.0-0.10","5eaf1c50f3540c614eb973a5","650c16f0f2faf8d7a0d14c09","651c1cbc55bcdef806a46331","null","null","<p style=""font-size: 60px; font-family: BACS"">lRCBTmc</p>","","","","","","","","",""
"html-keyboard-response","19","61560","0.0-8.0-0.11","5eaf1c50f3540c614eb973a5","650c16f0f2faf8d7a0d14c09","651c1cbc55bcdef806a46331","null","null","<p style=""font-size: 60px; font-family: BACS"">bROClRE</p>","","","","","","","","",""
"html-keyboard-response","20","62566","0.0-8.0-0.12","5eaf1c50f3540c614eb973a5","650c16f0f2faf8d7a0d14c09","651c1cbc55bcdef806a46331","null","null","<p style=""font-size: 60px; font-family: BACS"">auYAkJcUk</p>","","","","","","","","",""
"html-keyboard-response","21","63568","0.0-8.0-0.13","5eaf1c50f3540c614eb973a5","650c16f0f2faf8d7a0d14c09","651c1cbc55bcdef806a46331","null","null","<p style=""font-size: 60px; font-family: BACS"">lTmOYKPB</p>","","","","","","","","",""
"html-keyboard-response","22","64582","0.0-8.0-0.14","5eaf1c50f3540c614eb973a5","650c16f0f2faf8d7a0d14c09","651c1cbc55bcdef806a46331","null","null","<p style=""font-size: 60px; font-family: BACS"">cRElDlRE</p>","","","","","","","","",""
"html-keyboard-response","23","65584","0.0-8.0-0.15","5eaf1c50f3540c614eb973a5","650c16f0f2faf8d7a0d14c09","651c1cbc55bcdef806a46331","null","null","<p style=""font-size: 60px; font-family: BACS"">blMkRdCc</p>","","","","","","","","",""
"html-keyboard-response","24","66585","0.0-8.0-0.16","5eaf1c50f3540c614eb973a5","650c16f0f2faf8d7a0d14c09","651c1cbc55bcdef806a46331","null","null","<p style=""font-size: 60px; font-family: BACS"">bROCTAm</p>","","","","","","","","",""
"html-keyboard-response","25","67596","0.0-8.0-0.17","5eaf1c50f3540c614eb973a5","650c16f0f2faf8d7a0d14c09","651c1cbc55bcdef806a46331","null","null","<p style=""font-size: 60px; font-family: BACS"">lTmORdCc</p>","","","","","","","","",""
"html-keyboard-response","26","68597","0.0-8.0-0.18","5eaf1c50f3540c614eb973a5","650c16f0f2faf8d7a0d14c09","651c1cbc55bcdef806a46331","null","null","<p style=""font-size: 60px; font-family: BACS"">bROCYKPB</p>","","","","","","","","",""
"html-keyboard-response","27","69598","0.0-8.0-0.19","5eaf1c50f3540c614eb973a5","650c16f0f2faf8d7a0d14c09","651c1cbc55bcdef806a46331","null","null","<p style=""font-size: 60px; font-family: BACS"">lBKtlRE</p>","","","","","","","","",""
"html-keyboard-response","28","70599","0.0-8.0-0.20","5eaf1c50f3540c614eb973a5","650c16f0f2faf8d7a0d14c09","651c1cbc55bcdef806a46331","null","null","<p style=""font-size: 60px; font-family: BACS"">MhKdTmc</p>","","","","","","","","",""
"html-keyboard-response","29","71600","0.0-8.0-0.21","5eaf1c50f3540c614eb973a5","650c16f0f2faf8d7a0d14c09","651c1cbc55bcdef806a46331","null","null","<p style=""font-size: 60px; font-family: BACS"">PlEKTAm</p>","","","","","","","","",""
"html-keyboard-response","30","72616","0.0-8.0-0.22","5eaf1c50f3540c614eb973a5","650c16f0f2faf8d7a0d14c09","651c1cbc55bcdef806a46331","null","null","<p style=""font-size: 60px; font-family: BACS"">MhKdRdCc</p>","","","","","","","","",""
"html-keyboard-response","31","73618","0.0-8.0-0.23","5eaf1c50f3540c614eb973a5","650c16f0f2faf8d7a0d14c09","651c1cbc55bcdef806a46331","null","null","<p style=""font-size: 60px; font-family: BACS"">lBKtTAm</p>","","","","","","","","",""
"html-keyboard-response","32","74620","0.0-8.0-0.24","5eaf1c50f3540c614eb973a5","650c16f0f2faf8d7a0d14c09","651c1cbc55bcdef806a46331","null","null","<p style=""font-size: 60px; font-family: BACS"">AZaJcGQYQ</p>","","","","","","","","",""
"html-keyboard-response","33","75632","0.0-8.0-0.25","5eaf1c50f3540c614eb973a5","650c16f0f2faf8d7a0d14c09","651c1cbc55bcdef806a46331","null","null","<p style=""font-size: 60px; font-family: BACS"">NJZlrULv</p>","","","","","","","","",""
"html-keyboard-response","34","76646","0.0-8.0-0.26","5eaf1c50f3540c614eb973a5","650c16f0f2faf8d7a0d14c09","651c1cbc55bcdef806a46331","null","null","<p style=""font-size: 60px; font-family: BACS"">aYQmOJlN</p>","","","","","","","","",""
"html-keyboard-response","35","77658","0.0-8.0-0.27","5eaf1c50f3540c614eb973a5","650c16f0f2faf8d7a0d14c09","651c1cbc55bcdef806a46331","null","null","<p style=""font-size: 60px; font-family: BACS"">blMklRE</p>","","","","","","","","",""
"html-keyboard-response","36","78670","0.0-8.0-0.28","5eaf1c50f3540c614eb973a5","650c16f0f2faf8d7a0d14c09","651c1cbc55bcdef806a46331","null","null","<p style=""font-size: 60px; font-family: BACS"">GZJYGQYQ</p>","","","","","","","","",""
"html-keyboard-response","37","79672","0.0-8.0-0.29","5eaf1c50f3540c614eb973a5","650c16f0f2faf8d7a0d14c09","651c1cbc55bcdef806a46331","null","null","<p style=""font-size: 60px; font-family: BACS"">MhKdTAm</p>","","","","","","","","",""
"html-keyboard-response","38","80686","0.0-8.0-0.30","5eaf1c50f3540c614eb973a5","650c16f0f2faf8d7a0d14c09","651c1cbc55bcdef806a46331","null","null","<p style=""font-size: 60px; font-family: BACS"">PlEKTmc</p>","","","","","","","","",""
"html-keyboard-response","39","81699","0.0-8.0-0.31","5eaf1c50f3540c614eb973a5","650c16f0f2faf8d7a0d14c09","651c1cbc55bcdef806a46331","null","null","<p style=""font-size: 60px; font-family: BACS"">aOLZUrULv</p>","","","","","","","","",""
"html-keyboard-response","40","82713","0.0-8.0-0.32","5eaf1c50f3540c614eb973a5","650c16f0f2faf8d7a0d14c09","651c1cbc55bcdef806a46331","null","null","<p style=""font-size: 60px; font-family: BACS"">PctRCTAm</p>","","","","","","","","",""
"html-keyboard-response","41","83715","0.0-8.0-0.33","5eaf1c50f3540c614eb973a5","650c16f0f2faf8d7a0d14c09","651c1cbc55bcdef806a46331","null","null","<p style=""font-size: 60px; font-family: BACS"">aYQmGUa</p>","","","","","","","","",""
"html-keyboard-response","42","84724","0.0-8.0-0.34","5eaf1c50f3540c614eb973a5","650c16f0f2faf8d7a0d14c09","651c1cbc55bcdef806a46331","null","null","<p style=""font-size: 60px; font-family: BACS"">dkLlJcUk</p>","","","","","","","","",""
"html-keyboard-response","43","85739","0.0-8.0-0.35","5eaf1c50f3540c614eb973a5","650c16f0f2faf8d7a0d14c09","651c1cbc55bcdef806a46331","null","null","<p style=""font-size: 60px; font-family: BACS"">auYAkGUa</p>","","","","","","","","",""
"html-keyboard-response","44","86740","0.0-8.0-0.36","5eaf1c50f3540c614eb973a5","650c16f0f2faf8d7a0d14c09","651c1cbc55bcdef806a46331","null","null","<p style=""font-size: 60px; font-family: BACS"">cRElDYKPB</p>","","","","","","","","",""
"html-keyboard-response","45","87741","0.0-8.0-0.37","5eaf1c50f3540c614eb973a5","650c16f0f2faf8d7a0d14c09","651c1cbc55bcdef806a46331","null","null","<p style=""font-size: 60px; font-family: BACS"">aLNlkJcUk</p>","","","","","","","","",""
"html-keyboard-response","46","88743","0.0-8.0-0.38","5eaf1c50f3540c614eb973a5","650c16f0f2faf8d7a0d14c09","651c1cbc55bcdef806a46331","null","null","<p style=""font-size: 60px; font-family: BACS"">blMkTAm</p>","","","","","","","","",""
"html-keyboard-response","47","89754","0.0-8.0-0.39","5eaf1c50f3540c614eb973a5","650c16f0f2faf8d7a0d14c09","651c1cbc55bcdef806a46331","null","null","<p style=""font-size: 60px; font-family: BACS"">lRCBRdCc</p>","","","","","","","","",""
"html-keyboard-response","48","90764","0.0-8.0-0.40","5eaf1c50f3540c614eb973a5","650c16f0f2faf8d7a0d14c09","651c1cbc55bcdef806a46331","null","null","<p style=""font-size: 60px; font-family: BACS"">KTDTBTAm</p>","","","","","","","","",""
"html-keyboard-response","49","91777","0.0-8.0-0.41","5eaf1c50f3540c614eb973a5","650c16f0f2faf8d7a0d14c09","651c1cbc55bcdef806a46331","null","null","<p style=""font-size: 60px; font-family: BACS"">cRElDRdCc</p>","","","","","","","","",""
"html-keyboard-response","50","92791","0.0-8.0-0.42","5eaf1c50f3540c614eb973a5","650c16f0f2faf8d7a0d14c09","651c1cbc55bcdef806a46331","null","null","<p style=""font-size: 60px; font-family: BACS"">blMkYKPB</p>","","","","","","","","",""
"html-keyboard-response","51","93804","0.0-8.0-0.43","5eaf1c50f3540c614eb973a5","650c16f0f2faf8d7a0d14c09","651c1cbc55bcdef806a46331","null","null","<p style=""font-size: 60px; font-family: BACS"">LuaUJcUk</p>","","","","","","","","",""
"html-keyboard-response","52","94818","0.0-8.0-0.44","5eaf1c50f3540c614eb973a5","650c16f0f2faf8d7a0d14c09","651c1cbc55bcdef806a46331","null","null","<p style=""font-size: 60px; font-family: BACS"">PctRClRE</p>","","","","","","","","",""
"html-keyboard-response","53","95832","0.0-8.0-0.45","5eaf1c50f3540c614eb973a5","650c16f0f2faf8d7a0d14c09","651c1cbc55bcdef806a46331","null","null","<p style=""font-size: 60px; font-family: BACS"">PlEKYKPB</p>","","","","","","","","",""
"html-keyboard-response","54","96835","0.0-8.0-0.46","5eaf1c50f3540c614eb973a5","650c16f0f2faf8d7a0d14c09","651c1cbc55bcdef806a46331","null","null","<p style=""font-size: 60px; font-family: BACS"">aLNlkGQYQ</p>","","","","","","","","",""
"html-keyboard-response","55","97848","0.0-8.0-0.47","5eaf1c50f3540c614eb973a5","650c16f0f2faf8d7a0d14c09","651c1cbc55bcdef806a46331","null","null","<p style=""font-size: 60px; font-family: BACS"">lcOcJcUk</p>","","","","","","","","",""
"html-keyboard-response","56","98860","0.0-8.0-0.48","5eaf1c50f3540c614eb973a5","650c16f0f2faf8d7a0d14c09","651c1cbc55bcdef806a46331","null","null","<p style=""font-size: 60px; font-family: BACS"">lRCBlRE</p>","","","","","","","","",""
"html-keyboard-response","57","99875","0.0-8.0-0.49","5eaf1c50f3540c614eb973a5","650c16f0f2faf8d7a0d14c09","651c1cbc55bcdef806a46331","null","null","<p style=""font-size: 60px; font-family: BACS"">lcOcrULv</p>","","","","","","","","",""
"html-keyboard-response","58","100885","0.0-8.0-0.50","5eaf1c50f3540c614eb973a5","650c16f0f2faf8d7a0d14c09","651c1cbc55bcdef806a46331","null","null","<p style=""font-size: 60px; font-family: BACS"">PctRCRdCc</p>","","","","","","","","",""
"html-keyboard-response","59","101897","0.0-8.0-0.51","5eaf1c50f3540c614eb973a5","650c16f0f2faf8d7a0d14c09","651c1cbc55bcdef806a46331","null","null","<p style=""font-size: 60px; font-family: BACS"">GZJYrULv</p>","","","","","","","","",""
"html-keyboard-response","60","102913","0.0-8.0-0.52","5eaf1c50f3540c614eb973a5","650c16f0f2faf8d7a0d14c09","651c1cbc55bcdef806a46331","null","null","<p style=""font-size: 60px; font-family: BACS"">aLNlkGUa</p>","","","","","","","","",""
"html-keyboard-response","61","103927","0.0-8.0-0.53","5eaf1c50f3540c614eb973a5","650c16f0f2faf8d7a0d14c09","651c1cbc55bcdef806a46331","null","null","<p style=""font-size: 60px; font-family: BACS"">KTDTBlRE</p>","","","","","","","","",""
"html-keyboard-response","62","104940","0.0-8.0-0.54","5eaf1c50f3540c614eb973a5","650c16f0f2faf8d7a0d14c09","651c1cbc55bcdef806a46331","null","null","<p style=""font-size: 60px; font-family: BACS"">aYQmGQYQ</p>","","","","","","","","",""
"html-keyboard-response","63","105953","0.0-8.0-0.55","5eaf1c50f3540c614eb973a5","650c16f0f2faf8d7a0d14c09","651c1cbc55bcdef806a46331","null","null","<p style=""font-size: 60px; font-family: BACS"">lBKtTmc</p>","","","","","","","","",""
"html-keyboard-response","64","106966","0.0-8.0-0.56","5eaf1c50f3540c614eb973a5","650c16f0f2faf8d7a0d14c09","651c1cbc55bcdef806a46331","null","null","<p style=""font-size: 60px; font-family: BACS"">AZaJcJcUk</p>","","","","","","","","",""
"html-keyboard-response","65","107968","0.0-8.0-0.57","5eaf1c50f3540c614eb973a5","650c16f0f2faf8d7a0d14c09","651c1cbc55bcdef806a46331","null","null","<p style=""font-size: 60px; font-family: BACS"">bROCTmc</p>","","","","","","","","",""
"html-keyboard-response","66","108969","0.0-8.0-0.58","5eaf1c50f3540c614eb973a5","650c16f0f2faf8d7a0d14c09","651c1cbc55bcdef806a46331","null","null","<p style=""font-size: 60px; font-family: BACS"">GZJYOJlN</p>","","","","","","","","",""
"html-keyboard-response","67","109971","0.0-8.0-0.59","5eaf1c50f3540c614eb973a5","650c16f0f2faf8d7a0d14c09","651c1cbc55bcdef806a46331","null","null","<p style=""font-size: 60px; font-family: BACS"">PctRCYKPB</p>","","","","","","","","",""
"html-keyboard-response","68","110973","0.0-8.0-0.60","5eaf1c50f3540c614eb973a5","650c16f0f2faf8d7a0d14c09","651c1cbc55bcdef806a46331","null","null","<p style=""font-size: 60px; font-family: BACS"">LuaUGQYQ</p>","","","","","","","","",""
"html-keyboard-response","69","111974","0.0-8.0-0.61","5eaf1c50f3540c614eb973a5","650c16f0f2faf8d7a0d14c09","651c1cbc55bcdef806a46331","null","null","<p style=""font-size: 60px; font-family: BACS"">dkLlOJlN</p>","","","","","","","","",""
"html-keyboard-response","70","112975","0.0-8.0-0.62","5eaf1c50f3540c614eb973a5","650c16f0f2faf8d7a0d14c09","651c1cbc55bcdef806a46331","null","null","<p style=""font-size: 60px; font-family: BACS"">AZaJcGUa</p>","","","","","","","","",""
"html-keyboard-response","71","113984","0.0-8.0-0.63","5eaf1c50f3540c614eb973a5","650c16f0f2faf8d7a0d14c09","651c1cbc55bcdef806a46331","null","null","<p style=""font-size: 60px; font-family: BACS"">GZJYJcUk</p>","","","","","","","","",""
"html-keyboard-response","72","114985","0.0-8.0-0.64","5eaf1c50f3540c614eb973a5","650c16f0f2faf8d7a0d14c09","651c1cbc55bcdef806a46331","null","null","<p style=""font-size: 60px; font-family: BACS"">lTmOTmc</p>","","","","","","","","",""
"html-keyboard-response","73","115994","0.0-8.0-0.65","5eaf1c50f3540c614eb973a5","650c16f0f2faf8d7a0d14c09","651c1cbc55bcdef806a46331","null","null","<p style=""font-size: 60px; font-family: BACS"">lRCBYKPB</p>","","","","","","","","",""
"html-keyboard-response","74","116995","0.0-8.0-0.66","5eaf1c50f3540c614eb973a5","650c16f0f2faf8d7a0d14c09","651c1cbc55bcdef806a46331","null","null","<p style=""font-size: 60px; font-family: BACS"">aOLZUOJlN</p>","","","","","","","","",""
"html-keyboard-response","75","118008","0.0-8.0-0.67","5eaf1c50f3540c614eb973a5","650c16f0f2faf8d7a0d14c09","651c1cbc55bcdef806a46331","null","null","<p style=""font-size: 60px; font-family: BACS"">NJZlGUa</p>","","","","","","","","",""
"html-keyboard-response","76","119009","0.0-8.0-0.68","5eaf1c50f3540c614eb973a5","650c16f0f2faf8d7a0d14c09","651c1cbc55bcdef806a46331","null","null","<p style=""font-size: 60px; font-family: BACS"">dkLlrULv</p>","","","","","","","","",""
"html-keyboard-response","77","120019","0.0-8.0-0.69","5eaf1c50f3540c614eb973a5","650c16f0f2faf8d7a0d14c09","651c1cbc55bcdef806a46331","null","null","<p style=""font-size: 60px; font-family: BACS"">AZaJcOJlN</p>","","","","","","","","",""
"html-keyboard-response","78","121021","0.0-8.0-0.70","5eaf1c50f3540c614eb973a5","650c16f0f2faf8d7a0d14c09","651c1cbc55bcdef806a46331","null","null","<p style=""font-size: 60px; font-family: BACS"">auYAkGQYQ</p>","","","","","","","","",""
"html-keyboard-response","79","122023","0.0-8.0-0.71","5eaf1c50f3540c614eb973a5","650c16f0f2faf8d7a0d14c09","651c1cbc55bcdef806a46331","null","null","<p style=""font-size: 60px; font-family: BACS"">NJZlOJlN</p>","","","","","","","","",""
"html-keyboard-response","80","123024","0.0-8.0-0.72","5eaf1c50f3540c614eb973a5","650c16f0f2faf8d7a0d14c09","651c1cbc55bcdef806a46331","null","null","<p style=""font-size: 60px; font-family: BACS"">KTDTBRdCc</p>","","","","","","","","",""
"html-keyboard-response","81","124025","0.0-8.0-0.73","5eaf1c50f3540c614eb973a5","650c16f0f2faf8d7a0d14c09","651c1cbc55bcdef806a46331","null","null","<p style=""font-size: 60px; font-family: BACS"">lTmOTAm</p>","","","","","","","","",""
"html-keyboard-response","82","125026","0.0-8.0-0.74","5eaf1c50f3540c614eb973a5","650c16f0f2faf8d7a0d14c09","651c1cbc55bcdef806a46331","null","null","<p style=""font-size: 60px; font-family: BACS"">NJZlGQYQ</p>","","","","","","","","",""
"html-keyboard-response","83","126027","0.0-8.0-0.75","5eaf1c50f3540c614eb973a5","650c16f0f2faf8d7a0d14c09","651c1cbc55bcdef806a46331","null","null","<p style=""font-size: 60px; font-family: BACS"">aYQmrULv</p>","","","","","","","","",""
"html-keyboard-response","84","127034","0.0-8.0-0.76","5eaf1c50f3540c614eb973a5","650c16f0f2faf8d7a0d14c09","651c1cbc55bcdef806a46331","null","null","<p style=""font-size: 60px; font-family: BACS"">aOLZUGUa</p>","","","","","","","","",""
"html-keyboard-response","85","128035","0.0-8.0-0.77","5eaf1c50f3540c614eb973a5","650c16f0f2faf8d7a0d14c09","651c1cbc55bcdef806a46331","null","null","<p style=""font-size: 60px; font-family: BACS"">lcOcGQYQ</p>","","","","","","","","",""
"html-keyboard-response","86","129047","0.0-8.0-0.78","5eaf1c50f3540c614eb973a5","650c16f0f2faf8d7a0d14c09","651c1cbc55bcdef806a46331","null","null","<p style=""font-size: 60px; font-family: BACS"">dkLlGUa</p>","","","","","","","","",""
"html-keyboard-response","87","130049","0.0-8.0-0.79","5eaf1c50f3540c614eb973a5","650c16f0f2faf8d7a0d14c09","651c1cbc55bcdef806a46331","null","null","<p style=""font-size: 60px; font-family: BACS"">cRElDTmc</p>","","","","","","","","",""
"html-keyboard-response","88","132495","0.0-9.0","5eaf1c50f3540c614eb973a5","650c16f0f2faf8d7a0d14c09","651c1cbc55bcdef806a46331","2446"," ","<p>Great, you've seen the first block of words. You may now take a short break.</p>
      <p>Press the spacebar when you're ready to continue.</p>","","","","","","","","",""
"html-keyboard-response","89","133509","0.0-10.0-0.0","5eaf1c50f3540c614eb973a5","650c16f0f2faf8d7a0d14c09","651c1cbc55bcdef806a46331","null","null","<p style=""font-size: 60px; font-family: BACS"">KTDTBRdCc</p>","","","","","","","","",""
"html-keyboard-response","90","134510","0.0-10.0-0.1","5eaf1c50f3540c614eb973a5","650c16f0f2faf8d7a0d14c09","651c1cbc55bcdef806a46331","null","null","<p style=""font-size: 60px; font-family: BACS"">lcOcOJlN</p>","","","","","","","","",""
"html-keyboard-response","91","135524","0.0-10.0-0.2","5eaf1c50f3540c614eb973a5","650c16f0f2faf8d7a0d14c09","651c1cbc55bcdef806a46331","null","null","<p style=""font-size: 60px; font-family: BACS"">lTmOYKPB</p>","","","","","","","","",""
"html-keyboard-response","92","136525","0.0-10.0-0.3","5eaf1c50f3540c614eb973a5","650c16f0f2faf8d7a0d14c09","651c1cbc55bcdef806a46331","null","null","<p style=""font-size: 60px; font-family: BACS"">dkLlOJlN</p>","","","","","","","","",""
"html-keyboard-response","93","137526","0.0-10.0-0.4","5eaf1c50f3540c614eb973a5","650c16f0f2faf8d7a0d14c09","651c1cbc55bcdef806a46331","null","null","<p style=""font-size: 60px; font-family: BACS"">MhKdlRE</p>","","","","","","","","",""
"html-keyboard-response","94","138528","0.0-10.0-0.5","5eaf1c50f3540c614eb973a5","650c16f0f2faf8d7a0d14c09","651c1cbc55bcdef806a46331","null","null","<p style=""font-size: 60px; font-family: BACS"">lcOcGQYQ</p>","","","","","","","","",""
"html-keyboard-response","95","139529","0.0-10.0-0.6","5eaf1c50f3540c614eb973a5","650c16f0f2faf8d7a0d14c09","651c1cbc55bcdef806a46331","null","null","<p style=""font-size: 60px; font-family: BACS"">GZJYJcUk</p>","","","","","","","","",""
"html-keyboard-response","96","140531","0.0-10.0-0.7","5eaf1c50f3540c614eb973a5","650c16f0f2faf8d7a0d14c09","651c1cbc55bcdef806a46331","null","null","<p style=""font-size: 60px; font-family: BACS"">PctRCYKPB</p>","","","","","","","","",""
"html-keyboard-response","97","141532","0.0-10.0-0.8","5eaf1c50f3540c614eb973a5","650c16f0f2faf8d7a0d14c09","651c1cbc55bcdef806a46331","null","null","<p style=""font-size: 60px; font-family: BACS"">dkLlGUa</p>","","","","","","","","",""
"html-keyboard-response","98","142537","0.0-10.0-0.9","5eaf1c50f3540c614eb973a5","650c16f0f2faf8d7a0d14c09","651c1cbc55bcdef806a46331","null","null","<p style=""font-size: 60px; font-family: BACS"">GZJYOJlN</p>","","","","","","","","",""
"html-keyboard-response","99","143538","0.0-10.0-0.10","5eaf1c50f3540c614eb973a5","650c16f0f2faf8d7a0d14c09","651c1cbc55bcdef806a46331","null","null","<p style=""font-size: 60px; font-family: BACS"">MhKdRdCc</p>","","","","","","","","",""
"html-keyboard-response","100","144554","0.0-10.0-0.11","5eaf1c50f3540c614eb973a5","650c16f0f2faf8d7a0d14c09","651c1cbc55bcdef806a46331","null","null","<p style=""font-size: 60px; font-family: BACS"">aOLZUGUa</p>","","","","","","","","",""
"html-keyboard-response","101","145555","0.0-10.0-0.12","5eaf1c50f3540c614eb973a5","650c16f0f2faf8d7a0d14c09","651c1cbc55bcdef806a46331","null","null","<p style=""font-size: 60px; font-family: BACS"">LuaUrULv</p>","","","","","","","","",""
"html-keyboard-response","102","146556","0.0-10.0-0.13","5eaf1c50f3540c614eb973a5","650c16f0f2faf8d7a0d14c09","651c1cbc55bcdef806a46331","null","null","<p style=""font-size: 60px; font-family: BACS"">PlEKTmc</p>","","","","","","","","",""
"html-keyboard-response","103","147558","0.0-10.0-0.14","5eaf1c50f3540c614eb973a5","650c16f0f2faf8d7a0d14c09","651c1cbc55bcdef806a46331","null","null","<p style=""font-size: 60px; font-family: BACS"">lTmORdCc</p>","","","","","","","","",""
"html-keyboard-response","104","148570","0.0-10.0-0.15","5eaf1c50f3540c614eb973a5","650c16f0f2faf8d7a0d14c09","651c1cbc55bcdef806a46331","null","null","<p style=""font-size: 60px; font-family: BACS"">NJZlGUa</p>","","","","","","","","",""
"html-keyboard-response","105","149572","0.0-10.0-0.16","5eaf1c50f3540c614eb973a5","650c16f0f2faf8d7a0d14c09","651c1cbc55bcdef806a46331","null","null","<p style=""font-size: 60px; font-family: BACS"">LuaUJcUk</p>","","","","","","","","",""
"html-keyboard-response","106","150583","0.0-10.0-0.17","5eaf1c50f3540c614eb973a5","650c16f0f2faf8d7a0d14c09","651c1cbc55bcdef806a46331","null","null","<p style=""font-size: 60px; font-family: BACS"">lBKtTAm</p>","","","","","","","","",""
"html-keyboard-response","107","151596","0.0-10.0-0.18","5eaf1c50f3540c614eb973a5","650c16f0f2faf8d7a0d14c09","651c1cbc55bcdef806a46331","null","null","<p style=""font-size: 60px; font-family: BACS"">PlEKRdCc</p>","","","","","","","","",""
"html-keyboard-response","108","152598","0.0-10.0-0.19","5eaf1c50f3540c614eb973a5","650c16f0f2faf8d7a0d14c09","651c1cbc55bcdef806a46331","null","null","<p style=""font-size: 60px; font-family: BACS"">auYAkGQYQ</p>","","","","","","","","",""
"html-keyboard-response","109","153602","0.0-10.0-0.20","5eaf1c50f3540c614eb973a5","650c16f0f2faf8d7a0d14c09","651c1cbc55bcdef806a46331","null","null","<p style=""font-size: 60px; font-family: BACS"">PctRCTAm</p>","","","","","","","","",""
"html-keyboard-response","110","154605","0.0-10.0-0.21","5eaf1c50f3540c614eb973a5","650c16f0f2faf8d7a0d14c09","651c1cbc55bcdef806a46331","null","null","<p style=""font-size: 60px; font-family: BACS"">lRCBTmc</p>","","","","","","","","",""
"html-keyboard-response","111","155606","0.0-10.0-0.22","5eaf1c50f3540c614eb973a5","650c16f0f2faf8d7a0d14c09","651c1cbc55bcdef806a46331","null","null","<p style=""font-size: 60px; font-family: BACS"">KTDTBlRE</p>","","","","","","","","",""
"html-keyboard-response","112","156608","0.0-10.0-0.23","5eaf1c50f3540c614eb973a5","650c16f0f2faf8d7a0d14c09","651c1cbc55bcdef806a46331","null","null","<p style=""font-size: 60px; font-family: BACS"">PlEKYKPB</p>","","","","","","","","",""
"html-keyboard-response","113","157609","0.0-10.0-0.24","5eaf1c50f3540c614eb973a5","650c16f0f2faf8d7a0d14c09","651c1cbc55bcdef806a46331","null","null","<p style=""font-size: 60px; font-family: BACS"">AZaJcOJlN</p>","","","","","","","","",""
"html-keyboard-response","114","158618","0.0-10.0-0.25","5eaf1c50f3540c614eb973a5","650c16f0f2faf8d7a0d14c09","651c1cbc55bcdef806a46331","null","null","<p style=""font-size: 60px; font-family: BACS"">aLNlkGUa</p>","","","","","","","","",""
"html-keyboard-response","115","159619","0.0-10.0-0.26","5eaf1c50f3540c614eb973a5","650c16f0f2faf8d7a0d14c09","651c1cbc55bcdef806a46331","null","null","<p style=""font-size: 60px; font-family: BACS"">KTDTBTAm</p>","","","","","","","","",""
"html-keyboard-response","116","160629","0.0-10.0-0.27","5eaf1c50f3540c614eb973a5","650c16f0f2faf8d7a0d14c09","651c1cbc55bcdef806a46331","null","null","<p style=""font-size: 60px; font-family: BACS"">cRElDYKPB</p>","","","","","","","","",""
"html-keyboard-response","117","161631","0.0-10.0-0.28","5eaf1c50f3540c614eb973a5","650c16f0f2faf8d7a0d14c09","651c1cbc55bcdef806a46331","null","null","<p style=""font-size: 60px; font-family: BACS"">NJZlrULv</p>","","","","","","","","",""
"html-keyboard-response","118","162632","0.0-10.0-0.29","5eaf1c50f3540c614eb973a5","650c16f0f2faf8d7a0d14c09","651c1cbc55bcdef806a46331","null","null","<p style=""font-size: 60px; font-family: BACS"">lBKtlRE</p>","","","","","","","","",""
"html-keyboard-response","119","163633","0.0-10.0-0.30","5eaf1c50f3540c614eb973a5","650c16f0f2faf8d7a0d14c09","651c1cbc55bcdef806a46331","null","null","<p style=""font-size: 60px; font-family: BACS"">dkLlJcUk</p>","","","","","","","","",""
"html-keyboard-response","120","164634","0.0-10.0-0.31","5eaf1c50f3540c614eb973a5","650c16f0f2faf8d7a0d14c09","651c1cbc55bcdef806a46331","null","null","<p style=""font-size: 60px; font-family: BACS"">AZaJcGQYQ</p>","","","","","","","","",""
"html-keyboard-response","121","165636","0.0-10.0-0.32","5eaf1c50f3540c614eb973a5","650c16f0f2faf8d7a0d14c09","651c1cbc55bcdef806a46331","null","null","<p style=""font-size: 60px; font-family: BACS"">auYAkrULv</p>","","","","","","","","",""
"html-keyboard-response","122","166643","0.0-10.0-0.33","5eaf1c50f3540c614eb973a5","650c16f0f2faf8d7a0d14c09","651c1cbc55bcdef806a46331","null","null","<p style=""font-size: 60px; font-family: BACS"">blMklRE</p>","","","","","","","","",""
"html-keyboard-response","123","167644","0.0-10.0-0.34","5eaf1c50f3540c614eb973a5","650c16f0f2faf8d7a0d14c09","651c1cbc55bcdef806a46331","null","null","<p style=""font-size: 60px; font-family: BACS"">lBKtTmc</p>","","","","","","","","",""
"html-keyboard-response","124","168646","0.0-10.0-0.35","5eaf1c50f3540c614eb973a5","650c16f0f2faf8d7a0d14c09","651c1cbc55bcdef806a46331","null","null","<p style=""font-size: 60px; font-family: BACS"">bROCYKPB</p>","","","","","","","","",""
"html-keyboard-response","125","169647","0.0-10.0-0.36","5eaf1c50f3540c614eb973a5","650c16f0f2faf8d7a0d14c09","651c1cbc55bcdef806a46331","null","null","<p style=""font-size: 60px; font-family: BACS"">dkLlrULv</p>","","","","","","","","",""
"html-keyboard-response","126","170648","0.0-10.0-0.37","5eaf1c50f3540c614eb973a5","650c16f0f2faf8d7a0d14c09","651c1cbc55bcdef806a46331","null","null","<p style=""font-size: 60px; font-family: BACS"">lRCBYKPB</p>","","","","","","","","",""
"html-keyboard-response","127","171649","0.0-10.0-0.38","5eaf1c50f3540c614eb973a5","650c16f0f2faf8d7a0d14c09","651c1cbc55bcdef806a46331","null","null","<p style=""font-size: 60px; font-family: BACS"">LuaUGUa</p>","","","","","","","","",""
"html-keyboard-response","128","172650","0.0-10.0-0.39","5eaf1c50f3540c614eb973a5","650c16f0f2faf8d7a0d14c09","651c1cbc55bcdef806a46331","null","null","<p style=""font-size: 60px; font-family: BACS"">aLNlkOJlN</p>","","","","","","","","",""
"html-keyboard-response","129","173662","0.0-10.0-0.40","5eaf1c50f3540c614eb973a5","650c16f0f2faf8d7a0d14c09","651c1cbc55bcdef806a46331","null","null","<p style=""font-size: 60px; font-family: BACS"">MhKdTmc</p>","","","","","","","","",""
"html-keyboard-response","130","174664","0.0-10.0-0.41","5eaf1c50f3540c614eb973a5","650c16f0f2faf8d7a0d14c09","651c1cbc55bcdef806a46331","null","null","<p style=""font-size: 60px; font-family: BACS"">auYAkGUa</p>","","","","","","","","",""
"html-keyboard-response","131","175664","0.0-10.0-0.42","5eaf1c50f3540c614eb973a5","650c16f0f2faf8d7a0d14c09","651c1cbc55bcdef806a46331","null","null","<p style=""font-size: 60px; font-family: BACS"">aYQmGQYQ</p>","","","","","","","","",""
"html-keyboard-response","132","176678","0.0-10.0-0.43","5eaf1c50f3540c614eb973a5","650c16f0f2faf8d7a0d14c09","651c1cbc55bcdef806a46331","null","null","<p style=""font-size: 60px; font-family: BACS"">lBKtYKPB</p>","","","","","","","","",""
"html-keyboard-response","133","177679","0.0-10.0-0.44","5eaf1c50f3540c614eb973a5","650c16f0f2faf8d7a0d14c09","651c1cbc55bcdef806a46331","null","null","<p style=""font-size: 60px; font-family: BACS"">KTDTBTmc</p>","","","","","","","","",""
"html-keyboard-response","134","178692","0.0-10.0-0.45","5eaf1c50f3540c614eb973a5","650c16f0f2faf8d7a0d14c09","651c1cbc55bcdef806a46331","null","null","<p style=""font-size: 60px; font-family: BACS"">blMkTAm</p>","","","","","","","","",""
"html-keyboard-response","135","179708","0.0-10.0-0.46","5eaf1c50f3540c614eb973a5","650c16f0f2faf8d7a0d14c09","651c1cbc55bcdef806a46331","null","null","<p style=""font-size: 60px; font-family: BACS"">lcOcrULv</p>","","","","","","","","",""
"html-keyboard-response","136","180709","0.0-10.0-0.47","5eaf1c50f3540c614eb973a5","650c16f0f2faf8d7a0d14c09","651c1cbc55bcdef806a46331","null","null","<p style=""font-size: 60px; font-family: BACS"">lRCBlRE</p>","","","","","","","","",""
"html-keyboard-response","137","181721","0.0-10.0-0.48","5eaf1c50f3540c614eb973a5","650c16f0f2faf8d7a0d14c09","651c1cbc55bcdef806a46331","null","null","<p style=""font-size: 60px; font-family: BACS"">cRElDRdCc</p>","","","","","","","","",""
"html-keyboard-response","138","182721","0.0-10.0-0.49","5eaf1c50f3540c614eb973a5","650c16f0f2faf8d7a0d14c09","651c1cbc55bcdef806a46331","null","null","<p style=""font-size: 60px; font-family: BACS"">bROClRE</p>","","","","","","","","",""
"html-keyboard-response","139","183722","0.0-10.0-0.50","5eaf1c50f3540c614eb973a5","650c16f0f2faf8d7a0d14c09","651c1cbc55bcdef806a46331","null","null","<p style=""font-size: 60px; font-family: BACS"">lTmOTAm</p>","","","","","","","","",""
"html-keyboard-response","140","184724","0.0-10.0-0.51","5eaf1c50f3540c614eb973a5","650c16f0f2faf8d7a0d14c09","651c1cbc55bcdef806a46331","null","null","<p style=""font-size: 60px; font-family: BACS"">aYQmOJlN</p>","","","","","","","","",""
"html-keyboard-response","141","185725","0.0-10.0-0.52","5eaf1c50f3540c614eb973a5","650c16f0f2faf8d7a0d14c09","651c1cbc55bcdef806a46331","null","null","<p style=""font-size: 60px; font-family: BACS"">aLNlkGQYQ</p>","","","","","","","","",""
"html-keyboard-response","142","186737","0.0-10.0-0.53","5eaf1c50f3540c614eb973a5","650c16f0f2faf8d7a0d14c09","651c1cbc55bcdef806a46331","null","null","<p style=""font-size: 60px; font-family: BACS"">lTmOTmc</p>","","","","","","","","",""
"html-keyboard-response","143","187738","0.0-10.0-0.54","5eaf1c50f3540c614eb973a5","650c16f0f2faf8d7a0d14c09","651c1cbc55bcdef806a46331","null","null","<p style=""font-size: 60px; font-family: BACS"">blMkRdCc</p>","","","","","","","","",""
"html-keyboard-response","144","188748","0.0-10.0-0.55","5eaf1c50f3540c614eb973a5","650c16f0f2faf8d7a0d14c09","651c1cbc55bcdef806a46331","null","null","<p style=""font-size: 60px; font-family: BACS"">lcOcJcUk</p>","","","","","","","","",""
"html-keyboard-response","145","189750","0.0-10.0-0.56","5eaf1c50f3540c614eb973a5","650c16f0f2faf8d7a0d14c09","651c1cbc55bcdef806a46331","null","null","<p style=""font-size: 60px; font-family: BACS"">NJZlOJlN</p>","","","","","","","","",""
"html-keyboard-response","146","190751","0.0-10.0-0.57","5eaf1c50f3540c614eb973a5","650c16f0f2faf8d7a0d14c09","651c1cbc55bcdef806a46331","null","null","<p style=""font-size: 60px; font-family: BACS"">aOLZUJcUk</p>","","","","","","","","",""
"html-keyboard-response","147","191766","0.0-10.0-0.58","5eaf1c50f3540c614eb973a5","650c16f0f2faf8d7a0d14c09","651c1cbc55bcdef806a46331","null","null","<p style=""font-size: 60px; font-family: BACS"">AZaJcGUa</p>","","","","","","","","",""
"html-keyboard-response","148","192767","0.0-10.0-0.59","5eaf1c50f3540c614eb973a5","650c16f0f2faf8d7a0d14c09","651c1cbc55bcdef806a46331","null","null","<p style=""font-size: 60px; font-family: BACS"">auYAkJcUk</p>","","","","","","","","",""
"html-keyboard-response","149","193768","0.0-10.0-0.60","5eaf1c50f3540c614eb973a5","650c16f0f2faf8d7a0d14c09","651c1cbc55bcdef806a46331","null","null","<p style=""font-size: 60px; font-family: BACS"">GZJYGQYQ</p>","","","","","","","","",""
"html-keyboard-response","150","194780","0.0-10.0-0.61","5eaf1c50f3540c614eb973a5","650c16f0f2faf8d7a0d14c09","651c1cbc55bcdef806a46331","null","null","<p style=""font-size: 60px; font-family: BACS"">blMkYKPB</p>","","","","","","","","",""
"html-keyboard-response","151","195781","0.0-10.0-0.62","5eaf1c50f3540c614eb973a5","650c16f0f2faf8d7a0d14c09","651c1cbc55bcdef806a46331","null","null","<p style=""font-size: 60px; font-family: BACS"">PlEKTAm</p>","","","","","","","","",""
"html-keyboard-response","152","196782","0.0-10.0-0.63","5eaf1c50f3540c614eb973a5","650c16f0f2faf8d7a0d14c09","651c1cbc55bcdef806a46331","null","null","<p style=""font-size: 60px; font-family: BACS"">cRElDTmc</p>","","","","","","","","",""
"html-keyboard-response","153","197783","0.0-10.0-0.64","5eaf1c50f3540c614eb973a5","650c16f0f2faf8d7a0d14c09","651c1cbc55bcdef806a46331","null","null","<p style=""font-size: 60px; font-family: BACS"">lRCBRdCc</p>","","","","","","","","",""
"html-keyboard-response","154","198785","0.0-10.0-0.65","5eaf1c50f3540c614eb973a5","650c16f0f2faf8d7a0d14c09","651c1cbc55bcdef806a46331","null","null","<p style=""font-size: 60px; font-family: BACS"">aYQmGUa</p>","","","","","","","","",""
"html-keyboard-response","155","199800","0.0-10.0-0.66","5eaf1c50f3540c614eb973a5","650c16f0f2faf8d7a0d14c09","651c1cbc55bcdef806a46331","null","null","<p style=""font-size: 60px; font-family: BACS"">aOLZUOJlN</p>","","","","","","","","",""
"html-keyboard-response","156","200813","0.0-10.0-0.67","5eaf1c50f3540c614eb973a5","650c16f0f2faf8d7a0d14c09","651c1cbc55bcdef806a46331","null","null","<p style=""font-size: 60px; font-family: BACS"">LuaUGQYQ</p>","","","","","","","","",""
"html-keyboard-response","157","201829","0.0-10.0-0.68","5eaf1c50f3540c614eb973a5","650c16f0f2faf8d7a0d14c09","651c1cbc55bcdef806a46331","null","null","<p style=""font-size: 60px; font-family: BACS"">PctRClRE</p>","","","","","","","","",""
"html-keyboard-response","158","202830","0.0-10.0-0.69","5eaf1c50f3540c614eb973a5","650c16f0f2faf8d7a0d14c09","651c1cbc55bcdef806a46331","null","null","<p style=""font-size: 60px; font-family: BACS"">aYQmrULv</p>","","","","","","","","",""
"html-keyboard-response","159","203831","0.0-10.0-0.70","5eaf1c50f3540c614eb973a5","650c16f0f2faf8d7a0d14c09","651c1cbc55bcdef806a46331","null","null","<p style=""font-size: 60px; font-family: BACS"">MhKdTAm</p>","","","","","","","","",""
"html-keyboard-response","160","204832","0.0-10.0-0.71","5eaf1c50f3540c614eb973a5","650c16f0f2faf8d7a0d14c09","651c1cbc55bcdef806a46331","null","null","<p style=""font-size: 60px; font-family: BACS"">bROCTmc</p>","","","","","","","","",""
"html-keyboard-response","161","205833","0.0-10.0-0.72","5eaf1c50f3540c614eb973a5","650c16f0f2faf8d7a0d14c09","651c1cbc55bcdef806a46331","null","null","<p style=""font-size: 60px; font-family: BACS"">cRElDlRE</p>","","","","","","","","",""
"html-keyboard-response","162","206835","0.0-10.0-0.73","5eaf1c50f3540c614eb973a5","650c16f0f2faf8d7a0d14c09","651c1cbc55bcdef806a46331","null","null","<p style=""font-size: 60px; font-family: BACS"">AZaJcJcUk</p>","","","","","","","","",""
"html-keyboard-response","163","207836","0.0-10.0-0.74","5eaf1c50f3540c614eb973a5","650c16f0f2faf8d7a0d14c09","651c1cbc55bcdef806a46331","null","null","<p style=""font-size: 60px; font-family: BACS"">GZJYrULv</p>","","","","","","","","",""
"html-keyboard-response","164","208836","0.0-10.0-0.75","5eaf1c50f3540c614eb973a5","650c16f0f2faf8d7a0d14c09","651c1cbc55bcdef806a46331","null","null","<p style=""font-size: 60px; font-family: BACS"">bROCTAm</p>","","","","","","","","",""
"html-keyboard-response","165","209850","0.0-10.0-0.76","5eaf1c50f3540c614eb973a5","650c16f0f2faf8d7a0d14c09","651c1cbc55bcdef806a46331","null","null","<p style=""font-size: 60px; font-family: BACS"">aLNlkJcUk</p>","","","","","","","","",""
"html-keyboard-response","166","210852","0.0-10.0-0.77","5eaf1c50f3540c614eb973a5","650c16f0f2faf8d7a0d14c09","651c1cbc55bcdef806a46331","null","null","<p style=""font-size: 60px; font-family: BACS"">NJZlGQYQ</p>","","","","","","","","",""
"html-keyboard-response","167","211865","0.0-10.0-0.78","5eaf1c50f3540c614eb973a5","650c16f0f2faf8d7a0d14c09","651c1cbc55bcdef806a46331","null","null","<p style=""font-size: 60px; font-family: BACS"">PctRCRdCc</p>","","","","","","","","",""
"html-keyboard-response","168","212866","0.0-10.0-0.79","5eaf1c50f3540c614eb973a5","650c16f0f2faf8d7a0d14c09","651c1cbc55bcdef806a46331","null","null","<p style=""font-size: 60px; font-family: BACS"">aOLZUrULv</p>","","","","","","","","",""
"html-keyboard-response","169","216109","0.0-11.0","5eaf1c50f3540c614eb973a5","650c16f0f2faf8d7a0d14c09","651c1cbc55bcdef806a46331","3242"," ","<p>Great, you've seen the second block of words. You may now take a short break.</p>
      <p>Press the spacebar when you're ready to continue.</p>","","","","","","","","",""
"html-keyboard-response","170","217118","0.0-12.0-0.0","5eaf1c50f3540c614eb973a5","650c16f0f2faf8d7a0d14c09","651c1cbc55bcdef806a46331","null","null","<p style=""font-size: 60px; font-family: BACS"">bROCTmc</p>","","","","","","","","",""
"html-keyboard-response","171","218130","0.0-12.0-0.1","5eaf1c50f3540c614eb973a5","650c16f0f2faf8d7a0d14c09","651c1cbc55bcdef806a46331","null","null","<p style=""font-size: 60px; font-family: BACS"">AZaJcGQYQ</p>","","","","","","","","",""
"html-keyboard-response","172","219131","0.0-12.0-0.2","5eaf1c50f3540c614eb973a5","650c16f0f2faf8d7a0d14c09","651c1cbc55bcdef806a46331","null","null","<p style=""font-size: 60px; font-family: BACS"">lTmOYKPB</p>","","","","","","","","",""
"html-keyboard-response","173","220144","0.0-12.0-0.3","5eaf1c50f3540c614eb973a5","650c16f0f2faf8d7a0d14c09","651c1cbc55bcdef806a46331","null","null","<p style=""font-size: 60px; font-family: BACS"">auYAkJcUk</p>","","","","","","","","",""
"html-keyboard-response","174","221145","0.0-12.0-0.4","5eaf1c50f3540c614eb973a5","650c16f0f2faf8d7a0d14c09","651c1cbc55bcdef806a46331","null","null","<p style=""font-size: 60px; font-family: BACS"">lRCBYKPB</p>","","","","","","","","",""
"html-keyboard-response","175","222156","0.0-12.0-0.5","5eaf1c50f3540c614eb973a5","650c16f0f2faf8d7a0d14c09","651c1cbc55bcdef806a46331","null","null","<p style=""font-size: 60px; font-family: BACS"">aLNlkOJlN</p>","","","","","","","","",""
"html-keyboard-response","176","223158","0.0-12.0-0.6","5eaf1c50f3540c614eb973a5","650c16f0f2faf8d7a0d14c09","651c1cbc55bcdef806a46331","null","null","<p style=""font-size: 60px; font-family: BACS"">PctRCTAm</p>","","","","","","","","",""
"html-keyboard-response","177","224159","0.0-12.0-0.7","5eaf1c50f3540c614eb973a5","650c16f0f2faf8d7a0d14c09","651c1cbc55bcdef806a46331","null","null","<p style=""font-size: 60px; font-family: BACS"">GZJYGQYQ</p>","","","","","","","","",""
"html-keyboard-response","178","225160","0.0-12.0-0.8","5eaf1c50f3540c614eb973a5","650c16f0f2faf8d7a0d14c09","651c1cbc55bcdef806a46331","null","null","<p style=""font-size: 60px; font-family: BACS"">lcOcrULv</p>","","","","","","","","",""
"html-keyboard-response","179","226161","0.0-12.0-0.9","5eaf1c50f3540c614eb973a5","650c16f0f2faf8d7a0d14c09","651c1cbc55bcdef806a46331","null","null","<p style=""font-size: 60px; font-family: BACS"">MhKdlRE</p>","","","","","","","","",""
"html-keyboard-response","180","227168","0.0-12.0-0.10","5eaf1c50f3540c614eb973a5","650c16f0f2faf8d7a0d14c09","651c1cbc55bcdef806a46331","null","null","<p style=""font-size: 60px; font-family: BACS"">cRElDRdCc</p>","","","","","","","","",""
"html-keyboard-response","181","228170","0.0-12.0-0.11","5eaf1c50f3540c614eb973a5","650c16f0f2faf8d7a0d14c09","651c1cbc55bcdef806a46331","null","null","<p style=""font-size: 60px; font-family: BACS"">NJZlGQYQ</p>","","","","","","","","",""
"html-keyboard-response","182","229177","0.0-12.0-0.12","5eaf1c50f3540c614eb973a5","650c16f0f2faf8d7a0d14c09","651c1cbc55bcdef806a46331","null","null","<p style=""font-size: 60px; font-family: BACS"">KTDTBlRE</p>","","","","","","","","",""
"html-keyboard-response","183","230178","0.0-12.0-0.13","5eaf1c50f3540c614eb973a5","650c16f0f2faf8d7a0d14c09","651c1cbc55bcdef806a46331","null","null","<p style=""font-size: 60px; font-family: BACS"">aOLZUGUa</p>","","","","","","","","",""
"html-keyboard-response","184","231179","0.0-12.0-0.14","5eaf1c50f3540c614eb973a5","650c16f0f2faf8d7a0d14c09","651c1cbc55bcdef806a46331","null","null","<p style=""font-size: 60px; font-family: BACS"">bROCTAm</p>","","","","","","","","",""
"html-keyboard-response","185","232189","0.0-12.0-0.15","5eaf1c50f3540c614eb973a5","650c16f0f2faf8d7a0d14c09","651c1cbc55bcdef806a46331","null","null","<p style=""font-size: 60px; font-family: BACS"">aYQmrULv</p>","","","","","","","","",""
"html-keyboard-response","186","233190","0.0-12.0-0.16","5eaf1c50f3540c614eb973a5","650c16f0f2faf8d7a0d14c09","651c1cbc55bcdef806a46331","null","null","<p style=""font-size: 60px; font-family: BACS"">blMkTAm</p>","","","","","","","","",""
"html-keyboard-response","187","234191","0.0-12.0-0.17","5eaf1c50f3540c614eb973a5","650c16f0f2faf8d7a0d14c09","651c1cbc55bcdef806a46331","null","null","<p style=""font-size: 60px; font-family: BACS"">dkLlOJlN</p>","","","","","","","","",""
"html-keyboard-response","188","235199","0.0-12.0-0.18","5eaf1c50f3540c614eb973a5","650c16f0f2faf8d7a0d14c09","651c1cbc55bcdef806a46331","null","null","<p style=""font-size: 60px; font-family: BACS"">aYQmGUa</p>","","","","","","","","",""
"html-keyboard-response","189","236200","0.0-12.0-0.19","5eaf1c50f3540c614eb973a5","650c16f0f2faf8d7a0d14c09","651c1cbc55bcdef806a46331","null","null","<p style=""font-size: 60px; font-family: BACS"">aOLZUJcUk</p>","","","","","","","","",""
"html-keyboard-response","190","237204","0.0-12.0-0.20","5eaf1c50f3540c614eb973a5","650c16f0f2faf8d7a0d14c09","651c1cbc55bcdef806a46331","null","null","<p style=""font-size: 60px; font-family: BACS"">aYQmGQYQ</p>","","","","","","","","",""
"html-keyboard-response","191","238206","0.0-12.0-0.21","5eaf1c50f3540c614eb973a5","650c16f0f2faf8d7a0d14c09","651c1cbc55bcdef806a46331","null","null","<p style=""font-size: 60px; font-family: BACS"">NJZlOJlN</p>","","","","","","","","",""
"html-keyboard-response","192","239206","0.0-12.0-0.22","5eaf1c50f3540c614eb973a5","650c16f0f2faf8d7a0d14c09","651c1cbc55bcdef806a46331","null","null","<p style=""font-size: 60px; font-family: BACS"">dkLlGUa</p>","","","","","","","","",""
"html-keyboard-response","193","240207","0.0-12.0-0.23","5eaf1c50f3540c614eb973a5","650c16f0f2faf8d7a0d14c09","651c1cbc55bcdef806a46331","null","null","<p style=""font-size: 60px; font-family: BACS"">lTmORdCc</p>","","","","","","","","",""
"html-keyboard-response","194","241218","0.0-12.0-0.24","5eaf1c50f3540c614eb973a5","650c16f0f2faf8d7a0d14c09","651c1cbc55bcdef806a46331","null","null","<p style=""font-size: 60px; font-family: BACS"">aLNlkGUa</p>","","","","","","","","",""
"html-keyboard-response","195","242220","0.0-12.0-0.25","5eaf1c50f3540c614eb973a5","650c16f0f2faf8d7a0d14c09","651c1cbc55bcdef806a46331","null","null","<p style=""font-size: 60px; font-family: BACS"">KTDTBRdCc</p>","","","","","","","","",""
"html-keyboard-response","196","243221","0.0-12.0-0.26","5eaf1c50f3540c614eb973a5","650c16f0f2faf8d7a0d14c09","651c1cbc55bcdef806a46331","null","null","<p style=""font-size: 60px; font-family: BACS"">lBKtYKPB</p>","","","","","","","","",""
"html-keyboard-response","197","244223","0.0-12.0-0.27","5eaf1c50f3540c614eb973a5","650c16f0f2faf8d7a0d14c09","651c1cbc55bcdef806a46331","null","null","<p style=""font-size: 60px; font-family: BACS"">KTDTBTAm</p>","","","","","","","","",""
"html-keyboard-response","198","245224","0.0-12.0-0.28","5eaf1c50f3540c614eb973a5","650c16f0f2faf8d7a0d14c09","651c1cbc55bcdef806a46331","null","null","<p style=""font-size: 60px; font-family: BACS"">GZJYOJlN</p>","","","","","","","","",""
"html-keyboard-response","199","246225","0.0-12.0-0.29","5eaf1c50f3540c614eb973a5","650c16f0f2faf8d7a0d14c09","651c1cbc55bcdef806a46331","null","null","<p style=""font-size: 60px; font-family: BACS"">lBKtTAm</p>","","","","","","","","",""
"html-keyboard-response","200","247231","0.0-12.0-0.30","5eaf1c50f3540c614eb973a5","650c16f0f2faf8d7a0d14c09","651c1cbc55bcdef806a46331","null","null","<p style=""font-size: 60px; font-family: BACS"">auYAkrULv</p>","","","","","","","","",""
"html-keyboard-response","201","248232","0.0-12.0-0.31","5eaf1c50f3540c614eb973a5","650c16f0f2faf8d7a0d14c09","651c1cbc55bcdef806a46331","null","null","<p style=""font-size: 60px; font-family: BACS"">LuaUJcUk</p>","","","","","","","","",""
"html-keyboard-response","202","249243","0.0-12.0-0.32","5eaf1c50f3540c614eb973a5","650c16f0f2faf8d7a0d14c09","651c1cbc55bcdef806a46331","null","null","<p style=""font-size: 60px; font-family: BACS"">auYAkGUa</p>","","","","","","","","",""
"html-keyboard-response","203","250244","0.0-12.0-0.33","5eaf1c50f3540c614eb973a5","650c16f0f2faf8d7a0d14c09","651c1cbc55bcdef806a46331","null","null","<p style=""font-size: 60px; font-family: BACS"">MhKdRdCc</p>","","","","","","","","",""
"html-keyboard-response","204","251246","0.0-12.0-0.34","5eaf1c50f3540c614eb973a5","650c16f0f2faf8d7a0d14c09","651c1cbc55bcdef806a46331","null","null","<p style=""font-size: 60px; font-family: BACS"">lBKtlRE</p>","","","","","","","","",""
"html-keyboard-response","205","252256","0.0-12.0-0.35","5eaf1c50f3540c614eb973a5","650c16f0f2faf8d7a0d14c09","651c1cbc55bcdef806a46331","null","null","<p style=""font-size: 60px; font-family: BACS"">AZaJcGUa</p>","","","","","","","","",""
"html-keyboard-response","206","253257","0.0-12.0-0.36","5eaf1c50f3540c614eb973a5","650c16f0f2faf8d7a0d14c09","651c1cbc55bcdef806a46331","null","null","<p style=""font-size: 60px; font-family: BACS"">lRCBlRE</p>","","","","","","","","",""
"html-keyboard-response","207","254270","0.0-12.0-0.37","5eaf1c50f3540c614eb973a5","650c16f0f2faf8d7a0d14c09","651c1cbc55bcdef806a46331","null","null","<p style=""font-size: 60px; font-family: BACS"">PctRCRdCc</p>","","","","","","","","",""
"html-keyboard-response","208","255271","0.0-12.0-0.38","5eaf1c50f3540c614eb973a5","650c16f0f2faf8d7a0d14c09","651c1cbc55bcdef806a46331","null","null","<p style=""font-size: 60px; font-family: BACS"">NJZlGUa</p>","","","","","","","","",""
"html-keyboard-response","209","256272","0.0-12.0-0.39","5eaf1c50f3540c614eb973a5","650c16f0f2faf8d7a0d14c09","651c1cbc55bcdef806a46331","null","null","<p style=""font-size: 60px; font-family: BACS"">lcOcGQYQ</p>","","","","","","","","",""
"html-keyboard-response","210","257273","0.0-12.0-0.40","5eaf1c50f3540c614eb973a5","650c16f0f2faf8d7a0d14c09","651c1cbc55bcdef806a46331","null","null","<p style=""font-size: 60px; font-family: BACS"">dkLlJcUk</p>","","","","","","","","",""
"html-keyboard-response","211","258274","0.0-12.0-0.41","5eaf1c50f3540c614eb973a5","650c16f0f2faf8d7a0d14c09","651c1cbc55bcdef806a46331","null","null","<p style=""font-size: 60px; font-family: BACS"">lRCBTmc</p>","","","","","","","","",""
"html-keyboard-response","212","259275","0.0-12.0-0.42","5eaf1c50f3540c614eb973a5","650c16f0f2faf8d7a0d14c09","651c1cbc55bcdef806a46331","null","null","<p style=""font-size: 60px; font-family: BACS"">cRElDYKPB</p>","","","","","","","","",""
"html-keyboard-response","213","260276","0.0-12.0-0.43","5eaf1c50f3540c614eb973a5","650c16f0f2faf8d7a0d14c09","651c1cbc55bcdef806a46331","null","null","<p style=""font-size: 60px; font-family: BACS"">LuaUGUa</p>","","","","","","","","",""
"html-keyboard-response","214","261277","0.0-12.0-0.44","5eaf1c50f3540c614eb973a5","650c16f0f2faf8d7a0d14c09","651c1cbc55bcdef806a46331","null","null","<p style=""font-size: 60px; font-family: BACS"">aLNlkGQYQ</p>","","","","","","","","",""
"html-keyboard-response","215","262278","0.0-12.0-0.45","5eaf1c50f3540c614eb973a5","650c16f0f2faf8d7a0d14c09","651c1cbc55bcdef806a46331","null","null","<p style=""font-size: 60px; font-family: BACS"">blMkRdCc</p>","","","","","","","","",""
"html-keyboard-response","216","263280","0.0-12.0-0.46","5eaf1c50f3540c614eb973a5","650c16f0f2faf8d7a0d14c09","651c1cbc55bcdef806a46331","null","null","<p style=""font-size: 60px; font-family: BACS"">auYAkGQYQ</p>","","","","","","","","",""
"html-keyboard-response","217","264281","0.0-12.0-0.47","5eaf1c50f3540c614eb973a5","650c16f0f2faf8d7a0d14c09","651c1cbc55bcdef806a46331","null","null","<p style=""font-size: 60px; font-family: BACS"">blMklRE</p>","","","","","","","","",""
"html-keyboard-response","218","265286","0.0-12.0-0.48","5eaf1c50f3540c614eb973a5","650c16f0f2faf8d7a0d14c09","651c1cbc55bcdef806a46331","null","null","<p style=""font-size: 60px; font-family: BACS"">aOLZUOJlN</p>","","","","","","","","",""
"html-keyboard-response","219","266287","0.0-12.0-0.49","5eaf1c50f3540c614eb973a5","650c16f0f2faf8d7a0d14c09","651c1cbc55bcdef806a46331","null","null","<p style=""font-size: 60px; font-family: BACS"">PctRClRE</p>","","","","","","","","",""
"html-keyboard-response","220","267288","0.0-12.0-0.50","5eaf1c50f3540c614eb973a5","650c16f0f2faf8d7a0d14c09","651c1cbc55bcdef806a46331","null","null","<p style=""font-size: 60px; font-family: BACS"">cRElDTmc</p>","","","","","","","","",""
"html-keyboard-response","221","268289","0.0-12.0-0.51","5eaf1c50f3540c614eb973a5","650c16f0f2faf8d7a0d14c09","651c1cbc55bcdef806a46331","null","null","<p style=""font-size: 60px; font-family: BACS"">aYQmOJlN</p>","","","","","","","","",""
"html-keyboard-response","222","269299","0.0-12.0-0.52","5eaf1c50f3540c614eb973a5","650c16f0f2faf8d7a0d14c09","651c1cbc55bcdef806a46331","null","null","<p style=""font-size: 60px; font-family: BACS"">dkLlrULv</p>","","","","","","","","",""
"html-keyboard-response","223","270315","0.0-12.0-0.53","5eaf1c50f3540c614eb973a5","650c16f0f2faf8d7a0d14c09","651c1cbc55bcdef806a46331","null","null","<p style=""font-size: 60px; font-family: BACS"">lBKtTmc</p>","","","","","","","","",""
"html-keyboard-response","224","271316","0.0-12.0-0.54","5eaf1c50f3540c614eb973a5","650c16f0f2faf8d7a0d14c09","651c1cbc55bcdef806a46331","null","null","<p style=""font-size: 60px; font-family: BACS"">NJZlrULv</p>","","","","","","","","",""
"html-keyboard-response","225","272324","0.0-12.0-0.55","5eaf1c50f3540c614eb973a5","650c16f0f2faf8d7a0d14c09","651c1cbc55bcdef806a46331","null","null","<p style=""font-size: 60px; font-family: BACS"">blMkYKPB</p>","","","","","","","","",""
"html-keyboard-response","226","273340","0.0-12.0-0.56","5eaf1c50f3540c614eb973a5","650c16f0f2faf8d7a0d14c09","651c1cbc55bcdef806a46331","null","null","<p style=""font-size: 60px; font-family: BACS"">PlEKTmc</p>","","","","","","","","",""
"html-keyboard-response","227","274356","0.0-12.0-0.57","5eaf1c50f3540c614eb973a5","650c16f0f2faf8d7a0d14c09","651c1cbc55bcdef806a46331","null","null","<p style=""font-size: 60px; font-family: BACS"">PctRCYKPB</p>","","","","","","","","",""
"html-keyboard-response","228","275357","0.0-12.0-0.58","5eaf1c50f3540c614eb973a5","650c16f0f2faf8d7a0d14c09","651c1cbc55bcdef806a46331","null","null","<p style=""font-size: 60px; font-family: BACS"">cRElDlRE</p>","","","","","","","","",""
"html-keyboard-response","229","276370","0.0-12.0-0.59","5eaf1c50f3540c614eb973a5","650c16f0f2faf8d7a0d14c09","651c1cbc55bcdef806a46331","null","null","<p style=""font-size: 60px; font-family: BACS"">LuaUGQYQ</p>","","","","","","","","",""
"html-keyboard-response","230","277371","0.0-12.0-0.60","5eaf1c50f3540c614eb973a5","650c16f0f2faf8d7a0d14c09","651c1cbc55bcdef806a46331","null","null","<p style=""font-size: 60px; font-family: BACS"">bROCYKPB</p>","","","","","","","","",""
"html-keyboard-response","231","278384","0.0-12.0-0.61","5eaf1c50f3540c614eb973a5","650c16f0f2faf8d7a0d14c09","651c1cbc55bcdef806a46331","null","null","<p style=""font-size: 60px; font-family: BACS"">PlEKRdCc</p>","","","","","","","","",""
"html-keyboard-response","232","279385","0.0-12.0-0.62","5eaf1c50f3540c614eb973a5","650c16f0f2faf8d7a0d14c09","651c1cbc55bcdef806a46331","null","null","<p style=""font-size: 60px; font-family: BACS"">AZaJcOJlN</p>","","","","","","","","",""
"html-keyboard-response","233","280399","0.0-12.0-0.63","5eaf1c50f3540c614eb973a5","650c16f0f2faf8d7a0d14c09","651c1cbc55bcdef806a46331","null","null","<p style=""font-size: 60px; font-family: BACS"">KTDTBTmc</p>","","","","","","","","",""
"html-keyboard-response","234","281400","0.0-12.0-0.64","5eaf1c50f3540c614eb973a5","650c16f0f2faf8d7a0d14c09","651c1cbc55bcdef806a46331","null","null","<p style=""font-size: 60px; font-family: BACS"">lTmOTAm</p>","","","","","","","","",""
"html-keyboard-response","235","282411","0.0-12.0-0.65","5eaf1c50f3540c614eb973a5","650c16f0f2faf8d7a0d14c09","651c1cbc55bcdef806a46331","null","null","<p style=""font-size: 60px; font-family: BACS"">lRCBRdCc</p>","","","","","","","","",""
"html-keyboard-response","236","283412","0.0-12.0-0.66","5eaf1c50f3540c614eb973a5","650c16f0f2faf8d7a0d14c09","651c1cbc55bcdef806a46331","null","null","<p style=""font-size: 60px; font-family: BACS"">PlEKTAm</p>","","","","","","","","",""
"html-keyboard-response","237","284414","0.0-12.0-0.67","5eaf1c50f3540c614eb973a5","650c16f0f2faf8d7a0d14c09","651c1cbc55bcdef806a46331","null","null","<p style=""font-size: 60px; font-family: BACS"">aOLZUrULv</p>","","","","","","","","",""
"html-keyboard-response","238","285415","0.0-12.0-0.68","5eaf1c50f3540c614eb973a5","650c16f0f2faf8d7a0d14c09","651c1cbc55bcdef806a46331","null","null","<p style=""font-size: 60px; font-family: BACS"">aLNlkJcUk</p>","","","","","","","","",""
"html-keyboard-response","239","286416","0.0-12.0-0.69","5eaf1c50f3540c614eb973a5","650c16f0f2faf8d7a0d14c09","651c1cbc55bcdef806a46331","null","null","<p style=""font-size: 60px; font-family: BACS"">GZJYrULv</p>","","","","","","","","",""
"html-keyboard-response","240","287416","0.0-12.0-0.70","5eaf1c50f3540c614eb973a5","650c16f0f2faf8d7a0d14c09","651c1cbc55bcdef806a46331","null","null","<p style=""font-size: 60px; font-family: BACS"">AZaJcJcUk</p>","","","","","","","","",""
"html-keyboard-response","241","288422","0.0-12.0-0.71","5eaf1c50f3540c614eb973a5","650c16f0f2faf8d7a0d14c09","651c1cbc55bcdef806a46331","null","null","<p style=""font-size: 60px; font-family: BACS"">LuaUrULv</p>","","","","","","","","",""
"html-keyboard-response","242","289423","0.0-12.0-0.72","5eaf1c50f3540c614eb973a5","650c16f0f2faf8d7a0d14c09","651c1cbc55bcdef806a46331","null","null","<p style=""font-size: 60px; font-family: BACS"">lTmOTmc</p>","","","","","","","","",""
"html-keyboard-response","243","290436","0.0-12.0-0.73","5eaf1c50f3540c614eb973a5","650c16f0f2faf8d7a0d14c09","651c1cbc55bcdef806a46331","null","null","<p style=""font-size: 60px; font-family: BACS"">GZJYJcUk</p>","","","","","","","","",""
"html-keyboard-response","244","291438","0.0-12.0-0.74","5eaf1c50f3540c614eb973a5","650c16f0f2faf8d7a0d14c09","651c1cbc55bcdef806a46331","null","null","<p style=""font-size: 60px; font-family: BACS"">MhKdTmc</p>","","","","","","","","",""
"html-keyboard-response","245","292441","0.0-12.0-0.75","5eaf1c50f3540c614eb973a5","650c16f0f2faf8d7a0d14c09","651c1cbc55bcdef806a46331","null","null","<p style=""font-size: 60px; font-family: BACS"">bROClRE</p>","","","","","","","","",""
"html-keyboard-response","246","293455","0.0-12.0-0.76","5eaf1c50f3540c614eb973a5","650c16f0f2faf8d7a0d14c09","651c1cbc55bcdef806a46331","null","null","<p style=""font-size: 60px; font-family: BACS"">lcOcJcUk</p>","","","","","","","","",""
"html-keyboard-response","247","294471","0.0-12.0-0.77","5eaf1c50f3540c614eb973a5","650c16f0f2faf8d7a0d14c09","651c1cbc55bcdef806a46331","null","null","<p style=""font-size: 60px; font-family: BACS"">PlEKYKPB</p>","","","","","","","","",""
"html-keyboard-response","248","295474","0.0-12.0-0.78","5eaf1c50f3540c614eb973a5","650c16f0f2faf8d7a0d14c09","651c1cbc55bcdef806a46331","null","null","<p style=""font-size: 60px; font-family: BACS"">lcOcOJlN</p>","","","","","","","","",""
"html-keyboard-response","249","296488","0.0-12.0-0.79","5eaf1c50f3540c614eb973a5","650c16f0f2faf8d7a0d14c09","651c1cbc55bcdef806a46331","null","null","<p style=""font-size: 60px; font-family: BACS"">MhKdTAm</p>","","","","","","","","",""
"html-keyboard-response","250","298689","0.0-13.0","5eaf1c50f3540c614eb973a5","650c16f0f2faf8d7a0d14c09","651c1cbc55bcdef806a46331","2200"," ","<p>Great, you've seen the third block of words. You may now take a short break.</p>
      <p>Press the spacebar when you're ready to continue.</p>","","","","","","","","",""
"html-keyboard-response","251","299690","0.0-14.0-0.0","5eaf1c50f3540c614eb973a5","650c16f0f2faf8d7a0d14c09","651c1cbc55bcdef806a46331","null","null","<p style=""font-size: 60px; font-family: BACS"">KTDTBTAm</p>","","","","","","","","",""
"html-keyboard-response","252","300705","0.0-14.0-0.1","5eaf1c50f3540c614eb973a5","650c16f0f2faf8d7a0d14c09","651c1cbc55bcdef806a46331","null","null","<p style=""font-size: 60px; font-family: BACS"">auYAkrULv</p>","","","","","","","","",""
"html-keyboard-response","253","301707","0.0-14.0-0.2","5eaf1c50f3540c614eb973a5","650c16f0f2faf8d7a0d14c09","651c1cbc55bcdef806a46331","null","null","<p style=""font-size: 60px; font-family: BACS"">aYQmGUa</p>","","","","","","","","",""
"html-keyboard-response","254","302708","0.0-14.0-0.3","5eaf1c50f3540c614eb973a5","650c16f0f2faf8d7a0d14c09","651c1cbc55bcdef806a46331","null","null","<p style=""font-size: 60px; font-family: BACS"">lTmOYKPB</p>","","","","","","","","",""
"html-keyboard-response","255","303709","0.0-14.0-0.4","5eaf1c50f3540c614eb973a5","650c16f0f2faf8d7a0d14c09","651c1cbc55bcdef806a46331","null","null","<p style=""font-size: 60px; font-family: BACS"">KTDTBRdCc</p>","","","","","","","","",""
"html-keyboard-response","256","304711","0.0-14.0-0.5","5eaf1c50f3540c614eb973a5","650c16f0f2faf8d7a0d14c09","651c1cbc55bcdef806a46331","null","null","<p style=""font-size: 60px; font-family: BACS"">PlEKTAm</p>","","","","","","","","",""
"html-keyboard-response","257","305713","0.0-14.0-0.6","5eaf1c50f3540c614eb973a5","650c16f0f2faf8d7a0d14c09","651c1cbc55bcdef806a46331","null","null","<p style=""font-size: 60px; font-family: BACS"">aYQmrULv</p>","","","","","","","","",""
"html-keyboard-response","258","306715","0.0-14.0-0.7","5eaf1c50f3540c614eb973a5","650c16f0f2faf8d7a0d14c09","651c1cbc55bcdef806a46331","null","null","<p style=""font-size: 60px; font-family: BACS"">dkLlGUa</p>","","","","","","","","",""
"html-keyboard-response","259","307717","0.0-14.0-0.8","5eaf1c50f3540c614eb973a5","650c16f0f2faf8d7a0d14c09","651c1cbc55bcdef806a46331","null","null","<p style=""font-size: 60px; font-family: BACS"">aLNlkJcUk</p>","","","","","","","","",""
"html-keyboard-response","260","308718","0.0-14.0-0.9","5eaf1c50f3540c614eb973a5","650c16f0f2faf8d7a0d14c09","651c1cbc55bcdef806a46331","null","null","<p style=""font-size: 60px; font-family: BACS"">bROClRE</p>","","","","","","","","",""
"html-keyboard-response","261","309719","0.0-14.0-0.10","5eaf1c50f3540c614eb973a5","650c16f0f2faf8d7a0d14c09","651c1cbc55bcdef806a46331","null","null","<p style=""font-size: 60px; font-family: BACS"">lTmOTAm</p>","","","","","","","","",""
"html-keyboard-response","262","310720","0.0-14.0-0.11","5eaf1c50f3540c614eb973a5","650c16f0f2faf8d7a0d14c09","651c1cbc55bcdef806a46331","null","null","<p style=""font-size: 60px; font-family: BACS"">lRCBTmc</p>","","","","","","","","",""
"html-keyboard-response","263","311724","0.0-14.0-0.12","5eaf1c50f3540c614eb973a5","650c16f0f2faf8d7a0d14c09","651c1cbc55bcdef806a46331","null","null","<p style=""font-size: 60px; font-family: BACS"">lcOcrULv</p>","","","","","","","","",""
"html-keyboard-response","264","312727","0.0-14.0-0.13","5eaf1c50f3540c614eb973a5","650c16f0f2faf8d7a0d14c09","651c1cbc55bcdef806a46331","null","null","<p style=""font-size: 60px; font-family: BACS"">AZaJcGQYQ</p>","","","","","","","","",""
"html-keyboard-response","265","313727","0.0-14.0-0.14","5eaf1c50f3540c614eb973a5","650c16f0f2faf8d7a0d14c09","651c1cbc55bcdef806a46331","null","null","<p style=""font-size: 60px; font-family: BACS"">cRElDlRE</p>","","","","","","","","",""
"html-keyboard-response","266","314729","0.0-14.0-0.15","5eaf1c50f3540c614eb973a5","650c16f0f2faf8d7a0d14c09","651c1cbc55bcdef806a46331","null","null","<p style=""font-size: 60px; font-family: BACS"">aYQmGQYQ</p>","","","","","","","","",""
"html-keyboard-response","267","315732","0.0-14.0-0.16","5eaf1c50f3540c614eb973a5","650c16f0f2faf8d7a0d14c09","651c1cbc55bcdef806a46331","null","null","<p style=""font-size: 60px; font-family: BACS"">PlEKRdCc</p>","","","","","","","","",""
"html-keyboard-response","268","316733","0.0-14.0-0.17","5eaf1c50f3540c614eb973a5","650c16f0f2faf8d7a0d14c09","651c1cbc55bcdef806a46331","null","null","<p style=""font-size: 60px; font-family: BACS"">bROCYKPB</p>","","","","","","","","",""
"html-keyboard-response","269","317743","0.0-14.0-0.18","5eaf1c50f3540c614eb973a5","650c16f0f2faf8d7a0d14c09","651c1cbc55bcdef806a46331","null","null","<p style=""font-size: 60px; font-family: BACS"">GZJYGQYQ</p>","","","","","","","","",""
"html-keyboard-response","270","318753","0.0-14.0-0.19","5eaf1c50f3540c614eb973a5","650c16f0f2faf8d7a0d14c09","651c1cbc55bcdef806a46331","null","null","<p style=""font-size: 60px; font-family: BACS"">MhKdTAm</p>","","","","","","","","",""
"html-keyboard-response","271","319755","0.0-14.0-0.20","5eaf1c50f3540c614eb973a5","650c16f0f2faf8d7a0d14c09","651c1cbc55bcdef806a46331","null","null","<p style=""font-size: 60px; font-family: BACS"">PctRCRdCc</p>","","","","","","","","",""
"html-keyboard-response","272","320756","0.0-14.0-0.21","5eaf1c50f3540c614eb973a5","650c16f0f2faf8d7a0d14c09","651c1cbc55bcdef806a46331","null","null","<p style=""font-size: 60px; font-family: BACS"">dkLlOJlN</p>","","","","","","","","",""
"html-keyboard-response","273","321758","0.0-14.0-0.22","5eaf1c50f3540c614eb973a5","650c16f0f2faf8d7a0d14c09","651c1cbc55bcdef806a46331","null","null","<p style=""font-size: 60px; font-family: BACS"">LuaUGUa</p>","","","","","","","","",""
"html-keyboard-response","274","322760","0.0-14.0-0.23","5eaf1c50f3540c614eb973a5","650c16f0f2faf8d7a0d14c09","651c1cbc55bcdef806a46331","null","null","<p style=""font-size: 60px; font-family: BACS"">dkLlJcUk</p>","","","","","","","","",""
"html-keyboard-response","275","323761","0.0-14.0-0.24","5eaf1c50f3540c614eb973a5","650c16f0f2faf8d7a0d14c09","651c1cbc55bcdef806a46331","null","null","<p style=""font-size: 60px; font-family: BACS"">cRElDYKPB</p>","","","","","","","","",""
"html-keyboard-response","276","324762","0.0-14.0-0.25","5eaf1c50f3540c614eb973a5","650c16f0f2faf8d7a0d14c09","651c1cbc55bcdef806a46331","null","null","<p style=""font-size: 60px; font-family: BACS"">blMkTAm</p>","","","","","","","","",""
"html-keyboard-response","277","325763","0.0-14.0-0.26","5eaf1c50f3540c614eb973a5","650c16f0f2faf8d7a0d14c09","651c1cbc55bcdef806a46331","null","null","<p style=""font-size: 60px; font-family: BACS"">lcOcJcUk</p>","","","","","","","","",""
"html-keyboard-response","278","326773","0.0-14.0-0.27","5eaf1c50f3540c614eb973a5","650c16f0f2faf8d7a0d14c09","651c1cbc55bcdef806a46331","null","null","<p style=""font-size: 60px; font-family: BACS"">aOLZUrULv</p>","","","","","","","","",""
"html-keyboard-response","279","327774","0.0-14.0-0.28","5eaf1c50f3540c614eb973a5","650c16f0f2faf8d7a0d14c09","651c1cbc55bcdef806a46331","null","null","<p style=""font-size: 60px; font-family: BACS"">lBKtlRE</p>","","","","","","","","",""
"html-keyboard-response","280","328775","0.0-14.0-0.29","5eaf1c50f3540c614eb973a5","650c16f0f2faf8d7a0d14c09","651c1cbc55bcdef806a46331","null","null","<p style=""font-size: 60px; font-family: BACS"">aLNlkOJlN</p>","","","","","","","","",""
"html-keyboard-response","281","329776","0.0-14.0-0.30","5eaf1c50f3540c614eb973a5","650c16f0f2faf8d7a0d14c09","651c1cbc55bcdef806a46331","null","null","<p style=""font-size: 60px; font-family: BACS"">MhKdlRE</p>","","","","","","","","",""
"html-keyboard-response","282","330778","0.0-14.0-0.31","5eaf1c50f3540c614eb973a5","650c16f0f2faf8d7a0d14c09","651c1cbc55bcdef806a46331","null","null","<p style=""font-size: 60px; font-family: BACS"">lRCBRdCc</p>","","","","","","","","",""
"html-keyboard-response","283","331779","0.0-14.0-0.32","5eaf1c50f3540c614eb973a5","650c16f0f2faf8d7a0d14c09","651c1cbc55bcdef806a46331","null","null","<p style=""font-size: 60px; font-family: BACS"">PlEKTmc</p>","","","","","","","","",""
"html-keyboard-response","284","332781","0.0-14.0-0.33","5eaf1c50f3540c614eb973a5","650c16f0f2faf8d7a0d14c09","651c1cbc55bcdef806a46331","null","null","<p style=""font-size: 60px; font-family: BACS"">lcOcGQYQ</p>","","","","","","","","",""
"html-keyboard-response","285","333788","0.0-14.0-0.34","5eaf1c50f3540c614eb973a5","650c16f0f2faf8d7a0d14c09","651c1cbc55bcdef806a46331","null","null","<p style=""font-size: 60px; font-family: BACS"">aOLZUJcUk</p>","","","","","","","","",""
"html-keyboard-response","286","334803","0.0-14.0-0.35","5eaf1c50f3540c614eb973a5","650c16f0f2faf8d7a0d14c09","651c1cbc55bcdef806a46331","null","null","<p style=""font-size: 60px; font-family: BACS"">blMkRdCc</p>","","","","","","","","",""
"html-keyboard-response","287","335818","0.0-14.0-0.36","5eaf1c50f3540c614eb973a5","650c16f0f2faf8d7a0d14c09","651c1cbc55bcdef806a46331","null","null","<p style=""font-size: 60px; font-family: BACS"">NJZlGUa</p>","","","","","","","","",""
"html-keyboard-response","288","336831","0.0-14.0-0.37","5eaf1c50f3540c614eb973a5","650c16f0f2faf8d7a0d14c09","651c1cbc55bcdef806a46331","null","null","<p style=""font-size: 60px; font-family: BACS"">AZaJcOJlN</p>","","","","","","","","",""
"html-keyboard-response","289","337847","0.0-14.0-0.38","5eaf1c50f3540c614eb973a5","650c16f0f2faf8d7a0d14c09","651c1cbc55bcdef806a46331","null","null","<p style=""font-size: 60px; font-family: BACS"">KTDTBlRE</p>","","","","","","","","",""
"html-keyboard-response","290","338861","0.0-14.0-0.39","5eaf1c50f3540c614eb973a5","650c16f0f2faf8d7a0d14c09","651c1cbc55bcdef806a46331","null","null","<p style=""font-size: 60px; font-family: BACS"">blMkYKPB</p>","","","","","","","","",""
"html-keyboard-response","291","339862","0.0-14.0-0.40","5eaf1c50f3540c614eb973a5","650c16f0f2faf8d7a0d14c09","651c1cbc55bcdef806a46331","null","null","<p style=""font-size: 60px; font-family: BACS"">lBKtTAm</p>","","","","","","","","",""
"html-keyboard-response","292","340873","0.0-14.0-0.41","5eaf1c50f3540c614eb973a5","650c16f0f2faf8d7a0d14c09","651c1cbc55bcdef806a46331","null","null","<p style=""font-size: 60px; font-family: BACS"">LuaUrULv</p>","","","","","","","","",""
"html-keyboard-response","293","341884","0.0-14.0-0.42","5eaf1c50f3540c614eb973a5","650c16f0f2faf8d7a0d14c09","651c1cbc55bcdef806a46331","null","null","<p style=""font-size: 60px; font-family: BACS"">aOLZUGUa</p>","","","","","","","","",""
"html-keyboard-response","294","342886","0.0-14.0-0.43","5eaf1c50f3540c614eb973a5","650c16f0f2faf8d7a0d14c09","651c1cbc55bcdef806a46331","null","null","<p style=""font-size: 60px; font-family: BACS"">cRElDRdCc</p>","","","","","","","","",""
"html-keyboard-response","295","343887","0.0-14.0-0.44","5eaf1c50f3540c614eb973a5","650c16f0f2faf8d7a0d14c09","651c1cbc55bcdef806a46331","null","null","<p style=""font-size: 60px; font-family: BACS"">PctRCYKPB</p>","","","","","","","","",""
"html-keyboard-response","296","344900","0.0-14.0-0.45","5eaf1c50f3540c614eb973a5","650c16f0f2faf8d7a0d14c09","651c1cbc55bcdef806a46331","null","null","<p style=""font-size: 60px; font-family: BACS"">AZaJcGUa</p>","","","","","","","","",""
"html-keyboard-response","297","345911","0.0-14.0-0.46","5eaf1c50f3540c614eb973a5","650c16f0f2faf8d7a0d14c09","651c1cbc55bcdef806a46331","null","null","<p style=""font-size: 60px; font-family: BACS"">NJZlGQYQ</p>","","","","","","","","",""
"html-keyboard-response","298","346923","0.0-14.0-0.47","5eaf1c50f3540c614eb973a5","650c16f0f2faf8d7a0d14c09","651c1cbc55bcdef806a46331","null","null","<p style=""font-size: 60px; font-family: BACS"">LuaUJcUk</p>","","","","","","","","",""
"html-keyboard-response","299","347924","0.0-14.0-0.48","5eaf1c50f3540c614eb973a5","650c16f0f2faf8d7a0d14c09","651c1cbc55bcdef806a46331","null","null","<p style=""font-size: 60px; font-family: BACS"">bROCTmc</p>","","","","","","","","",""
"html-keyboard-response","300","348937","0.0-14.0-0.49","5eaf1c50f3540c614eb973a5","650c16f0f2faf8d7a0d14c09","651c1cbc55bcdef806a46331","null","null","<p style=""font-size: 60px; font-family: BACS"">MhKdRdCc</p>","","","","","","","","",""
"html-keyboard-response","301","349953","0.0-14.0-0.50","5eaf1c50f3540c614eb973a5","650c16f0f2faf8d7a0d14c09","651c1cbc55bcdef806a46331","null","null","<p style=""font-size: 60px; font-family: BACS"">lTmOTmc</p>","","","","","","","","",""
"html-keyboard-response","302","350955","0.0-14.0-0.51","5eaf1c50f3540c614eb973a5","650c16f0f2faf8d7a0d14c09","651c1cbc55bcdef806a46331","null","null","<p style=""font-size: 60px; font-family: BACS"">aOLZUOJlN</p>","","","","","","","","",""
"html-keyboard-response","303","351971","0.0-14.0-0.52","5eaf1c50f3540c614eb973a5","650c16f0f2faf8d7a0d14c09","651c1cbc55bcdef806a46331","null","null","<p style=""font-size: 60px; font-family: BACS"">GZJYJcUk</p>","","","","","","","","",""
"html-keyboard-response","304","352973","0.0-14.0-0.53","5eaf1c50f3540c614eb973a5","650c16f0f2faf8d7a0d14c09","651c1cbc55bcdef806a46331","null","null","<p style=""font-size: 60px; font-family: BACS"">PctRCTAm</p>","","","","","","","","",""
"html-keyboard-response","305","353981","0.0-14.0-0.54","5eaf1c50f3540c614eb973a5","650c16f0f2faf8d7a0d14c09","651c1cbc55bcdef806a46331","null","null","<p style=""font-size: 60px; font-family: BACS"">KTDTBTmc</p>","","","","","","","","",""
"html-keyboard-response","306","354982","0.0-14.0-0.55","5eaf1c50f3540c614eb973a5","650c16f0f2faf8d7a0d14c09","651c1cbc55bcdef806a46331","null","null","<p style=""font-size: 60px; font-family: BACS"">NJZlrULv</p>","","","","","","","","",""
"html-keyboard-response","307","355983","0.0-14.0-0.56","5eaf1c50f3540c614eb973a5","650c16f0f2faf8d7a0d14c09","651c1cbc55bcdef806a46331","null","null","<p style=""font-size: 60px; font-family: BACS"">PctRClRE</p>","","","","","","","","",""
"html-keyboard-response","308","356991","0.0-14.0-0.57","5eaf1c50f3540c614eb973a5","650c16f0f2faf8d7a0d14c09","651c1cbc55bcdef806a46331","null","null","<p style=""font-size: 60px; font-family: BACS"">LuaUGQYQ</p>","","","","","","","","",""
"html-keyboard-response","309","357993","0.0-14.0-0.58","5eaf1c50f3540c614eb973a5","650c16f0f2faf8d7a0d14c09","651c1cbc55bcdef806a46331","null","null","<p style=""font-size: 60px; font-family: BACS"">aYQmOJlN</p>","","","","","","","","",""
"html-keyboard-response","310","358994","0.0-14.0-0.59","5eaf1c50f3540c614eb973a5","650c16f0f2faf8d7a0d14c09","651c1cbc55bcdef806a46331","null","null","<p style=""font-size: 60px; font-family: BACS"">lBKtTmc</p>","","","","","","","","",""
"html-keyboard-response","311","359996","0.0-14.0-0.60","5eaf1c50f3540c614eb973a5","650c16f0f2faf8d7a0d14c09","651c1cbc55bcdef806a46331","null","null","<p style=""font-size: 60px; font-family: BACS"">lRCBlRE</p>","","","","","","","","",""
"html-keyboard-response","312","360997","0.0-14.0-0.61","5eaf1c50f3540c614eb973a5","650c16f0f2faf8d7a0d14c09","651c1cbc55bcdef806a46331","null","null","<p style=""font-size: 60px; font-family: BACS"">auYAkJcUk</p>","","","","","","","","",""
"html-keyboard-response","313","362004","0.0-14.0-0.62","5eaf1c50f3540c614eb973a5","650c16f0f2faf8d7a0d14c09","651c1cbc55bcdef806a46331","null","null","<p style=""font-size: 60px; font-family: BACS"">lTmORdCc</p>","","","","","","","","",""
"html-keyboard-response","314","363005","0.0-14.0-0.63","5eaf1c50f3540c614eb973a5","650c16f0f2faf8d7a0d14c09","651c1cbc55bcdef806a46331","null","null","<p style=""font-size: 60px; font-family: BACS"">auYAkGUa</p>","","","","","","","","",""
"html-keyboard-response","315","364006","0.0-14.0-0.64","5eaf1c50f3540c614eb973a5","650c16f0f2faf8d7a0d14c09","651c1cbc55bcdef806a46331","null","null","<p style=""font-size: 60px; font-family: BACS"">AZaJcJcUk</p>","","","","","","","","",""
"html-keyboard-response","316","365007","0.0-14.0-0.65","5eaf1c50f3540c614eb973a5","650c16f0f2faf8d7a0d14c09","651c1cbc55bcdef806a46331","null","null","<p style=""font-size: 60px; font-family: BACS"">GZJYOJlN</p>","","","","","","","","",""
"html-keyboard-response","317","366008","0.0-14.0-0.66","5eaf1c50f3540c614eb973a5","650c16f0f2faf8d7a0d14c09","651c1cbc55bcdef806a46331","null","null","<p style=""font-size: 60px; font-family: BACS"">PlEKYKPB</p>","","","","","","","","",""
"html-keyboard-response","318","367010","0.0-14.0-0.67","5eaf1c50f3540c614eb973a5","650c16f0f2faf8d7a0d14c09","651c1cbc55bcdef806a46331","null","null","<p style=""font-size: 60px; font-family: BACS"">blMklRE</p>","","","","","","","","",""
"html-keyboard-response","319","368014","0.0-14.0-0.68","5eaf1c50f3540c614eb973a5","650c16f0f2faf8d7a0d14c09","651c1cbc55bcdef806a46331","null","null","<p style=""font-size: 60px; font-family: BACS"">lcOcOJlN</p>","","","","","","","","",""
"html-keyboard-response","320","369015","0.0-14.0-0.69","5eaf1c50f3540c614eb973a5","650c16f0f2faf8d7a0d14c09","651c1cbc55bcdef806a46331","null","null","<p style=""font-size: 60px; font-family: BACS"">aLNlkGUa</p>","","","","","","","","",""
"html-keyboard-response","321","370016","0.0-14.0-0.70","5eaf1c50f3540c614eb973a5","650c16f0f2faf8d7a0d14c09","651c1cbc55bcdef806a46331","null","null","<p style=""font-size: 60px; font-family: BACS"">lRCBYKPB</p>","","","","","","","","",""
"html-keyboard-response","322","371030","0.0-14.0-0.71","5eaf1c50f3540c614eb973a5","650c16f0f2faf8d7a0d14c09","651c1cbc55bcdef806a46331","null","null","<p style=""font-size: 60px; font-family: BACS"">auYAkGQYQ</p>","","","","","","","","",""
"html-keyboard-response","323","372031","0.0-14.0-0.72","5eaf1c50f3540c614eb973a5","650c16f0f2faf8d7a0d14c09","651c1cbc55bcdef806a46331","null","null","<p style=""font-size: 60px; font-family: BACS"">NJZlOJlN</p>","","","","","","","","",""
"html-keyboard-response","324","373032","0.0-14.0-0.73","5eaf1c50f3540c614eb973a5","650c16f0f2faf8d7a0d14c09","651c1cbc55bcdef806a46331","null","null","<p style=""font-size: 60px; font-family: BACS"">lBKtYKPB</p>","","","","","","","","",""
"html-keyboard-response","325","374033","0.0-14.0-0.74","5eaf1c50f3540c614eb973a5","650c16f0f2faf8d7a0d14c09","651c1cbc55bcdef806a46331","null","null","<p style=""font-size: 60px; font-family: BACS"">aLNlkGQYQ</p>","","","","","","","","",""
"html-keyboard-response","326","375035","0.0-14.0-0.75","5eaf1c50f3540c614eb973a5","650c16f0f2faf8d7a0d14c09","651c1cbc55bcdef806a46331","null","null","<p style=""font-size: 60px; font-family: BACS"">dkLlrULv</p>","","","","","","","","",""
"html-keyboard-response","327","376037","0.0-14.0-0.76","5eaf1c50f3540c614eb973a5","650c16f0f2faf8d7a0d14c09","651c1cbc55bcdef806a46331","null","null","<p style=""font-size: 60px; font-family: BACS"">cRElDTmc</p>","","","","","","","","",""
"html-keyboard-response","328","377038","0.0-14.0-0.77","5eaf1c50f3540c614eb973a5","650c16f0f2faf8d7a0d14c09","651c1cbc55bcdef806a46331","null","null","<p style=""font-size: 60px; font-family: BACS"">bROCTAm</p>","","","","","","","","",""
"html-keyboard-response","329","378050","0.0-14.0-0.78","5eaf1c50f3540c614eb973a5","650c16f0f2faf8d7a0d14c09","651c1cbc55bcdef806a46331","null","null","<p style=""font-size: 60px; font-family: BACS"">GZJYrULv</p>","","","","","","","","",""
"html-keyboard-response","330","379051","0.0-14.0-0.79","5eaf1c50f3540c614eb973a5","650c16f0f2faf8d7a0d14c09","651c1cbc55bcdef806a46331","null","null","<p style=""font-size: 60px; font-family: BACS"">MhKdTmc</p>","","","","","","","","",""
"html-keyboard-response","331","380357","0.0-15.0","5eaf1c50f3540c614eb973a5","650c16f0f2faf8d7a0d14c09","651c1cbc55bcdef806a46331","1305"," ","<p>Great, you've seen the fourth block of words. You may now take a short break.</p>
      <p>Press the spacebar when you're ready to continue.</p>","","","","","","","","",""
"html-keyboard-response","332","381358","0.0-16.0-0.0","5eaf1c50f3540c614eb973a5","650c16f0f2faf8d7a0d14c09","651c1cbc55bcdef806a46331","null","null","<p style=""font-size: 60px; font-family: BACS"">cRElDTmc</p>","","","","","","","","",""
"html-keyboard-response","333","382359","0.0-16.0-0.1","5eaf1c50f3540c614eb973a5","650c16f0f2faf8d7a0d14c09","651c1cbc55bcdef806a46331","null","null","<p style=""font-size: 60px; font-family: BACS"">cRElDTmc</p>","","","","","","","","",""
"html-keyboard-response","334","383374","0.0-16.0-0.2","5eaf1c50f3540c614eb973a5","650c16f0f2faf8d7a0d14c09","651c1cbc55bcdef806a46331","null","null","<p style=""font-size: 60px; font-family: BACS"">cRElDTmc</p>","","","","","","","","",""
"html-keyboard-response","335","384375","0.0-16.0-0.3","5eaf1c50f3540c614eb973a5","650c16f0f2faf8d7a0d14c09","651c1cbc55bcdef806a46331","null","null","<p style=""font-size: 60px; font-family: BACS"">cRElDTmc</p>","","","","","","","","",""
"html-keyboard-response","336","385377","0.0-16.0-0.4","5eaf1c50f3540c614eb973a5","650c16f0f2faf8d7a0d14c09","651c1cbc55bcdef806a46331","null","null","<p style=""font-size: 60px; font-family: BACS"">cRElDTmc</p>","","","","","","","","",""
"html-keyboard-response","337","386392","0.0-16.0-0.5","5eaf1c50f3540c614eb973a5","650c16f0f2faf8d7a0d14c09","651c1cbc55bcdef806a46331","null","null","<p style=""font-size: 60px; font-family: BACS"">cRElDTmc</p>","","","","","","","","",""
"html-keyboard-response","338","387394","0.0-16.0-0.6","5eaf1c50f3540c614eb973a5","650c16f0f2faf8d7a0d14c09","651c1cbc55bcdef806a46331","null","null","<p style=""font-size: 60px; font-family: BACS"">cRElDTmc</p>","","","","","","","","",""
"html-keyboard-response","339","388395","0.0-16.0-0.7","5eaf1c50f3540c614eb973a5","650c16f0f2faf8d7a0d14c09","651c1cbc55bcdef806a46331","null","null","<p style=""font-size: 60px; font-family: BACS"">cRElDTmc</p>","","","","","","","","",""
"html-keyboard-response","340","389396","0.0-16.0-0.8","5eaf1c50f3540c614eb973a5","650c16f0f2faf8d7a0d14c09","651c1cbc55bcdef806a46331","null","null","<p style=""font-size: 60px; font-family: BACS"">cRElDTmc</p>","","","","","","","","",""
"html-keyboard-response","341","390402","0.0-16.0-0.9","5eaf1c50f3540c614eb973a5","650c16f0f2faf8d7a0d14c09","651c1cbc55bcdef806a46331","null","null","<p style=""font-size: 60px; font-family: BACS"">cRElDTmc</p>","","","","","","","","",""
"html-keyboard-response","342","391404","0.0-16.0-0.10","5eaf1c50f3540c614eb973a5","650c16f0f2faf8d7a0d14c09","651c1cbc55bcdef806a46331","null","null","<p style=""font-size: 60px; font-family: BACS"">cRElDTmc</p>","","","","","","","","",""
"html-keyboard-response","343","392405","0.0-16.0-0.11","5eaf1c50f3540c614eb973a5","650c16f0f2faf8d7a0d14c09","651c1cbc55bcdef806a46331","null","null","<p style=""font-size: 60px; font-family: BACS"">cRElDTmc</p>","","","","","","","","",""
"html-keyboard-response","344","393406","0.0-16.0-0.12","5eaf1c50f3540c614eb973a5","650c16f0f2faf8d7a0d14c09","651c1cbc55bcdef806a46331","null","null","<p style=""font-size: 60px; font-family: BACS"">cRElDTmc</p>","","","","","","","","",""
"html-keyboard-response","345","394407","0.0-16.0-0.13","5eaf1c50f3540c614eb973a5","650c16f0f2faf8d7a0d14c09","651c1cbc55bcdef806a46331","null","null","<p style=""font-size: 60px; font-family: BACS"">cRElDTmc</p>","","","","","","","","",""
"html-keyboard-response","346","395409","0.0-16.0-0.14","5eaf1c50f3540c614eb973a5","650c16f0f2faf8d7a0d14c09","651c1cbc55bcdef806a46331","null","null","<p style=""font-size: 60px; font-family: BACS"">cRElDTmc</p>","","","","","","","","",""
"html-keyboard-response","347","396416","0.0-16.0-0.15","5eaf1c50f3540c614eb973a5","650c16f0f2faf8d7a0d14c09","651c1cbc55bcdef806a46331","null","null","<p style=""font-size: 60px; font-family: BACS"">cRElDTmc</p>","","","","","","","","",""
"html-keyboard-response","348","397417","0.0-16.0-0.16","5eaf1c50f3540c614eb973a5","650c16f0f2faf8d7a0d14c09","651c1cbc55bcdef806a46331","null","null","<p style=""font-size: 60px; font-family: BACS"">cRElDTmc</p>","","","","","","","","",""
"html-keyboard-response","349","398418","0.0-16.0-0.17","5eaf1c50f3540c614eb973a5","650c16f0f2faf8d7a0d14c09","651c1cbc55bcdef806a46331","null","null","<p style=""font-size: 60px; font-family: BACS"">cRElDTmc</p>","","","","","","","","",""
"html-keyboard-response","350","399419","0.0-16.0-0.18","5eaf1c50f3540c614eb973a5","650c16f0f2faf8d7a0d14c09","651c1cbc55bcdef806a46331","null","null","<p style=""font-size: 60px; font-family: BACS"">cRElDTmc</p>","","","","","","","","",""
"html-keyboard-response","351","400421","0.0-16.0-0.19","5eaf1c50f3540c614eb973a5","650c16f0f2faf8d7a0d14c09","651c1cbc55bcdef806a46331","null","null","<p style=""font-size: 60px; font-family: BACS"">cRElDTmc</p>","","","","","","","","",""
"html-keyboard-response","352","401434","0.0-16.0-0.20","5eaf1c50f3540c614eb973a5","650c16f0f2faf8d7a0d14c09","651c1cbc55bcdef806a46331","null","null","<p style=""font-size: 60px; font-family: BACS"">cRElDTmc</p>","","","","","","","","",""
"html-keyboard-response","353","402445","0.0-16.0-0.21","5eaf1c50f3540c614eb973a5","650c16f0f2faf8d7a0d14c09","651c1cbc55bcdef806a46331","null","null","<p style=""font-size: 60px; font-family: BACS"">cRElDTmc</p>","","","","","","","","",""
"html-keyboard-response","354","403446","0.0-16.0-0.22","5eaf1c50f3540c614eb973a5","650c16f0f2faf8d7a0d14c09","651c1cbc55bcdef806a46331","null","null","<p style=""font-size: 60px; font-family: BACS"">cRElDTmc</p>","","","","","","","","",""
"html-keyboard-response","355","404447","0.0-16.0-0.23","5eaf1c50f3540c614eb973a5","650c16f0f2faf8d7a0d14c09","651c1cbc55bcdef806a46331","null","null","<p style=""font-size: 60px; font-family: BACS"">cRElDTmc</p>","","","","","","","","",""
"html-keyboard-response","356","405456","0.0-16.0-0.24","5eaf1c50f3540c614eb973a5","650c16f0f2faf8d7a0d14c09","651c1cbc55bcdef806a46331","null","null","<p style=""font-size: 60px; font-family: BACS"">cRElDTmc</p>","","","","","","","","",""
"html-keyboard-response","357","406457","0.0-16.0-0.25","5eaf1c50f3540c614eb973a5","650c16f0f2faf8d7a0d14c09","651c1cbc55bcdef806a46331","null","null","<p style=""font-size: 60px; font-family: BACS"">cRElDTmc</p>","","","","","","","","",""
"html-keyboard-response","358","407462","0.0-16.0-0.26","5eaf1c50f3540c614eb973a5","650c16f0f2faf8d7a0d14c09","651c1cbc55bcdef806a46331","null","null","<p style=""font-size: 60px; font-family: BACS"">cRElDTmc</p>","","","","","","","","",""
"html-keyboard-response","359","408463","0.0-16.0-0.27","5eaf1c50f3540c614eb973a5","650c16f0f2faf8d7a0d14c09","651c1cbc55bcdef806a46331","null","null","<p style=""font-size: 60px; font-family: BACS"">cRElDTmc</p>","","","","","","","","",""
"html-keyboard-response","360","409475","0.0-16.0-0.28","5eaf1c50f3540c614eb973a5","650c16f0f2faf8d7a0d14c09","651c1cbc55bcdef806a46331","null","null","<p style=""font-size: 60px; font-family: BACS"">cRElDTmc</p>","","","","","","","","",""
"html-keyboard-response","361","410489","0.0-16.0-0.29","5eaf1c50f3540c614eb973a5","650c16f0f2faf8d7a0d14c09","651c1cbc55bcdef806a46331","null","null","<p style=""font-size: 60px; font-family: BACS"">cRElDTmc</p>","","","","","","","","",""
"html-keyboard-response","362","411490","0.0-16.0-0.30","5eaf1c50f3540c614eb973a5","650c16f0f2faf8d7a0d14c09","651c1cbc55bcdef806a46331","null","null","<p style=""font-size: 60px; font-family: BACS"">cRElDTmc</p>","","","","","","","","",""
"html-keyboard-response","363","412499","0.0-16.0-0.31","5eaf1c50f3540c614eb973a5","650c16f0f2faf8d7a0d14c09","651c1cbc55bcdef806a46331","null","null","<p style=""font-size: 60px; font-family: BACS"">cRElDTmc</p>","","","","","","","","",""
"html-keyboard-response","364","413512","0.0-16.0-0.32","5eaf1c50f3540c614eb973a5","650c16f0f2faf8d7a0d14c09","651c1cbc55bcdef806a46331","null","null","<p style=""font-size: 60px; font-family: BACS"">cRElDTmc</p>","","","","","","","","",""
"html-keyboard-response","365","414525","0.0-16.0-0.33","5eaf1c50f3540c614eb973a5","650c16f0f2faf8d7a0d14c09","651c1cbc55bcdef806a46331","null","null","<p style=""font-size: 60px; font-family: BACS"">cRElDTmc</p>","","","","","","","","",""
"html-keyboard-response","366","415539","0.0-16.0-0.34","5eaf1c50f3540c614eb973a5","650c16f0f2faf8d7a0d14c09","651c1cbc55bcdef806a46331","null","null","<p style=""font-size: 60px; font-family: BACS"">cRElDTmc</p>","","","","","","","","",""
"html-keyboard-response","367","416554","0.0-16.0-0.35","5eaf1c50f3540c614eb973a5","650c16f0f2faf8d7a0d14c09","651c1cbc55bcdef806a46331","null","null","<p style=""font-size: 60px; font-family: BACS"">cRElDTmc</p>","","","","","","","","",""
"html-keyboard-response","368","417556","0.0-16.0-0.36","5eaf1c50f3540c614eb973a5","650c16f0f2faf8d7a0d14c09","651c1cbc55bcdef806a46331","null","null","<p style=""font-size: 60px; font-family: BACS"">cRElDTmc</p>","","","","","","","","",""
"html-keyboard-response","369","418558","0.0-16.0-0.37","5eaf1c50f3540c614eb973a5","650c16f0f2faf8d7a0d14c09","651c1cbc55bcdef806a46331","null","null","<p style=""font-size: 60px; font-family: BACS"">cRElDTmc</p>","","","","","","","","",""
"html-keyboard-response","370","419560","0.0-16.0-0.38","5eaf1c50f3540c614eb973a5","650c16f0f2faf8d7a0d14c09","651c1cbc55bcdef806a46331","null","null","<p style=""font-size: 60px; font-family: BACS"">cRElDTmc</p>","","","","","","","","",""
"html-keyboard-response","371","420573","0.0-16.0-0.39","5eaf1c50f3540c614eb973a5","650c16f0f2faf8d7a0d14c09","651c1cbc55bcdef806a46331","null","null","<p style=""font-size: 60px; font-family: BACS"">cRElDTmc</p>","","","","","","","","",""
"html-keyboard-response","372","421574","0.0-16.0-0.40","5eaf1c50f3540c614eb973a5","650c16f0f2faf8d7a0d14c09","651c1cbc55bcdef806a46331","null","null","<p style=""font-size: 60px; font-family: BACS"">cRElDTmc</p>","","","","","","","","",""
"html-keyboard-response","373","422587","0.0-16.0-0.41","5eaf1c50f3540c614eb973a5","650c16f0f2faf8d7a0d14c09","651c1cbc55bcdef806a46331","null","null","<p style=""font-size: 60px; font-family: BACS"">cRElDTmc</p>","","","","","","","","",""
"html-keyboard-response","374","423602","0.0-16.0-0.42","5eaf1c50f3540c614eb973a5","650c16f0f2faf8d7a0d14c09","651c1cbc55bcdef806a46331","null","null","<p style=""font-size: 60px; font-family: BACS"">cRElDTmc</p>","","","","","","","","",""
"html-keyboard-response","375","424604","0.0-16.0-0.43","5eaf1c50f3540c614eb973a5","650c16f0f2faf8d7a0d14c09","651c1cbc55bcdef806a46331","null","null","<p style=""font-size: 60px; font-family: BACS"">cRElDTmc</p>","","","","","","","","",""
"html-keyboard-response","376","425605","0.0-16.0-0.44","5eaf1c50f3540c614eb973a5","650c16f0f2faf8d7a0d14c09","651c1cbc55bcdef806a46331","null","null","<p style=""font-size: 60px; font-family: BACS"">cRElDTmc</p>","","","","","","","","",""
"html-keyboard-response","377","426606","0.0-16.0-0.45","5eaf1c50f3540c614eb973a5","650c16f0f2faf8d7a0d14c09","651c1cbc55bcdef806a46331","null","null","<p style=""font-size: 60px; font-family: BACS"">cRElDTmc</p>","","","","","","","","",""
"html-keyboard-response","378","427608","0.0-16.0-0.46","5eaf1c50f3540c614eb973a5","650c16f0f2faf8d7a0d14c09","651c1cbc55bcdef806a46331","null","null","<p style=""font-size: 60px; font-family: BACS"">cRElDTmc</p>","","","","","","","","",""
"html-keyboard-response","379","428611","0.0-16.0-0.47","5eaf1c50f3540c614eb973a5","650c16f0f2faf8d7a0d14c09","651c1cbc55bcdef806a46331","null","null","<p style=""font-size: 60px; font-family: BACS"">cRElDTmc</p>","","","","","","","","",""
"html-keyboard-response","380","429612","0.0-16.0-0.48","5eaf1c50f3540c614eb973a5","650c16f0f2faf8d7a0d14c09","651c1cbc55bcdef806a46331","null","null","<p style=""font-size: 60px; font-family: BACS"">cRElDTmc</p>","","","","","","","","",""
"html-keyboard-response","381","430624","0.0-16.0-0.49","5eaf1c50f3540c614eb973a5","650c16f0f2faf8d7a0d14c09","651c1cbc55bcdef806a46331","null","null","<p style=""font-size: 60px; font-family: BACS"">cRElDTmc</p>","","","","","","","","",""
"html-keyboard-response","382","431625","0.0-16.0-0.50","5eaf1c50f3540c614eb973a5","650c16f0f2faf8d7a0d14c09","651c1cbc55bcdef806a46331","null","null","<p style=""font-size: 60px; font-family: BACS"">cRElDTmc</p>","","","","","","","","",""
"html-keyboard-response","383","432626","0.0-16.0-0.51","5eaf1c50f3540c614eb973a5","650c16f0f2faf8d7a0d14c09","651c1cbc55bcdef806a46331","null","null","<p style=""font-size: 60px; font-family: BACS"">cRElDTmc</p>","","","","","","","","",""
"html-keyboard-response","384","433627","0.0-16.0-0.52","5eaf1c50f3540c614eb973a5","650c16f0f2faf8d7a0d14c09","651c1cbc55bcdef806a46331","null","null","<p style=""font-size: 60px; font-family: BACS"">cRElDTmc</p>","","","","","","","","",""
"html-keyboard-response","385","434636","0.0-16.0-0.53","5eaf1c50f3540c614eb973a5","650c16f0f2faf8d7a0d14c09","651c1cbc55bcdef806a46331","null","null","<p style=""font-size: 60px; font-family: BACS"">cRElDTmc</p>","","","","","","","","",""
"html-keyboard-response","386","435652","0.0-16.0-0.54","5eaf1c50f3540c614eb973a5","650c16f0f2faf8d7a0d14c09","651c1cbc55bcdef806a46331","null","null","<p style=""font-size: 60px; font-family: BACS"">cRElDTmc</p>","","","","","","","","",""
"html-keyboard-response","387","436653","0.0-16.0-0.55","5eaf1c50f3540c614eb973a5","650c16f0f2faf8d7a0d14c09","651c1cbc55bcdef806a46331","null","null","<p style=""font-size: 60px; font-family: BACS"">cRElDTmc</p>","","","","","","","","",""
"html-keyboard-response","388","437663","0.0-16.0-0.56","5eaf1c50f3540c614eb973a5","650c16f0f2faf8d7a0d14c09","651c1cbc55bcdef806a46331","null","null","<p style=""font-size: 60px; font-family: BACS"">cRElDTmc</p>","","","","","","","","",""
"html-keyboard-response","389","438665","0.0-16.0-0.57","5eaf1c50f3540c614eb973a5","650c16f0f2faf8d7a0d14c09","651c1cbc55bcdef806a46331","null","null","<p style=""font-size: 60px; font-family: BACS"">cRElDTmc</p>","","","","","","","","",""
"html-keyboard-response","390","439672","0.0-16.0-0.58","5eaf1c50f3540c614eb973a5","650c16f0f2faf8d7a0d14c09","651c1cbc55bcdef806a46331","null","null","<p style=""font-size: 60px; font-family: BACS"">cRElDTmc</p>","","","","","","","","",""
"html-keyboard-response","391","440688","0.0-16.0-0.59","5eaf1c50f3540c614eb973a5","650c16f0f2faf8d7a0d14c09","651c1cbc55bcdef806a46331","null","null","<p style=""font-size: 60px; font-family: BACS"">cRElDTmc</p>","","","","","","","","",""
"html-keyboard-response","392","441697","0.0-16.0-0.60","5eaf1c50f3540c614eb973a5","650c16f0f2faf8d7a0d14c09","651c1cbc55bcdef806a46331","null","null","<p style=""font-size: 60px; font-family: BACS"">cRElDTmc</p>","","","","","","","","",""
"html-keyboard-response","393","442709","0.0-16.0-0.61","5eaf1c50f3540c614eb973a5","650c16f0f2faf8d7a0d14c09","651c1cbc55bcdef806a46331","null","null","<p style=""font-size: 60px; font-family: BACS"">cRElDTmc</p>","","","","","","","","",""
"html-keyboard-response","394","443710","0.0-16.0-0.62","5eaf1c50f3540c614eb973a5","650c16f0f2faf8d7a0d14c09","651c1cbc55bcdef806a46331","null","null","<p style=""font-size: 60px; font-family: BACS"">cRElDTmc</p>","","","","","","","","",""
"html-keyboard-response","395","444726","0.0-16.0-0.63","5eaf1c50f3540c614eb973a5","650c16f0f2faf8d7a0d14c09","651c1cbc55bcdef806a46331","null","null","<p style=""font-size: 60px; font-family: BACS"">cRElDTmc</p>","","","","","","","","",""
"html-keyboard-response","396","445737","0.0-16.0-0.64","5eaf1c50f3540c614eb973a5","650c16f0f2faf8d7a0d14c09","651c1cbc55bcdef806a46331","null","null","<p style=""font-size: 60px; font-family: BACS"">cRElDTmc</p>","","","","","","","","",""
"html-keyboard-response","397","446752","0.0-16.0-0.65","5eaf1c50f3540c614eb973a5","650c16f0f2faf8d7a0d14c09","651c1cbc55bcdef806a46331","null","null","<p style=""font-size: 60px; font-family: BACS"">cRElDTmc</p>","","","","","","","","",""
"html-keyboard-response","398","447754","0.0-16.0-0.66","5eaf1c50f3540c614eb973a5","650c16f0f2faf8d7a0d14c09","651c1cbc55bcdef806a46331","null","null","<p style=""font-size: 60px; font-family: BACS"">cRElDTmc</p>","","","","","","","","",""
