"trial_type","trial_index","time_elapsed","internal_node_id","subject_id","study_id","session_id","rt","response","stimulus","success","item","task","correct_response","testing_condition","correct","target","confound","name"
"pavlovia","0","529","0.0-0.0","5b213220809d160001a2c36d","650c16f0f2faf8d7a0d14c09","651c1c70f89f19184fe3b578","","","","","","","","","","","",""
"survey-html-form","1","14779","0.0-1.0","5b213220809d160001a2c36d","650c16f0f2faf8d7a0d14c09","651c1c70f89f19184fe3b578","14247","{""ID"":""5b213220809d160001a2c36d""}","","","","","","","","","",""
"html-keyboard-response","2","16514","0.0-2.0","5b213220809d160001a2c36d","650c16f0f2faf8d7a0d14c09","651c1c70f89f19184fe3b578","1732"," ","<p style=""font-size: 15px;"">Before beginning, we ask that you read the consent information and confirm your agreement to participate in the experiment.</p>
      <p style=""font-size: 15px;""> We ask that you remember that this is a research project and that your participation is entirely voluntary. You can stop your participation at any time, without needing to provide any explanation. The study we're asking you to participate in aims at examining how readers process written words. You will be engaged in a session of apprximately 20 minutes, followed by a brief questionnaire. You will have the opportunity to take a few breaks during the experiment. You will be paid £4 for your participation, corresponding to a rate of £8/hour. While this experiment looks at cognitive faculties, this experiment doesn't constitute clinical proof of eventual pathologies.</p>
      <p style=""font-size: 15px;"">All of the information collected thanks to yours and others' participation will be held in a secure password-protected server, and will not be shared with anyone not authorised to view it. Your personal information will be kept with an arbitrary participant ID. Thanks to this data anonymity process, any researcher analysing the data won't be able to track the information back to a specific participant. Therefore, this process will make identifying you impossibile, even when results from the study will be published in scientific reviews, presented at congresses, or at any other public forum. More generally, the collected data will be treated in accordance with the laws on privacy and conformity to the Legislative Degree n. 196 ""Code regarding the protection of personal data"" of the 30th of June 2003 and to the European Regulation 2016/670 (General Data Protection Regulation - GDPR). The Data Protection Officer is Avv. Valentina Carollo, who can be contacted at the following email addresses: <a href=""mailto:dpo@sissa.it"">dpo@sissa.it</a> or <a href=""mailto:rpd@sissa.it"">rpd@sissa.it</a> - PEC: <a href=""mailto:protocollo@pec.sissa.it"">protocollo@pec.sissa.it</a>.</p>
      <p style=""font-size: 15px;""> Before expressing your consent to participate, we would like to remind you again that in case you need explanations on any aspect of the experimental procedure, the researcher is at your disposition (<a href=""mailto:aliebelt@sissa.it"">aliebelt@sissa.it</a>, <a href=""mailto:davide.crepaldi@sissa.it"">davide.crepaldi@sissa.it</a>).</p>
      <p style=""font-size: 15px;"">If you would like to download the informed consent form, you can do so here: <a href=""BASL-Informed_Consent.pdf"" download>informed consent form</a>.</p>
      <p style=""font-size: 15px;"">We ask that you press the spacebar to proceed to the consent section.</p>","","","","","","","","",""
"survey-html-form","3","21892","0.0-3.0","5b213220809d160001a2c36d","650c16f0f2faf8d7a0d14c09","651c1c70f89f19184fe3b578","5375","{""consent1"":""YES"",""consent2"":""YES"",""consent3"":""YES"",""consent4"":""YES"",""consent5"":""YES"",""consent6"":""YES""}","","","","","","","","","",""
"fullscreen","4","24199","0.0-4.0","5b213220809d160001a2c36d","650c16f0f2faf8d7a0d14c09","651c1c70f89f19184fe3b578","","","","true","","","","","","","",""
"html-keyboard-response","5","37434","0.0-5.0","5b213220809d160001a2c36d","650c16f0f2faf8d7a0d14c09","651c1c70f89f19184fe3b578","13231"," ","<p>Welcome, and thank you very much for your time!</p>
      <p>In this experiment, you'll be a language expert who's been asked to take a look at words that Earth has received in its first communication with aliens. Your task, in this first part of the experiment, is to pay close attention to the words you'll be shown; later, world leaders will ask you questions on what you saw. The words will be shown to you quite quickly; it seems that the aliens were in a hurry :-)</p>
      <p>Press the spacebar to continue.<p>","","","","","","","","",""
"html-keyboard-response","6","37486","0.0-6.0","5b213220809d160001a2c36d","650c16f0f2faf8d7a0d14c09","651c1c70f89f19184fe3b578","null","null","<p style=""font-size: 120px; font-family: BACS""> </p>","","","","","","","","",""
"html-keyboard-response","7","40969","0.0-7.0","5b213220809d160001a2c36d","650c16f0f2faf8d7a0d14c09","651c1c70f89f19184fe3b578","3480"," ","<p>Here is an example of the words you'll see:</p>
      <img src='esempio.png' height='400px'>
      <p>When you're ready to begin, press the spacebar.</p></div>","","","","","","","","",""
"html-keyboard-response","8","41971","0.0-8.0-0.0","5b213220809d160001a2c36d","650c16f0f2faf8d7a0d14c09","651c1c70f89f19184fe3b578","null","null","<p style=""font-size: 60px; font-family: BACS"">EltMBOtM</p>","","","","","","","","",""
"html-keyboard-response","9","42972","0.0-8.0-0.1","5b213220809d160001a2c36d","650c16f0f2faf8d7a0d14c09","651c1c70f89f19184fe3b578","null","null","<p style=""font-size: 60px; font-family: BACS"">AMkCdRA</p>","","","","","","","","",""
"html-keyboard-response","10","43974","0.0-8.0-0.2","5b213220809d160001a2c36d","650c16f0f2faf8d7a0d14c09","651c1c70f89f19184fe3b578","null","null","<p style=""font-size: 60px; font-family: BACS"">OEPkmtKP</p>","","","","","","","","",""
"html-keyboard-response","11","44976","0.0-8.0-0.3","5b213220809d160001a2c36d","650c16f0f2faf8d7a0d14c09","651c1c70f89f19184fe3b578","null","null","<p style=""font-size: 60px; font-family: BACS"">lcOcrab</p>","","","","","","","","",""
"html-keyboard-response","12","45977","0.0-8.0-0.4","5b213220809d160001a2c36d","650c16f0f2faf8d7a0d14c09","651c1c70f89f19184fe3b578","null","null","<p style=""font-size: 60px; font-family: BACS"">cBROBOBT</p>","","","","","","","","",""
"html-keyboard-response","13","46980","0.0-8.0-0.5","5b213220809d160001a2c36d","650c16f0f2faf8d7a0d14c09","651c1c70f89f19184fe3b578","null","null","<p style=""font-size: 60px; font-family: BACS"">dRhtmtKP</p>","","","","","","","","",""
"html-keyboard-response","14","47981","0.0-8.0-0.6","5b213220809d160001a2c36d","650c16f0f2faf8d7a0d14c09","651c1c70f89f19184fe3b578","null","null","<p style=""font-size: 60px; font-family: BACS"">LdQvdUr</p>","","","","","","","","",""
"html-keyboard-response","15","48983","0.0-8.0-0.7","5b213220809d160001a2c36d","650c16f0f2faf8d7a0d14c09","651c1c70f89f19184fe3b578","null","null","<p style=""font-size: 60px; font-family: BACS"">AZaJcrab</p>","","","","","","","","",""
"html-keyboard-response","16","49984","0.0-8.0-0.8","5b213220809d160001a2c36d","650c16f0f2faf8d7a0d14c09","651c1c70f89f19184fe3b578","null","null","<p style=""font-size: 60px; font-family: BACS"">BMEMAdRA</p>","","","","","","","","",""
"html-keyboard-response","17","50984","0.0-8.0-0.9","5b213220809d160001a2c36d","650c16f0f2faf8d7a0d14c09","651c1c70f89f19184fe3b578","null","null","<p style=""font-size: 60px; font-family: BACS"">DcPTcmtKP</p>","","","","","","","","",""
"html-keyboard-response","18","51986","0.0-8.0-0.10","5b213220809d160001a2c36d","650c16f0f2faf8d7a0d14c09","651c1c70f89f19184fe3b578","null","null","<p style=""font-size: 60px; font-family: BACS"">AMkCOtM</p>","","","","","","","","",""
"html-keyboard-response","19","52987","0.0-8.0-0.11","5b213220809d160001a2c36d","650c16f0f2faf8d7a0d14c09","651c1c70f89f19184fe3b578","null","null","<p style=""font-size: 60px; font-family: BACS"">AZaJcdUr</p>","","","","","","","","",""
"html-keyboard-response","20","53989","0.0-8.0-0.12","5b213220809d160001a2c36d","650c16f0f2faf8d7a0d14c09","651c1c70f89f19184fe3b578","null","null","<p style=""font-size: 60px; font-family: BACS"">bYGOZrGl</p>","","","","","","","","",""
"html-keyboard-response","21","54990","0.0-8.0-0.13","5b213220809d160001a2c36d","650c16f0f2faf8d7a0d14c09","651c1c70f89f19184fe3b578","null","null","<p style=""font-size: 60px; font-family: BACS"">YJLcAdUr</p>","","","","","","","","",""
"html-keyboard-response","22","55991","0.0-8.0-0.14","5b213220809d160001a2c36d","650c16f0f2faf8d7a0d14c09","651c1c70f89f19184fe3b578","null","null","<p style=""font-size: 60px; font-family: BACS"">OEPkdRA</p>","","","","","","","","",""
"html-keyboard-response","23","56993","0.0-8.0-0.15","5b213220809d160001a2c36d","650c16f0f2faf8d7a0d14c09","651c1c70f89f19184fe3b578","null","null","<p style=""font-size: 60px; font-family: BACS"">UYZlZdUr</p>","","","","","","","","",""
"html-keyboard-response","24","57994","0.0-8.0-0.16","5b213220809d160001a2c36d","650c16f0f2faf8d7a0d14c09","651c1c70f89f19184fe3b578","null","null","<p style=""font-size: 60px; font-family: BACS"">QcQAJrGl</p>","","","","","","","","",""
"html-keyboard-response","25","58996","0.0-8.0-0.17","5b213220809d160001a2c36d","650c16f0f2faf8d7a0d14c09","651c1c70f89f19184fe3b578","null","null","<p style=""font-size: 60px; font-family: BACS"">EltMBOBT</p>","","","","","","","","",""
"html-keyboard-response","26","59998","0.0-8.0-0.18","5b213220809d160001a2c36d","650c16f0f2faf8d7a0d14c09","651c1c70f89f19184fe3b578","null","null","<p style=""font-size: 60px; font-family: BACS"">ObOQlmLJ</p>","","","","","","","","",""
"html-keyboard-response","27","60999","0.0-8.0-0.19","5b213220809d160001a2c36d","650c16f0f2faf8d7a0d14c09","651c1c70f89f19184fe3b578","null","null","<p style=""font-size: 60px; font-family: BACS"">bYGOZrab</p>","","","","","","","","",""
"html-keyboard-response","28","62000","0.0-8.0-0.20","5b213220809d160001a2c36d","650c16f0f2faf8d7a0d14c09","651c1c70f89f19184fe3b578","null","null","<p style=""font-size: 60px; font-family: BACS"">UYZlZmLJ</p>","","","","","","","","",""
"html-keyboard-response","29","63001","0.0-8.0-0.21","5b213220809d160001a2c36d","650c16f0f2faf8d7a0d14c09","651c1c70f89f19184fe3b578","null","null","<p style=""font-size: 60px; font-family: BACS"">lcOcdUr</p>","","","","","","","","",""
"html-keyboard-response","30","64002","0.0-8.0-0.22","5b213220809d160001a2c36d","650c16f0f2faf8d7a0d14c09","651c1c70f89f19184fe3b578","null","null","<p style=""font-size: 60px; font-family: BACS"">dRhtYDTk</p>","","","","","","","","",""
"html-keyboard-response","31","65003","0.0-8.0-0.23","5b213220809d160001a2c36d","650c16f0f2faf8d7a0d14c09","651c1c70f89f19184fe3b578","null","null","<p style=""font-size: 60px; font-family: BACS"">DcPTcOBT</p>","","","","","","","","",""
"html-keyboard-response","32","66004","0.0-8.0-0.24","5b213220809d160001a2c36d","650c16f0f2faf8d7a0d14c09","651c1c70f89f19184fe3b578","null","null","<p style=""font-size: 60px; font-family: BACS"">EltMBYDTk</p>","","","","","","","","",""
"html-keyboard-response","33","67005","0.0-8.0-0.25","5b213220809d160001a2c36d","650c16f0f2faf8d7a0d14c09","651c1c70f89f19184fe3b578","null","null","<p style=""font-size: 60px; font-family: BACS"">EdBbdRA</p>","","","","","","","","",""
"html-keyboard-response","34","68008","0.0-8.0-0.26","5b213220809d160001a2c36d","650c16f0f2faf8d7a0d14c09","651c1c70f89f19184fe3b578","null","null","<p style=""font-size: 60px; font-family: BACS"">JmvmOdUr</p>","","","","","","","","",""
"html-keyboard-response","35","69012","0.0-8.0-0.27","5b213220809d160001a2c36d","650c16f0f2faf8d7a0d14c09","651c1c70f89f19184fe3b578","null","null","<p style=""font-size: 60px; font-family: BACS"">LdQvmLJ</p>","","","","","","","","",""
"html-keyboard-response","36","70016","0.0-8.0-0.28","5b213220809d160001a2c36d","650c16f0f2faf8d7a0d14c09","651c1c70f89f19184fe3b578","null","null","<p style=""font-size: 60px; font-family: BACS"">lcOcLYGA</p>","","","","","","","","",""
"html-keyboard-response","37","71018","0.0-8.0-0.29","5b213220809d160001a2c36d","650c16f0f2faf8d7a0d14c09","651c1c70f89f19184fe3b578","null","null","<p style=""font-size: 60px; font-family: BACS"">QcQAJmLJ</p>","","","","","","","","",""
"html-keyboard-response","38","72020","0.0-8.0-0.30","5b213220809d160001a2c36d","650c16f0f2faf8d7a0d14c09","651c1c70f89f19184fe3b578","null","null","<p style=""font-size: 60px; font-family: BACS"">EdBbYDTk</p>","","","","","","","","",""
"html-keyboard-response","39","73023","0.0-8.0-0.31","5b213220809d160001a2c36d","650c16f0f2faf8d7a0d14c09","651c1c70f89f19184fe3b578","null","null","<p style=""font-size: 60px; font-family: BACS"">GNAcaLYGA</p>","","","","","","","","",""
"html-keyboard-response","40","74027","0.0-8.0-0.32","5b213220809d160001a2c36d","650c16f0f2faf8d7a0d14c09","651c1c70f89f19184fe3b578","null","null","<p style=""font-size: 60px; font-family: BACS"">lcOcmLJ</p>","","","","","","","","",""
"html-keyboard-response","41","75032","0.0-8.0-0.33","5b213220809d160001a2c36d","650c16f0f2faf8d7a0d14c09","651c1c70f89f19184fe3b578","null","null","<p style=""font-size: 60px; font-family: BACS"">GNAcarGl</p>","","","","","","","","",""
"html-keyboard-response","42","76034","0.0-8.0-0.34","5b213220809d160001a2c36d","650c16f0f2faf8d7a0d14c09","651c1c70f89f19184fe3b578","null","null","<p style=""font-size: 60px; font-family: BACS"">EdBbOBT</p>","","","","","","","","",""
"html-keyboard-response","43","77036","0.0-8.0-0.35","5b213220809d160001a2c36d","650c16f0f2faf8d7a0d14c09","651c1c70f89f19184fe3b578","null","null","<p style=""font-size: 60px; font-family: BACS"">QcQAJrab</p>","","","","","","","","",""
"html-keyboard-response","44","78039","0.0-8.0-0.36","5b213220809d160001a2c36d","650c16f0f2faf8d7a0d14c09","651c1c70f89f19184fe3b578","null","null","<p style=""font-size: 60px; font-family: BACS"">cBROBOtM</p>","","","","","","","","",""
"html-keyboard-response","45","79042","0.0-8.0-0.37","5b213220809d160001a2c36d","650c16f0f2faf8d7a0d14c09","651c1c70f89f19184fe3b578","null","null","<p style=""font-size: 60px; font-family: BACS"">AMkCmtKP</p>","","","","","","","","",""
"html-keyboard-response","46","80043","0.0-8.0-0.38","5b213220809d160001a2c36d","650c16f0f2faf8d7a0d14c09","651c1c70f89f19184fe3b578","null","null","<p style=""font-size: 60px; font-family: BACS"">ObOQlrab</p>","","","","","","","","",""
"html-keyboard-response","47","81044","0.0-8.0-0.39","5b213220809d160001a2c36d","650c16f0f2faf8d7a0d14c09","651c1c70f89f19184fe3b578","null","null","<p style=""font-size: 60px; font-family: BACS"">DcPTcdRA</p>","","","","","","","","",""
"html-keyboard-response","48","82047","0.0-8.0-0.40","5b213220809d160001a2c36d","650c16f0f2faf8d7a0d14c09","651c1c70f89f19184fe3b578","null","null","<p style=""font-size: 60px; font-family: BACS"">bYGOZdUr</p>","","","","","","","","",""
"html-keyboard-response","49","83049","0.0-8.0-0.41","5b213220809d160001a2c36d","650c16f0f2faf8d7a0d14c09","651c1c70f89f19184fe3b578","null","null","<p style=""font-size: 60px; font-family: BACS"">BMEMAmtKP</p>","","","","","","","","",""
"html-keyboard-response","50","84050","0.0-8.0-0.42","5b213220809d160001a2c36d","650c16f0f2faf8d7a0d14c09","651c1c70f89f19184fe3b578","null","null","<p style=""font-size: 60px; font-family: BACS"">dMYBPOtM</p>","","","","","","","","",""
"html-keyboard-response","51","85051","0.0-8.0-0.43","5b213220809d160001a2c36d","650c16f0f2faf8d7a0d14c09","651c1c70f89f19184fe3b578","null","null","<p style=""font-size: 60px; font-family: BACS"">YJLcArab</p>","","","","","","","","",""
"html-keyboard-response","52","86053","0.0-8.0-0.44","5b213220809d160001a2c36d","650c16f0f2faf8d7a0d14c09","651c1c70f89f19184fe3b578","null","null","<p style=""font-size: 60px; font-family: BACS"">dMYBPOBT</p>","","","","","","","","",""
"html-keyboard-response","53","87055","0.0-8.0-0.45","5b213220809d160001a2c36d","650c16f0f2faf8d7a0d14c09","651c1c70f89f19184fe3b578","null","null","<p style=""font-size: 60px; font-family: BACS"">bYGOZLYGA</p>","","","","","","","","",""
"html-keyboard-response","54","88056","0.0-8.0-0.46","5b213220809d160001a2c36d","650c16f0f2faf8d7a0d14c09","651c1c70f89f19184fe3b578","null","null","<p style=""font-size: 60px; font-family: BACS"">dRhtOBT</p>","","","","","","","","",""
"html-keyboard-response","55","89057","0.0-8.0-0.47","5b213220809d160001a2c36d","650c16f0f2faf8d7a0d14c09","651c1c70f89f19184fe3b578","null","null","<p style=""font-size: 60px; font-family: BACS"">GNAcamLJ</p>","","","","","","","","",""
"html-keyboard-response","56","90058","0.0-8.0-0.48","5b213220809d160001a2c36d","650c16f0f2faf8d7a0d14c09","651c1c70f89f19184fe3b578","null","null","<p style=""font-size: 60px; font-family: BACS"">EdBbOtM</p>","","","","","","","","",""
"html-keyboard-response","57","91059","0.0-8.0-0.49","5b213220809d160001a2c36d","650c16f0f2faf8d7a0d14c09","651c1c70f89f19184fe3b578","null","null","<p style=""font-size: 60px; font-family: BACS"">PCPDhYDTk</p>","","","","","","","","",""
"html-keyboard-response","58","92061","0.0-8.0-0.50","5b213220809d160001a2c36d","650c16f0f2faf8d7a0d14c09","651c1c70f89f19184fe3b578","null","null","<p style=""font-size: 60px; font-family: BACS"">QcQAJLYGA</p>","","","","","","","","",""
"html-keyboard-response","59","93062","0.0-8.0-0.51","5b213220809d160001a2c36d","650c16f0f2faf8d7a0d14c09","651c1c70f89f19184fe3b578","null","null","<p style=""font-size: 60px; font-family: BACS"">JmvmOmLJ</p>","","","","","","","","",""
"html-keyboard-response","60","94063","0.0-8.0-0.52","5b213220809d160001a2c36d","650c16f0f2faf8d7a0d14c09","651c1c70f89f19184fe3b578","null","null","<p style=""font-size: 60px; font-family: BACS"">YJLcArGl</p>","","","","","","","","",""
"html-keyboard-response","61","95064","0.0-8.0-0.53","5b213220809d160001a2c36d","650c16f0f2faf8d7a0d14c09","651c1c70f89f19184fe3b578","null","null","<p style=""font-size: 60px; font-family: BACS"">OEPkOBT</p>","","","","","","","","",""
"html-keyboard-response","62","96065","0.0-8.0-0.54","5b213220809d160001a2c36d","650c16f0f2faf8d7a0d14c09","651c1c70f89f19184fe3b578","null","null","<p style=""font-size: 60px; font-family: BACS"">PCPDhmtKP</p>","","","","","","","","",""
"html-keyboard-response","63","97066","0.0-8.0-0.55","5b213220809d160001a2c36d","650c16f0f2faf8d7a0d14c09","651c1c70f89f19184fe3b578","null","null","<p style=""font-size: 60px; font-family: BACS"">AMkCYDTk</p>","","","","","","","","",""
"html-keyboard-response","64","98067","0.0-8.0-0.56","5b213220809d160001a2c36d","650c16f0f2faf8d7a0d14c09","651c1c70f89f19184fe3b578","null","null","<p style=""font-size: 60px; font-family: BACS"">GNAcarab</p>","","","","","","","","",""
"html-keyboard-response","65","99068","0.0-8.0-0.57","5b213220809d160001a2c36d","650c16f0f2faf8d7a0d14c09","651c1c70f89f19184fe3b578","null","null","<p style=""font-size: 60px; font-family: BACS"">DcPTcOtM</p>","","","","","","","","",""
"html-keyboard-response","66","100069","0.0-8.0-0.58","5b213220809d160001a2c36d","650c16f0f2faf8d7a0d14c09","651c1c70f89f19184fe3b578","null","null","<p style=""font-size: 60px; font-family: BACS"">ObOQldUr</p>","","","","","","","","",""
"html-keyboard-response","67","101070","0.0-8.0-0.59","5b213220809d160001a2c36d","650c16f0f2faf8d7a0d14c09","651c1c70f89f19184fe3b578","null","null","<p style=""font-size: 60px; font-family: BACS"">UYZlZrab</p>","","","","","","","","",""
"html-keyboard-response","68","102071","0.0-8.0-0.60","5b213220809d160001a2c36d","650c16f0f2faf8d7a0d14c09","651c1c70f89f19184fe3b578","null","null","<p style=""font-size: 60px; font-family: BACS"">LdQvrGl</p>","","","","","","","","",""
"html-keyboard-response","69","103072","0.0-8.0-0.61","5b213220809d160001a2c36d","650c16f0f2faf8d7a0d14c09","651c1c70f89f19184fe3b578","null","null","<p style=""font-size: 60px; font-family: BACS"">cBROBmtKP</p>","","","","","","","","",""
"html-keyboard-response","70","104073","0.0-8.0-0.62","5b213220809d160001a2c36d","650c16f0f2faf8d7a0d14c09","651c1c70f89f19184fe3b578","null","null","<p style=""font-size: 60px; font-family: BACS"">JmvmOLYGA</p>","","","","","","","","",""
"html-keyboard-response","71","105075","0.0-8.0-0.63","5b213220809d160001a2c36d","650c16f0f2faf8d7a0d14c09","651c1c70f89f19184fe3b578","null","null","<p style=""font-size: 60px; font-family: BACS"">UYZlZrGl</p>","","","","","","","","",""
"html-keyboard-response","72","106075","0.0-8.0-0.64","5b213220809d160001a2c36d","650c16f0f2faf8d7a0d14c09","651c1c70f89f19184fe3b578","null","null","<p style=""font-size: 60px; font-family: BACS"">dMYBPmtKP</p>","","","","","","","","",""
"html-keyboard-response","73","107077","0.0-8.0-0.65","5b213220809d160001a2c36d","650c16f0f2faf8d7a0d14c09","651c1c70f89f19184fe3b578","null","null","<p style=""font-size: 60px; font-family: BACS"">AZaJcrGl</p>","","","","","","","","",""
"html-keyboard-response","74","108078","0.0-8.0-0.66","5b213220809d160001a2c36d","650c16f0f2faf8d7a0d14c09","651c1c70f89f19184fe3b578","null","null","<p style=""font-size: 60px; font-family: BACS"">LdQvLYGA</p>","","","","","","","","",""
"html-keyboard-response","75","109079","0.0-8.0-0.67","5b213220809d160001a2c36d","650c16f0f2faf8d7a0d14c09","651c1c70f89f19184fe3b578","null","null","<p style=""font-size: 60px; font-family: BACS"">PCPDhOBT</p>","","","","","","","","",""
"html-keyboard-response","76","110080","0.0-8.0-0.68","5b213220809d160001a2c36d","650c16f0f2faf8d7a0d14c09","651c1c70f89f19184fe3b578","null","null","<p style=""font-size: 60px; font-family: BACS"">dMYBPYDTk</p>","","","","","","","","",""
"html-keyboard-response","77","111081","0.0-8.0-0.69","5b213220809d160001a2c36d","650c16f0f2faf8d7a0d14c09","651c1c70f89f19184fe3b578","null","null","<p style=""font-size: 60px; font-family: BACS"">PCPDhOtM</p>","","","","","","","","",""
"html-keyboard-response","78","112082","0.0-8.0-0.70","5b213220809d160001a2c36d","650c16f0f2faf8d7a0d14c09","651c1c70f89f19184fe3b578","null","null","<p style=""font-size: 60px; font-family: BACS"">cBROBdRA</p>","","","","","","","","",""
"html-keyboard-response","79","113083","0.0-8.0-0.71","5b213220809d160001a2c36d","650c16f0f2faf8d7a0d14c09","651c1c70f89f19184fe3b578","null","null","<p style=""font-size: 60px; font-family: BACS"">AZaJcmLJ</p>","","","","","","","","",""
"html-keyboard-response","80","114084","0.0-8.0-0.72","5b213220809d160001a2c36d","650c16f0f2faf8d7a0d14c09","651c1c70f89f19184fe3b578","null","null","<p style=""font-size: 60px; font-family: BACS"">BMEMAOtM</p>","","","","","","","","",""
"html-keyboard-response","81","115086","0.0-8.0-0.73","5b213220809d160001a2c36d","650c16f0f2faf8d7a0d14c09","651c1c70f89f19184fe3b578","null","null","<p style=""font-size: 60px; font-family: BACS"">OEPkYDTk</p>","","","","","","","","",""
"html-keyboard-response","82","116086","0.0-8.0-0.74","5b213220809d160001a2c36d","650c16f0f2faf8d7a0d14c09","651c1c70f89f19184fe3b578","null","null","<p style=""font-size: 60px; font-family: BACS"">dRhtdRA</p>","","","","","","","","",""
"html-keyboard-response","83","117087","0.0-8.0-0.75","5b213220809d160001a2c36d","650c16f0f2faf8d7a0d14c09","651c1c70f89f19184fe3b578","null","null","<p style=""font-size: 60px; font-family: BACS"">YJLcALYGA</p>","","","","","","","","",""
"html-keyboard-response","84","118089","0.0-8.0-0.76","5b213220809d160001a2c36d","650c16f0f2faf8d7a0d14c09","651c1c70f89f19184fe3b578","null","null","<p style=""font-size: 60px; font-family: BACS"">BMEMAYDTk</p>","","","","","","","","",""
"html-keyboard-response","85","119089","0.0-8.0-0.77","5b213220809d160001a2c36d","650c16f0f2faf8d7a0d14c09","651c1c70f89f19184fe3b578","null","null","<p style=""font-size: 60px; font-family: BACS"">JmvmOrGl</p>","","","","","","","","",""
"html-keyboard-response","86","120091","0.0-8.0-0.78","5b213220809d160001a2c36d","650c16f0f2faf8d7a0d14c09","651c1c70f89f19184fe3b578","null","null","<p style=""font-size: 60px; font-family: BACS"">ObOQlLYGA</p>","","","","","","","","",""
"html-keyboard-response","87","121092","0.0-8.0-0.79","5b213220809d160001a2c36d","650c16f0f2faf8d7a0d14c09","651c1c70f89f19184fe3b578","null","null","<p style=""font-size: 60px; font-family: BACS"">EltMBdRA</p>","","","","","","","","",""
"html-keyboard-response","88","124797","0.0-9.0","5b213220809d160001a2c36d","650c16f0f2faf8d7a0d14c09","651c1c70f89f19184fe3b578","3704"," ","<p>Great, you've seen the first block of words. You may now take a short break.</p>
      <p>Press the spacebar when you're ready to continue.</p>","","","","","","","","",""
"html-keyboard-response","89","125799","0.0-10.0-0.0","5b213220809d160001a2c36d","650c16f0f2faf8d7a0d14c09","651c1c70f89f19184fe3b578","null","null","<p style=""font-size: 60px; font-family: BACS"">bYGOZdUr</p>","","","","","","","","",""
"html-keyboard-response","90","126800","0.0-10.0-0.1","5b213220809d160001a2c36d","650c16f0f2faf8d7a0d14c09","651c1c70f89f19184fe3b578","null","null","<p style=""font-size: 60px; font-family: BACS"">QcQAJrGl</p>","","","","","","","","",""
"html-keyboard-response","91","127801","0.0-10.0-0.2","5b213220809d160001a2c36d","650c16f0f2faf8d7a0d14c09","651c1c70f89f19184fe3b578","null","null","<p style=""font-size: 60px; font-family: BACS"">YJLcArab</p>","","","","","","","","",""
"html-keyboard-response","92","128802","0.0-10.0-0.3","5b213220809d160001a2c36d","650c16f0f2faf8d7a0d14c09","651c1c70f89f19184fe3b578","null","null","<p style=""font-size: 60px; font-family: BACS"">cBROBdRA</p>","","","","","","","","",""
"html-keyboard-response","93","129803","0.0-10.0-0.4","5b213220809d160001a2c36d","650c16f0f2faf8d7a0d14c09","651c1c70f89f19184fe3b578","null","null","<p style=""font-size: 60px; font-family: BACS"">dRhtmtKP</p>","","","","","","","","",""
"html-keyboard-response","94","130804","0.0-10.0-0.5","5b213220809d160001a2c36d","650c16f0f2faf8d7a0d14c09","651c1c70f89f19184fe3b578","null","null","<p style=""font-size: 60px; font-family: BACS"">ObOQldUr</p>","","","","","","","","",""
"html-keyboard-response","95","131806","0.0-10.0-0.6","5b213220809d160001a2c36d","650c16f0f2faf8d7a0d14c09","651c1c70f89f19184fe3b578","null","null","<p style=""font-size: 60px; font-family: BACS"">dMYBPOtM</p>","","","","","","","","",""
"html-keyboard-response","96","132807","0.0-10.0-0.7","5b213220809d160001a2c36d","650c16f0f2faf8d7a0d14c09","651c1c70f89f19184fe3b578","null","null","<p style=""font-size: 60px; font-family: BACS"">BMEMAYDTk</p>","","","","","","","","",""
"html-keyboard-response","97","133812","0.0-10.0-0.8","5b213220809d160001a2c36d","650c16f0f2faf8d7a0d14c09","651c1c70f89f19184fe3b578","null","null","<p style=""font-size: 60px; font-family: BACS"">dRhtdRA</p>","","","","","","","","",""
"html-keyboard-response","98","134816","0.0-10.0-0.9","5b213220809d160001a2c36d","650c16f0f2faf8d7a0d14c09","651c1c70f89f19184fe3b578","null","null","<p style=""font-size: 60px; font-family: BACS"">bYGOZrGl</p>","","","","","","","","",""
"html-keyboard-response","99","135819","0.0-10.0-0.10","5b213220809d160001a2c36d","650c16f0f2faf8d7a0d14c09","651c1c70f89f19184fe3b578","null","null","<p style=""font-size: 60px; font-family: BACS"">EdBbdRA</p>","","","","","","","","",""
"html-keyboard-response","100","136824","0.0-10.0-0.11","5b213220809d160001a2c36d","650c16f0f2faf8d7a0d14c09","651c1c70f89f19184fe3b578","null","null","<p style=""font-size: 60px; font-family: BACS"">UYZlZrGl</p>","","","","","","","","",""
"html-keyboard-response","101","137826","0.0-10.0-0.12","5b213220809d160001a2c36d","650c16f0f2faf8d7a0d14c09","651c1c70f89f19184fe3b578","null","null","<p style=""font-size: 60px; font-family: BACS"">PCPDhOBT</p>","","","","","","","","",""
"html-keyboard-response","102","138828","0.0-10.0-0.13","5b213220809d160001a2c36d","650c16f0f2faf8d7a0d14c09","651c1c70f89f19184fe3b578","null","null","<p style=""font-size: 60px; font-family: BACS"">EdBbOtM</p>","","","","","","","","",""
"html-keyboard-response","103","139829","0.0-10.0-0.14","5b213220809d160001a2c36d","650c16f0f2faf8d7a0d14c09","651c1c70f89f19184fe3b578","null","null","<p style=""font-size: 60px; font-family: BACS"">QcQAJLYGA</p>","","","","","","","","",""
"html-keyboard-response","104","140830","0.0-10.0-0.15","5b213220809d160001a2c36d","650c16f0f2faf8d7a0d14c09","651c1c70f89f19184fe3b578","null","null","<p style=""font-size: 60px; font-family: BACS"">GNAcarGl</p>","","","","","","","","",""
"html-keyboard-response","105","141830","0.0-10.0-0.16","5b213220809d160001a2c36d","650c16f0f2faf8d7a0d14c09","651c1c70f89f19184fe3b578","null","null","<p style=""font-size: 60px; font-family: BACS"">AMkCmtKP</p>","","","","","","","","",""
"html-keyboard-response","106","142832","0.0-10.0-0.17","5b213220809d160001a2c36d","650c16f0f2faf8d7a0d14c09","651c1c70f89f19184fe3b578","null","null","<p style=""font-size: 60px; font-family: BACS"">OEPkOBT</p>","","","","","","","","",""
"html-keyboard-response","107","143833","0.0-10.0-0.18","5b213220809d160001a2c36d","650c16f0f2faf8d7a0d14c09","651c1c70f89f19184fe3b578","null","null","<p style=""font-size: 60px; font-family: BACS"">GNAcaLYGA</p>","","","","","","","","",""
"html-keyboard-response","108","144833","0.0-10.0-0.19","5b213220809d160001a2c36d","650c16f0f2faf8d7a0d14c09","651c1c70f89f19184fe3b578","null","null","<p style=""font-size: 60px; font-family: BACS"">YJLcAdUr</p>","","","","","","","","",""
"html-keyboard-response","109","145835","0.0-10.0-0.20","5b213220809d160001a2c36d","650c16f0f2faf8d7a0d14c09","651c1c70f89f19184fe3b578","null","null","<p style=""font-size: 60px; font-family: BACS"">DcPTcmtKP</p>","","","","","","","","",""
"html-keyboard-response","110","146835","0.0-10.0-0.21","5b213220809d160001a2c36d","650c16f0f2faf8d7a0d14c09","651c1c70f89f19184fe3b578","null","null","<p style=""font-size: 60px; font-family: BACS"">PCPDhYDTk</p>","","","","","","","","",""
"html-keyboard-response","111","147836","0.0-10.0-0.22","5b213220809d160001a2c36d","650c16f0f2faf8d7a0d14c09","651c1c70f89f19184fe3b578","null","null","<p style=""font-size: 60px; font-family: BACS"">lcOcmLJ</p>","","","","","","","","",""
"html-keyboard-response","112","148837","0.0-10.0-0.23","5b213220809d160001a2c36d","650c16f0f2faf8d7a0d14c09","651c1c70f89f19184fe3b578","null","null","<p style=""font-size: 60px; font-family: BACS"">AZaJcdUr</p>","","","","","","","","",""
"html-keyboard-response","113","149838","0.0-10.0-0.24","5b213220809d160001a2c36d","650c16f0f2faf8d7a0d14c09","651c1c70f89f19184fe3b578","null","null","<p style=""font-size: 60px; font-family: BACS"">PCPDhmtKP</p>","","","","","","","","",""
"html-keyboard-response","114","150839","0.0-10.0-0.25","5b213220809d160001a2c36d","650c16f0f2faf8d7a0d14c09","651c1c70f89f19184fe3b578","null","null","<p style=""font-size: 60px; font-family: BACS"">EltMBdRA</p>","","","","","","","","",""
"html-keyboard-response","115","151840","0.0-10.0-0.26","5b213220809d160001a2c36d","650c16f0f2faf8d7a0d14c09","651c1c70f89f19184fe3b578","null","null","<p style=""font-size: 60px; font-family: BACS"">BMEMAmtKP</p>","","","","","","","","",""
"html-keyboard-response","116","152840","0.0-10.0-0.27","5b213220809d160001a2c36d","650c16f0f2faf8d7a0d14c09","651c1c70f89f19184fe3b578","null","null","<p style=""font-size: 60px; font-family: BACS"">AMkCdRA</p>","","","","","","","","",""
"html-keyboard-response","117","153841","0.0-10.0-0.28","5b213220809d160001a2c36d","650c16f0f2faf8d7a0d14c09","651c1c70f89f19184fe3b578","null","null","<p style=""font-size: 60px; font-family: BACS"">bYGOZLYGA</p>","","","","","","","","",""
"html-keyboard-response","118","154843","0.0-10.0-0.29","5b213220809d160001a2c36d","650c16f0f2faf8d7a0d14c09","651c1c70f89f19184fe3b578","null","null","<p style=""font-size: 60px; font-family: BACS"">UYZlZdUr</p>","","","","","","","","",""
"html-keyboard-response","119","155843","0.0-10.0-0.30","5b213220809d160001a2c36d","650c16f0f2faf8d7a0d14c09","651c1c70f89f19184fe3b578","null","null","<p style=""font-size: 60px; font-family: BACS"">LdQvrGl</p>","","","","","","","","",""
"html-keyboard-response","120","156844","0.0-10.0-0.31","5b213220809d160001a2c36d","650c16f0f2faf8d7a0d14c09","651c1c70f89f19184fe3b578","null","null","<p style=""font-size: 60px; font-family: BACS"">UYZlZrab</p>","","","","","","","","",""
"html-keyboard-response","121","157845","0.0-10.0-0.32","5b213220809d160001a2c36d","650c16f0f2faf8d7a0d14c09","651c1c70f89f19184fe3b578","null","null","<p style=""font-size: 60px; font-family: BACS"">QcQAJmLJ</p>","","","","","","","","",""
"html-keyboard-response","122","158846","0.0-10.0-0.33","5b213220809d160001a2c36d","650c16f0f2faf8d7a0d14c09","651c1c70f89f19184fe3b578","null","null","<p style=""font-size: 60px; font-family: BACS"">JmvmOdUr</p>","","","","","","","","",""
"html-keyboard-response","123","159847","0.0-10.0-0.34","5b213220809d160001a2c36d","650c16f0f2faf8d7a0d14c09","651c1c70f89f19184fe3b578","null","null","<p style=""font-size: 60px; font-family: BACS"">EltMBYDTk</p>","","","","","","","","",""
"html-keyboard-response","124","160848","0.0-10.0-0.35","5b213220809d160001a2c36d","650c16f0f2faf8d7a0d14c09","651c1c70f89f19184fe3b578","null","null","<p style=""font-size: 60px; font-family: BACS"">lcOcLYGA</p>","","","","","","","","",""
"html-keyboard-response","125","161850","0.0-10.0-0.36","5b213220809d160001a2c36d","650c16f0f2faf8d7a0d14c09","651c1c70f89f19184fe3b578","null","null","<p style=""font-size: 60px; font-family: BACS"">GNAcamLJ</p>","","","","","","","","",""
"html-keyboard-response","126","162851","0.0-10.0-0.37","5b213220809d160001a2c36d","650c16f0f2faf8d7a0d14c09","651c1c70f89f19184fe3b578","null","null","<p style=""font-size: 60px; font-family: BACS"">DcPTcdRA</p>","","","","","","","","",""
"html-keyboard-response","127","163853","0.0-10.0-0.38","5b213220809d160001a2c36d","650c16f0f2faf8d7a0d14c09","651c1c70f89f19184fe3b578","null","null","<p style=""font-size: 60px; font-family: BACS"">OEPkmtKP</p>","","","","","","","","",""
"html-keyboard-response","128","164853","0.0-10.0-0.39","5b213220809d160001a2c36d","650c16f0f2faf8d7a0d14c09","651c1c70f89f19184fe3b578","null","null","<p style=""font-size: 60px; font-family: BACS"">AMkCOtM</p>","","","","","","","","",""
"html-keyboard-response","129","165855","0.0-10.0-0.40","5b213220809d160001a2c36d","650c16f0f2faf8d7a0d14c09","651c1c70f89f19184fe3b578","null","null","<p style=""font-size: 60px; font-family: BACS"">LdQvdUr</p>","","","","","","","","",""
"html-keyboard-response","130","166856","0.0-10.0-0.41","5b213220809d160001a2c36d","650c16f0f2faf8d7a0d14c09","651c1c70f89f19184fe3b578","null","null","<p style=""font-size: 60px; font-family: BACS"">cBROBmtKP</p>","","","","","","","","",""
"html-keyboard-response","131","167857","0.0-10.0-0.42","5b213220809d160001a2c36d","650c16f0f2faf8d7a0d14c09","651c1c70f89f19184fe3b578","null","null","<p style=""font-size: 60px; font-family: BACS"">JmvmOmLJ</p>","","","","","","","","",""
"html-keyboard-response","132","168859","0.0-10.0-0.43","5b213220809d160001a2c36d","650c16f0f2faf8d7a0d14c09","651c1c70f89f19184fe3b578","null","null","<p style=""font-size: 60px; font-family: BACS"">BMEMAOtM</p>","","","","","","","","",""
"html-keyboard-response","133","169860","0.0-10.0-0.44","5b213220809d160001a2c36d","650c16f0f2faf8d7a0d14c09","651c1c70f89f19184fe3b578","null","null","<p style=""font-size: 60px; font-family: BACS"">LdQvmLJ</p>","","","","","","","","",""
"html-keyboard-response","134","170861","0.0-10.0-0.45","5b213220809d160001a2c36d","650c16f0f2faf8d7a0d14c09","651c1c70f89f19184fe3b578","null","null","<p style=""font-size: 60px; font-family: BACS"">dMYBPYDTk</p>","","","","","","","","",""
"html-keyboard-response","135","171863","0.0-10.0-0.46","5b213220809d160001a2c36d","650c16f0f2faf8d7a0d14c09","651c1c70f89f19184fe3b578","null","null","<p style=""font-size: 60px; font-family: BACS"">AZaJcrGl</p>","","","","","","","","",""
"html-keyboard-response","136","172863","0.0-10.0-0.47","5b213220809d160001a2c36d","650c16f0f2faf8d7a0d14c09","651c1c70f89f19184fe3b578","null","null","<p style=""font-size: 60px; font-family: BACS"">ObOQlLYGA</p>","","","","","","","","",""
"html-keyboard-response","137","173864","0.0-10.0-0.48","5b213220809d160001a2c36d","650c16f0f2faf8d7a0d14c09","651c1c70f89f19184fe3b578","null","null","<p style=""font-size: 60px; font-family: BACS"">QcQAJrab</p>","","","","","","","","",""
"html-keyboard-response","138","174866","0.0-10.0-0.49","5b213220809d160001a2c36d","650c16f0f2faf8d7a0d14c09","651c1c70f89f19184fe3b578","null","null","<p style=""font-size: 60px; font-family: BACS"">dRhtOBT</p>","","","","","","","","",""
"html-keyboard-response","139","175867","0.0-10.0-0.50","5b213220809d160001a2c36d","650c16f0f2faf8d7a0d14c09","651c1c70f89f19184fe3b578","null","null","<p style=""font-size: 60px; font-family: BACS"">GNAcarab</p>","","","","","","","","",""
"html-keyboard-response","140","176869","0.0-10.0-0.51","5b213220809d160001a2c36d","650c16f0f2faf8d7a0d14c09","651c1c70f89f19184fe3b578","null","null","<p style=""font-size: 60px; font-family: BACS"">EltMBOtM</p>","","","","","","","","",""
"html-keyboard-response","141","177869","0.0-10.0-0.52","5b213220809d160001a2c36d","650c16f0f2faf8d7a0d14c09","651c1c70f89f19184fe3b578","null","null","<p style=""font-size: 60px; font-family: BACS"">OEPkdRA</p>","","","","","","","","",""
"html-keyboard-response","142","178871","0.0-10.0-0.53","5b213220809d160001a2c36d","650c16f0f2faf8d7a0d14c09","651c1c70f89f19184fe3b578","null","null","<p style=""font-size: 60px; font-family: BACS"">AZaJcmLJ</p>","","","","","","","","",""
"html-keyboard-response","143","179872","0.0-10.0-0.54","5b213220809d160001a2c36d","650c16f0f2faf8d7a0d14c09","651c1c70f89f19184fe3b578","null","null","<p style=""font-size: 60px; font-family: BACS"">AMkCYDTk</p>","","","","","","","","",""
"html-keyboard-response","144","180873","0.0-10.0-0.55","5b213220809d160001a2c36d","650c16f0f2faf8d7a0d14c09","651c1c70f89f19184fe3b578","null","null","<p style=""font-size: 60px; font-family: BACS"">YJLcArGl</p>","","","","","","","","",""
"html-keyboard-response","145","181874","0.0-10.0-0.56","5b213220809d160001a2c36d","650c16f0f2faf8d7a0d14c09","651c1c70f89f19184fe3b578","null","null","<p style=""font-size: 60px; font-family: BACS"">OEPkYDTk</p>","","","","","","","","",""
"html-keyboard-response","146","182876","0.0-10.0-0.57","5b213220809d160001a2c36d","650c16f0f2faf8d7a0d14c09","651c1c70f89f19184fe3b578","null","null","<p style=""font-size: 60px; font-family: BACS"">JmvmOLYGA</p>","","","","","","","","",""
"html-keyboard-response","147","183877","0.0-10.0-0.58","5b213220809d160001a2c36d","650c16f0f2faf8d7a0d14c09","651c1c70f89f19184fe3b578","null","null","<p style=""font-size: 60px; font-family: BACS"">BMEMAdRA</p>","","","","","","","","",""
"html-keyboard-response","148","184878","0.0-10.0-0.59","5b213220809d160001a2c36d","650c16f0f2faf8d7a0d14c09","651c1c70f89f19184fe3b578","null","null","<p style=""font-size: 60px; font-family: BACS"">ObOQlmLJ</p>","","","","","","","","",""
"html-keyboard-response","149","185879","0.0-10.0-0.60","5b213220809d160001a2c36d","650c16f0f2faf8d7a0d14c09","651c1c70f89f19184fe3b578","null","null","<p style=""font-size: 60px; font-family: BACS"">JmvmOrGl</p>","","","","","","","","",""
"html-keyboard-response","150","186880","0.0-10.0-0.61","5b213220809d160001a2c36d","650c16f0f2faf8d7a0d14c09","651c1c70f89f19184fe3b578","null","null","<p style=""font-size: 60px; font-family: BACS"">DcPTcOtM</p>","","","","","","","","",""
"html-keyboard-response","151","187881","0.0-10.0-0.62","5b213220809d160001a2c36d","650c16f0f2faf8d7a0d14c09","651c1c70f89f19184fe3b578","null","null","<p style=""font-size: 60px; font-family: BACS"">YJLcALYGA</p>","","","","","","","","",""
"html-keyboard-response","152","188883","0.0-10.0-0.63","5b213220809d160001a2c36d","650c16f0f2faf8d7a0d14c09","651c1c70f89f19184fe3b578","null","null","<p style=""font-size: 60px; font-family: BACS"">bYGOZrab</p>","","","","","","","","",""
"html-keyboard-response","153","189883","0.0-10.0-0.64","5b213220809d160001a2c36d","650c16f0f2faf8d7a0d14c09","651c1c70f89f19184fe3b578","null","null","<p style=""font-size: 60px; font-family: BACS"">PCPDhOtM</p>","","","","","","","","",""
"html-keyboard-response","154","190885","0.0-10.0-0.65","5b213220809d160001a2c36d","650c16f0f2faf8d7a0d14c09","651c1c70f89f19184fe3b578","null","null","<p style=""font-size: 60px; font-family: BACS"">lcOcrab</p>","","","","","","","","",""
"html-keyboard-response","155","191887","0.0-10.0-0.66","5b213220809d160001a2c36d","650c16f0f2faf8d7a0d14c09","651c1c70f89f19184fe3b578","null","null","<p style=""font-size: 60px; font-family: BACS"">dMYBPmtKP</p>","","","","","","","","",""
"html-keyboard-response","156","192888","0.0-10.0-0.67","5b213220809d160001a2c36d","650c16f0f2faf8d7a0d14c09","651c1c70f89f19184fe3b578","null","null","<p style=""font-size: 60px; font-family: BACS"">LdQvLYGA</p>","","","","","","","","",""
"html-keyboard-response","157","193890","0.0-10.0-0.68","5b213220809d160001a2c36d","650c16f0f2faf8d7a0d14c09","651c1c70f89f19184fe3b578","null","null","<p style=""font-size: 60px; font-family: BACS"">lcOcdUr</p>","","","","","","","","",""
"html-keyboard-response","158","194890","0.0-10.0-0.69","5b213220809d160001a2c36d","650c16f0f2faf8d7a0d14c09","651c1c70f89f19184fe3b578","null","null","<p style=""font-size: 60px; font-family: BACS"">UYZlZmLJ</p>","","","","","","","","",""
"html-keyboard-response","159","195892","0.0-10.0-0.70","5b213220809d160001a2c36d","650c16f0f2faf8d7a0d14c09","651c1c70f89f19184fe3b578","null","null","<p style=""font-size: 60px; font-family: BACS"">AZaJcrab</p>","","","","","","","","",""
"html-keyboard-response","160","196893","0.0-10.0-0.71","5b213220809d160001a2c36d","650c16f0f2faf8d7a0d14c09","651c1c70f89f19184fe3b578","null","null","<p style=""font-size: 60px; font-family: BACS"">EltMBOBT</p>","","","","","","","","",""
"html-keyboard-response","161","197894","0.0-10.0-0.72","5b213220809d160001a2c36d","650c16f0f2faf8d7a0d14c09","651c1c70f89f19184fe3b578","null","null","<p style=""font-size: 60px; font-family: BACS"">EdBbYDTk</p>","","","","","","","","",""
"html-keyboard-response","162","198896","0.0-10.0-0.73","5b213220809d160001a2c36d","650c16f0f2faf8d7a0d14c09","651c1c70f89f19184fe3b578","null","null","<p style=""font-size: 60px; font-family: BACS"">cBROBOBT</p>","","","","","","","","",""
"html-keyboard-response","163","199897","0.0-10.0-0.74","5b213220809d160001a2c36d","650c16f0f2faf8d7a0d14c09","651c1c70f89f19184fe3b578","null","null","<p style=""font-size: 60px; font-family: BACS"">ObOQlrab</p>","","","","","","","","",""
"html-keyboard-response","164","200898","0.0-10.0-0.75","5b213220809d160001a2c36d","650c16f0f2faf8d7a0d14c09","651c1c70f89f19184fe3b578","null","null","<p style=""font-size: 60px; font-family: BACS"">EdBbOBT</p>","","","","","","","","",""
"html-keyboard-response","165","201899","0.0-10.0-0.76","5b213220809d160001a2c36d","650c16f0f2faf8d7a0d14c09","651c1c70f89f19184fe3b578","null","null","<p style=""font-size: 60px; font-family: BACS"">dRhtYDTk</p>","","","","","","","","",""
"html-keyboard-response","166","202900","0.0-10.0-0.77","5b213220809d160001a2c36d","650c16f0f2faf8d7a0d14c09","651c1c70f89f19184fe3b578","null","null","<p style=""font-size: 60px; font-family: BACS"">DcPTcOBT</p>","","","","","","","","",""
"html-keyboard-response","167","203902","0.0-10.0-0.78","5b213220809d160001a2c36d","650c16f0f2faf8d7a0d14c09","651c1c70f89f19184fe3b578","null","null","<p style=""font-size: 60px; font-family: BACS"">cBROBOtM</p>","","","","","","","","",""
"html-keyboard-response","168","204902","0.0-10.0-0.79","5b213220809d160001a2c36d","650c16f0f2faf8d7a0d14c09","651c1c70f89f19184fe3b578","null","null","<p style=""font-size: 60px; font-family: BACS"">dMYBPOBT</p>","","","","","","","","",""
"html-keyboard-response","169","211914","0.0-11.0","5b213220809d160001a2c36d","650c16f0f2faf8d7a0d14c09","651c1c70f89f19184fe3b578","7010"," ","<p>Great, you've seen the second block of words. You may now take a short break.</p>
      <p>Press the spacebar when you're ready to continue.</p>","","","","","","","","",""
"html-keyboard-response","170","212916","0.0-12.0-0.0","5b213220809d160001a2c36d","650c16f0f2faf8d7a0d14c09","651c1c70f89f19184fe3b578","null","null","<p style=""font-size: 60px; font-family: BACS"">YJLcArGl</p>","","","","","","","","",""
"html-keyboard-response","171","213917","0.0-12.0-0.1","5b213220809d160001a2c36d","650c16f0f2faf8d7a0d14c09","651c1c70f89f19184fe3b578","null","null","<p style=""font-size: 60px; font-family: BACS"">PCPDhOBT</p>","","","","","","","","",""
"html-keyboard-response","172","214918","0.0-12.0-0.2","5b213220809d160001a2c36d","650c16f0f2faf8d7a0d14c09","651c1c70f89f19184fe3b578","null","null","<p style=""font-size: 60px; font-family: BACS"">OEPkmtKP</p>","","","","","","","","",""
"html-keyboard-response","173","215919","0.0-12.0-0.3","5b213220809d160001a2c36d","650c16f0f2faf8d7a0d14c09","651c1c70f89f19184fe3b578","null","null","<p style=""font-size: 60px; font-family: BACS"">bYGOZdUr</p>","","","","","","","","",""
"html-keyboard-response","174","216921","0.0-12.0-0.4","5b213220809d160001a2c36d","650c16f0f2faf8d7a0d14c09","651c1c70f89f19184fe3b578","null","null","<p style=""font-size: 60px; font-family: BACS"">OEPkOBT</p>","","","","","","","","",""
"html-keyboard-response","175","217922","0.0-12.0-0.5","5b213220809d160001a2c36d","650c16f0f2faf8d7a0d14c09","651c1c70f89f19184fe3b578","null","null","<p style=""font-size: 60px; font-family: BACS"">AMkCmtKP</p>","","","","","","","","",""
"html-keyboard-response","176","218924","0.0-12.0-0.6","5b213220809d160001a2c36d","650c16f0f2faf8d7a0d14c09","651c1c70f89f19184fe3b578","null","null","<p style=""font-size: 60px; font-family: BACS"">JmvmOLYGA</p>","","","","","","","","",""
"html-keyboard-response","177","219925","0.0-12.0-0.7","5b213220809d160001a2c36d","650c16f0f2faf8d7a0d14c09","651c1c70f89f19184fe3b578","null","null","<p style=""font-size: 60px; font-family: BACS"">lcOcdUr</p>","","","","","","","","",""
"html-keyboard-response","178","220925","0.0-12.0-0.8","5b213220809d160001a2c36d","650c16f0f2faf8d7a0d14c09","651c1c70f89f19184fe3b578","null","null","<p style=""font-size: 60px; font-family: BACS"">JmvmOrGl</p>","","","","","","","","",""
"html-keyboard-response","179","221927","0.0-12.0-0.9","5b213220809d160001a2c36d","650c16f0f2faf8d7a0d14c09","651c1c70f89f19184fe3b578","null","null","<p style=""font-size: 60px; font-family: BACS"">GNAcamLJ</p>","","","","","","","","",""
"html-keyboard-response","180","222928","0.0-12.0-0.10","5b213220809d160001a2c36d","650c16f0f2faf8d7a0d14c09","651c1c70f89f19184fe3b578","null","null","<p style=""font-size: 60px; font-family: BACS"">cBROBOtM</p>","","","","","","","","",""
"html-keyboard-response","181","223929","0.0-12.0-0.11","5b213220809d160001a2c36d","650c16f0f2faf8d7a0d14c09","651c1c70f89f19184fe3b578","null","null","<p style=""font-size: 60px; font-family: BACS"">PCPDhmtKP</p>","","","","","","","","",""
"html-keyboard-response","182","224930","0.0-12.0-0.12","5b213220809d160001a2c36d","650c16f0f2faf8d7a0d14c09","651c1c70f89f19184fe3b578","null","null","<p style=""font-size: 60px; font-family: BACS"">YJLcArab</p>","","","","","","","","",""
"html-keyboard-response","183","225932","0.0-12.0-0.13","5b213220809d160001a2c36d","650c16f0f2faf8d7a0d14c09","651c1c70f89f19184fe3b578","null","null","<p style=""font-size: 60px; font-family: BACS"">LdQvdUr</p>","","","","","","","","",""
"html-keyboard-response","184","226933","0.0-12.0-0.14","5b213220809d160001a2c36d","650c16f0f2faf8d7a0d14c09","651c1c70f89f19184fe3b578","null","null","<p style=""font-size: 60px; font-family: BACS"">DcPTcmtKP</p>","","","","","","","","",""
"html-keyboard-response","185","227934","0.0-12.0-0.15","5b213220809d160001a2c36d","650c16f0f2faf8d7a0d14c09","651c1c70f89f19184fe3b578","null","null","<p style=""font-size: 60px; font-family: BACS"">AMkCOtM</p>","","","","","","","","",""
"html-keyboard-response","186","228935","0.0-12.0-0.16","5b213220809d160001a2c36d","650c16f0f2faf8d7a0d14c09","651c1c70f89f19184fe3b578","null","null","<p style=""font-size: 60px; font-family: BACS"">LdQvmLJ</p>","","","","","","","","",""
"html-keyboard-response","187","229936","0.0-12.0-0.17","5b213220809d160001a2c36d","650c16f0f2faf8d7a0d14c09","651c1c70f89f19184fe3b578","null","null","<p style=""font-size: 60px; font-family: BACS"">dMYBPOBT</p>","","","","","","","","",""
"html-keyboard-response","188","230938","0.0-12.0-0.18","5b213220809d160001a2c36d","650c16f0f2faf8d7a0d14c09","651c1c70f89f19184fe3b578","null","null","<p style=""font-size: 60px; font-family: BACS"">bYGOZrGl</p>","","","","","","","","",""
"html-keyboard-response","189","231939","0.0-12.0-0.19","5b213220809d160001a2c36d","650c16f0f2faf8d7a0d14c09","651c1c70f89f19184fe3b578","null","null","<p style=""font-size: 60px; font-family: BACS"">BMEMAmtKP</p>","","","","","","","","",""
"html-keyboard-response","190","232940","0.0-12.0-0.20","5b213220809d160001a2c36d","650c16f0f2faf8d7a0d14c09","651c1c70f89f19184fe3b578","null","null","<p style=""font-size: 60px; font-family: BACS"">PCPDhOtM</p>","","","","","","","","",""
"html-keyboard-response","191","233942","0.0-12.0-0.21","5b213220809d160001a2c36d","650c16f0f2faf8d7a0d14c09","651c1c70f89f19184fe3b578","null","null","<p style=""font-size: 60px; font-family: BACS"">YJLcAdUr</p>","","","","","","","","",""
"html-keyboard-response","192","234942","0.0-12.0-0.22","5b213220809d160001a2c36d","650c16f0f2faf8d7a0d14c09","651c1c70f89f19184fe3b578","null","null","<p style=""font-size: 60px; font-family: BACS"">OEPkYDTk</p>","","","","","","","","",""
"html-keyboard-response","193","235943","0.0-12.0-0.23","5b213220809d160001a2c36d","650c16f0f2faf8d7a0d14c09","651c1c70f89f19184fe3b578","null","null","<p style=""font-size: 60px; font-family: BACS"">AMkCdRA</p>","","","","","","","","",""
"html-keyboard-response","194","236944","0.0-12.0-0.24","5b213220809d160001a2c36d","650c16f0f2faf8d7a0d14c09","651c1c70f89f19184fe3b578","null","null","<p style=""font-size: 60px; font-family: BACS"">BMEMAOtM</p>","","","","","","","","",""
"html-keyboard-response","195","237947","0.0-12.0-0.25","5b213220809d160001a2c36d","650c16f0f2faf8d7a0d14c09","651c1c70f89f19184fe3b578","null","null","<p style=""font-size: 60px; font-family: BACS"">UYZlZrab</p>","","","","","","","","",""
"html-keyboard-response","196","238949","0.0-12.0-0.26","5b213220809d160001a2c36d","650c16f0f2faf8d7a0d14c09","651c1c70f89f19184fe3b578","null","null","<p style=""font-size: 60px; font-family: BACS"">GNAcaLYGA</p>","","","","","","","","",""
"html-keyboard-response","197","239950","0.0-12.0-0.27","5b213220809d160001a2c36d","650c16f0f2faf8d7a0d14c09","651c1c70f89f19184fe3b578","null","null","<p style=""font-size: 60px; font-family: BACS"">OEPkdRA</p>","","","","","","","","",""
"html-keyboard-response","198","240951","0.0-12.0-0.28","5b213220809d160001a2c36d","650c16f0f2faf8d7a0d14c09","651c1c70f89f19184fe3b578","null","null","<p style=""font-size: 60px; font-family: BACS"">EltMBOtM</p>","","","","","","","","",""
"html-keyboard-response","199","241953","0.0-12.0-0.29","5b213220809d160001a2c36d","650c16f0f2faf8d7a0d14c09","651c1c70f89f19184fe3b578","null","null","<p style=""font-size: 60px; font-family: BACS"">ObOQlrab</p>","","","","","","","","",""
"html-keyboard-response","200","242953","0.0-12.0-0.30","5b213220809d160001a2c36d","650c16f0f2faf8d7a0d14c09","651c1c70f89f19184fe3b578","null","null","<p style=""font-size: 60px; font-family: BACS"">AZaJcmLJ</p>","","","","","","","","",""
"html-keyboard-response","201","243954","0.0-12.0-0.31","5b213220809d160001a2c36d","650c16f0f2faf8d7a0d14c09","651c1c70f89f19184fe3b578","null","null","<p style=""font-size: 60px; font-family: BACS"">dRhtmtKP</p>","","","","","","","","",""
"html-keyboard-response","202","244956","0.0-12.0-0.32","5b213220809d160001a2c36d","650c16f0f2faf8d7a0d14c09","651c1c70f89f19184fe3b578","null","null","<p style=""font-size: 60px; font-family: BACS"">LdQvLYGA</p>","","","","","","","","",""
"html-keyboard-response","203","245956","0.0-12.0-0.33","5b213220809d160001a2c36d","650c16f0f2faf8d7a0d14c09","651c1c70f89f19184fe3b578","null","null","<p style=""font-size: 60px; font-family: BACS"">GNAcarab</p>","","","","","","","","",""
"html-keyboard-response","204","246958","0.0-12.0-0.34","5b213220809d160001a2c36d","650c16f0f2faf8d7a0d14c09","651c1c70f89f19184fe3b578","null","null","<p style=""font-size: 60px; font-family: BACS"">dRhtdRA</p>","","","","","","","","",""
"html-keyboard-response","205","247959","0.0-12.0-0.35","5b213220809d160001a2c36d","650c16f0f2faf8d7a0d14c09","651c1c70f89f19184fe3b578","null","null","<p style=""font-size: 60px; font-family: BACS"">JmvmOdUr</p>","","","","","","","","",""
"html-keyboard-response","206","248960","0.0-12.0-0.36","5b213220809d160001a2c36d","650c16f0f2faf8d7a0d14c09","651c1c70f89f19184fe3b578","null","null","<p style=""font-size: 60px; font-family: BACS"">EdBbYDTk</p>","","","","","","","","",""
"html-keyboard-response","207","249962","0.0-12.0-0.37","5b213220809d160001a2c36d","650c16f0f2faf8d7a0d14c09","651c1c70f89f19184fe3b578","null","null","<p style=""font-size: 60px; font-family: BACS"">DcPTcdRA</p>","","","","","","","","",""
"html-keyboard-response","208","250962","0.0-12.0-0.38","5b213220809d160001a2c36d","650c16f0f2faf8d7a0d14c09","651c1c70f89f19184fe3b578","null","null","<p style=""font-size: 60px; font-family: BACS"">QcQAJrGl</p>","","","","","","","","",""
"html-keyboard-response","209","251964","0.0-12.0-0.39","5b213220809d160001a2c36d","650c16f0f2faf8d7a0d14c09","651c1c70f89f19184fe3b578","null","null","<p style=""font-size: 60px; font-family: BACS"">cBROBdRA</p>","","","","","","","","",""
"html-keyboard-response","210","252965","0.0-12.0-0.40","5b213220809d160001a2c36d","650c16f0f2faf8d7a0d14c09","651c1c70f89f19184fe3b578","null","null","<p style=""font-size: 60px; font-family: BACS"">UYZlZmLJ</p>","","","","","","","","",""
"html-keyboard-response","211","253966","0.0-12.0-0.41","5b213220809d160001a2c36d","650c16f0f2faf8d7a0d14c09","651c1c70f89f19184fe3b578","null","null","<p style=""font-size: 60px; font-family: BACS"">DcPTcOBT</p>","","","","","","","","",""
"html-keyboard-response","212","254968","0.0-12.0-0.42","5b213220809d160001a2c36d","650c16f0f2faf8d7a0d14c09","651c1c70f89f19184fe3b578","null","null","<p style=""font-size: 60px; font-family: BACS"">AZaJcrab</p>","","","","","","","","",""
"html-keyboard-response","213","255968","0.0-12.0-0.43","5b213220809d160001a2c36d","650c16f0f2faf8d7a0d14c09","651c1c70f89f19184fe3b578","null","null","<p style=""font-size: 60px; font-family: BACS"">ObOQldUr</p>","","","","","","","","",""
"html-keyboard-response","214","256969","0.0-12.0-0.44","5b213220809d160001a2c36d","650c16f0f2faf8d7a0d14c09","651c1c70f89f19184fe3b578","null","null","<p style=""font-size: 60px; font-family: BACS"">EltMBOBT</p>","","","","","","","","",""
"html-keyboard-response","215","257970","0.0-12.0-0.45","5b213220809d160001a2c36d","650c16f0f2faf8d7a0d14c09","651c1c70f89f19184fe3b578","null","null","<p style=""font-size: 60px; font-family: BACS"">cBROBmtKP</p>","","","","","","","","",""
"html-keyboard-response","216","258971","0.0-12.0-0.46","5b213220809d160001a2c36d","650c16f0f2faf8d7a0d14c09","651c1c70f89f19184fe3b578","null","null","<p style=""font-size: 60px; font-family: BACS"">EdBbOBT</p>","","","","","","","","",""
"html-keyboard-response","217","259973","0.0-12.0-0.47","5b213220809d160001a2c36d","650c16f0f2faf8d7a0d14c09","651c1c70f89f19184fe3b578","null","null","<p style=""font-size: 60px; font-family: BACS"">lcOcLYGA</p>","","","","","","","","",""
"html-keyboard-response","218","260974","0.0-12.0-0.48","5b213220809d160001a2c36d","650c16f0f2faf8d7a0d14c09","651c1c70f89f19184fe3b578","null","null","<p style=""font-size: 60px; font-family: BACS"">cBROBOBT</p>","","","","","","","","",""
"html-keyboard-response","219","261975","0.0-12.0-0.49","5b213220809d160001a2c36d","650c16f0f2faf8d7a0d14c09","651c1c70f89f19184fe3b578","null","null","<p style=""font-size: 60px; font-family: BACS"">BMEMAdRA</p>","","","","","","","","",""
"html-keyboard-response","220","262976","0.0-12.0-0.50","5b213220809d160001a2c36d","650c16f0f2faf8d7a0d14c09","651c1c70f89f19184fe3b578","null","null","<p style=""font-size: 60px; font-family: BACS"">QcQAJmLJ</p>","","","","","","","","",""
"html-keyboard-response","221","263977","0.0-12.0-0.51","5b213220809d160001a2c36d","650c16f0f2faf8d7a0d14c09","651c1c70f89f19184fe3b578","null","null","<p style=""font-size: 60px; font-family: BACS"">GNAcarGl</p>","","","","","","","","",""
"html-keyboard-response","222","264978","0.0-12.0-0.52","5b213220809d160001a2c36d","650c16f0f2faf8d7a0d14c09","651c1c70f89f19184fe3b578","null","null","<p style=""font-size: 60px; font-family: BACS"">ObOQlmLJ</p>","","","","","","","","",""
"html-keyboard-response","223","265979","0.0-12.0-0.53","5b213220809d160001a2c36d","650c16f0f2faf8d7a0d14c09","651c1c70f89f19184fe3b578","null","null","<p style=""font-size: 60px; font-family: BACS"">bYGOZLYGA</p>","","","","","","","","",""
"html-keyboard-response","224","266980","0.0-12.0-0.54","5b213220809d160001a2c36d","650c16f0f2faf8d7a0d14c09","651c1c70f89f19184fe3b578","null","null","<p style=""font-size: 60px; font-family: BACS"">dMYBPYDTk</p>","","","","","","","","",""
"html-keyboard-response","225","267982","0.0-12.0-0.55","5b213220809d160001a2c36d","650c16f0f2faf8d7a0d14c09","651c1c70f89f19184fe3b578","null","null","<p style=""font-size: 60px; font-family: BACS"">UYZlZdUr</p>","","","","","","","","",""
"html-keyboard-response","226","268982","0.0-12.0-0.56","5b213220809d160001a2c36d","650c16f0f2faf8d7a0d14c09","651c1c70f89f19184fe3b578","null","null","<p style=""font-size: 60px; font-family: BACS"">YJLcALYGA</p>","","","","","","","","",""
"html-keyboard-response","227","269984","0.0-12.0-0.57","5b213220809d160001a2c36d","650c16f0f2faf8d7a0d14c09","651c1c70f89f19184fe3b578","null","null","<p style=""font-size: 60px; font-family: BACS"">lcOcrab</p>","","","","","","","","",""
"html-keyboard-response","228","270985","0.0-12.0-0.58","5b213220809d160001a2c36d","650c16f0f2faf8d7a0d14c09","651c1c70f89f19184fe3b578","null","null","<p style=""font-size: 60px; font-family: BACS"">dMYBPmtKP</p>","","","","","","","","",""
"html-keyboard-response","229","271987","0.0-12.0-0.59","5b213220809d160001a2c36d","650c16f0f2faf8d7a0d14c09","651c1c70f89f19184fe3b578","null","null","<p style=""font-size: 60px; font-family: BACS"">EltMBYDTk</p>","","","","","","","","",""
"html-keyboard-response","230","272987","0.0-12.0-0.60","5b213220809d160001a2c36d","650c16f0f2faf8d7a0d14c09","651c1c70f89f19184fe3b578","null","null","<p style=""font-size: 60px; font-family: BACS"">lcOcmLJ</p>","","","","","","","","",""
"html-keyboard-response","231","273989","0.0-12.0-0.61","5b213220809d160001a2c36d","650c16f0f2faf8d7a0d14c09","651c1c70f89f19184fe3b578","null","null","<p style=""font-size: 60px; font-family: BACS"">bYGOZrab</p>","","","","","","","","",""
"html-keyboard-response","232","274990","0.0-12.0-0.62","5b213220809d160001a2c36d","650c16f0f2faf8d7a0d14c09","651c1c70f89f19184fe3b578","null","null","<p style=""font-size: 60px; font-family: BACS"">PCPDhYDTk</p>","","","","","","","","",""
"html-keyboard-response","233","275991","0.0-12.0-0.63","5b213220809d160001a2c36d","650c16f0f2faf8d7a0d14c09","651c1c70f89f19184fe3b578","null","null","<p style=""font-size: 60px; font-family: BACS"">AZaJcdUr</p>","","","","","","","","",""
"html-keyboard-response","234","276993","0.0-12.0-0.64","5b213220809d160001a2c36d","650c16f0f2faf8d7a0d14c09","651c1c70f89f19184fe3b578","null","null","<p style=""font-size: 60px; font-family: BACS"">UYZlZrGl</p>","","","","","","","","",""
"html-keyboard-response","235","277994","0.0-12.0-0.65","5b213220809d160001a2c36d","650c16f0f2faf8d7a0d14c09","651c1c70f89f19184fe3b578","null","null","<p style=""font-size: 60px; font-family: BACS"">AMkCYDTk</p>","","","","","","","","",""
"html-keyboard-response","236","278995","0.0-12.0-0.66","5b213220809d160001a2c36d","650c16f0f2faf8d7a0d14c09","651c1c70f89f19184fe3b578","null","null","<p style=""font-size: 60px; font-family: BACS"">DcPTcOtM</p>","","","","","","","","",""
"html-keyboard-response","237","279997","0.0-12.0-0.67","5b213220809d160001a2c36d","650c16f0f2faf8d7a0d14c09","651c1c70f89f19184fe3b578","null","null","<p style=""font-size: 60px; font-family: BACS"">QcQAJrab</p>","","","","","","","","",""
"html-keyboard-response","238","280998","0.0-12.0-0.68","5b213220809d160001a2c36d","650c16f0f2faf8d7a0d14c09","651c1c70f89f19184fe3b578","null","null","<p style=""font-size: 60px; font-family: BACS"">BMEMAYDTk</p>","","","","","","","","",""
"html-keyboard-response","239","281999","0.0-12.0-0.69","5b213220809d160001a2c36d","650c16f0f2faf8d7a0d14c09","651c1c70f89f19184fe3b578","null","null","<p style=""font-size: 60px; font-family: BACS"">ObOQlLYGA</p>","","","","","","","","",""
"html-keyboard-response","240","283000","0.0-12.0-0.70","5b213220809d160001a2c36d","650c16f0f2faf8d7a0d14c09","651c1c70f89f19184fe3b578","null","null","<p style=""font-size: 60px; font-family: BACS"">dRhtOBT</p>","","","","","","","","",""
"html-keyboard-response","241","284002","0.0-12.0-0.71","5b213220809d160001a2c36d","650c16f0f2faf8d7a0d14c09","651c1c70f89f19184fe3b578","null","null","<p style=""font-size: 60px; font-family: BACS"">dMYBPOtM</p>","","","","","","","","",""
"html-keyboard-response","242","285003","0.0-12.0-0.72","5b213220809d160001a2c36d","650c16f0f2faf8d7a0d14c09","651c1c70f89f19184fe3b578","null","null","<p style=""font-size: 60px; font-family: BACS"">EdBbdRA</p>","","","","","","","","",""
"html-keyboard-response","243","286004","0.0-12.0-0.73","5b213220809d160001a2c36d","650c16f0f2faf8d7a0d14c09","651c1c70f89f19184fe3b578","null","null","<p style=""font-size: 60px; font-family: BACS"">AZaJcrGl</p>","","","","","","","","",""
"html-keyboard-response","244","287005","0.0-12.0-0.74","5b213220809d160001a2c36d","650c16f0f2faf8d7a0d14c09","651c1c70f89f19184fe3b578","null","null","<p style=""font-size: 60px; font-family: BACS"">dRhtYDTk</p>","","","","","","","","",""
"html-keyboard-response","245","288007","0.0-12.0-0.75","5b213220809d160001a2c36d","650c16f0f2faf8d7a0d14c09","651c1c70f89f19184fe3b578","null","null","<p style=""font-size: 60px; font-family: BACS"">EltMBdRA</p>","","","","","","","","",""
"html-keyboard-response","246","289007","0.0-12.0-0.76","5b213220809d160001a2c36d","650c16f0f2faf8d7a0d14c09","651c1c70f89f19184fe3b578","null","null","<p style=""font-size: 60px; font-family: BACS"">EdBbOtM</p>","","","","","","","","",""
"html-keyboard-response","247","290009","0.0-12.0-0.77","5b213220809d160001a2c36d","650c16f0f2faf8d7a0d14c09","651c1c70f89f19184fe3b578","null","null","<p style=""font-size: 60px; font-family: BACS"">LdQvrGl</p>","","","","","","","","",""
"html-keyboard-response","248","291010","0.0-12.0-0.78","5b213220809d160001a2c36d","650c16f0f2faf8d7a0d14c09","651c1c70f89f19184fe3b578","null","null","<p style=""font-size: 60px; font-family: BACS"">JmvmOmLJ</p>","","","","","","","","",""
"html-keyboard-response","249","292011","0.0-12.0-0.79","5b213220809d160001a2c36d","650c16f0f2faf8d7a0d14c09","651c1c70f89f19184fe3b578","null","null","<p style=""font-size: 60px; font-family: BACS"">QcQAJLYGA</p>","","","","","","","","",""
"html-keyboard-response","250","296249","0.0-13.0","5b213220809d160001a2c36d","650c16f0f2faf8d7a0d14c09","651c1c70f89f19184fe3b578","4236"," ","<p>Great, you've seen the third block of words. You may now take a short break.</p>
      <p>Press the spacebar when you're ready to continue.</p>","","","","","","","","",""
"html-keyboard-response","251","297250","0.0-14.0-0.0","5b213220809d160001a2c36d","650c16f0f2faf8d7a0d14c09","651c1c70f89f19184fe3b578","null","null","<p style=""font-size: 60px; font-family: BACS"">YJLcAdUr</p>","","","","","","","","",""
"html-keyboard-response","252","298251","0.0-14.0-0.1","5b213220809d160001a2c36d","650c16f0f2faf8d7a0d14c09","651c1c70f89f19184fe3b578","null","null","<p style=""font-size: 60px; font-family: BACS"">AMkCmtKP</p>","","","","","","","","",""
"html-keyboard-response","253","299253","0.0-14.0-0.2","5b213220809d160001a2c36d","650c16f0f2faf8d7a0d14c09","651c1c70f89f19184fe3b578","null","null","<p style=""font-size: 60px; font-family: BACS"">UYZlZrGl</p>","","","","","","","","",""
"html-keyboard-response","254","300254","0.0-14.0-0.3","5b213220809d160001a2c36d","650c16f0f2faf8d7a0d14c09","651c1c70f89f19184fe3b578","null","null","<p style=""font-size: 60px; font-family: BACS"">JmvmOmLJ</p>","","","","","","","","",""
"html-keyboard-response","255","301255","0.0-14.0-0.4","5b213220809d160001a2c36d","650c16f0f2faf8d7a0d14c09","651c1c70f89f19184fe3b578","null","null","<p style=""font-size: 60px; font-family: BACS"">lcOcdUr</p>","","","","","","","","",""
"html-keyboard-response","256","302256","0.0-14.0-0.5","5b213220809d160001a2c36d","650c16f0f2faf8d7a0d14c09","651c1c70f89f19184fe3b578","null","null","<p style=""font-size: 60px; font-family: BACS"">UYZlZmLJ</p>","","","","","","","","",""
"html-keyboard-response","257","303257","0.0-14.0-0.6","5b213220809d160001a2c36d","650c16f0f2faf8d7a0d14c09","651c1c70f89f19184fe3b578","null","null","<p style=""font-size: 60px; font-family: BACS"">dMYBPYDTk</p>","","","","","","","","",""
"html-keyboard-response","258","304259","0.0-14.0-0.7","5b213220809d160001a2c36d","650c16f0f2faf8d7a0d14c09","651c1c70f89f19184fe3b578","null","null","<p style=""font-size: 60px; font-family: BACS"">UYZlZdUr</p>","","","","","","","","",""
"html-keyboard-response","259","305260","0.0-14.0-0.8","5b213220809d160001a2c36d","650c16f0f2faf8d7a0d14c09","651c1c70f89f19184fe3b578","null","null","<p style=""font-size: 60px; font-family: BACS"">GNAcaLYGA</p>","","","","","","","","",""
"html-keyboard-response","260","306261","0.0-14.0-0.9","5b213220809d160001a2c36d","650c16f0f2faf8d7a0d14c09","651c1c70f89f19184fe3b578","null","null","<p style=""font-size: 60px; font-family: BACS"">LdQvmLJ</p>","","","","","","","","",""
"html-keyboard-response","261","307263","0.0-14.0-0.10","5b213220809d160001a2c36d","650c16f0f2faf8d7a0d14c09","651c1c70f89f19184fe3b578","null","null","<p style=""font-size: 60px; font-family: BACS"">dMYBPOBT</p>","","","","","","","","",""
"html-keyboard-response","262","308264","0.0-14.0-0.11","5b213220809d160001a2c36d","650c16f0f2faf8d7a0d14c09","651c1c70f89f19184fe3b578","null","null","<p style=""font-size: 60px; font-family: BACS"">GNAcarab</p>","","","","","","","","",""
"html-keyboard-response","263","309265","0.0-14.0-0.12","5b213220809d160001a2c36d","650c16f0f2faf8d7a0d14c09","651c1c70f89f19184fe3b578","null","null","<p style=""font-size: 60px; font-family: BACS"">EltMBYDTk</p>","","","","","","","","",""
"html-keyboard-response","264","310267","0.0-14.0-0.13","5b213220809d160001a2c36d","650c16f0f2faf8d7a0d14c09","651c1c70f89f19184fe3b578","null","null","<p style=""font-size: 60px; font-family: BACS"">AZaJcrGl</p>","","","","","","","","",""
"html-keyboard-response","265","311268","0.0-14.0-0.14","5b213220809d160001a2c36d","650c16f0f2faf8d7a0d14c09","651c1c70f89f19184fe3b578","null","null","<p style=""font-size: 60px; font-family: BACS"">dMYBPmtKP</p>","","","","","","","","",""
"html-keyboard-response","266","312269","0.0-14.0-0.15","5b213220809d160001a2c36d","650c16f0f2faf8d7a0d14c09","651c1c70f89f19184fe3b578","null","null","<p style=""font-size: 60px; font-family: BACS"">EdBbOtM</p>","","","","","","","","",""
"html-keyboard-response","267","313271","0.0-14.0-0.16","5b213220809d160001a2c36d","650c16f0f2faf8d7a0d14c09","651c1c70f89f19184fe3b578","null","null","<p style=""font-size: 60px; font-family: BACS"">QcQAJLYGA</p>","","","","","","","","",""
"html-keyboard-response","268","314271","0.0-14.0-0.17","5b213220809d160001a2c36d","650c16f0f2faf8d7a0d14c09","651c1c70f89f19184fe3b578","null","null","<p style=""font-size: 60px; font-family: BACS"">LdQvrGl</p>","","","","","","","","",""
"html-keyboard-response","269","315273","0.0-14.0-0.18","5b213220809d160001a2c36d","650c16f0f2faf8d7a0d14c09","651c1c70f89f19184fe3b578","null","null","<p style=""font-size: 60px; font-family: BACS"">dRhtdRA</p>","","","","","","","","",""
"html-keyboard-response","270","316274","0.0-14.0-0.19","5b213220809d160001a2c36d","650c16f0f2faf8d7a0d14c09","651c1c70f89f19184fe3b578","null","null","<p style=""font-size: 60px; font-family: BACS"">ObOQlmLJ</p>","","","","","","","","",""
"html-keyboard-response","271","317275","0.0-14.0-0.20","5b213220809d160001a2c36d","650c16f0f2faf8d7a0d14c09","651c1c70f89f19184fe3b578","null","null","<p style=""font-size: 60px; font-family: BACS"">PCPDhmtKP</p>","","","","","","","","",""
"html-keyboard-response","272","318277","0.0-14.0-0.21","5b213220809d160001a2c36d","650c16f0f2faf8d7a0d14c09","651c1c70f89f19184fe3b578","null","null","<p style=""font-size: 60px; font-family: BACS"">OEPkYDTk</p>","","","","","","","","",""
"html-keyboard-response","273","319277","0.0-14.0-0.22","5b213220809d160001a2c36d","650c16f0f2faf8d7a0d14c09","651c1c70f89f19184fe3b578","null","null","<p style=""font-size: 60px; font-family: BACS"">EltMBOBT</p>","","","","","","","","",""
"html-keyboard-response","274","320278","0.0-14.0-0.23","5b213220809d160001a2c36d","650c16f0f2faf8d7a0d14c09","651c1c70f89f19184fe3b578","null","null","<p style=""font-size: 60px; font-family: BACS"">bYGOZLYGA</p>","","","","","","","","",""
"html-keyboard-response","275","321280","0.0-14.0-0.24","5b213220809d160001a2c36d","650c16f0f2faf8d7a0d14c09","651c1c70f89f19184fe3b578","null","null","<p style=""font-size: 60px; font-family: BACS"">EdBbdRA</p>","","","","","","","","",""
"html-keyboard-response","276","322281","0.0-14.0-0.25","5b213220809d160001a2c36d","650c16f0f2faf8d7a0d14c09","651c1c70f89f19184fe3b578","null","null","<p style=""font-size: 60px; font-family: BACS"">bYGOZdUr</p>","","","","","","","","",""
"html-keyboard-response","277","323283","0.0-14.0-0.26","5b213220809d160001a2c36d","650c16f0f2faf8d7a0d14c09","651c1c70f89f19184fe3b578","null","null","<p style=""font-size: 60px; font-family: BACS"">ObOQlLYGA</p>","","","","","","","","",""
"html-keyboard-response","278","324284","0.0-14.0-0.27","5b213220809d160001a2c36d","650c16f0f2faf8d7a0d14c09","651c1c70f89f19184fe3b578","null","null","<p style=""font-size: 60px; font-family: BACS"">OEPkdRA</p>","","","","","","","","",""
"html-keyboard-response","279","325285","0.0-14.0-0.28","5b213220809d160001a2c36d","650c16f0f2faf8d7a0d14c09","651c1c70f89f19184fe3b578","null","null","<p style=""font-size: 60px; font-family: BACS"">PCPDhOtM</p>","","","","","","","","",""
"html-keyboard-response","280","326286","0.0-14.0-0.29","5b213220809d160001a2c36d","650c16f0f2faf8d7a0d14c09","651c1c70f89f19184fe3b578","null","null","<p style=""font-size: 60px; font-family: BACS"">AZaJcdUr</p>","","","","","","","","",""
"html-keyboard-response","281","327287","0.0-14.0-0.30","5b213220809d160001a2c36d","650c16f0f2faf8d7a0d14c09","651c1c70f89f19184fe3b578","null","null","<p style=""font-size: 60px; font-family: BACS"">EltMBOtM</p>","","","","","","","","",""
"html-keyboard-response","282","328289","0.0-14.0-0.31","5b213220809d160001a2c36d","650c16f0f2faf8d7a0d14c09","651c1c70f89f19184fe3b578","null","null","<p style=""font-size: 60px; font-family: BACS"">UYZlZrab</p>","","","","","","","","",""
"html-keyboard-response","283","329289","0.0-14.0-0.32","5b213220809d160001a2c36d","650c16f0f2faf8d7a0d14c09","651c1c70f89f19184fe3b578","null","null","<p style=""font-size: 60px; font-family: BACS"">dRhtmtKP</p>","","","","","","","","",""
"html-keyboard-response","284","330291","0.0-14.0-0.33","5b213220809d160001a2c36d","650c16f0f2faf8d7a0d14c09","651c1c70f89f19184fe3b578","null","null","<p style=""font-size: 60px; font-family: BACS"">JmvmOrGl</p>","","","","","","","","",""
"html-keyboard-response","285","331294","0.0-14.0-0.34","5b213220809d160001a2c36d","650c16f0f2faf8d7a0d14c09","651c1c70f89f19184fe3b578","null","null","<p style=""font-size: 60px; font-family: BACS"">DcPTcOBT</p>","","","","","","","","",""
"html-keyboard-response","286","332300","0.0-14.0-0.35","5b213220809d160001a2c36d","650c16f0f2faf8d7a0d14c09","651c1c70f89f19184fe3b578","null","null","<p style=""font-size: 60px; font-family: BACS"">YJLcALYGA</p>","","","","","","","","",""
"html-keyboard-response","287","333302","0.0-14.0-0.36","5b213220809d160001a2c36d","650c16f0f2faf8d7a0d14c09","651c1c70f89f19184fe3b578","null","null","<p style=""font-size: 60px; font-family: BACS"">DcPTcdRA</p>","","","","","","","","",""
"html-keyboard-response","288","334303","0.0-14.0-0.37","5b213220809d160001a2c36d","650c16f0f2faf8d7a0d14c09","651c1c70f89f19184fe3b578","null","null","<p style=""font-size: 60px; font-family: BACS"">AZaJcmLJ</p>","","","","","","","","",""
"html-keyboard-response","289","335304","0.0-14.0-0.38","5b213220809d160001a2c36d","650c16f0f2faf8d7a0d14c09","651c1c70f89f19184fe3b578","null","null","<p style=""font-size: 60px; font-family: BACS"">DcPTcOtM</p>","","","","","","","","",""
"html-keyboard-response","290","336305","0.0-14.0-0.39","5b213220809d160001a2c36d","650c16f0f2faf8d7a0d14c09","651c1c70f89f19184fe3b578","null","null","<p style=""font-size: 60px; font-family: BACS"">QcQAJrab</p>","","","","","","","","",""
"html-keyboard-response","291","337306","0.0-14.0-0.40","5b213220809d160001a2c36d","650c16f0f2faf8d7a0d14c09","651c1c70f89f19184fe3b578","null","null","<p style=""font-size: 60px; font-family: BACS"">cBROBmtKP</p>","","","","","","","","",""
"html-keyboard-response","292","338307","0.0-14.0-0.41","5b213220809d160001a2c36d","650c16f0f2faf8d7a0d14c09","651c1c70f89f19184fe3b578","null","null","<p style=""font-size: 60px; font-family: BACS"">lcOcmLJ</p>","","","","","","","","",""
"html-keyboard-response","293","339309","0.0-14.0-0.42","5b213220809d160001a2c36d","650c16f0f2faf8d7a0d14c09","651c1c70f89f19184fe3b578","null","null","<p style=""font-size: 60px; font-family: BACS"">AMkCdRA</p>","","","","","","","","",""
"html-keyboard-response","294","340310","0.0-14.0-0.43","5b213220809d160001a2c36d","650c16f0f2faf8d7a0d14c09","651c1c70f89f19184fe3b578","null","null","<p style=""font-size: 60px; font-family: BACS"">cBROBOBT</p>","","","","","","","","",""
"html-keyboard-response","295","341310","0.0-14.0-0.44","5b213220809d160001a2c36d","650c16f0f2faf8d7a0d14c09","651c1c70f89f19184fe3b578","null","null","<p style=""font-size: 60px; font-family: BACS"">GNAcamLJ</p>","","","","","","","","",""
"html-keyboard-response","296","342312","0.0-14.0-0.45","5b213220809d160001a2c36d","650c16f0f2faf8d7a0d14c09","651c1c70f89f19184fe3b578","null","null","<p style=""font-size: 60px; font-family: BACS"">OEPkOBT</p>","","","","","","","","",""
"html-keyboard-response","297","343313","0.0-14.0-0.46","5b213220809d160001a2c36d","650c16f0f2faf8d7a0d14c09","651c1c70f89f19184fe3b578","null","null","<p style=""font-size: 60px; font-family: BACS"">cBROBdRA</p>","","","","","","","","",""
"html-keyboard-response","298","344315","0.0-14.0-0.47","5b213220809d160001a2c36d","650c16f0f2faf8d7a0d14c09","651c1c70f89f19184fe3b578","null","null","<p style=""font-size: 60px; font-family: BACS"">AMkCYDTk</p>","","","","","","","","",""
"html-keyboard-response","299","345315","0.0-14.0-0.48","5b213220809d160001a2c36d","650c16f0f2faf8d7a0d14c09","651c1c70f89f19184fe3b578","null","null","<p style=""font-size: 60px; font-family: BACS"">dRhtOBT</p>","","","","","","","","",""
"html-keyboard-response","300","346317","0.0-14.0-0.49","5b213220809d160001a2c36d","650c16f0f2faf8d7a0d14c09","651c1c70f89f19184fe3b578","null","null","<p style=""font-size: 60px; font-family: BACS"">bYGOZrGl</p>","","","","","","","","",""
"html-keyboard-response","301","347318","0.0-14.0-0.50","5b213220809d160001a2c36d","650c16f0f2faf8d7a0d14c09","651c1c70f89f19184fe3b578","null","null","<p style=""font-size: 60px; font-family: BACS"">OEPkmtKP</p>","","","","","","","","",""
"html-keyboard-response","302","348319","0.0-14.0-0.51","5b213220809d160001a2c36d","650c16f0f2faf8d7a0d14c09","651c1c70f89f19184fe3b578","null","null","<p style=""font-size: 60px; font-family: BACS"">BMEMAdRA</p>","","","","","","","","",""
"html-keyboard-response","303","349320","0.0-14.0-0.52","5b213220809d160001a2c36d","650c16f0f2faf8d7a0d14c09","651c1c70f89f19184fe3b578","null","null","<p style=""font-size: 60px; font-family: BACS"">QcQAJrGl</p>","","","","","","","","",""
"html-keyboard-response","304","350322","0.0-14.0-0.53","5b213220809d160001a2c36d","650c16f0f2faf8d7a0d14c09","651c1c70f89f19184fe3b578","null","null","<p style=""font-size: 60px; font-family: BACS"">EdBbYDTk</p>","","","","","","","","",""
"html-keyboard-response","305","351323","0.0-14.0-0.54","5b213220809d160001a2c36d","650c16f0f2faf8d7a0d14c09","651c1c70f89f19184fe3b578","null","null","<p style=""font-size: 60px; font-family: BACS"">DcPTcmtKP</p>","","","","","","","","",""
"html-keyboard-response","306","352324","0.0-14.0-0.55","5b213220809d160001a2c36d","650c16f0f2faf8d7a0d14c09","651c1c70f89f19184fe3b578","null","null","<p style=""font-size: 60px; font-family: BACS"">cBROBOtM</p>","","","","","","","","",""
"html-keyboard-response","307","353325","0.0-14.0-0.56","5b213220809d160001a2c36d","650c16f0f2faf8d7a0d14c09","651c1c70f89f19184fe3b578","null","null","<p style=""font-size: 60px; font-family: BACS"">AZaJcrab</p>","","","","","","","","",""
"html-keyboard-response","308","354326","0.0-14.0-0.57","5b213220809d160001a2c36d","650c16f0f2faf8d7a0d14c09","651c1c70f89f19184fe3b578","null","null","<p style=""font-size: 60px; font-family: BACS"">PCPDhOBT</p>","","","","","","","","",""
"html-keyboard-response","309","355328","0.0-14.0-0.58","5b213220809d160001a2c36d","650c16f0f2faf8d7a0d14c09","651c1c70f89f19184fe3b578","null","null","<p style=""font-size: 60px; font-family: BACS"">JmvmOLYGA</p>","","","","","","","","",""
"html-keyboard-response","310","356329","0.0-14.0-0.59","5b213220809d160001a2c36d","650c16f0f2faf8d7a0d14c09","651c1c70f89f19184fe3b578","null","null","<p style=""font-size: 60px; font-family: BACS"">EltMBdRA</p>","","","","","","","","",""
"html-keyboard-response","311","357330","0.0-14.0-0.60","5b213220809d160001a2c36d","650c16f0f2faf8d7a0d14c09","651c1c70f89f19184fe3b578","null","null","<p style=""font-size: 60px; font-family: BACS"">dRhtYDTk</p>","","","","","","","","",""
"html-keyboard-response","312","358331","0.0-14.0-0.61","5b213220809d160001a2c36d","650c16f0f2faf8d7a0d14c09","651c1c70f89f19184fe3b578","null","null","<p style=""font-size: 60px; font-family: BACS"">AMkCOtM</p>","","","","","","","","",""
"html-keyboard-response","313","359332","0.0-14.0-0.62","5b213220809d160001a2c36d","650c16f0f2faf8d7a0d14c09","651c1c70f89f19184fe3b578","null","null","<p style=""font-size: 60px; font-family: BACS"">YJLcArab</p>","","","","","","","","",""
"html-keyboard-response","314","360334","0.0-14.0-0.63","5b213220809d160001a2c36d","650c16f0f2faf8d7a0d14c09","651c1c70f89f19184fe3b578","null","null","<p style=""font-size: 60px; font-family: BACS"">JmvmOdUr</p>","","","","","","","","",""
"html-keyboard-response","315","361335","0.0-14.0-0.64","5b213220809d160001a2c36d","650c16f0f2faf8d7a0d14c09","651c1c70f89f19184fe3b578","null","null","<p style=""font-size: 60px; font-family: BACS"">lcOcrab</p>","","","","","","","","",""
"html-keyboard-response","316","362336","0.0-14.0-0.65","5b213220809d160001a2c36d","650c16f0f2faf8d7a0d14c09","651c1c70f89f19184fe3b578","null","null","<p style=""font-size: 60px; font-family: BACS"">LdQvdUr</p>","","","","","","","","",""
"html-keyboard-response","317","363337","0.0-14.0-0.66","5b213220809d160001a2c36d","650c16f0f2faf8d7a0d14c09","651c1c70f89f19184fe3b578","null","null","<p style=""font-size: 60px; font-family: BACS"">BMEMAYDTk</p>","","","","","","","","",""
"html-keyboard-response","318","364339","0.0-14.0-0.67","5b213220809d160001a2c36d","650c16f0f2faf8d7a0d14c09","651c1c70f89f19184fe3b578","null","null","<p style=""font-size: 60px; font-family: BACS"">dMYBPOtM</p>","","","","","","","","",""
"html-keyboard-response","319","365340","0.0-14.0-0.68","5b213220809d160001a2c36d","650c16f0f2faf8d7a0d14c09","651c1c70f89f19184fe3b578","null","null","<p style=""font-size: 60px; font-family: BACS"">ObOQlrab</p>","","","","","","","","",""
"html-keyboard-response","320","366341","0.0-14.0-0.69","5b213220809d160001a2c36d","650c16f0f2faf8d7a0d14c09","651c1c70f89f19184fe3b578","null","null","<p style=""font-size: 60px; font-family: BACS"">GNAcarGl</p>","","","","","","","","",""
"html-keyboard-response","321","367342","0.0-14.0-0.70","5b213220809d160001a2c36d","650c16f0f2faf8d7a0d14c09","651c1c70f89f19184fe3b578","null","null","<p style=""font-size: 60px; font-family: BACS"">LdQvLYGA</p>","","","","","","","","",""
"html-keyboard-response","322","368342","0.0-14.0-0.71","5b213220809d160001a2c36d","650c16f0f2faf8d7a0d14c09","651c1c70f89f19184fe3b578","null","null","<p style=""font-size: 60px; font-family: BACS"">bYGOZrab</p>","","","","","","","","",""
"html-keyboard-response","323","369344","0.0-14.0-0.72","5b213220809d160001a2c36d","650c16f0f2faf8d7a0d14c09","651c1c70f89f19184fe3b578","null","null","<p style=""font-size: 60px; font-family: BACS"">QcQAJmLJ</p>","","","","","","","","",""
"html-keyboard-response","324","370345","0.0-14.0-0.73","5b213220809d160001a2c36d","650c16f0f2faf8d7a0d14c09","651c1c70f89f19184fe3b578","null","null","<p style=""font-size: 60px; font-family: BACS"">YJLcArGl</p>","","","","","","","","",""
"html-keyboard-response","325","371347","0.0-14.0-0.74","5b213220809d160001a2c36d","650c16f0f2faf8d7a0d14c09","651c1c70f89f19184fe3b578","null","null","<p style=""font-size: 60px; font-family: BACS"">lcOcLYGA</p>","","","","","","","","",""
"html-keyboard-response","326","372348","0.0-14.0-0.75","5b213220809d160001a2c36d","650c16f0f2faf8d7a0d14c09","651c1c70f89f19184fe3b578","null","null","<p style=""font-size: 60px; font-family: BACS"">EdBbOBT</p>","","","","","","","","",""
"html-keyboard-response","327","373349","0.0-14.0-0.76","5b213220809d160001a2c36d","650c16f0f2faf8d7a0d14c09","651c1c70f89f19184fe3b578","null","null","<p style=""font-size: 60px; font-family: BACS"">BMEMAOtM</p>","","","","","","","","",""
"html-keyboard-response","328","374350","0.0-14.0-0.77","5b213220809d160001a2c36d","650c16f0f2faf8d7a0d14c09","651c1c70f89f19184fe3b578","null","null","<p style=""font-size: 60px; font-family: BACS"">PCPDhYDTk</p>","","","","","","","","",""
"html-keyboard-response","329","375351","0.0-14.0-0.78","5b213220809d160001a2c36d","650c16f0f2faf8d7a0d14c09","651c1c70f89f19184fe3b578","null","null","<p style=""font-size: 60px; font-family: BACS"">BMEMAmtKP</p>","","","","","","","","",""
"html-keyboard-response","330","376353","0.0-14.0-0.79","5b213220809d160001a2c36d","650c16f0f2faf8d7a0d14c09","651c1c70f89f19184fe3b578","null","null","<p style=""font-size: 60px; font-family: BACS"">ObOQldUr</p>","","","","","","","","",""
"html-keyboard-response","331","381894","0.0-15.0","5b213220809d160001a2c36d","650c16f0f2faf8d7a0d14c09","651c1c70f89f19184fe3b578","5540"," ","<p>Great, you've seen the fourth block of words. You may now take a short break.</p>
      <p>Press the spacebar when you're ready to continue.</p>","","","","","","","","",""
"html-keyboard-response","332","382896","0.0-16.0-0.0","5b213220809d160001a2c36d","650c16f0f2faf8d7a0d14c09","651c1c70f89f19184fe3b578","null","null","<p style=""font-size: 60px; font-family: BACS"">EltMBdRA</p>","","","","","","","","",""
"html-keyboard-response","333","383897","0.0-16.0-0.1","5b213220809d160001a2c36d","650c16f0f2faf8d7a0d14c09","651c1c70f89f19184fe3b578","null","null","<p style=""font-size: 60px; font-family: BACS"">EltMBdRA</p>","","","","","","","","",""
"html-keyboard-response","334","384898","0.0-16.0-0.2","5b213220809d160001a2c36d","650c16f0f2faf8d7a0d14c09","651c1c70f89f19184fe3b578","null","null","<p style=""font-size: 60px; font-family: BACS"">EltMBdRA</p>","","","","","","","","",""
"html-keyboard-response","335","385899","0.0-16.0-0.3","5b213220809d160001a2c36d","650c16f0f2faf8d7a0d14c09","651c1c70f89f19184fe3b578","null","null","<p style=""font-size: 60px; font-family: BACS"">EltMBdRA</p>","","","","","","","","",""
"html-keyboard-response","336","386900","0.0-16.0-0.4","5b213220809d160001a2c36d","650c16f0f2faf8d7a0d14c09","651c1c70f89f19184fe3b578","null","null","<p style=""font-size: 60px; font-family: BACS"">EltMBdRA</p>","","","","","","","","",""
"html-keyboard-response","337","387901","0.0-16.0-0.5","5b213220809d160001a2c36d","650c16f0f2faf8d7a0d14c09","651c1c70f89f19184fe3b578","null","null","<p style=""font-size: 60px; font-family: BACS"">EltMBdRA</p>","","","","","","","","",""
"html-keyboard-response","338","388903","0.0-16.0-0.6","5b213220809d160001a2c36d","650c16f0f2faf8d7a0d14c09","651c1c70f89f19184fe3b578","null","null","<p style=""font-size: 60px; font-family: BACS"">EltMBdRA</p>","","","","","","","","",""
"html-keyboard-response","339","389904","0.0-16.0-0.7","5b213220809d160001a2c36d","650c16f0f2faf8d7a0d14c09","651c1c70f89f19184fe3b578","null","null","<p style=""font-size: 60px; font-family: BACS"">EltMBdRA</p>","","","","","","","","",""
"html-keyboard-response","340","390905","0.0-16.0-0.8","5b213220809d160001a2c36d","650c16f0f2faf8d7a0d14c09","651c1c70f89f19184fe3b578","null","null","<p style=""font-size: 60px; font-family: BACS"">EltMBdRA</p>","","","","","","","","",""
"html-keyboard-response","341","391906","0.0-16.0-0.9","5b213220809d160001a2c36d","650c16f0f2faf8d7a0d14c09","651c1c70f89f19184fe3b578","null","null","<p style=""font-size: 60px; font-family: BACS"">EltMBdRA</p>","","","","","","","","",""
"html-keyboard-response","342","392908","0.0-16.0-0.10","5b213220809d160001a2c36d","650c16f0f2faf8d7a0d14c09","651c1c70f89f19184fe3b578","null","null","<p style=""font-size: 60px; font-family: BACS"">EltMBdRA</p>","","","","","","","","",""
"html-keyboard-response","343","393908","0.0-16.0-0.11","5b213220809d160001a2c36d","650c16f0f2faf8d7a0d14c09","651c1c70f89f19184fe3b578","null","null","<p style=""font-size: 60px; font-family: BACS"">EltMBdRA</p>","","","","","","","","",""
"html-keyboard-response","344","394910","0.0-16.0-0.12","5b213220809d160001a2c36d","650c16f0f2faf8d7a0d14c09","651c1c70f89f19184fe3b578","null","null","<p style=""font-size: 60px; font-family: BACS"">EltMBdRA</p>","","","","","","","","",""
"html-keyboard-response","345","395911","0.0-16.0-0.13","5b213220809d160001a2c36d","650c16f0f2faf8d7a0d14c09","651c1c70f89f19184fe3b578","null","null","<p style=""font-size: 60px; font-family: BACS"">EltMBdRA</p>","","","","","","","","",""
"html-keyboard-response","346","396912","0.0-16.0-0.14","5b213220809d160001a2c36d","650c16f0f2faf8d7a0d14c09","651c1c70f89f19184fe3b578","null","null","<p style=""font-size: 60px; font-family: BACS"">EltMBdRA</p>","","","","","","","","",""
"html-keyboard-response","347","397913","0.0-16.0-0.15","5b213220809d160001a2c36d","650c16f0f2faf8d7a0d14c09","651c1c70f89f19184fe3b578","null","null","<p style=""font-size: 60px; font-family: BACS"">EltMBdRA</p>","","","","","","","","",""
"html-keyboard-response","348","398915","0.0-16.0-0.16","5b213220809d160001a2c36d","650c16f0f2faf8d7a0d14c09","651c1c70f89f19184fe3b578","null","null","<p style=""font-size: 60px; font-family: BACS"">EltMBdRA</p>","","","","","","","","",""
"html-keyboard-response","349","399916","0.0-16.0-0.17","5b213220809d160001a2c36d","650c16f0f2faf8d7a0d14c09","651c1c70f89f19184fe3b578","null","null","<p style=""font-size: 60px; font-family: BACS"">EltMBdRA</p>","","","","","","","","",""
"html-keyboard-response","350","400917","0.0-16.0-0.18","5b213220809d160001a2c36d","650c16f0f2faf8d7a0d14c09","651c1c70f89f19184fe3b578","null","null","<p style=""font-size: 60px; font-family: BACS"">EltMBdRA</p>","","","","","","","","",""
"html-keyboard-response","351","401918","0.0-16.0-0.19","5b213220809d160001a2c36d","650c16f0f2faf8d7a0d14c09","651c1c70f89f19184fe3b578","null","null","<p style=""font-size: 60px; font-family: BACS"">EltMBdRA</p>","","","","","","","","",""
"html-keyboard-response","352","402919","0.0-16.0-0.20","5b213220809d160001a2c36d","650c16f0f2faf8d7a0d14c09","651c1c70f89f19184fe3b578","null","null","<p style=""font-size: 60px; font-family: BACS"">EltMBdRA</p>","","","","","","","","",""
"html-keyboard-response","353","403921","0.0-16.0-0.21","5b213220809d160001a2c36d","650c16f0f2faf8d7a0d14c09","651c1c70f89f19184fe3b578","null","null","<p style=""font-size: 60px; font-family: BACS"">EltMBdRA</p>","","","","","","","","",""
"html-keyboard-response","354","404922","0.0-16.0-0.22","5b213220809d160001a2c36d","650c16f0f2faf8d7a0d14c09","651c1c70f89f19184fe3b578","null","null","<p style=""font-size: 60px; font-family: BACS"">EltMBdRA</p>","","","","","","","","",""
"html-keyboard-response","355","405924","0.0-16.0-0.23","5b213220809d160001a2c36d","650c16f0f2faf8d7a0d14c09","651c1c70f89f19184fe3b578","null","null","<p style=""font-size: 60px; font-family: BACS"">EltMBdRA</p>","","","","","","","","",""
"html-keyboard-response","356","406924","0.0-16.0-0.24","5b213220809d160001a2c36d","650c16f0f2faf8d7a0d14c09","651c1c70f89f19184fe3b578","null","null","<p style=""font-size: 60px; font-family: BACS"">EltMBdRA</p>","","","","","","","","",""
"html-keyboard-response","357","407925","0.0-16.0-0.25","5b213220809d160001a2c36d","650c16f0f2faf8d7a0d14c09","651c1c70f89f19184fe3b578","null","null","<p style=""font-size: 60px; font-family: BACS"">EltMBdRA</p>","","","","","","","","",""
"html-keyboard-response","358","408926","0.0-16.0-0.26","5b213220809d160001a2c36d","650c16f0f2faf8d7a0d14c09","651c1c70f89f19184fe3b578","null","null","<p style=""font-size: 60px; font-family: BACS"">EltMBdRA</p>","","","","","","","","",""
"html-keyboard-response","359","409928","0.0-16.0-0.27","5b213220809d160001a2c36d","650c16f0f2faf8d7a0d14c09","651c1c70f89f19184fe3b578","null","null","<p style=""font-size: 60px; font-family: BACS"">EltMBdRA</p>","","","","","","","","",""
"html-keyboard-response","360","410929","0.0-16.0-0.28","5b213220809d160001a2c36d","650c16f0f2faf8d7a0d14c09","651c1c70f89f19184fe3b578","null","null","<p style=""font-size: 60px; font-family: BACS"">EltMBdRA</p>","","","","","","","","",""
"html-keyboard-response","361","411930","0.0-16.0-0.29","5b213220809d160001a2c36d","650c16f0f2faf8d7a0d14c09","651c1c70f89f19184fe3b578","null","null","<p style=""font-size: 60px; font-family: BACS"">EltMBdRA</p>","","","","","","","","",""
"html-keyboard-response","362","412932","0.0-16.0-0.30","5b213220809d160001a2c36d","650c16f0f2faf8d7a0d14c09","651c1c70f89f19184fe3b578","null","null","<p style=""font-size: 60px; font-family: BACS"">EltMBdRA</p>","","","","","","","","",""
"html-keyboard-response","363","413933","0.0-16.0-0.31","5b213220809d160001a2c36d","650c16f0f2faf8d7a0d14c09","651c1c70f89f19184fe3b578","null","null","<p style=""font-size: 60px; font-family: BACS"">EltMBdRA</p>","","","","","","","","",""
"html-keyboard-response","364","414934","0.0-16.0-0.32","5b213220809d160001a2c36d","650c16f0f2faf8d7a0d14c09","651c1c70f89f19184fe3b578","null","null","<p style=""font-size: 60px; font-family: BACS"">EltMBdRA</p>","","","","","","","","",""
"html-keyboard-response","365","415935","0.0-16.0-0.33","5b213220809d160001a2c36d","650c16f0f2faf8d7a0d14c09","651c1c70f89f19184fe3b578","null","null","<p style=""font-size: 60px; font-family: BACS"">EltMBdRA</p>","","","","","","","","",""
"html-keyboard-response","366","416936","0.0-16.0-0.34","5b213220809d160001a2c36d","650c16f0f2faf8d7a0d14c09","651c1c70f89f19184fe3b578","null","null","<p style=""font-size: 60px; font-family: BACS"">EltMBdRA</p>","","","","","","","","",""
"html-keyboard-response","367","417937","0.0-16.0-0.35","5b213220809d160001a2c36d","650c16f0f2faf8d7a0d14c09","651c1c70f89f19184fe3b578","null","null","<p style=""font-size: 60px; font-family: BACS"">EltMBdRA</p>","","","","","","","","",""
"html-keyboard-response","368","418939","0.0-16.0-0.36","5b213220809d160001a2c36d","650c16f0f2faf8d7a0d14c09","651c1c70f89f19184fe3b578","null","null","<p style=""font-size: 60px; font-family: BACS"">EltMBdRA</p>","","","","","","","","",""
"html-keyboard-response","369","419941","0.0-16.0-0.37","5b213220809d160001a2c36d","650c16f0f2faf8d7a0d14c09","651c1c70f89f19184fe3b578","null","null","<p style=""font-size: 60px; font-family: BACS"">EltMBdRA</p>","","","","","","","","",""
"html-keyboard-response","370","420942","0.0-16.0-0.38","5b213220809d160001a2c36d","650c16f0f2faf8d7a0d14c09","651c1c70f89f19184fe3b578","null","null","<p style=""font-size: 60px; font-family: BACS"">EltMBdRA</p>","","","","","","","","",""
"html-keyboard-response","371","421943","0.0-16.0-0.39","5b213220809d160001a2c36d","650c16f0f2faf8d7a0d14c09","651c1c70f89f19184fe3b578","null","null","<p style=""font-size: 60px; font-family: BACS"">EltMBdRA</p>","","","","","","","","",""
"html-keyboard-response","372","422944","0.0-16.0-0.40","5b213220809d160001a2c36d","650c16f0f2faf8d7a0d14c09","651c1c70f89f19184fe3b578","null","null","<p style=""font-size: 60px; font-family: BACS"">EltMBdRA</p>","","","","","","","","",""
"html-keyboard-response","373","423945","0.0-16.0-0.41","5b213220809d160001a2c36d","650c16f0f2faf8d7a0d14c09","651c1c70f89f19184fe3b578","null","null","<p style=""font-size: 60px; font-family: BACS"">EltMBdRA</p>","","","","","","","","",""
"html-keyboard-response","374","424946","0.0-16.0-0.42","5b213220809d160001a2c36d","650c16f0f2faf8d7a0d14c09","651c1c70f89f19184fe3b578","null","null","<p style=""font-size: 60px; font-family: BACS"">EltMBdRA</p>","","","","","","","","",""
"html-keyboard-response","375","425948","0.0-16.0-0.43","5b213220809d160001a2c36d","650c16f0f2faf8d7a0d14c09","651c1c70f89f19184fe3b578","null","null","<p style=""font-size: 60px; font-family: BACS"">EltMBdRA</p>","","","","","","","","",""
"html-keyboard-response","376","426950","0.0-16.0-0.44","5b213220809d160001a2c36d","650c16f0f2faf8d7a0d14c09","651c1c70f89f19184fe3b578","null","null","<p style=""font-size: 60px; font-family: BACS"">EltMBdRA</p>","","","","","","","","",""
"html-keyboard-response","377","427950","0.0-16.0-0.45","5b213220809d160001a2c36d","650c16f0f2faf8d7a0d14c09","651c1c70f89f19184fe3b578","null","null","<p style=""font-size: 60px; font-family: BACS"">EltMBdRA</p>","","","","","","","","",""
"html-keyboard-response","378","428953","0.0-16.0-0.46","5b213220809d160001a2c36d","650c16f0f2faf8d7a0d14c09","651c1c70f89f19184fe3b578","null","null","<p style=""font-size: 60px; font-family: BACS"">EltMBdRA</p>","","","","","","","","",""
"html-keyboard-response","379","429953","0.0-16.0-0.47","5b213220809d160001a2c36d","650c16f0f2faf8d7a0d14c09","651c1c70f89f19184fe3b578","null","null","<p style=""font-size: 60px; font-family: BACS"">EltMBdRA</p>","","","","","","","","",""
"html-keyboard-response","380","430955","0.0-16.0-0.48","5b213220809d160001a2c36d","650c16f0f2faf8d7a0d14c09","651c1c70f89f19184fe3b578","null","null","<p style=""font-size: 60px; font-family: BACS"">EltMBdRA</p>","","","","","","","","",""
"html-keyboard-response","381","431956","0.0-16.0-0.49","5b213220809d160001a2c36d","650c16f0f2faf8d7a0d14c09","651c1c70f89f19184fe3b578","null","null","<p style=""font-size: 60px; font-family: BACS"">EltMBdRA</p>","","","","","","","","",""
"html-keyboard-response","382","432957","0.0-16.0-0.50","5b213220809d160001a2c36d","650c16f0f2faf8d7a0d14c09","651c1c70f89f19184fe3b578","null","null","<p style=""font-size: 60px; font-family: BACS"">EltMBdRA</p>","","","","","","","","",""
"html-keyboard-response","383","433959","0.0-16.0-0.51","5b213220809d160001a2c36d","650c16f0f2faf8d7a0d14c09","651c1c70f89f19184fe3b578","null","null","<p style=""font-size: 60px; font-family: BACS"">EltMBdRA</p>","","","","","","","","",""
"html-keyboard-response","384","434960","0.0-16.0-0.52","5b213220809d160001a2c36d","650c16f0f2faf8d7a0d14c09","651c1c70f89f19184fe3b578","null","null","<p style=""font-size: 60px; font-family: BACS"">EltMBdRA</p>","","","","","","","","",""
"html-keyboard-response","385","435961","0.0-16.0-0.53","5b213220809d160001a2c36d","650c16f0f2faf8d7a0d14c09","651c1c70f89f19184fe3b578","null","null","<p style=""font-size: 60px; font-family: BACS"">EltMBdRA</p>","","","","","","","","",""
"html-keyboard-response","386","436963","0.0-16.0-0.54","5b213220809d160001a2c36d","650c16f0f2faf8d7a0d14c09","651c1c70f89f19184fe3b578","null","null","<p style=""font-size: 60px; font-family: BACS"">EltMBdRA</p>","","","","","","","","",""
"html-keyboard-response","387","437964","0.0-16.0-0.55","5b213220809d160001a2c36d","650c16f0f2faf8d7a0d14c09","651c1c70f89f19184fe3b578","null","null","<p style=""font-size: 60px; font-family: BACS"">EltMBdRA</p>","","","","","","","","",""
"html-keyboard-response","388","438966","0.0-16.0-0.56","5b213220809d160001a2c36d","650c16f0f2faf8d7a0d14c09","651c1c70f89f19184fe3b578","null","null","<p style=""font-size: 60px; font-family: BACS"">EltMBdRA</p>","","","","","","","","",""
"html-keyboard-response","389","439967","0.0-16.0-0.57","5b213220809d160001a2c36d","650c16f0f2faf8d7a0d14c09","651c1c70f89f19184fe3b578","null","null","<p style=""font-size: 60px; font-family: BACS"">EltMBdRA</p>","","","","","","","","",""
"html-keyboard-response","390","440969","0.0-16.0-0.58","5b213220809d160001a2c36d","650c16f0f2faf8d7a0d14c09","651c1c70f89f19184fe3b578","null","null","<p style=""font-size: 60px; font-family: BACS"">EltMBdRA</p>","","","","","","","","",""
"html-keyboard-response","391","441970","0.0-16.0-0.59","5b213220809d160001a2c36d","650c16f0f2faf8d7a0d14c09","651c1c70f89f19184fe3b578","null","null","<p style=""font-size: 60px; font-family: BACS"">EltMBdRA</p>","","","","","","","","",""
"html-keyboard-response","392","442971","0.0-16.0-0.60","5b213220809d160001a2c36d","650c16f0f2faf8d7a0d14c09","651c1c70f89f19184fe3b578","null","null","<p style=""font-size: 60px; font-family: BACS"">EltMBdRA</p>","","","","","","","","",""
"html-keyboard-response","393","443973","0.0-16.0-0.61","5b213220809d160001a2c36d","650c16f0f2faf8d7a0d14c09","651c1c70f89f19184fe3b578","null","null","<p style=""font-size: 60px; font-family: BACS"">EltMBdRA</p>","","","","","","","","",""
"html-keyboard-response","394","444974","0.0-16.0-0.62","5b213220809d160001a2c36d","650c16f0f2faf8d7a0d14c09","651c1c70f89f19184fe3b578","null","null","<p style=""font-size: 60px; font-family: BACS"">EltMBdRA</p>","","","","","","","","",""
"html-keyboard-response","395","445975","0.0-16.0-0.63","5b213220809d160001a2c36d","650c16f0f2faf8d7a0d14c09","651c1c70f89f19184fe3b578","null","null","<p style=""font-size: 60px; font-family: BACS"">EltMBdRA</p>","","","","","","","","",""
"html-keyboard-response","396","446977","0.0-16.0-0.64","5b213220809d160001a2c36d","650c16f0f2faf8d7a0d14c09","651c1c70f89f19184fe3b578","null","null","<p style=""font-size: 60px; font-family: BACS"">EltMBdRA</p>","","","","","","","","",""
"html-keyboard-response","397","447979","0.0-16.0-0.65","5b213220809d160001a2c36d","650c16f0f2faf8d7a0d14c09","651c1c70f89f19184fe3b578","null","null","<p style=""font-size: 60px; font-family: BACS"">EltMBdRA</p>","","","","","","","","",""
"html-keyboard-response","398","448981","0.0-16.0-0.66","5b213220809d160001a2c36d","650c16f0f2faf8d7a0d14c09","651c1c70f89f19184fe3b578","null","null","<p style=""font-size: 60px; font-family: BACS"">EltMBdRA</p>","","","","","","","","",""
