"trial_type","trial_index","time_elapsed","internal_node_id","subject_id","study_id","session_id","rt","response","stimulus","success","item","task","correct_response","testing_condition","correct","target","confound","name"
"pavlovia","0","597","0.0-0.0","600f0f9c3bfcdc077c924e51","650c16f0f2faf8d7a0d14c09","651c1d6c62eab12a59b277f1","","","","","","","","","","","",""
"survey-html-form","1","7860","0.0-1.0","600f0f9c3bfcdc077c924e51","650c16f0f2faf8d7a0d14c09","651c1d6c62eab12a59b277f1","7261","{""ID"":""600f0f9c3bfcdc077c924e51""}","","","","","","","","","",""
"html-keyboard-response","2","30516","0.0-2.0","600f0f9c3bfcdc077c924e51","650c16f0f2faf8d7a0d14c09","651c1d6c62eab12a59b277f1","22655"," ","<p style=""font-size: 15px;"">Before beginning, we ask that you read the consent information and confirm your agreement to participate in the experiment.</p>
      <p style=""font-size: 15px;""> We ask that you remember that this is a research project and that your participation is entirely voluntary. You can stop your participation at any time, without needing to provide any explanation. The study we're asking you to participate in aims at examining how readers process written words. You will be engaged in a session of apprximately 20 minutes, followed by a brief questionnaire. You will have the opportunity to take a few breaks during the experiment. You will be paid £4 for your participation, corresponding to a rate of £8/hour. While this experiment looks at cognitive faculties, this experiment doesn't constitute clinical proof of eventual pathologies.</p>
      <p style=""font-size: 15px;"">All of the information collected thanks to yours and others' participation will be held in a secure password-protected server, and will not be shared with anyone not authorised to view it. Your personal information will be kept with an arbitrary participant ID. Thanks to this data anonymity process, any researcher analysing the data won't be able to track the information back to a specific participant. Therefore, this process will make identifying you impossibile, even when results from the study will be published in scientific reviews, presented at congresses, or at any other public forum. More generally, the collected data will be treated in accordance with the laws on privacy and conformity to the Legislative Degree n. 196 ""Code regarding the protection of personal data"" of the 30th of June 2003 and to the European Regulation 2016/670 (General Data Protection Regulation - GDPR). The Data Protection Officer is Avv. Valentina Carollo, who can be contacted at the following email addresses: <a href=""mailto:dpo@sissa.it"">dpo@sissa.it</a> or <a href=""mailto:rpd@sissa.it"">rpd@sissa.it</a> - PEC: <a href=""mailto:protocollo@pec.sissa.it"">protocollo@pec.sissa.it</a>.</p>
      <p style=""font-size: 15px;""> Before expressing your consent to participate, we would like to remind you again that in case you need explanations on any aspect of the experimental procedure, the researcher is at your disposition (<a href=""mailto:aliebelt@sissa.it"">aliebelt@sissa.it</a>, <a href=""mailto:davide.crepaldi@sissa.it"">davide.crepaldi@sissa.it</a>).</p>
      <p style=""font-size: 15px;"">If you would like to download the informed consent form, you can do so here: <a href=""BASL-Informed_Consent.pdf"" download>informed consent form</a>.</p>
      <p style=""font-size: 15px;"">We ask that you press the spacebar to proceed to the consent section.</p>","","","","","","","","",""
"survey-html-form","3","39119","0.0-3.0","600f0f9c3bfcdc077c924e51","650c16f0f2faf8d7a0d14c09","651c1d6c62eab12a59b277f1","8601","{""consent1"":""YES"",""consent2"":""YES"",""consent3"":""YES"",""consent4"":""YES"",""consent5"":""YES"",""consent6"":""YES""}","","","","","","","","","",""
"fullscreen","4","43358","0.0-4.0","600f0f9c3bfcdc077c924e51","650c16f0f2faf8d7a0d14c09","651c1d6c62eab12a59b277f1","","","","true","","","","","","","",""
"html-keyboard-response","5","62458","0.0-5.0","600f0f9c3bfcdc077c924e51","650c16f0f2faf8d7a0d14c09","651c1d6c62eab12a59b277f1","19098"," ","<p>Welcome, and thank you very much for your time!</p>
      <p>In this experiment, you'll be a language expert who's been asked to take a look at words that Earth has received in its first communication with aliens. Your task, in this first part of the experiment, is to pay close attention to the words you'll be shown; later, world leaders will ask you questions on what you saw. The words will be shown to you quite quickly; it seems that the aliens were in a hurry :-)</p>
      <p>Press the spacebar to continue.<p>","","","","","","","","",""
"html-keyboard-response","6","62533","0.0-6.0","600f0f9c3bfcdc077c924e51","650c16f0f2faf8d7a0d14c09","651c1d6c62eab12a59b277f1","null","null","<p style=""font-size: 120px; font-family: BACS""> </p>","","","","","","","","",""
"html-keyboard-response","7","70254","0.0-7.0","600f0f9c3bfcdc077c924e51","650c16f0f2faf8d7a0d14c09","651c1d6c62eab12a59b277f1","7721"," ","<p>Here is an example of the words you'll see:</p>
      <img src='esempio.png' height='400px'>
      <p>When you're ready to begin, press the spacebar.</p></div>","","","","","","","","",""
"html-keyboard-response","8","71257","0.0-8.0-0.0","600f0f9c3bfcdc077c924e51","650c16f0f2faf8d7a0d14c09","651c1d6c62eab12a59b277f1","null","null","<p style=""font-size: 60px; font-family: BACS"">EYtYRbRC</p>","","","","","","","","",""
"html-keyboard-response","9","72272","0.0-8.0-0.1","600f0f9c3bfcdc077c924e51","650c16f0f2faf8d7a0d14c09","651c1d6c62eab12a59b277f1","null","null","<p style=""font-size: 60px; font-family: BACS"">ECtbDhRKm</p>","","","","","","","","",""
"html-keyboard-response","10","73288","0.0-8.0-0.2","600f0f9c3bfcdc077c924e51","650c16f0f2faf8d7a0d14c09","651c1d6c62eab12a59b277f1","null","null","<p style=""font-size: 60px; font-family: BACS"">ZYcQUvAvb</p>","","","","","","","","",""
"html-keyboard-response","11","74297","0.0-8.0-0.3","600f0f9c3bfcdc077c924e51","650c16f0f2faf8d7a0d14c09","651c1d6c62eab12a59b277f1","null","null","<p style=""font-size: 60px; font-family: BACS"">ckduAkbu</p>","","","","","","","","",""
"html-keyboard-response","12","75314","0.0-8.0-0.4","600f0f9c3bfcdc077c924e51","650c16f0f2faf8d7a0d14c09","651c1d6c62eab12a59b277f1","null","null","<p style=""font-size: 60px; font-family: BACS"">QcQAJvAvb</p>","","","","","","","","",""
"html-keyboard-response","13","76321","0.0-8.0-0.5","600f0f9c3bfcdc077c924e51","650c16f0f2faf8d7a0d14c09","651c1d6c62eab12a59b277f1","null","null","<p style=""font-size: 60px; font-family: BACS"">EYtYRhRKm</p>","","","","","","","","",""
"html-keyboard-response","14","77331","0.0-8.0-0.6","600f0f9c3bfcdc077c924e51","650c16f0f2faf8d7a0d14c09","651c1d6c62eab12a59b277f1","null","null","<p style=""font-size: 60px; font-family: BACS"">ctktbRC</p>","","","","","","","","",""
"html-keyboard-response","15","78338","0.0-8.0-0.7","600f0f9c3bfcdc077c924e51","650c16f0f2faf8d7a0d14c09","651c1d6c62eab12a59b277f1","null","null","<p style=""font-size: 60px; font-family: BACS"">bvuZrZYd</p>","","","","","","","","",""
"html-keyboard-response","16","79352","0.0-8.0-0.8","600f0f9c3bfcdc077c924e51","650c16f0f2faf8d7a0d14c09","651c1d6c62eab12a59b277f1","null","null","<p style=""font-size: 60px; font-family: BACS"">ckduArGl</p>","","","","","","","","",""
"html-keyboard-response","17","80361","0.0-8.0-0.9","600f0f9c3bfcdc077c924e51","650c16f0f2faf8d7a0d14c09","651c1d6c62eab12a59b277f1","null","null","<p style=""font-size: 60px; font-family: BACS"">cuOJbrZYd</p>","","","","","","","","",""
"html-keyboard-response","18","81369","0.0-8.0-0.10","600f0f9c3bfcdc077c924e51","650c16f0f2faf8d7a0d14c09","651c1d6c62eab12a59b277f1","null","null","<p style=""font-size: 60px; font-family: BACS"">PMPtkdPc</p>","","","","","","","","",""
"html-keyboard-response","19","82386","0.0-8.0-0.11","600f0f9c3bfcdc077c924e51","650c16f0f2faf8d7a0d14c09","651c1d6c62eab12a59b277f1","null","null","<p style=""font-size: 60px; font-family: BACS"">cuOJbcrdY</p>","","","","","","","","",""
"html-keyboard-response","20","83400","0.0-8.0-0.12","600f0f9c3bfcdc077c924e51","650c16f0f2faf8d7a0d14c09","651c1d6c62eab12a59b277f1","null","null","<p style=""font-size: 60px; font-family: BACS"">ctktCkbd</p>","","","","","","","","",""
"html-keyboard-response","21","84417","0.0-8.0-0.13","600f0f9c3bfcdc077c924e51","650c16f0f2faf8d7a0d14c09","651c1d6c62eab12a59b277f1","null","null","<p style=""font-size: 60px; font-family: BACS"">mZUrQrZYd</p>","","","","","","","","",""
"html-keyboard-response","22","85426","0.0-8.0-0.14","600f0f9c3bfcdc077c924e51","650c16f0f2faf8d7a0d14c09","651c1d6c62eab12a59b277f1","null","null","<p style=""font-size: 60px; font-family: BACS"">cuOJbkbu</p>","","","","","","","","",""
"html-keyboard-response","23","86435","0.0-8.0-0.15","600f0f9c3bfcdc077c924e51","650c16f0f2faf8d7a0d14c09","651c1d6c62eab12a59b277f1","null","null","<p style=""font-size: 60px; font-family: BACS"">EYtYRdRA</p>","","","","","","","","",""
"html-keyboard-response","24","87443","0.0-8.0-0.16","600f0f9c3bfcdc077c924e51","650c16f0f2faf8d7a0d14c09","651c1d6c62eab12a59b277f1","null","null","<p style=""font-size: 60px; font-family: BACS"">JdOAYkbu</p>","","","","","","","","",""
"html-keyboard-response","25","88449","0.0-8.0-0.17","600f0f9c3bfcdc077c924e51","650c16f0f2faf8d7a0d14c09","651c1d6c62eab12a59b277f1","null","null","<p style=""font-size: 60px; font-family: BACS"">hkRKhRKm</p>","","","","","","","","",""
"html-keyboard-response","26","89459","0.0-8.0-0.18","600f0f9c3bfcdc077c924e51","650c16f0f2faf8d7a0d14c09","651c1d6c62eab12a59b277f1","null","null","<p style=""font-size: 60px; font-family: BACS"">PMPtkCkbd</p>","","","","","","","","",""
"html-keyboard-response","27","90466","0.0-8.0-0.19","600f0f9c3bfcdc077c924e51","650c16f0f2faf8d7a0d14c09","651c1d6c62eab12a59b277f1","null","null","<p style=""font-size: 60px; font-family: BACS"">tmtEMbRC</p>","","","","","","","","",""
"html-keyboard-response","28","91474","0.0-8.0-0.20","600f0f9c3bfcdc077c924e51","650c16f0f2faf8d7a0d14c09","651c1d6c62eab12a59b277f1","null","null","<p style=""font-size: 60px; font-family: BACS"">PMPtkdRA</p>","","","","","","","","",""
"html-keyboard-response","29","92493","0.0-8.0-0.21","600f0f9c3bfcdc077c924e51","650c16f0f2faf8d7a0d14c09","651c1d6c62eab12a59b277f1","null","null","<p style=""font-size: 60px; font-family: BACS"">BEPOhRKm</p>","","","","","","","","",""
"html-keyboard-response","30","93498","0.0-8.0-0.22","600f0f9c3bfcdc077c924e51","650c16f0f2faf8d7a0d14c09","651c1d6c62eab12a59b277f1","null","null","<p style=""font-size: 60px; font-family: BACS"">ECtbDdRA</p>","","","","","","","","",""
"html-keyboard-response","31","94507","0.0-8.0-0.23","600f0f9c3bfcdc077c924e51","650c16f0f2faf8d7a0d14c09","651c1d6c62eab12a59b277f1","null","null","<p style=""font-size: 60px; font-family: BACS"">AbkacrdY</p>","","","","","","","","",""
"html-keyboard-response","32","95514","0.0-8.0-0.24","600f0f9c3bfcdc077c924e51","650c16f0f2faf8d7a0d14c09","651c1d6c62eab12a59b277f1","null","null","<p style=""font-size: 60px; font-family: BACS"">tmtEMCkbd</p>","","","","","","","","",""
"html-keyboard-response","33","96527","0.0-8.0-0.25","600f0f9c3bfcdc077c924e51","650c16f0f2faf8d7a0d14c09","651c1d6c62eab12a59b277f1","null","null","<p style=""font-size: 60px; font-family: BACS"">mcOJrZYd</p>","","","","","","","","",""
"html-keyboard-response","34","97530","0.0-8.0-0.26","600f0f9c3bfcdc077c924e51","650c16f0f2faf8d7a0d14c09","651c1d6c62eab12a59b277f1","null","null","<p style=""font-size: 60px; font-family: BACS"">JAdLmvAvb</p>","","","","","","","","",""
"html-keyboard-response","35","98546","0.0-8.0-0.27","600f0f9c3bfcdc077c924e51","650c16f0f2faf8d7a0d14c09","651c1d6c62eab12a59b277f1","null","null","<p style=""font-size: 60px; font-family: BACS"">bAdkbRC</p>","","","","","","","","",""
"html-keyboard-response","36","99564","0.0-8.0-0.28","600f0f9c3bfcdc077c924e51","650c16f0f2faf8d7a0d14c09","651c1d6c62eab12a59b277f1","null","null","<p style=""font-size: 60px; font-family: BACS"">ctkthRKm</p>","","","","","","","","",""
"html-keyboard-response","37","100580","0.0-8.0-0.29","600f0f9c3bfcdc077c924e51","650c16f0f2faf8d7a0d14c09","651c1d6c62eab12a59b277f1","null","null","<p style=""font-size: 60px; font-family: BACS"">MBmECkbd</p>","","","","","","","","",""
"html-keyboard-response","38","101595","0.0-8.0-0.30","600f0f9c3bfcdc077c924e51","650c16f0f2faf8d7a0d14c09","651c1d6c62eab12a59b277f1","null","null","<p style=""font-size: 60px; font-family: BACS"">ZYcQUkbu</p>","","","","","","","","",""
"html-keyboard-response","39","102608","0.0-8.0-0.31","600f0f9c3bfcdc077c924e51","650c16f0f2faf8d7a0d14c09","651c1d6c62eab12a59b277f1","null","null","<p style=""font-size: 60px; font-family: BACS"">AbkarGl</p>","","","","","","","","",""
"html-keyboard-response","40","103611","0.0-8.0-0.32","600f0f9c3bfcdc077c924e51","650c16f0f2faf8d7a0d14c09","651c1d6c62eab12a59b277f1","null","null","<p style=""font-size: 60px; font-family: BACS"">BEPOdPc</p>","","","","","","","","",""
"html-keyboard-response","41","104618","0.0-8.0-0.33","600f0f9c3bfcdc077c924e51","650c16f0f2faf8d7a0d14c09","651c1d6c62eab12a59b277f1","null","null","<p style=""font-size: 60px; font-family: BACS"">Abkakbu</p>","","","","","","","","",""
"html-keyboard-response","42","105623","0.0-8.0-0.34","600f0f9c3bfcdc077c924e51","650c16f0f2faf8d7a0d14c09","651c1d6c62eab12a59b277f1","null","null","<p style=""font-size: 60px; font-family: BACS"">bvuZvAvb</p>","","","","","","","","",""
"html-keyboard-response","43","106635","0.0-8.0-0.35","600f0f9c3bfcdc077c924e51","650c16f0f2faf8d7a0d14c09","651c1d6c62eab12a59b277f1","null","null","<p style=""font-size: 60px; font-family: BACS"">tmtEMdPc</p>","","","","","","","","",""
"html-keyboard-response","44","107635","0.0-8.0-0.36","600f0f9c3bfcdc077c924e51","650c16f0f2faf8d7a0d14c09","651c1d6c62eab12a59b277f1","null","null","<p style=""font-size: 60px; font-family: BACS"">mcOJcrdY</p>","","","","","","","","",""
"html-keyboard-response","45","108650","0.0-8.0-0.37","600f0f9c3bfcdc077c924e51","650c16f0f2faf8d7a0d14c09","651c1d6c62eab12a59b277f1","null","null","<p style=""font-size: 60px; font-family: BACS"">EYtYRCkbd</p>","","","","","","","","",""
"html-keyboard-response","46","109664","0.0-8.0-0.38","600f0f9c3bfcdc077c924e51","650c16f0f2faf8d7a0d14c09","651c1d6c62eab12a59b277f1","null","null","<p style=""font-size: 60px; font-family: BACS"">JAdLmcrdY</p>","","","","","","","","",""
"html-keyboard-response","47","110671","0.0-8.0-0.39","600f0f9c3bfcdc077c924e51","650c16f0f2faf8d7a0d14c09","651c1d6c62eab12a59b277f1","null","null","<p style=""font-size: 60px; font-family: BACS"">tmtEMdRA</p>","","","","","","","","",""
"html-keyboard-response","48","111681","0.0-8.0-0.40","600f0f9c3bfcdc077c924e51","650c16f0f2faf8d7a0d14c09","651c1d6c62eab12a59b277f1","null","null","<p style=""font-size: 60px; font-family: BACS"">PlEKCkbd</p>","","","","","","","","",""
"html-keyboard-response","49","112689","0.0-8.0-0.41","600f0f9c3bfcdc077c924e51","650c16f0f2faf8d7a0d14c09","651c1d6c62eab12a59b277f1","null","null","<p style=""font-size: 60px; font-family: BACS"">JdOAYrZYd</p>","","","","","","","","",""
"html-keyboard-response","50","113705","0.0-8.0-0.42","600f0f9c3bfcdc077c924e51","650c16f0f2faf8d7a0d14c09","651c1d6c62eab12a59b277f1","null","null","<p style=""font-size: 60px; font-family: BACS"">bAdkdRA</p>","","","","","","","","",""
"html-keyboard-response","51","114720","0.0-8.0-0.43","600f0f9c3bfcdc077c924e51","650c16f0f2faf8d7a0d14c09","651c1d6c62eab12a59b277f1","null","null","<p style=""font-size: 60px; font-family: BACS"">cuOJbvAvb</p>","","","","","","","","",""
"html-keyboard-response","52","115737","0.0-8.0-0.44","600f0f9c3bfcdc077c924e51","650c16f0f2faf8d7a0d14c09","651c1d6c62eab12a59b277f1","null","null","<p style=""font-size: 60px; font-family: BACS"">QcQAJrZYd</p>","","","","","","","","",""
"html-keyboard-response","53","116746","0.0-8.0-0.45","600f0f9c3bfcdc077c924e51","650c16f0f2faf8d7a0d14c09","651c1d6c62eab12a59b277f1","null","null","<p style=""font-size: 60px; font-family: BACS"">mcOJrGl</p>","","","","","","","","",""
"html-keyboard-response","54","117753","0.0-8.0-0.46","600f0f9c3bfcdc077c924e51","650c16f0f2faf8d7a0d14c09","651c1d6c62eab12a59b277f1","null","null","<p style=""font-size: 60px; font-family: BACS"">bvuZcrdY</p>","","","","","","","","",""
"html-keyboard-response","55","118761","0.0-8.0-0.47","600f0f9c3bfcdc077c924e51","650c16f0f2faf8d7a0d14c09","651c1d6c62eab12a59b277f1","null","null","<p style=""font-size: 60px; font-family: BACS"">PMPtkhRKm</p>","","","","","","","","",""
"html-keyboard-response","56","119777","0.0-8.0-0.48","600f0f9c3bfcdc077c924e51","650c16f0f2faf8d7a0d14c09","651c1d6c62eab12a59b277f1","null","null","<p style=""font-size: 60px; font-family: BACS"">JAdLmkbu</p>","","","","","","","","",""
"html-keyboard-response","57","120786","0.0-8.0-0.49","600f0f9c3bfcdc077c924e51","650c16f0f2faf8d7a0d14c09","651c1d6c62eab12a59b277f1","null","null","<p style=""font-size: 60px; font-family: BACS"">QcQAJrGl</p>","","","","","","","","",""
"html-keyboard-response","58","121795","0.0-8.0-0.50","600f0f9c3bfcdc077c924e51","650c16f0f2faf8d7a0d14c09","651c1d6c62eab12a59b277f1","null","null","<p style=""font-size: 60px; font-family: BACS"">hkRKbRC</p>","","","","","","","","",""
"html-keyboard-response","59","122810","0.0-8.0-0.51","600f0f9c3bfcdc077c924e51","650c16f0f2faf8d7a0d14c09","651c1d6c62eab12a59b277f1","null","null","<p style=""font-size: 60px; font-family: BACS"">ckduAcrdY</p>","","","","","","","","",""
"html-keyboard-response","60","123815","0.0-8.0-0.52","600f0f9c3bfcdc077c924e51","650c16f0f2faf8d7a0d14c09","651c1d6c62eab12a59b277f1","null","null","<p style=""font-size: 60px; font-family: BACS"">hkRKdPc</p>","","","","","","","","",""
"html-keyboard-response","61","124817","0.0-8.0-0.53","600f0f9c3bfcdc077c924e51","650c16f0f2faf8d7a0d14c09","651c1d6c62eab12a59b277f1","null","null","<p style=""font-size: 60px; font-family: BACS"">bAdkhRKm</p>","","","","","","","","",""
"html-keyboard-response","62","125827","0.0-8.0-0.54","600f0f9c3bfcdc077c924e51","650c16f0f2faf8d7a0d14c09","651c1d6c62eab12a59b277f1","null","null","<p style=""font-size: 60px; font-family: BACS"">QcQAJkbu</p>","","","","","","","","",""
"html-keyboard-response","63","126833","0.0-8.0-0.55","600f0f9c3bfcdc077c924e51","650c16f0f2faf8d7a0d14c09","651c1d6c62eab12a59b277f1","null","null","<p style=""font-size: 60px; font-family: BACS"">PlEKbRC</p>","","","","","","","","",""
"html-keyboard-response","64","127842","0.0-8.0-0.56","600f0f9c3bfcdc077c924e51","650c16f0f2faf8d7a0d14c09","651c1d6c62eab12a59b277f1","null","null","<p style=""font-size: 60px; font-family: BACS"">ckduAvAvb</p>","","","","","","","","",""
"html-keyboard-response","65","128850","0.0-8.0-0.57","600f0f9c3bfcdc077c924e51","650c16f0f2faf8d7a0d14c09","651c1d6c62eab12a59b277f1","null","null","<p style=""font-size: 60px; font-family: BACS"">hkRKCkbd</p>","","","","","","","","",""
"html-keyboard-response","66","129865","0.0-8.0-0.58","600f0f9c3bfcdc077c924e51","650c16f0f2faf8d7a0d14c09","651c1d6c62eab12a59b277f1","null","null","<p style=""font-size: 60px; font-family: BACS"">JdOAYrGl</p>","","","","","","","","",""
"html-keyboard-response","67","130882","0.0-8.0-0.59","600f0f9c3bfcdc077c924e51","650c16f0f2faf8d7a0d14c09","651c1d6c62eab12a59b277f1","null","null","<p style=""font-size: 60px; font-family: BACS"">MBmEdRA</p>","","","","","","","","",""
"html-keyboard-response","68","131895","0.0-8.0-0.60","600f0f9c3bfcdc077c924e51","650c16f0f2faf8d7a0d14c09","651c1d6c62eab12a59b277f1","null","null","<p style=""font-size: 60px; font-family: BACS"">PlEKdPc</p>","","","","","","","","",""
"html-keyboard-response","69","132898","0.0-8.0-0.61","600f0f9c3bfcdc077c924e51","650c16f0f2faf8d7a0d14c09","651c1d6c62eab12a59b277f1","null","null","<p style=""font-size: 60px; font-family: BACS"">bvuZrGl</p>","","","","","","","","",""
"html-keyboard-response","70","133906","0.0-8.0-0.62","600f0f9c3bfcdc077c924e51","650c16f0f2faf8d7a0d14c09","651c1d6c62eab12a59b277f1","null","null","<p style=""font-size: 60px; font-family: BACS"">ECtbDbRC</p>","","","","","","","","",""
"html-keyboard-response","71","134920","0.0-8.0-0.63","600f0f9c3bfcdc077c924e51","650c16f0f2faf8d7a0d14c09","651c1d6c62eab12a59b277f1","null","null","<p style=""font-size: 60px; font-family: BACS"">BEPOdRA</p>","","","","","","","","",""
"html-keyboard-response","72","135924","0.0-8.0-0.64","600f0f9c3bfcdc077c924e51","650c16f0f2faf8d7a0d14c09","651c1d6c62eab12a59b277f1","null","null","<p style=""font-size: 60px; font-family: BACS"">MBmEhRKm</p>","","","","","","","","",""
"html-keyboard-response","73","136940","0.0-8.0-0.65","600f0f9c3bfcdc077c924e51","650c16f0f2faf8d7a0d14c09","651c1d6c62eab12a59b277f1","null","null","<p style=""font-size: 60px; font-family: BACS"">mcOJkbu</p>","","","","","","","","",""
"html-keyboard-response","74","137945","0.0-8.0-0.66","600f0f9c3bfcdc077c924e51","650c16f0f2faf8d7a0d14c09","651c1d6c62eab12a59b277f1","null","null","<p style=""font-size: 60px; font-family: BACS"">mZUrQvAvb</p>","","","","","","","","",""
"html-keyboard-response","75","138956","0.0-8.0-0.67","600f0f9c3bfcdc077c924e51","650c16f0f2faf8d7a0d14c09","651c1d6c62eab12a59b277f1","null","null","<p style=""font-size: 60px; font-family: BACS"">JAdLmrZYd</p>","","","","","","","","",""
"html-keyboard-response","76","139970","0.0-8.0-0.68","600f0f9c3bfcdc077c924e51","650c16f0f2faf8d7a0d14c09","651c1d6c62eab12a59b277f1","null","null","<p style=""font-size: 60px; font-family: BACS"">BEPObRC</p>","","","","","","","","",""
"html-keyboard-response","77","140978","0.0-8.0-0.69","600f0f9c3bfcdc077c924e51","650c16f0f2faf8d7a0d14c09","651c1d6c62eab12a59b277f1","null","null","<p style=""font-size: 60px; font-family: BACS"">mZUrQcrdY</p>","","","","","","","","",""
"html-keyboard-response","78","141994","0.0-8.0-0.70","600f0f9c3bfcdc077c924e51","650c16f0f2faf8d7a0d14c09","651c1d6c62eab12a59b277f1","null","null","<p style=""font-size: 60px; font-family: BACS"">AbkarZYd</p>","","","","","","","","",""
"html-keyboard-response","79","143010","0.0-8.0-0.71","600f0f9c3bfcdc077c924e51","650c16f0f2faf8d7a0d14c09","651c1d6c62eab12a59b277f1","null","null","<p style=""font-size: 60px; font-family: BACS"">PlEKdRA</p>","","","","","","","","",""
"html-keyboard-response","80","144023","0.0-8.0-0.72","600f0f9c3bfcdc077c924e51","650c16f0f2faf8d7a0d14c09","651c1d6c62eab12a59b277f1","null","null","<p style=""font-size: 60px; font-family: BACS"">ctktdPc</p>","","","","","","","","",""
"html-keyboard-response","81","145028","0.0-8.0-0.73","600f0f9c3bfcdc077c924e51","650c16f0f2faf8d7a0d14c09","651c1d6c62eab12a59b277f1","null","null","<p style=""font-size: 60px; font-family: BACS"">mZUrQrGl</p>","","","","","","","","",""
"html-keyboard-response","82","146038","0.0-8.0-0.74","600f0f9c3bfcdc077c924e51","650c16f0f2faf8d7a0d14c09","651c1d6c62eab12a59b277f1","null","null","<p style=""font-size: 60px; font-family: BACS"">MBmEdPc</p>","","","","","","","","",""
"html-keyboard-response","83","147051","0.0-8.0-0.75","600f0f9c3bfcdc077c924e51","650c16f0f2faf8d7a0d14c09","651c1d6c62eab12a59b277f1","null","null","<p style=""font-size: 60px; font-family: BACS"">JdOAYvAvb</p>","","","","","","","","",""
"html-keyboard-response","84","148067","0.0-8.0-0.76","600f0f9c3bfcdc077c924e51","650c16f0f2faf8d7a0d14c09","651c1d6c62eab12a59b277f1","null","null","<p style=""font-size: 60px; font-family: BACS"">ZYcQUrGl</p>","","","","","","","","",""
"html-keyboard-response","85","149075","0.0-8.0-0.77","600f0f9c3bfcdc077c924e51","650c16f0f2faf8d7a0d14c09","651c1d6c62eab12a59b277f1","null","null","<p style=""font-size: 60px; font-family: BACS"">ECtbDdPc</p>","","","","","","","","",""
"html-keyboard-response","86","150084","0.0-8.0-0.78","600f0f9c3bfcdc077c924e51","650c16f0f2faf8d7a0d14c09","651c1d6c62eab12a59b277f1","null","null","<p style=""font-size: 60px; font-family: BACS"">bAdkCkbd</p>","","","","","","","","",""
"html-keyboard-response","87","151093","0.0-8.0-0.79","600f0f9c3bfcdc077c924e51","650c16f0f2faf8d7a0d14c09","651c1d6c62eab12a59b277f1","null","null","<p style=""font-size: 60px; font-family: BACS"">ZYcQUcrdY</p>","","","","","","","","",""
"html-keyboard-response","88","155756","0.0-9.0","600f0f9c3bfcdc077c924e51","650c16f0f2faf8d7a0d14c09","651c1d6c62eab12a59b277f1","4662"," ","<p>Great, you've seen the first block of words. You may now take a short break.</p>
      <p>Press the spacebar when you're ready to continue.</p>","","","","","","","","",""
"html-keyboard-response","89","156771","0.0-10.0-0.0","600f0f9c3bfcdc077c924e51","650c16f0f2faf8d7a0d14c09","651c1d6c62eab12a59b277f1","null","null","<p style=""font-size: 60px; font-family: BACS"">JAdLmkbu</p>","","","","","","","","",""
"html-keyboard-response","90","157786","0.0-10.0-0.1","600f0f9c3bfcdc077c924e51","650c16f0f2faf8d7a0d14c09","651c1d6c62eab12a59b277f1","null","null","<p style=""font-size: 60px; font-family: BACS"">ECtbDdPc</p>","","","","","","","","",""
"html-keyboard-response","91","158790","0.0-10.0-0.2","600f0f9c3bfcdc077c924e51","650c16f0f2faf8d7a0d14c09","651c1d6c62eab12a59b277f1","null","null","<p style=""font-size: 60px; font-family: BACS"">QcQAJrGl</p>","","","","","","","","",""
"html-keyboard-response","92","159797","0.0-10.0-0.3","600f0f9c3bfcdc077c924e51","650c16f0f2faf8d7a0d14c09","651c1d6c62eab12a59b277f1","null","null","<p style=""font-size: 60px; font-family: BACS"">MBmEhRKm</p>","","","","","","","","",""
"html-keyboard-response","93","160800","0.0-10.0-0.4","600f0f9c3bfcdc077c924e51","650c16f0f2faf8d7a0d14c09","651c1d6c62eab12a59b277f1","null","null","<p style=""font-size: 60px; font-family: BACS"">BEPObRC</p>","","","","","","","","",""
"html-keyboard-response","94","161813","0.0-10.0-0.5","600f0f9c3bfcdc077c924e51","650c16f0f2faf8d7a0d14c09","651c1d6c62eab12a59b277f1","null","null","<p style=""font-size: 60px; font-family: BACS"">PlEKdPc</p>","","","","","","","","",""
"html-keyboard-response","95","162830","0.0-10.0-0.6","600f0f9c3bfcdc077c924e51","650c16f0f2faf8d7a0d14c09","651c1d6c62eab12a59b277f1","null","null","<p style=""font-size: 60px; font-family: BACS"">QcQAJkbu</p>","","","","","","","","",""
"html-keyboard-response","96","163846","0.0-10.0-0.7","600f0f9c3bfcdc077c924e51","650c16f0f2faf8d7a0d14c09","651c1d6c62eab12a59b277f1","null","null","<p style=""font-size: 60px; font-family: BACS"">mcOJrZYd</p>","","","","","","","","",""
"html-keyboard-response","97","164852","0.0-10.0-0.8","600f0f9c3bfcdc077c924e51","650c16f0f2faf8d7a0d14c09","651c1d6c62eab12a59b277f1","null","null","<p style=""font-size: 60px; font-family: BACS"">ctkthRKm</p>","","","","","","","","",""
"html-keyboard-response","98","165862","0.0-10.0-0.9","600f0f9c3bfcdc077c924e51","650c16f0f2faf8d7a0d14c09","651c1d6c62eab12a59b277f1","null","null","<p style=""font-size: 60px; font-family: BACS"">bAdkCkbd</p>","","","","","","","","",""
"html-keyboard-response","99","166869","0.0-10.0-0.10","600f0f9c3bfcdc077c924e51","650c16f0f2faf8d7a0d14c09","651c1d6c62eab12a59b277f1","null","null","<p style=""font-size: 60px; font-family: BACS"">BEPOhRKm</p>","","","","","","","","",""
"html-keyboard-response","100","167886","0.0-10.0-0.11","600f0f9c3bfcdc077c924e51","650c16f0f2faf8d7a0d14c09","651c1d6c62eab12a59b277f1","null","null","<p style=""font-size: 60px; font-family: BACS"">AbkarZYd</p>","","","","","","","","",""
"html-keyboard-response","101","168899","0.0-10.0-0.12","600f0f9c3bfcdc077c924e51","650c16f0f2faf8d7a0d14c09","651c1d6c62eab12a59b277f1","null","null","<p style=""font-size: 60px; font-family: BACS"">JdOAYvAvb</p>","","","","","","","","",""
"html-keyboard-response","102","169912","0.0-10.0-0.13","600f0f9c3bfcdc077c924e51","650c16f0f2faf8d7a0d14c09","651c1d6c62eab12a59b277f1","null","null","<p style=""font-size: 60px; font-family: BACS"">ECtbDbRC</p>","","","","","","","","",""
"html-keyboard-response","103","170918","0.0-10.0-0.14","600f0f9c3bfcdc077c924e51","650c16f0f2faf8d7a0d14c09","651c1d6c62eab12a59b277f1","null","null","<p style=""font-size: 60px; font-family: BACS"">bvuZrZYd</p>","","","","","","","","",""
"html-keyboard-response","104","171930","0.0-10.0-0.15","600f0f9c3bfcdc077c924e51","650c16f0f2faf8d7a0d14c09","651c1d6c62eab12a59b277f1","null","null","<p style=""font-size: 60px; font-family: BACS"">mZUrQvAvb</p>","","","","","","","","",""
"html-keyboard-response","105","172945","0.0-10.0-0.16","600f0f9c3bfcdc077c924e51","650c16f0f2faf8d7a0d14c09","651c1d6c62eab12a59b277f1","null","null","<p style=""font-size: 60px; font-family: BACS"">PlEKCkbd</p>","","","","","","","","",""
"html-keyboard-response","106","173962","0.0-10.0-0.17","600f0f9c3bfcdc077c924e51","650c16f0f2faf8d7a0d14c09","651c1d6c62eab12a59b277f1","null","null","<p style=""font-size: 60px; font-family: BACS"">JAdLmrZYd</p>","","","","","","","","",""
"html-keyboard-response","107","174970","0.0-10.0-0.18","600f0f9c3bfcdc077c924e51","650c16f0f2faf8d7a0d14c09","651c1d6c62eab12a59b277f1","null","null","<p style=""font-size: 60px; font-family: BACS"">AbkacrdY</p>","","","","","","","","",""
"html-keyboard-response","108","175977","0.0-10.0-0.19","600f0f9c3bfcdc077c924e51","650c16f0f2faf8d7a0d14c09","651c1d6c62eab12a59b277f1","null","null","<p style=""font-size: 60px; font-family: BACS"">tmtEMdPc</p>","","","","","","","","",""
"html-keyboard-response","109","176985","0.0-10.0-0.20","600f0f9c3bfcdc077c924e51","650c16f0f2faf8d7a0d14c09","651c1d6c62eab12a59b277f1","null","null","<p style=""font-size: 60px; font-family: BACS"">PlEKbRC</p>","","","","","","","","",""
"html-keyboard-response","110","177993","0.0-10.0-0.21","600f0f9c3bfcdc077c924e51","650c16f0f2faf8d7a0d14c09","651c1d6c62eab12a59b277f1","null","null","<p style=""font-size: 60px; font-family: BACS"">Abkakbu</p>","","","","","","","","",""
"html-keyboard-response","111","178995","0.0-10.0-0.22","600f0f9c3bfcdc077c924e51","650c16f0f2faf8d7a0d14c09","651c1d6c62eab12a59b277f1","null","null","<p style=""font-size: 60px; font-family: BACS"">PMPtkdPc</p>","","","","","","","","",""
"html-keyboard-response","112","180009","0.0-10.0-0.23","600f0f9c3bfcdc077c924e51","650c16f0f2faf8d7a0d14c09","651c1d6c62eab12a59b277f1","null","null","<p style=""font-size: 60px; font-family: BACS"">JAdLmvAvb</p>","","","","","","","","",""
"html-keyboard-response","113","181017","0.0-10.0-0.24","600f0f9c3bfcdc077c924e51","650c16f0f2faf8d7a0d14c09","651c1d6c62eab12a59b277f1","null","null","<p style=""font-size: 60px; font-family: BACS"">bAdkhRKm</p>","","","","","","","","",""
"html-keyboard-response","114","182025","0.0-10.0-0.25","600f0f9c3bfcdc077c924e51","650c16f0f2faf8d7a0d14c09","651c1d6c62eab12a59b277f1","null","null","<p style=""font-size: 60px; font-family: BACS"">ckduAvAvb</p>","","","","","","","","",""
"html-keyboard-response","115","183041","0.0-10.0-0.26","600f0f9c3bfcdc077c924e51","650c16f0f2faf8d7a0d14c09","651c1d6c62eab12a59b277f1","null","null","<p style=""font-size: 60px; font-family: BACS"">mcOJcrdY</p>","","","","","","","","",""
"html-keyboard-response","116","184043","0.0-10.0-0.27","600f0f9c3bfcdc077c924e51","650c16f0f2faf8d7a0d14c09","651c1d6c62eab12a59b277f1","null","null","<p style=""font-size: 60px; font-family: BACS"">EYtYRbRC</p>","","","","","","","","",""
"html-keyboard-response","117","185048","0.0-10.0-0.28","600f0f9c3bfcdc077c924e51","650c16f0f2faf8d7a0d14c09","651c1d6c62eab12a59b277f1","null","null","<p style=""font-size: 60px; font-family: BACS"">mcOJrGl</p>","","","","","","","","",""
"html-keyboard-response","118","186056","0.0-10.0-0.29","600f0f9c3bfcdc077c924e51","650c16f0f2faf8d7a0d14c09","651c1d6c62eab12a59b277f1","null","null","<p style=""font-size: 60px; font-family: BACS"">tmtEMdRA</p>","","","","","","","","",""
"html-keyboard-response","119","187062","0.0-10.0-0.30","600f0f9c3bfcdc077c924e51","650c16f0f2faf8d7a0d14c09","651c1d6c62eab12a59b277f1","null","null","<p style=""font-size: 60px; font-family: BACS"">cuOJbrZYd</p>","","","","","","","","",""
"html-keyboard-response","120","188074","0.0-10.0-0.31","600f0f9c3bfcdc077c924e51","650c16f0f2faf8d7a0d14c09","651c1d6c62eab12a59b277f1","null","null","<p style=""font-size: 60px; font-family: BACS"">ECtbDhRKm</p>","","","","","","","","",""
"html-keyboard-response","121","189080","0.0-10.0-0.32","600f0f9c3bfcdc077c924e51","650c16f0f2faf8d7a0d14c09","651c1d6c62eab12a59b277f1","null","null","<p style=""font-size: 60px; font-family: BACS"">QcQAJrZYd</p>","","","","","","","","",""
"html-keyboard-response","122","190097","0.0-10.0-0.33","600f0f9c3bfcdc077c924e51","650c16f0f2faf8d7a0d14c09","651c1d6c62eab12a59b277f1","null","null","<p style=""font-size: 60px; font-family: BACS"">cuOJbcrdY</p>","","","","","","","","",""
"html-keyboard-response","123","191108","0.0-10.0-0.34","600f0f9c3bfcdc077c924e51","650c16f0f2faf8d7a0d14c09","651c1d6c62eab12a59b277f1","null","null","<p style=""font-size: 60px; font-family: BACS"">EYtYRdRA</p>","","","","","","","","",""
"html-keyboard-response","124","192110","0.0-10.0-0.35","600f0f9c3bfcdc077c924e51","650c16f0f2faf8d7a0d14c09","651c1d6c62eab12a59b277f1","null","null","<p style=""font-size: 60px; font-family: BACS"">bAdkbRC</p>","","","","","","","","",""
"html-keyboard-response","125","193113","0.0-10.0-0.36","600f0f9c3bfcdc077c924e51","650c16f0f2faf8d7a0d14c09","651c1d6c62eab12a59b277f1","null","null","<p style=""font-size: 60px; font-family: BACS"">ckduAkbu</p>","","","","","","","","",""
"html-keyboard-response","126","194129","0.0-10.0-0.37","600f0f9c3bfcdc077c924e51","650c16f0f2faf8d7a0d14c09","651c1d6c62eab12a59b277f1","null","null","<p style=""font-size: 60px; font-family: BACS"">ZYcQUcrdY</p>","","","","","","","","",""
"html-keyboard-response","127","195137","0.0-10.0-0.38","600f0f9c3bfcdc077c924e51","650c16f0f2faf8d7a0d14c09","651c1d6c62eab12a59b277f1","null","null","<p style=""font-size: 60px; font-family: BACS"">ckduArGl</p>","","","","","","","","",""
"html-keyboard-response","128","196138","0.0-10.0-0.39","600f0f9c3bfcdc077c924e51","650c16f0f2faf8d7a0d14c09","651c1d6c62eab12a59b277f1","null","null","<p style=""font-size: 60px; font-family: BACS"">ZYcQUvAvb</p>","","","","","","","","",""
"html-keyboard-response","129","197155","0.0-10.0-0.40","600f0f9c3bfcdc077c924e51","650c16f0f2faf8d7a0d14c09","651c1d6c62eab12a59b277f1","null","null","<p style=""font-size: 60px; font-family: BACS"">BEPOdPc</p>","","","","","","","","",""
"html-keyboard-response","130","198169","0.0-10.0-0.41","600f0f9c3bfcdc077c924e51","650c16f0f2faf8d7a0d14c09","651c1d6c62eab12a59b277f1","null","null","<p style=""font-size: 60px; font-family: BACS"">cuOJbkbu</p>","","","","","","","","",""
"html-keyboard-response","131","199171","0.0-10.0-0.42","600f0f9c3bfcdc077c924e51","650c16f0f2faf8d7a0d14c09","651c1d6c62eab12a59b277f1","null","null","<p style=""font-size: 60px; font-family: BACS"">PMPtkCkbd</p>","","","","","","","","",""
"html-keyboard-response","132","200178","0.0-10.0-0.43","600f0f9c3bfcdc077c924e51","650c16f0f2faf8d7a0d14c09","651c1d6c62eab12a59b277f1","null","null","<p style=""font-size: 60px; font-family: BACS"">mcOJkbu</p>","","","","","","","","",""
"html-keyboard-response","133","201187","0.0-10.0-0.44","600f0f9c3bfcdc077c924e51","650c16f0f2faf8d7a0d14c09","651c1d6c62eab12a59b277f1","null","null","<p style=""font-size: 60px; font-family: BACS"">EYtYRhRKm</p>","","","","","","","","",""
"html-keyboard-response","134","202191","0.0-10.0-0.45","600f0f9c3bfcdc077c924e51","650c16f0f2faf8d7a0d14c09","651c1d6c62eab12a59b277f1","null","null","<p style=""font-size: 60px; font-family: BACS"">BEPOdRA</p>","","","","","","","","",""
"html-keyboard-response","135","203194","0.0-10.0-0.46","600f0f9c3bfcdc077c924e51","650c16f0f2faf8d7a0d14c09","651c1d6c62eab12a59b277f1","null","null","<p style=""font-size: 60px; font-family: BACS"">JdOAYkbu</p>","","","","","","","","",""
"html-keyboard-response","136","204202","0.0-10.0-0.47","600f0f9c3bfcdc077c924e51","650c16f0f2faf8d7a0d14c09","651c1d6c62eab12a59b277f1","null","null","<p style=""font-size: 60px; font-family: BACS"">tmtEMCkbd</p>","","","","","","","","",""
"html-keyboard-response","137","205210","0.0-10.0-0.48","600f0f9c3bfcdc077c924e51","650c16f0f2faf8d7a0d14c09","651c1d6c62eab12a59b277f1","null","null","<p style=""font-size: 60px; font-family: BACS"">MBmEdRA</p>","","","","","","","","",""
"html-keyboard-response","138","206223","0.0-10.0-0.49","600f0f9c3bfcdc077c924e51","650c16f0f2faf8d7a0d14c09","651c1d6c62eab12a59b277f1","null","null","<p style=""font-size: 60px; font-family: BACS"">ctktdPc</p>","","","","","","","","",""
"html-keyboard-response","139","207241","0.0-10.0-0.50","600f0f9c3bfcdc077c924e51","650c16f0f2faf8d7a0d14c09","651c1d6c62eab12a59b277f1","null","null","<p style=""font-size: 60px; font-family: BACS"">hkRKCkbd</p>","","","","","","","","",""
"html-keyboard-response","140","208252","0.0-10.0-0.51","600f0f9c3bfcdc077c924e51","650c16f0f2faf8d7a0d14c09","651c1d6c62eab12a59b277f1","null","null","<p style=""font-size: 60px; font-family: BACS"">JdOAYrZYd</p>","","","","","","","","",""
"html-keyboard-response","141","209257","0.0-10.0-0.52","600f0f9c3bfcdc077c924e51","650c16f0f2faf8d7a0d14c09","651c1d6c62eab12a59b277f1","null","null","<p style=""font-size: 60px; font-family: BACS"">JAdLmcrdY</p>","","","","","","","","",""
"html-keyboard-response","142","210271","0.0-10.0-0.53","600f0f9c3bfcdc077c924e51","650c16f0f2faf8d7a0d14c09","651c1d6c62eab12a59b277f1","null","null","<p style=""font-size: 60px; font-family: BACS"">hkRKbRC</p>","","","","","","","","",""
"html-keyboard-response","143","211282","0.0-10.0-0.54","600f0f9c3bfcdc077c924e51","650c16f0f2faf8d7a0d14c09","651c1d6c62eab12a59b277f1","null","null","<p style=""font-size: 60px; font-family: BACS"">PlEKdRA</p>","","","","","","","","",""
"html-keyboard-response","144","212290","0.0-10.0-0.55","600f0f9c3bfcdc077c924e51","650c16f0f2faf8d7a0d14c09","651c1d6c62eab12a59b277f1","null","null","<p style=""font-size: 60px; font-family: BACS"">bvuZvAvb</p>","","","","","","","","",""
"html-keyboard-response","145","213306","0.0-10.0-0.56","600f0f9c3bfcdc077c924e51","650c16f0f2faf8d7a0d14c09","651c1d6c62eab12a59b277f1","null","null","<p style=""font-size: 60px; font-family: BACS"">tmtEMbRC</p>","","","","","","","","",""
"html-keyboard-response","146","214316","0.0-10.0-0.57","600f0f9c3bfcdc077c924e51","650c16f0f2faf8d7a0d14c09","651c1d6c62eab12a59b277f1","null","null","<p style=""font-size: 60px; font-family: BACS"">bAdkdRA</p>","","","","","","","","",""
"html-keyboard-response","147","215323","0.0-10.0-0.58","600f0f9c3bfcdc077c924e51","650c16f0f2faf8d7a0d14c09","651c1d6c62eab12a59b277f1","null","null","<p style=""font-size: 60px; font-family: BACS"">MBmEdPc</p>","","","","","","","","",""
"html-keyboard-response","148","216334","0.0-10.0-0.59","600f0f9c3bfcdc077c924e51","650c16f0f2faf8d7a0d14c09","651c1d6c62eab12a59b277f1","null","null","<p style=""font-size: 60px; font-family: BACS"">hkRKhRKm</p>","","","","","","","","",""
"html-keyboard-response","149","217338","0.0-10.0-0.60","600f0f9c3bfcdc077c924e51","650c16f0f2faf8d7a0d14c09","651c1d6c62eab12a59b277f1","null","null","<p style=""font-size: 60px; font-family: BACS"">mZUrQrZYd</p>","","","","","","","","",""
"html-keyboard-response","150","218348","0.0-10.0-0.61","600f0f9c3bfcdc077c924e51","650c16f0f2faf8d7a0d14c09","651c1d6c62eab12a59b277f1","null","null","<p style=""font-size: 60px; font-family: BACS"">PMPtkdRA</p>","","","","","","","","",""
"html-keyboard-response","151","219365","0.0-10.0-0.62","600f0f9c3bfcdc077c924e51","650c16f0f2faf8d7a0d14c09","651c1d6c62eab12a59b277f1","null","null","<p style=""font-size: 60px; font-family: BACS"">MBmECkbd</p>","","","","","","","","",""
"html-keyboard-response","152","220372","0.0-10.0-0.63","600f0f9c3bfcdc077c924e51","650c16f0f2faf8d7a0d14c09","651c1d6c62eab12a59b277f1","null","null","<p style=""font-size: 60px; font-family: BACS"">ctktbRC</p>","","","","","","","","",""
"html-keyboard-response","153","221379","0.0-10.0-0.64","600f0f9c3bfcdc077c924e51","650c16f0f2faf8d7a0d14c09","651c1d6c62eab12a59b277f1","null","null","<p style=""font-size: 60px; font-family: BACS"">bvuZcrdY</p>","","","","","","","","",""
"html-keyboard-response","154","222386","0.0-10.0-0.65","600f0f9c3bfcdc077c924e51","650c16f0f2faf8d7a0d14c09","651c1d6c62eab12a59b277f1","null","null","<p style=""font-size: 60px; font-family: BACS"">JdOAYrGl</p>","","","","","","","","",""
"html-keyboard-response","155","223403","0.0-10.0-0.66","600f0f9c3bfcdc077c924e51","650c16f0f2faf8d7a0d14c09","651c1d6c62eab12a59b277f1","null","null","<p style=""font-size: 60px; font-family: BACS"">ctktCkbd</p>","","","","","","","","",""
"html-keyboard-response","156","224417","0.0-10.0-0.67","600f0f9c3bfcdc077c924e51","650c16f0f2faf8d7a0d14c09","651c1d6c62eab12a59b277f1","null","null","<p style=""font-size: 60px; font-family: BACS"">ZYcQUrGl</p>","","","","","","","","",""
"html-keyboard-response","157","225419","0.0-10.0-0.68","600f0f9c3bfcdc077c924e51","650c16f0f2faf8d7a0d14c09","651c1d6c62eab12a59b277f1","null","null","<p style=""font-size: 60px; font-family: BACS"">EYtYRCkbd</p>","","","","","","","","",""
"html-keyboard-response","158","226435","0.0-10.0-0.69","600f0f9c3bfcdc077c924e51","650c16f0f2faf8d7a0d14c09","651c1d6c62eab12a59b277f1","null","null","<p style=""font-size: 60px; font-family: BACS"">ckduAcrdY</p>","","","","","","","","",""
"html-keyboard-response","159","227450","0.0-10.0-0.70","600f0f9c3bfcdc077c924e51","650c16f0f2faf8d7a0d14c09","651c1d6c62eab12a59b277f1","null","null","<p style=""font-size: 60px; font-family: BACS"">QcQAJvAvb</p>","","","","","","","","",""
"html-keyboard-response","160","228467","0.0-10.0-0.71","600f0f9c3bfcdc077c924e51","650c16f0f2faf8d7a0d14c09","651c1d6c62eab12a59b277f1","null","null","<p style=""font-size: 60px; font-family: BACS"">ZYcQUkbu</p>","","","","","","","","",""
"html-keyboard-response","161","229480","0.0-10.0-0.72","600f0f9c3bfcdc077c924e51","650c16f0f2faf8d7a0d14c09","651c1d6c62eab12a59b277f1","null","null","<p style=""font-size: 60px; font-family: BACS"">cuOJbvAvb</p>","","","","","","","","",""
"html-keyboard-response","162","230505","0.0-10.0-0.73","600f0f9c3bfcdc077c924e51","650c16f0f2faf8d7a0d14c09","651c1d6c62eab12a59b277f1","null","null","<p style=""font-size: 60px; font-family: BACS"">ECtbDdRA</p>","","","","","","","","",""
"html-keyboard-response","163","231517","0.0-10.0-0.74","600f0f9c3bfcdc077c924e51","650c16f0f2faf8d7a0d14c09","651c1d6c62eab12a59b277f1","null","null","<p style=""font-size: 60px; font-family: BACS"">bvuZrGl</p>","","","","","","","","",""
"html-keyboard-response","164","232526","0.0-10.0-0.75","600f0f9c3bfcdc077c924e51","650c16f0f2faf8d7a0d14c09","651c1d6c62eab12a59b277f1","null","null","<p style=""font-size: 60px; font-family: BACS"">mZUrQcrdY</p>","","","","","","","","",""
"html-keyboard-response","165","233534","0.0-10.0-0.76","600f0f9c3bfcdc077c924e51","650c16f0f2faf8d7a0d14c09","651c1d6c62eab12a59b277f1","null","null","<p style=""font-size: 60px; font-family: BACS"">AbkarGl</p>","","","","","","","","",""
"html-keyboard-response","166","234550","0.0-10.0-0.77","600f0f9c3bfcdc077c924e51","650c16f0f2faf8d7a0d14c09","651c1d6c62eab12a59b277f1","null","null","<p style=""font-size: 60px; font-family: BACS"">PMPtkhRKm</p>","","","","","","","","",""
"html-keyboard-response","167","235565","0.0-10.0-0.78","600f0f9c3bfcdc077c924e51","650c16f0f2faf8d7a0d14c09","651c1d6c62eab12a59b277f1","null","null","<p style=""font-size: 60px; font-family: BACS"">mZUrQrGl</p>","","","","","","","","",""
"html-keyboard-response","168","236567","0.0-10.0-0.79","600f0f9c3bfcdc077c924e51","650c16f0f2faf8d7a0d14c09","651c1d6c62eab12a59b277f1","null","null","<p style=""font-size: 60px; font-family: BACS"">hkRKdPc</p>","","","","","","","","",""
"html-keyboard-response","169","239767","0.0-11.0","600f0f9c3bfcdc077c924e51","650c16f0f2faf8d7a0d14c09","651c1d6c62eab12a59b277f1","3200"," ","<p>Great, you've seen the second block of words. You may now take a short break.</p>
      <p>Press the spacebar when you're ready to continue.</p>","","","","","","","","",""
"html-keyboard-response","170","240772","0.0-12.0-0.0","600f0f9c3bfcdc077c924e51","650c16f0f2faf8d7a0d14c09","651c1d6c62eab12a59b277f1","null","null","<p style=""font-size: 60px; font-family: BACS"">JAdLmvAvb</p>","","","","","","","","",""
"html-keyboard-response","171","241782","0.0-12.0-0.1","600f0f9c3bfcdc077c924e51","650c16f0f2faf8d7a0d14c09","651c1d6c62eab12a59b277f1","null","null","<p style=""font-size: 60px; font-family: BACS"">PlEKdRA</p>","","","","","","","","",""
"html-keyboard-response","172","242796","0.0-12.0-0.2","600f0f9c3bfcdc077c924e51","650c16f0f2faf8d7a0d14c09","651c1d6c62eab12a59b277f1","null","null","<p style=""font-size: 60px; font-family: BACS"">tmtEMdPc</p>","","","","","","","","",""
"html-keyboard-response","173","243798","0.0-12.0-0.3","600f0f9c3bfcdc077c924e51","650c16f0f2faf8d7a0d14c09","651c1d6c62eab12a59b277f1","null","null","<p style=""font-size: 60px; font-family: BACS"">ckduAvAvb</p>","","","","","","","","",""
"html-keyboard-response","174","244805","0.0-12.0-0.4","600f0f9c3bfcdc077c924e51","650c16f0f2faf8d7a0d14c09","651c1d6c62eab12a59b277f1","null","null","<p style=""font-size: 60px; font-family: BACS"">AbkarGl</p>","","","","","","","","",""
"html-keyboard-response","175","245812","0.0-12.0-0.5","600f0f9c3bfcdc077c924e51","650c16f0f2faf8d7a0d14c09","651c1d6c62eab12a59b277f1","null","null","<p style=""font-size: 60px; font-family: BACS"">ECtbDbRC</p>","","","","","","","","",""
"html-keyboard-response","176","246827","0.0-12.0-0.6","600f0f9c3bfcdc077c924e51","650c16f0f2faf8d7a0d14c09","651c1d6c62eab12a59b277f1","null","null","<p style=""font-size: 60px; font-family: BACS"">cuOJbcrdY</p>","","","","","","","","",""
"html-keyboard-response","177","247837","0.0-12.0-0.7","600f0f9c3bfcdc077c924e51","650c16f0f2faf8d7a0d14c09","651c1d6c62eab12a59b277f1","null","null","<p style=""font-size: 60px; font-family: BACS"">JdOAYrZYd</p>","","","","","","","","",""
"html-keyboard-response","178","248845","0.0-12.0-0.8","600f0f9c3bfcdc077c924e51","650c16f0f2faf8d7a0d14c09","651c1d6c62eab12a59b277f1","null","null","<p style=""font-size: 60px; font-family: BACS"">ctktbRC</p>","","","","","","","","",""
"html-keyboard-response","179","249853","0.0-12.0-0.9","600f0f9c3bfcdc077c924e51","650c16f0f2faf8d7a0d14c09","651c1d6c62eab12a59b277f1","null","null","<p style=""font-size: 60px; font-family: BACS"">bvuZcrdY</p>","","","","","","","","",""
"html-keyboard-response","180","250863","0.0-12.0-0.10","600f0f9c3bfcdc077c924e51","650c16f0f2faf8d7a0d14c09","651c1d6c62eab12a59b277f1","null","null","<p style=""font-size: 60px; font-family: BACS"">PMPtkCkbd</p>","","","","","","","","",""
"html-keyboard-response","181","251877","0.0-12.0-0.11","600f0f9c3bfcdc077c924e51","650c16f0f2faf8d7a0d14c09","651c1d6c62eab12a59b277f1","null","null","<p style=""font-size: 60px; font-family: BACS"">ckduAcrdY</p>","","","","","","","","",""
"html-keyboard-response","182","252895","0.0-12.0-0.12","600f0f9c3bfcdc077c924e51","650c16f0f2faf8d7a0d14c09","651c1d6c62eab12a59b277f1","null","null","<p style=""font-size: 60px; font-family: BACS"">mZUrQvAvb</p>","","","","","","","","",""
"html-keyboard-response","183","253907","0.0-12.0-0.13","600f0f9c3bfcdc077c924e51","650c16f0f2faf8d7a0d14c09","651c1d6c62eab12a59b277f1","null","null","<p style=""font-size: 60px; font-family: BACS"">EYtYRdRA</p>","","","","","","","","",""
"html-keyboard-response","184","254909","0.0-12.0-0.14","600f0f9c3bfcdc077c924e51","650c16f0f2faf8d7a0d14c09","651c1d6c62eab12a59b277f1","null","null","<p style=""font-size: 60px; font-family: BACS"">ctktCkbd</p>","","","","","","","","",""
"html-keyboard-response","185","255924","0.0-12.0-0.15","600f0f9c3bfcdc077c924e51","650c16f0f2faf8d7a0d14c09","651c1d6c62eab12a59b277f1","null","null","<p style=""font-size: 60px; font-family: BACS"">PlEKdPc</p>","","","","","","","","",""
"html-keyboard-response","186","256925","0.0-12.0-0.16","600f0f9c3bfcdc077c924e51","650c16f0f2faf8d7a0d14c09","651c1d6c62eab12a59b277f1","null","null","<p style=""font-size: 60px; font-family: BACS"">AbkarZYd</p>","","","","","","","","",""
"html-keyboard-response","187","257941","0.0-12.0-0.17","600f0f9c3bfcdc077c924e51","650c16f0f2faf8d7a0d14c09","651c1d6c62eab12a59b277f1","null","null","<p style=""font-size: 60px; font-family: BACS"">EYtYRbRC</p>","","","","","","","","",""
"html-keyboard-response","188","258958","0.0-12.0-0.18","600f0f9c3bfcdc077c924e51","650c16f0f2faf8d7a0d14c09","651c1d6c62eab12a59b277f1","null","null","<p style=""font-size: 60px; font-family: BACS"">MBmEhRKm</p>","","","","","","","","",""
"html-keyboard-response","189","259973","0.0-12.0-0.19","600f0f9c3bfcdc077c924e51","650c16f0f2faf8d7a0d14c09","651c1d6c62eab12a59b277f1","null","null","<p style=""font-size: 60px; font-family: BACS"">bvuZrZYd</p>","","","","","","","","",""
"html-keyboard-response","190","260984","0.0-12.0-0.20","600f0f9c3bfcdc077c924e51","650c16f0f2faf8d7a0d14c09","651c1d6c62eab12a59b277f1","null","null","<p style=""font-size: 60px; font-family: BACS"">ZYcQUrGl</p>","","","","","","","","",""
"html-keyboard-response","191","261991","0.0-12.0-0.21","600f0f9c3bfcdc077c924e51","650c16f0f2faf8d7a0d14c09","651c1d6c62eab12a59b277f1","null","null","<p style=""font-size: 60px; font-family: BACS"">BEPOdRA</p>","","","","","","","","",""
"html-keyboard-response","192","263007","0.0-12.0-0.22","600f0f9c3bfcdc077c924e51","650c16f0f2faf8d7a0d14c09","651c1d6c62eab12a59b277f1","null","null","<p style=""font-size: 60px; font-family: BACS"">mcOJcrdY</p>","","","","","","","","",""
"html-keyboard-response","193","264015","0.0-12.0-0.23","600f0f9c3bfcdc077c924e51","650c16f0f2faf8d7a0d14c09","651c1d6c62eab12a59b277f1","null","null","<p style=""font-size: 60px; font-family: BACS"">QcQAJrZYd</p>","","","","","","","","",""
"html-keyboard-response","194","265023","0.0-12.0-0.24","600f0f9c3bfcdc077c924e51","650c16f0f2faf8d7a0d14c09","651c1d6c62eab12a59b277f1","null","null","<p style=""font-size: 60px; font-family: BACS"">ZYcQUkbu</p>","","","","","","","","",""
"html-keyboard-response","195","266036","0.0-12.0-0.25","600f0f9c3bfcdc077c924e51","650c16f0f2faf8d7a0d14c09","651c1d6c62eab12a59b277f1","null","null","<p style=""font-size: 60px; font-family: BACS"">tmtEMdRA</p>","","","","","","","","",""
"html-keyboard-response","196","267053","0.0-12.0-0.26","600f0f9c3bfcdc077c924e51","650c16f0f2faf8d7a0d14c09","651c1d6c62eab12a59b277f1","null","null","<p style=""font-size: 60px; font-family: BACS"">hkRKbRC</p>","","","","","","","","",""
"html-keyboard-response","197","268055","0.0-12.0-0.27","600f0f9c3bfcdc077c924e51","650c16f0f2faf8d7a0d14c09","651c1d6c62eab12a59b277f1","null","null","<p style=""font-size: 60px; font-family: BACS"">MBmEdRA</p>","","","","","","","","",""
"html-keyboard-response","198","269070","0.0-12.0-0.28","600f0f9c3bfcdc077c924e51","650c16f0f2faf8d7a0d14c09","651c1d6c62eab12a59b277f1","null","null","<p style=""font-size: 60px; font-family: BACS"">mcOJrZYd</p>","","","","","","","","",""
"html-keyboard-response","199","270086","0.0-12.0-0.29","600f0f9c3bfcdc077c924e51","650c16f0f2faf8d7a0d14c09","651c1d6c62eab12a59b277f1","null","null","<p style=""font-size: 60px; font-family: BACS"">tmtEMbRC</p>","","","","","","","","",""
"html-keyboard-response","200","271094","0.0-12.0-0.30","600f0f9c3bfcdc077c924e51","650c16f0f2faf8d7a0d14c09","651c1d6c62eab12a59b277f1","null","null","<p style=""font-size: 60px; font-family: BACS"">PMPtkdRA</p>","","","","","","","","",""
"html-keyboard-response","201","272111","0.0-12.0-0.31","600f0f9c3bfcdc077c924e51","650c16f0f2faf8d7a0d14c09","651c1d6c62eab12a59b277f1","null","null","<p style=""font-size: 60px; font-family: BACS"">ctktdPc</p>","","","","","","","","",""
"html-keyboard-response","202","273120","0.0-12.0-0.32","600f0f9c3bfcdc077c924e51","650c16f0f2faf8d7a0d14c09","651c1d6c62eab12a59b277f1","null","null","<p style=""font-size: 60px; font-family: BACS"">JdOAYrGl</p>","","","","","","","","",""
"html-keyboard-response","203","274127","0.0-12.0-0.33","600f0f9c3bfcdc077c924e51","650c16f0f2faf8d7a0d14c09","651c1d6c62eab12a59b277f1","null","null","<p style=""font-size: 60px; font-family: BACS"">ECtbDhRKm</p>","","","","","","","","",""
"html-keyboard-response","204","275143","0.0-12.0-0.34","600f0f9c3bfcdc077c924e51","650c16f0f2faf8d7a0d14c09","651c1d6c62eab12a59b277f1","null","null","<p style=""font-size: 60px; font-family: BACS"">EYtYRCkbd</p>","","","","","","","","",""
"html-keyboard-response","205","276150","0.0-12.0-0.35","600f0f9c3bfcdc077c924e51","650c16f0f2faf8d7a0d14c09","651c1d6c62eab12a59b277f1","null","null","<p style=""font-size: 60px; font-family: BACS"">ZYcQUcrdY</p>","","","","","","","","",""
"html-keyboard-response","206","277167","0.0-12.0-0.36","600f0f9c3bfcdc077c924e51","650c16f0f2faf8d7a0d14c09","651c1d6c62eab12a59b277f1","null","null","<p style=""font-size: 60px; font-family: BACS"">bvuZvAvb</p>","","","","","","","","",""
"html-keyboard-response","207","278184","0.0-12.0-0.37","600f0f9c3bfcdc077c924e51","650c16f0f2faf8d7a0d14c09","651c1d6c62eab12a59b277f1","null","null","<p style=""font-size: 60px; font-family: BACS"">Abkakbu</p>","","","","","","","","",""
"html-keyboard-response","208","279193","0.0-12.0-0.38","600f0f9c3bfcdc077c924e51","650c16f0f2faf8d7a0d14c09","651c1d6c62eab12a59b277f1","null","null","<p style=""font-size: 60px; font-family: BACS"">mZUrQrZYd</p>","","","","","","","","",""
"html-keyboard-response","209","280199","0.0-12.0-0.39","600f0f9c3bfcdc077c924e51","650c16f0f2faf8d7a0d14c09","651c1d6c62eab12a59b277f1","null","null","<p style=""font-size: 60px; font-family: BACS"">MBmEdPc</p>","","","","","","","","",""
"html-keyboard-response","210","281208","0.0-12.0-0.40","600f0f9c3bfcdc077c924e51","650c16f0f2faf8d7a0d14c09","651c1d6c62eab12a59b277f1","null","null","<p style=""font-size: 60px; font-family: BACS"">mZUrQcrdY</p>","","","","","","","","",""
"html-keyboard-response","211","282215","0.0-12.0-0.41","600f0f9c3bfcdc077c924e51","650c16f0f2faf8d7a0d14c09","651c1d6c62eab12a59b277f1","null","null","<p style=""font-size: 60px; font-family: BACS"">JdOAYvAvb</p>","","","","","","","","",""
"html-keyboard-response","212","283232","0.0-12.0-0.42","600f0f9c3bfcdc077c924e51","650c16f0f2faf8d7a0d14c09","651c1d6c62eab12a59b277f1","null","null","<p style=""font-size: 60px; font-family: BACS"">ckduArGl</p>","","","","","","","","",""
"html-keyboard-response","213","284248","0.0-12.0-0.43","600f0f9c3bfcdc077c924e51","650c16f0f2faf8d7a0d14c09","651c1d6c62eab12a59b277f1","null","null","<p style=""font-size: 60px; font-family: BACS"">QcQAJvAvb</p>","","","","","","","","",""
"html-keyboard-response","214","285256","0.0-12.0-0.44","600f0f9c3bfcdc077c924e51","650c16f0f2faf8d7a0d14c09","651c1d6c62eab12a59b277f1","null","null","<p style=""font-size: 60px; font-family: BACS"">ckduAkbu</p>","","","","","","","","",""
"html-keyboard-response","215","286265","0.0-12.0-0.45","600f0f9c3bfcdc077c924e51","650c16f0f2faf8d7a0d14c09","651c1d6c62eab12a59b277f1","null","null","<p style=""font-size: 60px; font-family: BACS"">BEPObRC</p>","","","","","","","","",""
"html-keyboard-response","216","287280","0.0-12.0-0.46","600f0f9c3bfcdc077c924e51","650c16f0f2faf8d7a0d14c09","651c1d6c62eab12a59b277f1","null","null","<p style=""font-size: 60px; font-family: BACS"">bAdkCkbd</p>","","","","","","","","",""
"html-keyboard-response","217","288289","0.0-12.0-0.47","600f0f9c3bfcdc077c924e51","650c16f0f2faf8d7a0d14c09","651c1d6c62eab12a59b277f1","null","null","<p style=""font-size: 60px; font-family: BACS"">JAdLmcrdY</p>","","","","","","","","",""
"html-keyboard-response","218","289297","0.0-12.0-0.48","600f0f9c3bfcdc077c924e51","650c16f0f2faf8d7a0d14c09","651c1d6c62eab12a59b277f1","null","null","<p style=""font-size: 60px; font-family: BACS"">cuOJbvAvb</p>","","","","","","","","",""
"html-keyboard-response","219","290312","0.0-12.0-0.49","600f0f9c3bfcdc077c924e51","650c16f0f2faf8d7a0d14c09","651c1d6c62eab12a59b277f1","null","null","<p style=""font-size: 60px; font-family: BACS"">mcOJrGl</p>","","","","","","","","",""
"html-keyboard-response","220","291328","0.0-12.0-0.50","600f0f9c3bfcdc077c924e51","650c16f0f2faf8d7a0d14c09","651c1d6c62eab12a59b277f1","null","null","<p style=""font-size: 60px; font-family: BACS"">AbkacrdY</p>","","","","","","","","",""
"html-keyboard-response","221","292338","0.0-12.0-0.51","600f0f9c3bfcdc077c924e51","650c16f0f2faf8d7a0d14c09","651c1d6c62eab12a59b277f1","null","null","<p style=""font-size: 60px; font-family: BACS"">JAdLmrZYd</p>","","","","","","","","",""
"html-keyboard-response","222","293345","0.0-12.0-0.52","600f0f9c3bfcdc077c924e51","650c16f0f2faf8d7a0d14c09","651c1d6c62eab12a59b277f1","null","null","<p style=""font-size: 60px; font-family: BACS"">PMPtkdPc</p>","","","","","","","","",""
"html-keyboard-response","223","294361","0.0-12.0-0.53","600f0f9c3bfcdc077c924e51","650c16f0f2faf8d7a0d14c09","651c1d6c62eab12a59b277f1","null","null","<p style=""font-size: 60px; font-family: BACS"">bvuZrGl</p>","","","","","","","","",""
"html-keyboard-response","224","295379","0.0-12.0-0.54","600f0f9c3bfcdc077c924e51","650c16f0f2faf8d7a0d14c09","651c1d6c62eab12a59b277f1","null","null","<p style=""font-size: 60px; font-family: BACS"">ZYcQUvAvb</p>","","","","","","","","",""
"html-keyboard-response","225","296386","0.0-12.0-0.55","600f0f9c3bfcdc077c924e51","650c16f0f2faf8d7a0d14c09","651c1d6c62eab12a59b277f1","null","null","<p style=""font-size: 60px; font-family: BACS"">QcQAJrGl</p>","","","","","","","","",""
"html-keyboard-response","226","297401","0.0-12.0-0.56","600f0f9c3bfcdc077c924e51","650c16f0f2faf8d7a0d14c09","651c1d6c62eab12a59b277f1","null","null","<p style=""font-size: 60px; font-family: BACS"">JAdLmkbu</p>","","","","","","","","",""
"html-keyboard-response","227","298417","0.0-12.0-0.57","600f0f9c3bfcdc077c924e51","650c16f0f2faf8d7a0d14c09","651c1d6c62eab12a59b277f1","null","null","<p style=""font-size: 60px; font-family: BACS"">tmtEMCkbd</p>","","","","","","","","",""
"html-keyboard-response","228","299428","0.0-12.0-0.58","600f0f9c3bfcdc077c924e51","650c16f0f2faf8d7a0d14c09","651c1d6c62eab12a59b277f1","null","null","<p style=""font-size: 60px; font-family: BACS"">cuOJbkbu</p>","","","","","","","","",""
"html-keyboard-response","229","300436","0.0-12.0-0.59","600f0f9c3bfcdc077c924e51","650c16f0f2faf8d7a0d14c09","651c1d6c62eab12a59b277f1","null","null","<p style=""font-size: 60px; font-family: BACS"">BEPOdPc</p>","","","","","","","","",""
"html-keyboard-response","230","301451","0.0-12.0-0.60","600f0f9c3bfcdc077c924e51","650c16f0f2faf8d7a0d14c09","651c1d6c62eab12a59b277f1","null","null","<p style=""font-size: 60px; font-family: BACS"">PlEKCkbd</p>","","","","","","","","",""
"html-keyboard-response","231","302468","0.0-12.0-0.61","600f0f9c3bfcdc077c924e51","650c16f0f2faf8d7a0d14c09","651c1d6c62eab12a59b277f1","null","null","<p style=""font-size: 60px; font-family: BACS"">BEPOhRKm</p>","","","","","","","","",""
"html-keyboard-response","232","303482","0.0-12.0-0.62","600f0f9c3bfcdc077c924e51","650c16f0f2faf8d7a0d14c09","651c1d6c62eab12a59b277f1","null","null","<p style=""font-size: 60px; font-family: BACS"">ECtbDdRA</p>","","","","","","","","",""
"html-keyboard-response","233","304484","0.0-12.0-0.63","600f0f9c3bfcdc077c924e51","650c16f0f2faf8d7a0d14c09","651c1d6c62eab12a59b277f1","null","null","<p style=""font-size: 60px; font-family: BACS"">bAdkhRKm</p>","","","","","","","","",""
"html-keyboard-response","234","305500","0.0-12.0-0.64","600f0f9c3bfcdc077c924e51","650c16f0f2faf8d7a0d14c09","651c1d6c62eab12a59b277f1","null","null","<p style=""font-size: 60px; font-family: BACS"">MBmECkbd</p>","","","","","","","","",""
"html-keyboard-response","235","306518","0.0-12.0-0.65","600f0f9c3bfcdc077c924e51","650c16f0f2faf8d7a0d14c09","651c1d6c62eab12a59b277f1","null","null","<p style=""font-size: 60px; font-family: BACS"">PlEKbRC</p>","","","","","","","","",""
"html-keyboard-response","236","307534","0.0-12.0-0.66","600f0f9c3bfcdc077c924e51","650c16f0f2faf8d7a0d14c09","651c1d6c62eab12a59b277f1","null","null","<p style=""font-size: 60px; font-family: BACS"">mZUrQrGl</p>","","","","","","","","",""
"html-keyboard-response","237","308542","0.0-12.0-0.67","600f0f9c3bfcdc077c924e51","650c16f0f2faf8d7a0d14c09","651c1d6c62eab12a59b277f1","null","null","<p style=""font-size: 60px; font-family: BACS"">hkRKCkbd</p>","","","","","","","","",""
"html-keyboard-response","238","309558","0.0-12.0-0.68","600f0f9c3bfcdc077c924e51","650c16f0f2faf8d7a0d14c09","651c1d6c62eab12a59b277f1","null","null","<p style=""font-size: 60px; font-family: BACS"">bAdkbRC</p>","","","","","","","","",""
"html-keyboard-response","239","310566","0.0-12.0-0.69","600f0f9c3bfcdc077c924e51","650c16f0f2faf8d7a0d14c09","651c1d6c62eab12a59b277f1","null","null","<p style=""font-size: 60px; font-family: BACS"">mcOJkbu</p>","","","","","","","","",""
"html-keyboard-response","240","311580","0.0-12.0-0.70","600f0f9c3bfcdc077c924e51","650c16f0f2faf8d7a0d14c09","651c1d6c62eab12a59b277f1","null","null","<p style=""font-size: 60px; font-family: BACS"">cuOJbrZYd</p>","","","","","","","","",""
"html-keyboard-response","241","312596","0.0-12.0-0.71","600f0f9c3bfcdc077c924e51","650c16f0f2faf8d7a0d14c09","651c1d6c62eab12a59b277f1","null","null","<p style=""font-size: 60px; font-family: BACS"">hkRKhRKm</p>","","","","","","","","",""
"html-keyboard-response","242","313605","0.0-12.0-0.72","600f0f9c3bfcdc077c924e51","650c16f0f2faf8d7a0d14c09","651c1d6c62eab12a59b277f1","null","null","<p style=""font-size: 60px; font-family: BACS"">bAdkdRA</p>","","","","","","","","",""
"html-keyboard-response","243","314612","0.0-12.0-0.73","600f0f9c3bfcdc077c924e51","650c16f0f2faf8d7a0d14c09","651c1d6c62eab12a59b277f1","null","null","<p style=""font-size: 60px; font-family: BACS"">PMPtkhRKm</p>","","","","","","","","",""
"html-keyboard-response","244","315614","0.0-12.0-0.74","600f0f9c3bfcdc077c924e51","650c16f0f2faf8d7a0d14c09","651c1d6c62eab12a59b277f1","null","null","<p style=""font-size: 60px; font-family: BACS"">QcQAJkbu</p>","","","","","","","","",""
"html-keyboard-response","245","316623","0.0-12.0-0.75","600f0f9c3bfcdc077c924e51","650c16f0f2faf8d7a0d14c09","651c1d6c62eab12a59b277f1","null","null","<p style=""font-size: 60px; font-family: BACS"">hkRKdPc</p>","","","","","","","","",""
"html-keyboard-response","246","317637","0.0-12.0-0.76","600f0f9c3bfcdc077c924e51","650c16f0f2faf8d7a0d14c09","651c1d6c62eab12a59b277f1","null","null","<p style=""font-size: 60px; font-family: BACS"">JdOAYkbu</p>","","","","","","","","",""
"html-keyboard-response","247","318646","0.0-12.0-0.77","600f0f9c3bfcdc077c924e51","650c16f0f2faf8d7a0d14c09","651c1d6c62eab12a59b277f1","null","null","<p style=""font-size: 60px; font-family: BACS"">ctkthRKm</p>","","","","","","","","",""
"html-keyboard-response","248","319660","0.0-12.0-0.78","600f0f9c3bfcdc077c924e51","650c16f0f2faf8d7a0d14c09","651c1d6c62eab12a59b277f1","null","null","<p style=""font-size: 60px; font-family: BACS"">ECtbDdPc</p>","","","","","","","","",""
"html-keyboard-response","249","320669","0.0-12.0-0.79","600f0f9c3bfcdc077c924e51","650c16f0f2faf8d7a0d14c09","651c1d6c62eab12a59b277f1","null","null","<p style=""font-size: 60px; font-family: BACS"">EYtYRhRKm</p>","","","","","","","","",""
"html-keyboard-response","250","324390","0.0-13.0","600f0f9c3bfcdc077c924e51","650c16f0f2faf8d7a0d14c09","651c1d6c62eab12a59b277f1","3719"," ","<p>Great, you've seen the third block of words. You may now take a short break.</p>
      <p>Press the spacebar when you're ready to continue.</p>","","","","","","","","",""
"html-keyboard-response","251","325400","0.0-14.0-0.0","600f0f9c3bfcdc077c924e51","650c16f0f2faf8d7a0d14c09","651c1d6c62eab12a59b277f1","null","null","<p style=""font-size: 60px; font-family: BACS"">mZUrQvAvb</p>","","","","","","","","",""
"html-keyboard-response","252","326417","0.0-14.0-0.1","600f0f9c3bfcdc077c924e51","650c16f0f2faf8d7a0d14c09","651c1d6c62eab12a59b277f1","null","null","<p style=""font-size: 60px; font-family: BACS"">ckduAcrdY</p>","","","","","","","","",""
"html-keyboard-response","253","327427","0.0-14.0-0.2","600f0f9c3bfcdc077c924e51","650c16f0f2faf8d7a0d14c09","651c1d6c62eab12a59b277f1","null","null","<p style=""font-size: 60px; font-family: BACS"">bAdkbRC</p>","","","","","","","","",""
"html-keyboard-response","254","328434","0.0-14.0-0.3","600f0f9c3bfcdc077c924e51","650c16f0f2faf8d7a0d14c09","651c1d6c62eab12a59b277f1","null","null","<p style=""font-size: 60px; font-family: BACS"">MBmEdPc</p>","","","","","","","","",""
"html-keyboard-response","255","329442","0.0-14.0-0.4","600f0f9c3bfcdc077c924e51","650c16f0f2faf8d7a0d14c09","651c1d6c62eab12a59b277f1","null","null","<p style=""font-size: 60px; font-family: BACS"">bvuZvAvb</p>","","","","","","","","",""
"html-keyboard-response","256","330450","0.0-14.0-0.5","600f0f9c3bfcdc077c924e51","650c16f0f2faf8d7a0d14c09","651c1d6c62eab12a59b277f1","null","null","<p style=""font-size: 60px; font-family: BACS"">mZUrQrGl</p>","","","","","","","","",""
"html-keyboard-response","257","331458","0.0-14.0-0.6","600f0f9c3bfcdc077c924e51","650c16f0f2faf8d7a0d14c09","651c1d6c62eab12a59b277f1","null","null","<p style=""font-size: 60px; font-family: BACS"">EYtYRhRKm</p>","","","","","","","","",""
"html-keyboard-response","258","332474","0.0-14.0-0.7","600f0f9c3bfcdc077c924e51","650c16f0f2faf8d7a0d14c09","651c1d6c62eab12a59b277f1","null","null","<p style=""font-size: 60px; font-family: BACS"">JAdLmkbu</p>","","","","","","","","",""
"html-keyboard-response","259","333481","0.0-14.0-0.8","600f0f9c3bfcdc077c924e51","650c16f0f2faf8d7a0d14c09","651c1d6c62eab12a59b277f1","null","null","<p style=""font-size: 60px; font-family: BACS"">MBmEdRA</p>","","","","","","","","",""
"html-keyboard-response","260","334499","0.0-14.0-0.9","600f0f9c3bfcdc077c924e51","650c16f0f2faf8d7a0d14c09","651c1d6c62eab12a59b277f1","null","null","<p style=""font-size: 60px; font-family: BACS"">JAdLmcrdY</p>","","","","","","","","",""
"html-keyboard-response","261","335506","0.0-14.0-0.10","600f0f9c3bfcdc077c924e51","650c16f0f2faf8d7a0d14c09","651c1d6c62eab12a59b277f1","null","null","<p style=""font-size: 60px; font-family: BACS"">ZYcQUvAvb</p>","","","","","","","","",""
"html-keyboard-response","262","336522","0.0-14.0-0.11","600f0f9c3bfcdc077c924e51","650c16f0f2faf8d7a0d14c09","651c1d6c62eab12a59b277f1","null","null","<p style=""font-size: 60px; font-family: BACS"">mZUrQcrdY</p>","","","","","","","","",""
"html-keyboard-response","263","337539","0.0-14.0-0.12","600f0f9c3bfcdc077c924e51","650c16f0f2faf8d7a0d14c09","651c1d6c62eab12a59b277f1","null","null","<p style=""font-size: 60px; font-family: BACS"">JdOAYkbu</p>","","","","","","","","",""
"html-keyboard-response","264","338547","0.0-14.0-0.13","600f0f9c3bfcdc077c924e51","650c16f0f2faf8d7a0d14c09","651c1d6c62eab12a59b277f1","null","null","<p style=""font-size: 60px; font-family: BACS"">cuOJbvAvb</p>","","","","","","","","",""
"html-keyboard-response","265","339555","0.0-14.0-0.14","600f0f9c3bfcdc077c924e51","650c16f0f2faf8d7a0d14c09","651c1d6c62eab12a59b277f1","null","null","<p style=""font-size: 60px; font-family: BACS"">PMPtkhRKm</p>","","","","","","","","",""
"html-keyboard-response","266","340571","0.0-14.0-0.15","600f0f9c3bfcdc077c924e51","650c16f0f2faf8d7a0d14c09","651c1d6c62eab12a59b277f1","null","null","<p style=""font-size: 60px; font-family: BACS"">ctktdPc</p>","","","","","","","","",""
"html-keyboard-response","267","341574","0.0-14.0-0.16","600f0f9c3bfcdc077c924e51","650c16f0f2faf8d7a0d14c09","651c1d6c62eab12a59b277f1","null","null","<p style=""font-size: 60px; font-family: BACS"">PMPtkCkbd</p>","","","","","","","","",""
"html-keyboard-response","268","342579","0.0-14.0-0.17","600f0f9c3bfcdc077c924e51","650c16f0f2faf8d7a0d14c09","651c1d6c62eab12a59b277f1","null","null","<p style=""font-size: 60px; font-family: BACS"">JAdLmvAvb</p>","","","","","","","","",""
"html-keyboard-response","269","343595","0.0-14.0-0.18","600f0f9c3bfcdc077c924e51","650c16f0f2faf8d7a0d14c09","651c1d6c62eab12a59b277f1","null","null","<p style=""font-size: 60px; font-family: BACS"">mcOJrGl</p>","","","","","","","","",""
"html-keyboard-response","270","344604","0.0-14.0-0.19","600f0f9c3bfcdc077c924e51","650c16f0f2faf8d7a0d14c09","651c1d6c62eab12a59b277f1","null","null","<p style=""font-size: 60px; font-family: BACS"">QcQAJkbu</p>","","","","","","","","",""
"html-keyboard-response","271","345619","0.0-14.0-0.20","600f0f9c3bfcdc077c924e51","650c16f0f2faf8d7a0d14c09","651c1d6c62eab12a59b277f1","null","null","<p style=""font-size: 60px; font-family: BACS"">ZYcQUcrdY</p>","","","","","","","","",""
"html-keyboard-response","272","346637","0.0-14.0-0.21","600f0f9c3bfcdc077c924e51","650c16f0f2faf8d7a0d14c09","651c1d6c62eab12a59b277f1","null","null","<p style=""font-size: 60px; font-family: BACS"">hkRKbRC</p>","","","","","","","","",""
"html-keyboard-response","273","347640","0.0-14.0-0.22","600f0f9c3bfcdc077c924e51","650c16f0f2faf8d7a0d14c09","651c1d6c62eab12a59b277f1","null","null","<p style=""font-size: 60px; font-family: BACS"">PMPtkdRA</p>","","","","","","","","",""
"html-keyboard-response","274","348651","0.0-14.0-0.23","600f0f9c3bfcdc077c924e51","650c16f0f2faf8d7a0d14c09","651c1d6c62eab12a59b277f1","null","null","<p style=""font-size: 60px; font-family: BACS"">BEPObRC</p>","","","","","","","","",""
"html-keyboard-response","275","349668","0.0-14.0-0.24","600f0f9c3bfcdc077c924e51","650c16f0f2faf8d7a0d14c09","651c1d6c62eab12a59b277f1","null","null","<p style=""font-size: 60px; font-family: BACS"">mcOJkbu</p>","","","","","","","","",""
"html-keyboard-response","276","350684","0.0-14.0-0.25","600f0f9c3bfcdc077c924e51","650c16f0f2faf8d7a0d14c09","651c1d6c62eab12a59b277f1","null","null","<p style=""font-size: 60px; font-family: BACS"">PlEKbRC</p>","","","","","","","","",""
"html-keyboard-response","277","351694","0.0-14.0-0.26","600f0f9c3bfcdc077c924e51","650c16f0f2faf8d7a0d14c09","651c1d6c62eab12a59b277f1","null","null","<p style=""font-size: 60px; font-family: BACS"">ckduAkbu</p>","","","","","","","","",""
"html-keyboard-response","278","352710","0.0-14.0-0.27","600f0f9c3bfcdc077c924e51","650c16f0f2faf8d7a0d14c09","651c1d6c62eab12a59b277f1","null","null","<p style=""font-size: 60px; font-family: BACS"">ctkthRKm</p>","","","","","","","","",""
"html-keyboard-response","279","353716","0.0-14.0-0.28","600f0f9c3bfcdc077c924e51","650c16f0f2faf8d7a0d14c09","651c1d6c62eab12a59b277f1","null","null","<p style=""font-size: 60px; font-family: BACS"">EYtYRdRA</p>","","","","","","","","",""
"html-keyboard-response","280","354734","0.0-14.0-0.29","600f0f9c3bfcdc077c924e51","650c16f0f2faf8d7a0d14c09","651c1d6c62eab12a59b277f1","null","null","<p style=""font-size: 60px; font-family: BACS"">bvuZcrdY</p>","","","","","","","","",""
"html-keyboard-response","281","355751","0.0-14.0-0.30","600f0f9c3bfcdc077c924e51","650c16f0f2faf8d7a0d14c09","651c1d6c62eab12a59b277f1","null","null","<p style=""font-size: 60px; font-family: BACS"">bAdkhRKm</p>","","","","","","","","",""
"html-keyboard-response","282","356762","0.0-14.0-0.31","600f0f9c3bfcdc077c924e51","650c16f0f2faf8d7a0d14c09","651c1d6c62eab12a59b277f1","null","null","<p style=""font-size: 60px; font-family: BACS"">ZYcQUkbu</p>","","","","","","","","",""
"html-keyboard-response","283","357773","0.0-14.0-0.32","600f0f9c3bfcdc077c924e51","650c16f0f2faf8d7a0d14c09","651c1d6c62eab12a59b277f1","null","null","<p style=""font-size: 60px; font-family: BACS"">ckduArGl</p>","","","","","","","","",""
"html-keyboard-response","284","358782","0.0-14.0-0.33","600f0f9c3bfcdc077c924e51","650c16f0f2faf8d7a0d14c09","651c1d6c62eab12a59b277f1","null","null","<p style=""font-size: 60px; font-family: BACS"">bvuZrZYd</p>","","","","","","","","",""
"html-keyboard-response","285","359798","0.0-14.0-0.34","600f0f9c3bfcdc077c924e51","650c16f0f2faf8d7a0d14c09","651c1d6c62eab12a59b277f1","null","null","<p style=""font-size: 60px; font-family: BACS"">QcQAJvAvb</p>","","","","","","","","",""
"html-keyboard-response","286","360813","0.0-14.0-0.35","600f0f9c3bfcdc077c924e51","650c16f0f2faf8d7a0d14c09","651c1d6c62eab12a59b277f1","null","null","<p style=""font-size: 60px; font-family: BACS"">ZYcQUrGl</p>","","","","","","","","",""
"html-keyboard-response","287","361829","0.0-14.0-0.36","600f0f9c3bfcdc077c924e51","650c16f0f2faf8d7a0d14c09","651c1d6c62eab12a59b277f1","null","null","<p style=""font-size: 60px; font-family: BACS"">ckduAvAvb</p>","","","","","","","","",""
"html-keyboard-response","288","362838","0.0-14.0-0.37","600f0f9c3bfcdc077c924e51","650c16f0f2faf8d7a0d14c09","651c1d6c62eab12a59b277f1","null","null","<p style=""font-size: 60px; font-family: BACS"">AbkarZYd</p>","","","","","","","","",""
"html-keyboard-response","289","363854","0.0-14.0-0.38","600f0f9c3bfcdc077c924e51","650c16f0f2faf8d7a0d14c09","651c1d6c62eab12a59b277f1","null","null","<p style=""font-size: 60px; font-family: BACS"">ctktbRC</p>","","","","","","","","",""
"html-keyboard-response","290","364871","0.0-14.0-0.39","600f0f9c3bfcdc077c924e51","650c16f0f2faf8d7a0d14c09","651c1d6c62eab12a59b277f1","null","null","<p style=""font-size: 60px; font-family: BACS"">ECtbDdPc</p>","","","","","","","","",""
"html-keyboard-response","291","365880","0.0-14.0-0.40","600f0f9c3bfcdc077c924e51","650c16f0f2faf8d7a0d14c09","651c1d6c62eab12a59b277f1","null","null","<p style=""font-size: 60px; font-family: BACS"">cuOJbkbu</p>","","","","","","","","",""
"html-keyboard-response","292","366887","0.0-14.0-0.41","600f0f9c3bfcdc077c924e51","650c16f0f2faf8d7a0d14c09","651c1d6c62eab12a59b277f1","null","null","<p style=""font-size: 60px; font-family: BACS"">PlEKdRA</p>","","","","","","","","",""
"html-keyboard-response","293","367903","0.0-14.0-0.42","600f0f9c3bfcdc077c924e51","650c16f0f2faf8d7a0d14c09","651c1d6c62eab12a59b277f1","null","null","<p style=""font-size: 60px; font-family: BACS"">ECtbDbRC</p>","","","","","","","","",""
"html-keyboard-response","294","368917","0.0-14.0-0.43","600f0f9c3bfcdc077c924e51","650c16f0f2faf8d7a0d14c09","651c1d6c62eab12a59b277f1","null","null","<p style=""font-size: 60px; font-family: BACS"">hkRKdPc</p>","","","","","","","","",""
"html-keyboard-response","295","369920","0.0-14.0-0.44","600f0f9c3bfcdc077c924e51","650c16f0f2faf8d7a0d14c09","651c1d6c62eab12a59b277f1","null","null","<p style=""font-size: 60px; font-family: BACS"">mcOJrZYd</p>","","","","","","","","",""
"html-keyboard-response","296","370935","0.0-14.0-0.45","600f0f9c3bfcdc077c924e51","650c16f0f2faf8d7a0d14c09","651c1d6c62eab12a59b277f1","null","null","<p style=""font-size: 60px; font-family: BACS"">JdOAYrGl</p>","","","","","","","","",""
"html-keyboard-response","297","371952","0.0-14.0-0.46","600f0f9c3bfcdc077c924e51","650c16f0f2faf8d7a0d14c09","651c1d6c62eab12a59b277f1","null","null","<p style=""font-size: 60px; font-family: BACS"">hkRKhRKm</p>","","","","","","","","",""
"html-keyboard-response","298","372965","0.0-14.0-0.47","600f0f9c3bfcdc077c924e51","650c16f0f2faf8d7a0d14c09","651c1d6c62eab12a59b277f1","null","null","<p style=""font-size: 60px; font-family: BACS"">ECtbDdRA</p>","","","","","","","","",""
"html-keyboard-response","299","373977","0.0-14.0-0.48","600f0f9c3bfcdc077c924e51","650c16f0f2faf8d7a0d14c09","651c1d6c62eab12a59b277f1","null","null","<p style=""font-size: 60px; font-family: BACS"">MBmEhRKm</p>","","","","","","","","",""
"html-keyboard-response","300","374981","0.0-14.0-0.49","600f0f9c3bfcdc077c924e51","650c16f0f2faf8d7a0d14c09","651c1d6c62eab12a59b277f1","null","null","<p style=""font-size: 60px; font-family: BACS"">AbkacrdY</p>","","","","","","","","",""
"html-keyboard-response","301","375986","0.0-14.0-0.50","600f0f9c3bfcdc077c924e51","650c16f0f2faf8d7a0d14c09","651c1d6c62eab12a59b277f1","null","null","<p style=""font-size: 60px; font-family: BACS"">tmtEMbRC</p>","","","","","","","","",""
"html-keyboard-response","302","376999","0.0-14.0-0.51","600f0f9c3bfcdc077c924e51","650c16f0f2faf8d7a0d14c09","651c1d6c62eab12a59b277f1","null","null","<p style=""font-size: 60px; font-family: BACS"">QcQAJrGl</p>","","","","","","","","",""
"html-keyboard-response","303","378014","0.0-14.0-0.52","600f0f9c3bfcdc077c924e51","650c16f0f2faf8d7a0d14c09","651c1d6c62eab12a59b277f1","null","null","<p style=""font-size: 60px; font-family: BACS"">bAdkdRA</p>","","","","","","","","",""
"html-keyboard-response","304","379027","0.0-14.0-0.53","600f0f9c3bfcdc077c924e51","650c16f0f2faf8d7a0d14c09","651c1d6c62eab12a59b277f1","null","null","<p style=""font-size: 60px; font-family: BACS"">PlEKCkbd</p>","","","","","","","","",""
"html-keyboard-response","305","380033","0.0-14.0-0.54","600f0f9c3bfcdc077c924e51","650c16f0f2faf8d7a0d14c09","651c1d6c62eab12a59b277f1","null","null","<p style=""font-size: 60px; font-family: BACS"">cuOJbrZYd</p>","","","","","","","","",""
"html-keyboard-response","306","381040","0.0-14.0-0.55","600f0f9c3bfcdc077c924e51","650c16f0f2faf8d7a0d14c09","651c1d6c62eab12a59b277f1","null","null","<p style=""font-size: 60px; font-family: BACS"">tmtEMdRA</p>","","","","","","","","",""
"html-keyboard-response","307","382042","0.0-14.0-0.56","600f0f9c3bfcdc077c924e51","650c16f0f2faf8d7a0d14c09","651c1d6c62eab12a59b277f1","null","null","<p style=""font-size: 60px; font-family: BACS"">bAdkCkbd</p>","","","","","","","","",""
"html-keyboard-response","308","383057","0.0-14.0-0.57","600f0f9c3bfcdc077c924e51","650c16f0f2faf8d7a0d14c09","651c1d6c62eab12a59b277f1","null","null","<p style=""font-size: 60px; font-family: BACS"">JAdLmrZYd</p>","","","","","","","","",""
"html-keyboard-response","309","384065","0.0-14.0-0.58","600f0f9c3bfcdc077c924e51","650c16f0f2faf8d7a0d14c09","651c1d6c62eab12a59b277f1","null","null","<p style=""font-size: 60px; font-family: BACS"">ECtbDhRKm</p>","","","","","","","","",""
"html-keyboard-response","310","385073","0.0-14.0-0.59","600f0f9c3bfcdc077c924e51","650c16f0f2faf8d7a0d14c09","651c1d6c62eab12a59b277f1","null","null","<p style=""font-size: 60px; font-family: BACS"">EYtYRCkbd</p>","","","","","","","","",""
"html-keyboard-response","311","386080","0.0-14.0-0.60","600f0f9c3bfcdc077c924e51","650c16f0f2faf8d7a0d14c09","651c1d6c62eab12a59b277f1","null","null","<p style=""font-size: 60px; font-family: BACS"">BEPOdRA</p>","","","","","","","","",""
"html-keyboard-response","312","387089","0.0-14.0-0.61","600f0f9c3bfcdc077c924e51","650c16f0f2faf8d7a0d14c09","651c1d6c62eab12a59b277f1","null","null","<p style=""font-size: 60px; font-family: BACS"">MBmECkbd</p>","","","","","","","","",""
"html-keyboard-response","313","388104","0.0-14.0-0.62","600f0f9c3bfcdc077c924e51","650c16f0f2faf8d7a0d14c09","651c1d6c62eab12a59b277f1","null","null","<p style=""font-size: 60px; font-family: BACS"">PlEKdPc</p>","","","","","","","","",""
"html-keyboard-response","314","389112","0.0-14.0-0.63","600f0f9c3bfcdc077c924e51","650c16f0f2faf8d7a0d14c09","651c1d6c62eab12a59b277f1","null","null","<p style=""font-size: 60px; font-family: BACS"">ctktCkbd</p>","","","","","","","","",""
"html-keyboard-response","315","390121","0.0-14.0-0.64","600f0f9c3bfcdc077c924e51","650c16f0f2faf8d7a0d14c09","651c1d6c62eab12a59b277f1","null","null","<p style=""font-size: 60px; font-family: BACS"">tmtEMdPc</p>","","","","","","","","",""
"html-keyboard-response","316","391130","0.0-14.0-0.65","600f0f9c3bfcdc077c924e51","650c16f0f2faf8d7a0d14c09","651c1d6c62eab12a59b277f1","null","null","<p style=""font-size: 60px; font-family: BACS"">mZUrQrZYd</p>","","","","","","","","",""
"html-keyboard-response","317","392137","0.0-14.0-0.66","600f0f9c3bfcdc077c924e51","650c16f0f2faf8d7a0d14c09","651c1d6c62eab12a59b277f1","null","null","<p style=""font-size: 60px; font-family: BACS"">AbkarGl</p>","","","","","","","","",""
"html-keyboard-response","318","393154","0.0-14.0-0.67","600f0f9c3bfcdc077c924e51","650c16f0f2faf8d7a0d14c09","651c1d6c62eab12a59b277f1","null","null","<p style=""font-size: 60px; font-family: BACS"">JdOAYrZYd</p>","","","","","","","","",""
"html-keyboard-response","319","394161","0.0-14.0-0.68","600f0f9c3bfcdc077c924e51","650c16f0f2faf8d7a0d14c09","651c1d6c62eab12a59b277f1","null","null","<p style=""font-size: 60px; font-family: BACS"">Abkakbu</p>","","","","","","","","",""
"html-keyboard-response","320","395169","0.0-14.0-0.69","600f0f9c3bfcdc077c924e51","650c16f0f2faf8d7a0d14c09","651c1d6c62eab12a59b277f1","null","null","<p style=""font-size: 60px; font-family: BACS"">cuOJbcrdY</p>","","","","","","","","",""
"html-keyboard-response","321","396173","0.0-14.0-0.70","600f0f9c3bfcdc077c924e51","650c16f0f2faf8d7a0d14c09","651c1d6c62eab12a59b277f1","null","null","<p style=""font-size: 60px; font-family: BACS"">JdOAYvAvb</p>","","","","","","","","",""
"html-keyboard-response","322","397186","0.0-14.0-0.71","600f0f9c3bfcdc077c924e51","650c16f0f2faf8d7a0d14c09","651c1d6c62eab12a59b277f1","null","null","<p style=""font-size: 60px; font-family: BACS"">mcOJcrdY</p>","","","","","","","","",""
"html-keyboard-response","323","398194","0.0-14.0-0.72","600f0f9c3bfcdc077c924e51","650c16f0f2faf8d7a0d14c09","651c1d6c62eab12a59b277f1","null","null","<p style=""font-size: 60px; font-family: BACS"">EYtYRbRC</p>","","","","","","","","",""
"html-keyboard-response","324","399209","0.0-14.0-0.73","600f0f9c3bfcdc077c924e51","650c16f0f2faf8d7a0d14c09","651c1d6c62eab12a59b277f1","null","null","<p style=""font-size: 60px; font-family: BACS"">BEPOdPc</p>","","","","","","","","",""
"html-keyboard-response","325","400217","0.0-14.0-0.74","600f0f9c3bfcdc077c924e51","650c16f0f2faf8d7a0d14c09","651c1d6c62eab12a59b277f1","null","null","<p style=""font-size: 60px; font-family: BACS"">bvuZrGl</p>","","","","","","","","",""
"html-keyboard-response","326","401225","0.0-14.0-0.75","600f0f9c3bfcdc077c924e51","650c16f0f2faf8d7a0d14c09","651c1d6c62eab12a59b277f1","null","null","<p style=""font-size: 60px; font-family: BACS"">hkRKCkbd</p>","","","","","","","","",""
"html-keyboard-response","327","402242","0.0-14.0-0.76","600f0f9c3bfcdc077c924e51","650c16f0f2faf8d7a0d14c09","651c1d6c62eab12a59b277f1","null","null","<p style=""font-size: 60px; font-family: BACS"">QcQAJrZYd</p>","","","","","","","","",""
"html-keyboard-response","328","403249","0.0-14.0-0.77","600f0f9c3bfcdc077c924e51","650c16f0f2faf8d7a0d14c09","651c1d6c62eab12a59b277f1","null","null","<p style=""font-size: 60px; font-family: BACS"">BEPOhRKm</p>","","","","","","","","",""
"html-keyboard-response","329","404265","0.0-14.0-0.78","600f0f9c3bfcdc077c924e51","650c16f0f2faf8d7a0d14c09","651c1d6c62eab12a59b277f1","null","null","<p style=""font-size: 60px; font-family: BACS"">tmtEMCkbd</p>","","","","","","","","",""
"html-keyboard-response","330","405273","0.0-14.0-0.79","600f0f9c3bfcdc077c924e51","650c16f0f2faf8d7a0d14c09","651c1d6c62eab12a59b277f1","null","null","<p style=""font-size: 60px; font-family: BACS"">PMPtkdPc</p>","","","","","","","","",""
"html-keyboard-response","331","428198","0.0-15.0","600f0f9c3bfcdc077c924e51","650c16f0f2faf8d7a0d14c09","651c1d6c62eab12a59b277f1","22926"," ","<p>Great, you've seen the fourth block of words. You may now take a short break.</p>
      <p>Press the spacebar when you're ready to continue.</p>","","","","","","","","",""
"html-keyboard-response","332","429213","0.0-16.0-0.0","600f0f9c3bfcdc077c924e51","650c16f0f2faf8d7a0d14c09","651c1d6c62eab12a59b277f1","null","null","<p style=""font-size: 60px; font-family: BACS"">ZYcQUcrdY</p>","","","","","","","","",""
"html-keyboard-response","333","430229","0.0-16.0-0.1","600f0f9c3bfcdc077c924e51","650c16f0f2faf8d7a0d14c09","651c1d6c62eab12a59b277f1","null","null","<p style=""font-size: 60px; font-family: BACS"">ZYcQUcrdY</p>","","","","","","","","",""
"html-keyboard-response","334","431238","0.0-16.0-0.2","600f0f9c3bfcdc077c924e51","650c16f0f2faf8d7a0d14c09","651c1d6c62eab12a59b277f1","null","null","<p style=""font-size: 60px; font-family: BACS"">ZYcQUcrdY</p>","","","","","","","","",""
"html-keyboard-response","335","432246","0.0-16.0-0.3","600f0f9c3bfcdc077c924e51","650c16f0f2faf8d7a0d14c09","651c1d6c62eab12a59b277f1","null","null","<p style=""font-size: 60px; font-family: BACS"">ZYcQUcrdY</p>","","","","","","","","",""
"html-keyboard-response","336","433254","0.0-16.0-0.4","600f0f9c3bfcdc077c924e51","650c16f0f2faf8d7a0d14c09","651c1d6c62eab12a59b277f1","null","null","<p style=""font-size: 60px; font-family: BACS"">ZYcQUcrdY</p>","","","","","","","","",""
"html-keyboard-response","337","434270","0.0-16.0-0.5","600f0f9c3bfcdc077c924e51","650c16f0f2faf8d7a0d14c09","651c1d6c62eab12a59b277f1","null","null","<p style=""font-size: 60px; font-family: BACS"">ZYcQUcrdY</p>","","","","","","","","",""
"html-keyboard-response","338","435286","0.0-16.0-0.6","600f0f9c3bfcdc077c924e51","650c16f0f2faf8d7a0d14c09","651c1d6c62eab12a59b277f1","null","null","<p style=""font-size: 60px; font-family: BACS"">ZYcQUcrdY</p>","","","","","","","","",""
"html-keyboard-response","339","436294","0.0-16.0-0.7","600f0f9c3bfcdc077c924e51","650c16f0f2faf8d7a0d14c09","651c1d6c62eab12a59b277f1","null","null","<p style=""font-size: 60px; font-family: BACS"">ZYcQUcrdY</p>","","","","","","","","",""
"html-keyboard-response","340","437302","0.0-16.0-0.8","600f0f9c3bfcdc077c924e51","650c16f0f2faf8d7a0d14c09","651c1d6c62eab12a59b277f1","null","null","<p style=""font-size: 60px; font-family: BACS"">ZYcQUcrdY</p>","","","","","","","","",""
"html-keyboard-response","341","438318","0.0-16.0-0.9","600f0f9c3bfcdc077c924e51","650c16f0f2faf8d7a0d14c09","651c1d6c62eab12a59b277f1","null","null","<p style=""font-size: 60px; font-family: BACS"">ZYcQUcrdY</p>","","","","","","","","",""
"html-keyboard-response","342","439335","0.0-16.0-0.10","600f0f9c3bfcdc077c924e51","650c16f0f2faf8d7a0d14c09","651c1d6c62eab12a59b277f1","null","null","<p style=""font-size: 60px; font-family: BACS"">ZYcQUcrdY</p>","","","","","","","","",""
"html-keyboard-response","343","440351","0.0-16.0-0.11","600f0f9c3bfcdc077c924e51","650c16f0f2faf8d7a0d14c09","651c1d6c62eab12a59b277f1","null","null","<p style=""font-size: 60px; font-family: BACS"">ZYcQUcrdY</p>","","","","","","","","",""
"html-keyboard-response","344","441360","0.0-16.0-0.12","600f0f9c3bfcdc077c924e51","650c16f0f2faf8d7a0d14c09","651c1d6c62eab12a59b277f1","null","null","<p style=""font-size: 60px; font-family: BACS"">ZYcQUcrdY</p>","","","","","","","","",""
"html-keyboard-response","345","442391","0.0-16.0-0.13","600f0f9c3bfcdc077c924e51","650c16f0f2faf8d7a0d14c09","651c1d6c62eab12a59b277f1","null","null","<p style=""font-size: 60px; font-family: BACS"">ZYcQUcrdY</p>","","","","","","","","",""
"html-keyboard-response","346","443393","0.0-16.0-0.14","600f0f9c3bfcdc077c924e51","650c16f0f2faf8d7a0d14c09","651c1d6c62eab12a59b277f1","null","null","<p style=""font-size: 60px; font-family: BACS"">ZYcQUcrdY</p>","","","","","","","","",""
"html-keyboard-response","347","444400","0.0-16.0-0.15","600f0f9c3bfcdc077c924e51","650c16f0f2faf8d7a0d14c09","651c1d6c62eab12a59b277f1","null","null","<p style=""font-size: 60px; font-family: BACS"">ZYcQUcrdY</p>","","","","","","","","",""
"html-keyboard-response","348","445416","0.0-16.0-0.16","600f0f9c3bfcdc077c924e51","650c16f0f2faf8d7a0d14c09","651c1d6c62eab12a59b277f1","null","null","<p style=""font-size: 60px; font-family: BACS"">ZYcQUcrdY</p>","","","","","","","","",""
"html-keyboard-response","349","446424","0.0-16.0-0.17","600f0f9c3bfcdc077c924e51","650c16f0f2faf8d7a0d14c09","651c1d6c62eab12a59b277f1","null","null","<p style=""font-size: 60px; font-family: BACS"">ZYcQUcrdY</p>","","","","","","","","",""
"html-keyboard-response","350","447432","0.0-16.0-0.18","600f0f9c3bfcdc077c924e51","650c16f0f2faf8d7a0d14c09","651c1d6c62eab12a59b277f1","null","null","<p style=""font-size: 60px; font-family: BACS"">ZYcQUcrdY</p>","","","","","","","","",""
"html-keyboard-response","351","448448","0.0-16.0-0.19","600f0f9c3bfcdc077c924e51","650c16f0f2faf8d7a0d14c09","651c1d6c62eab12a59b277f1","null","null","<p style=""font-size: 60px; font-family: BACS"">ZYcQUcrdY</p>","","","","","","","","",""
"html-keyboard-response","352","449464","0.0-16.0-0.20","600f0f9c3bfcdc077c924e51","650c16f0f2faf8d7a0d14c09","651c1d6c62eab12a59b277f1","null","null","<p style=""font-size: 60px; font-family: BACS"">ZYcQUcrdY</p>","","","","","","","","",""
"html-keyboard-response","353","450473","0.0-16.0-0.21","600f0f9c3bfcdc077c924e51","650c16f0f2faf8d7a0d14c09","651c1d6c62eab12a59b277f1","null","null","<p style=""font-size: 60px; font-family: BACS"">ZYcQUcrdY</p>","","","","","","","","",""
"html-keyboard-response","354","451482","0.0-16.0-0.22","600f0f9c3bfcdc077c924e51","650c16f0f2faf8d7a0d14c09","651c1d6c62eab12a59b277f1","null","null","<p style=""font-size: 60px; font-family: BACS"">ZYcQUcrdY</p>","","","","","","","","",""
"html-keyboard-response","355","452489","0.0-16.0-0.23","600f0f9c3bfcdc077c924e51","650c16f0f2faf8d7a0d14c09","651c1d6c62eab12a59b277f1","null","null","<p style=""font-size: 60px; font-family: BACS"">ZYcQUcrdY</p>","","","","","","","","",""
"html-keyboard-response","356","453505","0.0-16.0-0.24","600f0f9c3bfcdc077c924e51","650c16f0f2faf8d7a0d14c09","651c1d6c62eab12a59b277f1","null","null","<p style=""font-size: 60px; font-family: BACS"">ZYcQUcrdY</p>","","","","","","","","",""
"html-keyboard-response","357","454520","0.0-16.0-0.25","600f0f9c3bfcdc077c924e51","650c16f0f2faf8d7a0d14c09","651c1d6c62eab12a59b277f1","null","null","<p style=""font-size: 60px; font-family: BACS"">ZYcQUcrdY</p>","","","","","","","","",""
"html-keyboard-response","358","455537","0.0-16.0-0.26","600f0f9c3bfcdc077c924e51","650c16f0f2faf8d7a0d14c09","651c1d6c62eab12a59b277f1","null","null","<p style=""font-size: 60px; font-family: BACS"">ZYcQUcrdY</p>","","","","","","","","",""
"html-keyboard-response","359","456554","0.0-16.0-0.27","600f0f9c3bfcdc077c924e51","650c16f0f2faf8d7a0d14c09","651c1d6c62eab12a59b277f1","null","null","<p style=""font-size: 60px; font-family: BACS"">ZYcQUcrdY</p>","","","","","","","","",""
"html-keyboard-response","360","457562","0.0-16.0-0.28","600f0f9c3bfcdc077c924e51","650c16f0f2faf8d7a0d14c09","651c1d6c62eab12a59b277f1","null","null","<p style=""font-size: 60px; font-family: BACS"">ZYcQUcrdY</p>","","","","","","","","",""
"html-keyboard-response","361","458564","0.0-16.0-0.29","600f0f9c3bfcdc077c924e51","650c16f0f2faf8d7a0d14c09","651c1d6c62eab12a59b277f1","null","null","<p style=""font-size: 60px; font-family: BACS"">ZYcQUcrdY</p>","","","","","","","","",""
"html-keyboard-response","362","459578","0.0-16.0-0.30","600f0f9c3bfcdc077c924e51","650c16f0f2faf8d7a0d14c09","651c1d6c62eab12a59b277f1","null","null","<p style=""font-size: 60px; font-family: BACS"">ZYcQUcrdY</p>","","","","","","","","",""
"html-keyboard-response","363","460587","0.0-16.0-0.31","600f0f9c3bfcdc077c924e51","650c16f0f2faf8d7a0d14c09","651c1d6c62eab12a59b277f1","null","null","<p style=""font-size: 60px; font-family: BACS"">ZYcQUcrdY</p>","","","","","","","","",""
"html-keyboard-response","364","461594","0.0-16.0-0.32","600f0f9c3bfcdc077c924e51","650c16f0f2faf8d7a0d14c09","651c1d6c62eab12a59b277f1","null","null","<p style=""font-size: 60px; font-family: BACS"">ZYcQUcrdY</p>","","","","","","","","",""
"html-keyboard-response","365","462603","0.0-16.0-0.33","600f0f9c3bfcdc077c924e51","650c16f0f2faf8d7a0d14c09","651c1d6c62eab12a59b277f1","null","null","<p style=""font-size: 60px; font-family: BACS"">ZYcQUcrdY</p>","","","","","","","","",""
"html-keyboard-response","366","463618","0.0-16.0-0.34","600f0f9c3bfcdc077c924e51","650c16f0f2faf8d7a0d14c09","651c1d6c62eab12a59b277f1","null","null","<p style=""font-size: 60px; font-family: BACS"">ZYcQUcrdY</p>","","","","","","","","",""
"html-keyboard-response","367","464634","0.0-16.0-0.35","600f0f9c3bfcdc077c924e51","650c16f0f2faf8d7a0d14c09","651c1d6c62eab12a59b277f1","null","null","<p style=""font-size: 60px; font-family: BACS"">ZYcQUcrdY</p>","","","","","","","","",""
"html-keyboard-response","368","465643","0.0-16.0-0.36","600f0f9c3bfcdc077c924e51","650c16f0f2faf8d7a0d14c09","651c1d6c62eab12a59b277f1","null","null","<p style=""font-size: 60px; font-family: BACS"">ZYcQUcrdY</p>","","","","","","","","",""
"html-keyboard-response","369","466650","0.0-16.0-0.37","600f0f9c3bfcdc077c924e51","650c16f0f2faf8d7a0d14c09","651c1d6c62eab12a59b277f1","null","null","<p style=""font-size: 60px; font-family: BACS"">ZYcQUcrdY</p>","","","","","","","","",""
"html-keyboard-response","370","467660","0.0-16.0-0.38","600f0f9c3bfcdc077c924e51","650c16f0f2faf8d7a0d14c09","651c1d6c62eab12a59b277f1","null","null","<p style=""font-size: 60px; font-family: BACS"">ZYcQUcrdY</p>","","","","","","","","",""
"html-keyboard-response","371","468675","0.0-16.0-0.39","600f0f9c3bfcdc077c924e51","650c16f0f2faf8d7a0d14c09","651c1d6c62eab12a59b277f1","null","null","<p style=""font-size: 60px; font-family: BACS"">ZYcQUcrdY</p>","","","","","","","","",""
"html-keyboard-response","372","469683","0.0-16.0-0.40","600f0f9c3bfcdc077c924e51","650c16f0f2faf8d7a0d14c09","651c1d6c62eab12a59b277f1","null","null","<p style=""font-size: 60px; font-family: BACS"">ZYcQUcrdY</p>","","","","","","","","",""
"html-keyboard-response","373","470692","0.0-16.0-0.41","600f0f9c3bfcdc077c924e51","650c16f0f2faf8d7a0d14c09","651c1d6c62eab12a59b277f1","null","null","<p style=""font-size: 60px; font-family: BACS"">ZYcQUcrdY</p>","","","","","","","","",""
"html-keyboard-response","374","471700","0.0-16.0-0.42","600f0f9c3bfcdc077c924e51","650c16f0f2faf8d7a0d14c09","651c1d6c62eab12a59b277f1","null","null","<p style=""font-size: 60px; font-family: BACS"">ZYcQUcrdY</p>","","","","","","","","",""
"html-keyboard-response","375","472708","0.0-16.0-0.43","600f0f9c3bfcdc077c924e51","650c16f0f2faf8d7a0d14c09","651c1d6c62eab12a59b277f1","null","null","<p style=""font-size: 60px; font-family: BACS"">ZYcQUcrdY</p>","","","","","","","","",""
"html-keyboard-response","376","473715","0.0-16.0-0.44","600f0f9c3bfcdc077c924e51","650c16f0f2faf8d7a0d14c09","651c1d6c62eab12a59b277f1","null","null","<p style=""font-size: 60px; font-family: BACS"">ZYcQUcrdY</p>","","","","","","","","",""
"html-keyboard-response","377","474732","0.0-16.0-0.45","600f0f9c3bfcdc077c924e51","650c16f0f2faf8d7a0d14c09","651c1d6c62eab12a59b277f1","null","null","<p style=""font-size: 60px; font-family: BACS"">ZYcQUcrdY</p>","","","","","","","","",""
"html-keyboard-response","378","475740","0.0-16.0-0.46","600f0f9c3bfcdc077c924e51","650c16f0f2faf8d7a0d14c09","651c1d6c62eab12a59b277f1","null","null","<p style=""font-size: 60px; font-family: BACS"">ZYcQUcrdY</p>","","","","","","","","",""
"html-keyboard-response","379","476755","0.0-16.0-0.47","600f0f9c3bfcdc077c924e51","650c16f0f2faf8d7a0d14c09","651c1d6c62eab12a59b277f1","null","null","<p style=""font-size: 60px; font-family: BACS"">ZYcQUcrdY</p>","","","","","","","","",""
"html-keyboard-response","380","477771","0.0-16.0-0.48","600f0f9c3bfcdc077c924e51","650c16f0f2faf8d7a0d14c09","651c1d6c62eab12a59b277f1","null","null","<p style=""font-size: 60px; font-family: BACS"">ZYcQUcrdY</p>","","","","","","","","",""
"html-keyboard-response","381","478773","0.0-16.0-0.49","600f0f9c3bfcdc077c924e51","650c16f0f2faf8d7a0d14c09","651c1d6c62eab12a59b277f1","null","null","<p style=""font-size: 60px; font-family: BACS"">ZYcQUcrdY</p>","","","","","","","","",""
"html-keyboard-response","382","479788","0.0-16.0-0.50","600f0f9c3bfcdc077c924e51","650c16f0f2faf8d7a0d14c09","651c1d6c62eab12a59b277f1","null","null","<p style=""font-size: 60px; font-family: BACS"">ZYcQUcrdY</p>","","","","","","","","",""
"html-keyboard-response","383","480797","0.0-16.0-0.51","600f0f9c3bfcdc077c924e51","650c16f0f2faf8d7a0d14c09","651c1d6c62eab12a59b277f1","null","null","<p style=""font-size: 60px; font-family: BACS"">ZYcQUcrdY</p>","","","","","","","","",""
"html-keyboard-response","384","481812","0.0-16.0-0.52","600f0f9c3bfcdc077c924e51","650c16f0f2faf8d7a0d14c09","651c1d6c62eab12a59b277f1","null","null","<p style=""font-size: 60px; font-family: BACS"">ZYcQUcrdY</p>","","","","","","","","",""
"html-keyboard-response","385","482820","0.0-16.0-0.53","600f0f9c3bfcdc077c924e51","650c16f0f2faf8d7a0d14c09","651c1d6c62eab12a59b277f1","null","null","<p style=""font-size: 60px; font-family: BACS"">ZYcQUcrdY</p>","","","","","","","","",""
"html-keyboard-response","386","483836","0.0-16.0-0.54","600f0f9c3bfcdc077c924e51","650c16f0f2faf8d7a0d14c09","651c1d6c62eab12a59b277f1","null","null","<p style=""font-size: 60px; font-family: BACS"">ZYcQUcrdY</p>","","","","","","","","",""
"html-keyboard-response","387","484853","0.0-16.0-0.55","600f0f9c3bfcdc077c924e51","650c16f0f2faf8d7a0d14c09","651c1d6c62eab12a59b277f1","null","null","<p style=""font-size: 60px; font-family: BACS"">ZYcQUcrdY</p>","","","","","","","","",""
"html-keyboard-response","388","485862","0.0-16.0-0.56","600f0f9c3bfcdc077c924e51","650c16f0f2faf8d7a0d14c09","651c1d6c62eab12a59b277f1","null","null","<p style=""font-size: 60px; font-family: BACS"">ZYcQUcrdY</p>","","","","","","","","",""
"html-keyboard-response","389","486868","0.0-16.0-0.57","600f0f9c3bfcdc077c924e51","650c16f0f2faf8d7a0d14c09","651c1d6c62eab12a59b277f1","null","null","<p style=""font-size: 60px; font-family: BACS"">ZYcQUcrdY</p>","","","","","","","","",""
"html-keyboard-response","390","487877","0.0-16.0-0.58","600f0f9c3bfcdc077c924e51","650c16f0f2faf8d7a0d14c09","651c1d6c62eab12a59b277f1","null","null","<p style=""font-size: 60px; font-family: BACS"">ZYcQUcrdY</p>","","","","","","","","",""
"html-keyboard-response","391","488893","0.0-16.0-0.59","600f0f9c3bfcdc077c924e51","650c16f0f2faf8d7a0d14c09","651c1d6c62eab12a59b277f1","null","null","<p style=""font-size: 60px; font-family: BACS"">ZYcQUcrdY</p>","","","","","","","","",""
"html-keyboard-response","392","489903","0.0-16.0-0.60","600f0f9c3bfcdc077c924e51","650c16f0f2faf8d7a0d14c09","651c1d6c62eab12a59b277f1","null","null","<p style=""font-size: 60px; font-family: BACS"">ZYcQUcrdY</p>","","","","","","","","",""
"html-keyboard-response","393","490919","0.0-16.0-0.61","600f0f9c3bfcdc077c924e51","650c16f0f2faf8d7a0d14c09","651c1d6c62eab12a59b277f1","null","null","<p style=""font-size: 60px; font-family: BACS"">ZYcQUcrdY</p>","","","","","","","","",""
"html-keyboard-response","394","491936","0.0-16.0-0.62","600f0f9c3bfcdc077c924e51","650c16f0f2faf8d7a0d14c09","651c1d6c62eab12a59b277f1","null","null","<p style=""font-size: 60px; font-family: BACS"">ZYcQUcrdY</p>","","","","","","","","",""
"html-keyboard-response","395","492951","0.0-16.0-0.63","600f0f9c3bfcdc077c924e51","650c16f0f2faf8d7a0d14c09","651c1d6c62eab12a59b277f1","null","null","<p style=""font-size: 60px; font-family: BACS"">ZYcQUcrdY</p>","","","","","","","","",""
"html-keyboard-response","396","493968","0.0-16.0-0.64","600f0f9c3bfcdc077c924e51","650c16f0f2faf8d7a0d14c09","651c1d6c62eab12a59b277f1","null","null","<p style=""font-size: 60px; font-family: BACS"">ZYcQUcrdY</p>","","","","","","","","",""
"html-keyboard-response","397","494983","0.0-16.0-0.65","600f0f9c3bfcdc077c924e51","650c16f0f2faf8d7a0d14c09","651c1d6c62eab12a59b277f1","null","null","<p style=""font-size: 60px; font-family: BACS"">ZYcQUcrdY</p>","","","","","","","","",""
"html-keyboard-response","398","495986","0.0-16.0-0.66","600f0f9c3bfcdc077c924e51","650c16f0f2faf8d7a0d14c09","651c1d6c62eab12a59b277f1","null","null","<p style=""font-size: 60px; font-family: BACS"">ZYcQUcrdY</p>","","","","","","","","",""
