trial_type,trial_index,time_elapsed,internal_node_id,subject_id,study_id,session_id,rt,response,stimulus,success,item,task,correct_response,testing_condition,correct,target,confound,name,view_history
pavlovia,0,1105,0.0-0.0,60957b300f08087b0af0031c,650c16f0f2faf8d7a0d14c09,651c1c043e165a8f0b398013,,,,,,,,,,,,,
survey-html-form,1,6904,0.0-1.0,60957b300f08087b0af0031c,650c16f0f2faf8d7a0d14c09,651c1c043e165a8f0b398013,5795,"{""ID"":""60957b300f08087b0af0031c""}",,,,,,,,,,,
html-keyboard-response,2,120437,0.0-2.0,60957b300f08087b0af0031c,650c16f0f2faf8d7a0d14c09,651c1c043e165a8f0b398013,113531, ,"<p style=""font-size: 15px;"">Before beginning, we ask that you read the consent information and confirm your agreement to participate in the experiment.</p>
      <p style=""font-size: 15px;""> We ask that you remember that this is a research project and that your participation is entirely voluntary. You can stop your participation at any time, without needing to provide any explanation. The study we're asking you to participate in aims at examining how readers process written words. You will be engaged in a session of apprximately 20 minutes, followed by a brief questionnaire. You will have the opportunity to take a few breaks during the experiment. You will be paid £4 for your participation, corresponding to a rate of £8/hour. While this experiment looks at cognitive faculties, this experiment doesn't constitute clinical proof of eventual pathologies.</p>
      <p style=""font-size: 15px;"">All of the information collected thanks to yours and others' participation will be held in a secure password-protected server, and will not be shared with anyone not authorised to view it. Your personal information will be kept with an arbitrary participant ID. Thanks to this data anonymity process, any researcher analysing the data won't be able to track the information back to a specific participant. Therefore, this process will make identifying you impossibile, even when results from the study will be published in scientific reviews, presented at congresses, or at any other public forum. More generally, the collected data will be treated in accordance with the laws on privacy and conformity to the Legislative Degree n. 196 ""Code regarding the protection of personal data"" of the 30th of June 2003 and to the European Regulation 2016/670 (General Data Protection Regulation - GDPR). The Data Protection Officer is Avv. Valentina Carollo, who can be contacted at the following email addresses: <a href=""mailto:dpo@sissa.it"">dpo@sissa.it</a> or <a href=""mailto:rpd@sissa.it"">rpd@sissa.it</a> - PEC: <a href=""mailto:protocollo@pec.sissa.it"">protocollo@pec.sissa.it</a>.</p>
      <p style=""font-size: 15px;""> Before expressing your consent to participate, we would like to remind you again that in case you need explanations on any aspect of the experimental procedure, the researcher is at your disposition (<a href=""mailto:aliebelt@sissa.it"">aliebelt@sissa.it</a>, <a href=""mailto:davide.crepaldi@sissa.it"">davide.crepaldi@sissa.it</a>).</p>
      <p style=""font-size: 15px;"">If you would like to download the informed consent form, you can do so here: <a href=""BASL-Informed_Consent.pdf"" download>informed consent form</a>.</p>
      <p style=""font-size: 15px;"">We ask that you press the spacebar to proceed to the consent section.</p>",,,,,,,,,,
survey-html-form,3,130824,0.0-3.0,60957b300f08087b0af0031c,650c16f0f2faf8d7a0d14c09,651c1c043e165a8f0b398013,10384,"{""consent1"":""YES"",""consent2"":""YES"",""consent3"":""YES"",""consent4"":""YES"",""consent5"":""YES"",""consent6"":""YES""}",,,,,,,,,,,
fullscreen,4,142123,0.0-4.0,60957b300f08087b0af0031c,650c16f0f2faf8d7a0d14c09,651c1c043e165a8f0b398013,,,,TRUE,,,,,,,,,
html-keyboard-response,5,166465,0.0-5.0,60957b300f08087b0af0031c,650c16f0f2faf8d7a0d14c09,651c1c043e165a8f0b398013,24341, ,"<p>Welcome, and thank you very much for your time!</p>
      <p>In this experiment, you'll be a language expert who's been asked to take a look at words that Earth has received in its first communication with aliens. Your task, in this first part of the experiment, is to pay close attention to the words you'll be shown; later, world leaders will ask you questions on what you saw. The words will be shown to you quite quickly; it seems that the aliens were in a hurry :-)</p>
      <p>Press the spacebar to continue.<p>",,,,,,,,,,
html-keyboard-response,6,166518,0.0-6.0,60957b300f08087b0af0031c,650c16f0f2faf8d7a0d14c09,651c1c043e165a8f0b398013,null,null,"<p style=""font-size: 120px; font-family: BACS""> </p>",,,,,,,,,,
html-keyboard-response,7,175602,0.0-7.0,60957b300f08087b0af0031c,650c16f0f2faf8d7a0d14c09,651c1c043e165a8f0b398013,9084, ,"<p>Here is an example of the words you'll see:</p>
      <img src='esempio.png' height='400px'>
      <p>When you're ready to begin, press the spacebar.</p></div>",,,,,,,,,,
html-keyboard-response,8,176612,0.0-8.0-0.0,60957b300f08087b0af0031c,650c16f0f2faf8d7a0d14c09,651c1c043e165a8f0b398013,null,null,"<p style=""font-size: 60px; font-family: BACS"">PCPDhOBT</p>",,,,,,,,,,
html-keyboard-response,9,177615,0.0-8.0-0.1,60957b300f08087b0af0031c,650c16f0f2faf8d7a0d14c09,651c1c043e165a8f0b398013,null,null,"<p style=""font-size: 60px; font-family: BACS"">rvOvUOJlN</p>",,,,,,,,,,
html-keyboard-response,10,178628,0.0-8.0-0.2,60957b300f08087b0af0031c,650c16f0f2faf8d7a0d14c09,651c1c043e165a8f0b398013,null,null,"<p style=""font-size: 60px; font-family: BACS"">LckGNOJNk</p>",,,,,,,,,,
html-keyboard-response,11,179637,0.0-8.0-0.3,60957b300f08087b0af0031c,650c16f0f2faf8d7a0d14c09,651c1c043e165a8f0b398013,null,null,"<p style=""font-size: 60px; font-family: BACS"">ukYZlvk</p>",,,,,,,,,,
html-keyboard-response,12,180650,0.0-8.0-0.4,60957b300f08087b0af0031c,650c16f0f2faf8d7a0d14c09,651c1c043e165a8f0b398013,null,null,"<p style=""font-size: 60px; font-family: BACS"">rvOvUOJNk</p>",,,,,,,,,,
html-keyboard-response,13,181658,0.0-8.0-0.5,60957b300f08087b0af0031c,650c16f0f2faf8d7a0d14c09,651c1c043e165a8f0b398013,null,null,"<p style=""font-size: 60px; font-family: BACS"">ZcGdNOJlN</p>",,,,,,,,,,
html-keyboard-response,14,182664,0.0-8.0-0.6,60957b300f08087b0af0031c,650c16f0f2faf8d7a0d14c09,651c1c043e165a8f0b398013,null,null,"<p style=""font-size: 60px; font-family: BACS"">NQZvlvk</p>",,,,,,,,,,
html-keyboard-response,15,183668,0.0-8.0-0.7,60957b300f08087b0af0031c,650c16f0f2faf8d7a0d14c09,651c1c043e165a8f0b398013,null,null,"<p style=""font-size: 60px; font-family: BACS"">PCPDhEAO</p>",,,,,,,,,,
html-keyboard-response,16,184673,0.0-8.0-0.8,60957b300f08087b0af0031c,650c16f0f2faf8d7a0d14c09,651c1c043e165a8f0b398013,null,null,"<p style=""font-size: 60px; font-family: BACS"">vJabOJlN</p>",,,,,,,,,,
html-keyboard-response,17,185686,0.0-8.0-0.9,60957b300f08087b0af0031c,650c16f0f2faf8d7a0d14c09,651c1c043e165a8f0b398013,null,null,"<p style=""font-size: 60px; font-family: BACS"">lKdbcEAO</p>",,,,,,,,,,
html-keyboard-response,18,186700,0.0-8.0-0.10,60957b300f08087b0af0031c,650c16f0f2faf8d7a0d14c09,651c1c043e165a8f0b398013,null,null,"<p style=""font-size: 60px; font-family: BACS"">TEBKtRb</p>",,,,,,,,,,
html-keyboard-response,19,187707,0.0-8.0-0.11,60957b300f08087b0af0031c,650c16f0f2faf8d7a0d14c09,651c1c043e165a8f0b398013,null,null,"<p style=""font-size: 60px; font-family: BACS"">ukYZOJNk</p>",,,,,,,,,,
html-keyboard-response,20,188712,0.0-8.0-0.12,60957b300f08087b0af0031c,650c16f0f2faf8d7a0d14c09,651c1c043e165a8f0b398013,null,null,"<p style=""font-size: 60px; font-family: BACS"">MlthtRb</p>",,,,,,,,,,
html-keyboard-response,21,189717,0.0-8.0-0.13,60957b300f08087b0af0031c,650c16f0f2faf8d7a0d14c09,651c1c043e165a8f0b398013,null,null,"<p style=""font-size: 60px; font-family: BACS"">ZcGdNOJNk</p>",,,,,,,,,,
html-keyboard-response,22,190725,0.0-8.0-0.14,60957b300f08087b0af0031c,650c16f0f2faf8d7a0d14c09,651c1c043e165a8f0b398013,null,null,"<p style=""font-size: 60px; font-family: BACS"">ckduAOJlN</p>",,,,,,,,,,
html-keyboard-response,23,191728,0.0-8.0-0.15,60957b300f08087b0af0031c,650c16f0f2faf8d7a0d14c09,651c1c043e165a8f0b398013,null,null,"<p style=""font-size: 60px; font-family: BACS"">ZcGdNukbY</p>",,,,,,,,,,
html-keyboard-response,24,192732,0.0-8.0-0.16,60957b300f08087b0af0031c,650c16f0f2faf8d7a0d14c09,651c1c043e165a8f0b398013,null,null,"<p style=""font-size: 60px; font-family: BACS"">OAmGrlvk</p>",,,,,,,,,,
html-keyboard-response,25,193742,0.0-8.0-0.17,60957b300f08087b0af0031c,650c16f0f2faf8d7a0d14c09,651c1c043e165a8f0b398013,null,null,"<p style=""font-size: 60px; font-family: BACS"">ckduAukbY</p>",,,,,,,,,,
html-keyboard-response,26,194747,0.0-8.0-0.18,60957b300f08087b0af0031c,650c16f0f2faf8d7a0d14c09,651c1c043e165a8f0b398013,null,null,"<p style=""font-size: 60px; font-family: BACS"">DOchlOBT</p>",,,,,,,,,,
html-keyboard-response,27,195756,0.0-8.0-0.19,60957b300f08087b0af0031c,650c16f0f2faf8d7a0d14c09,651c1c043e165a8f0b398013,null,null,"<p style=""font-size: 60px; font-family: BACS"">rvOvUlvk</p>",,,,,,,,,,
html-keyboard-response,28,196766,0.0-8.0-0.20,60957b300f08087b0af0031c,650c16f0f2faf8d7a0d14c09,651c1c043e165a8f0b398013,null,null,"<p style=""font-size: 60px; font-family: BACS"">LckGNYaOk</p>",,,,,,,,,,
html-keyboard-response,29,197771,0.0-8.0-0.21,60957b300f08087b0af0031c,650c16f0f2faf8d7a0d14c09,651c1c043e165a8f0b398013,null,null,"<p style=""font-size: 60px; font-family: BACS"">mdkKmKcD</p>",,,,,,,,,,
html-keyboard-response,30,198783,0.0-8.0-0.22,60957b300f08087b0af0031c,650c16f0f2faf8d7a0d14c09,651c1c043e165a8f0b398013,null,null,"<p style=""font-size: 60px; font-family: BACS"">MlthmtKP</p>",,,,,,,,,,
html-keyboard-response,31,199785,0.0-8.0-0.23,60957b300f08087b0af0031c,650c16f0f2faf8d7a0d14c09,651c1c043e165a8f0b398013,null,null,"<p style=""font-size: 60px; font-family: BACS"">bcORmKcD</p>",,,,,,,,,,
html-keyboard-response,32,200795,0.0-8.0-0.24,60957b300f08087b0af0031c,650c16f0f2faf8d7a0d14c09,651c1c043e165a8f0b398013,null,null,"<p style=""font-size: 60px; font-family: BACS"">QbkAcukbY</p>",,,,,,,,,,
html-keyboard-response,33,201807,0.0-8.0-0.25,60957b300f08087b0af0031c,650c16f0f2faf8d7a0d14c09,651c1c043e165a8f0b398013,null,null,"<p style=""font-size: 60px; font-family: BACS"">ukYZYaOk</p>",,,,,,,,,,
html-keyboard-response,34,202812,0.0-8.0-0.26,60957b300f08087b0af0031c,650c16f0f2faf8d7a0d14c09,651c1c043e165a8f0b398013,null,null,"<p style=""font-size: 60px; font-family: BACS"">DOchltRb</p>",,,,,,,,,,
html-keyboard-response,35,203823,0.0-8.0-0.27,60957b300f08087b0af0031c,650c16f0f2faf8d7a0d14c09,651c1c043e165a8f0b398013,null,null,"<p style=""font-size: 60px; font-family: BACS"">mdkKEAO</p>",,,,,,,,,,
html-keyboard-response,36,204835,0.0-8.0-0.28,60957b300f08087b0af0031c,650c16f0f2faf8d7a0d14c09,651c1c043e165a8f0b398013,null,null,"<p style=""font-size: 60px; font-family: BACS"">TEBKmtKP</p>",,,,,,,,,,
html-keyboard-response,37,205849,0.0-8.0-0.29,60957b300f08087b0af0031c,650c16f0f2faf8d7a0d14c09,651c1c043e165a8f0b398013,null,null,"<p style=""font-size: 60px; font-family: BACS"">bcOROBT</p>",,,,,,,,,,
html-keyboard-response,38,206853,0.0-8.0-0.30,60957b300f08087b0af0031c,650c16f0f2faf8d7a0d14c09,651c1c043e165a8f0b398013,null,null,"<p style=""font-size: 60px; font-family: BACS"">MlthmKcD</p>",,,,,,,,,,
html-keyboard-response,39,207858,0.0-8.0-0.31,60957b300f08087b0af0031c,650c16f0f2faf8d7a0d14c09,651c1c043e165a8f0b398013,null,null,"<p style=""font-size: 60px; font-family: BACS"">QbkAcYaOk</p>",,,,,,,,,,
html-keyboard-response,40,208866,0.0-8.0-0.32,60957b300f08087b0af0031c,650c16f0f2faf8d7a0d14c09,651c1c043e165a8f0b398013,null,null,"<p style=""font-size: 60px; font-family: BACS"">DOchlmKcD</p>",,,,,,,,,,
html-keyboard-response,41,209871,0.0-8.0-0.33,60957b300f08087b0af0031c,650c16f0f2faf8d7a0d14c09,651c1c043e165a8f0b398013,null,null,"<p style=""font-size: 60px; font-family: BACS"">LckGNlvk</p>",,,,,,,,,,
html-keyboard-response,42,210877,0.0-8.0-0.34,60957b300f08087b0af0031c,650c16f0f2faf8d7a0d14c09,651c1c043e165a8f0b398013,null,null,"<p style=""font-size: 60px; font-family: BACS"">kPkRAOBT</p>",,,,,,,,,,
html-keyboard-response,43,211886,0.0-8.0-0.35,60957b300f08087b0af0031c,650c16f0f2faf8d7a0d14c09,651c1c043e165a8f0b398013,null,null,"<p style=""font-size: 60px; font-family: BACS"">EPERdEAO</p>",,,,,,,,,,
html-keyboard-response,44,212896,0.0-8.0-0.36,60957b300f08087b0af0031c,650c16f0f2faf8d7a0d14c09,651c1c043e165a8f0b398013,null,null,"<p style=""font-size: 60px; font-family: BACS"">ZJLmrOJlN</p>",,,,,,,,,,
html-keyboard-response,45,213899,0.0-8.0-0.37,60957b300f08087b0af0031c,650c16f0f2faf8d7a0d14c09,651c1c043e165a8f0b398013,null,null,"<p style=""font-size: 60px; font-family: BACS"">kPkRAtRb</p>",,,,,,,,,,
html-keyboard-response,46,214904,0.0-8.0-0.38,60957b300f08087b0af0031c,650c16f0f2faf8d7a0d14c09,651c1c043e165a8f0b398013,null,null,"<p style=""font-size: 60px; font-family: BACS"">tcYbdmtKP</p>",,,,,,,,,,
html-keyboard-response,47,215919,0.0-8.0-0.39,60957b300f08087b0af0031c,650c16f0f2faf8d7a0d14c09,651c1c043e165a8f0b398013,null,null,"<p style=""font-size: 60px; font-family: BACS"">vJabYaOk</p>",,,,,,,,,,
html-keyboard-response,48,216925,0.0-8.0-0.40,60957b300f08087b0af0031c,650c16f0f2faf8d7a0d14c09,651c1c043e165a8f0b398013,null,null,"<p style=""font-size: 60px; font-family: BACS"">bcORmtKP</p>",,,,,,,,,,
html-keyboard-response,49,217933,0.0-8.0-0.41,60957b300f08087b0af0031c,650c16f0f2faf8d7a0d14c09,651c1c043e165a8f0b398013,null,null,"<p style=""font-size: 60px; font-family: BACS"">EPERdOBT</p>",,,,,,,,,,
html-keyboard-response,50,218943,0.0-8.0-0.42,60957b300f08087b0af0031c,650c16f0f2faf8d7a0d14c09,651c1c043e165a8f0b398013,null,null,"<p style=""font-size: 60px; font-family: BACS"">tcYbdEAO</p>",,,,,,,,,,
html-keyboard-response,51,219954,0.0-8.0-0.43,60957b300f08087b0af0031c,650c16f0f2faf8d7a0d14c09,651c1c043e165a8f0b398013,null,null,"<p style=""font-size: 60px; font-family: BACS"">mdkKmtKP</p>",,,,,,,,,,
html-keyboard-response,52,220957,0.0-8.0-0.44,60957b300f08087b0af0031c,650c16f0f2faf8d7a0d14c09,651c1c043e165a8f0b398013,null,null,"<p style=""font-size: 60px; font-family: BACS"">vJabOJNk</p>",,,,,,,,,,
html-keyboard-response,53,221959,0.0-8.0-0.45,60957b300f08087b0af0031c,650c16f0f2faf8d7a0d14c09,651c1c043e165a8f0b398013,null,null,"<p style=""font-size: 60px; font-family: BACS"">NQZvukbY</p>",,,,,,,,,,
html-keyboard-response,54,222964,0.0-8.0-0.46,60957b300f08087b0af0031c,650c16f0f2faf8d7a0d14c09,651c1c043e165a8f0b398013,null,null,"<p style=""font-size: 60px; font-family: BACS"">bcORtRb</p>",,,,,,,,,,
html-keyboard-response,55,223971,0.0-8.0-0.47,60957b300f08087b0af0031c,650c16f0f2faf8d7a0d14c09,651c1c043e165a8f0b398013,null,null,"<p style=""font-size: 60px; font-family: BACS"">lKdbcOBT</p>",,,,,,,,,,
html-keyboard-response,56,224974,0.0-8.0-0.48,60957b300f08087b0af0031c,650c16f0f2faf8d7a0d14c09,651c1c043e165a8f0b398013,null,null,"<p style=""font-size: 60px; font-family: BACS"">EPERdmtKP</p>",,,,,,,,,,
html-keyboard-response,57,225977,0.0-8.0-0.49,60957b300f08087b0af0031c,650c16f0f2faf8d7a0d14c09,651c1c043e165a8f0b398013,null,null,"<p style=""font-size: 60px; font-family: BACS"">OAmGrYaOk</p>",,,,,,,,,,
html-keyboard-response,58,226982,0.0-8.0-0.50,60957b300f08087b0af0031c,650c16f0f2faf8d7a0d14c09,651c1c043e165a8f0b398013,null,null,"<p style=""font-size: 60px; font-family: BACS"">PCPDhtRb</p>",,,,,,,,,,
html-keyboard-response,59,227999,0.0-8.0-0.51,60957b300f08087b0af0031c,650c16f0f2faf8d7a0d14c09,651c1c043e165a8f0b398013,null,null,"<p style=""font-size: 60px; font-family: BACS"">NQZvOJNk</p>",,,,,,,,,,
html-keyboard-response,60,229012,0.0-8.0-0.52,60957b300f08087b0af0031c,650c16f0f2faf8d7a0d14c09,651c1c043e165a8f0b398013,null,null,"<p style=""font-size: 60px; font-family: BACS"">QbkAclvk</p>",,,,,,,,,,
html-keyboard-response,61,230015,0.0-8.0-0.53,60957b300f08087b0af0031c,650c16f0f2faf8d7a0d14c09,651c1c043e165a8f0b398013,null,null,"<p style=""font-size: 60px; font-family: BACS"">TEBKOBT</p>",,,,,,,,,,
html-keyboard-response,62,231030,0.0-8.0-0.54,60957b300f08087b0af0031c,650c16f0f2faf8d7a0d14c09,651c1c043e165a8f0b398013,null,null,"<p style=""font-size: 60px; font-family: BACS"">QbkAcOJlN</p>",,,,,,,,,,
html-keyboard-response,63,232034,0.0-8.0-0.55,60957b300f08087b0af0031c,650c16f0f2faf8d7a0d14c09,651c1c043e165a8f0b398013,null,null,"<p style=""font-size: 60px; font-family: BACS"">vJabukbY</p>",,,,,,,,,,
html-keyboard-response,64,233042,0.0-8.0-0.56,60957b300f08087b0af0031c,650c16f0f2faf8d7a0d14c09,651c1c043e165a8f0b398013,null,null,"<p style=""font-size: 60px; font-family: BACS"">TEBKEAO</p>",,,,,,,,,,
html-keyboard-response,65,234051,0.0-8.0-0.57,60957b300f08087b0af0031c,650c16f0f2faf8d7a0d14c09,651c1c043e165a8f0b398013,null,null,"<p style=""font-size: 60px; font-family: BACS"">LckGNukbY</p>",,,,,,,,,,
html-keyboard-response,66,235059,0.0-8.0-0.58,60957b300f08087b0af0031c,650c16f0f2faf8d7a0d14c09,651c1c043e165a8f0b398013,null,null,"<p style=""font-size: 60px; font-family: BACS"">OAmGrOJlN</p>",,,,,,,,,,
html-keyboard-response,67,236062,0.0-8.0-0.59,60957b300f08087b0af0031c,650c16f0f2faf8d7a0d14c09,651c1c043e165a8f0b398013,null,null,"<p style=""font-size: 60px; font-family: BACS"">ZJLmrYaOk</p>",,,,,,,,,,
html-keyboard-response,68,237073,0.0-8.0-0.60,60957b300f08087b0af0031c,650c16f0f2faf8d7a0d14c09,651c1c043e165a8f0b398013,null,null,"<p style=""font-size: 60px; font-family: BACS"">EPERdmKcD</p>",,,,,,,,,,
html-keyboard-response,69,238087,0.0-8.0-0.61,60957b300f08087b0af0031c,650c16f0f2faf8d7a0d14c09,651c1c043e165a8f0b398013,null,null,"<p style=""font-size: 60px; font-family: BACS"">lKdbctRb</p>",,,,,,,,,,
html-keyboard-response,70,239096,0.0-8.0-0.62,60957b300f08087b0af0031c,650c16f0f2faf8d7a0d14c09,651c1c043e165a8f0b398013,null,null,"<p style=""font-size: 60px; font-family: BACS"">rvOvUukbY</p>",,,,,,,,,,
html-keyboard-response,71,240113,0.0-8.0-0.63,60957b300f08087b0af0031c,650c16f0f2faf8d7a0d14c09,651c1c043e165a8f0b398013,null,null,"<p style=""font-size: 60px; font-family: BACS"">tcYbdmKcD</p>",,,,,,,,,,
html-keyboard-response,72,241127,0.0-8.0-0.64,60957b300f08087b0af0031c,650c16f0f2faf8d7a0d14c09,651c1c043e165a8f0b398013,null,null,"<p style=""font-size: 60px; font-family: BACS"">MlthEAO</p>",,,,,,,,,,
html-keyboard-response,73,242140,0.0-8.0-0.65,60957b300f08087b0af0031c,650c16f0f2faf8d7a0d14c09,651c1c043e165a8f0b398013,null,null,"<p style=""font-size: 60px; font-family: BACS"">ZcGdNlvk</p>",,,,,,,,,,
html-keyboard-response,74,243150,0.0-8.0-0.66,60957b300f08087b0af0031c,650c16f0f2faf8d7a0d14c09,651c1c043e165a8f0b398013,null,null,"<p style=""font-size: 60px; font-family: BACS"">ZJLmrukbY</p>",,,,,,,,,,
html-keyboard-response,75,244154,0.0-8.0-0.67,60957b300f08087b0af0031c,650c16f0f2faf8d7a0d14c09,651c1c043e165a8f0b398013,null,null,"<p style=""font-size: 60px; font-family: BACS"">ckduAOJNk</p>",,,,,,,,,,
html-keyboard-response,76,245156,0.0-8.0-0.68,60957b300f08087b0af0031c,650c16f0f2faf8d7a0d14c09,651c1c043e165a8f0b398013,null,null,"<p style=""font-size: 60px; font-family: BACS"">ukYZOJlN</p>",,,,,,,,,,
html-keyboard-response,77,246167,0.0-8.0-0.69,60957b300f08087b0af0031c,650c16f0f2faf8d7a0d14c09,651c1c043e165a8f0b398013,null,null,"<p style=""font-size: 60px; font-family: BACS"">PCPDhmKcD</p>",,,,,,,,,,
html-keyboard-response,78,247184,0.0-8.0-0.70,60957b300f08087b0af0031c,650c16f0f2faf8d7a0d14c09,651c1c043e165a8f0b398013,null,null,"<p style=""font-size: 60px; font-family: BACS"">ckduAYaOk</p>",,,,,,,,,,
html-keyboard-response,79,248189,0.0-8.0-0.71,60957b300f08087b0af0031c,650c16f0f2faf8d7a0d14c09,651c1c043e165a8f0b398013,null,null,"<p style=""font-size: 60px; font-family: BACS"">mdkKOBT</p>",,,,,,,,,,
html-keyboard-response,80,249203,0.0-8.0-0.72,60957b300f08087b0af0031c,650c16f0f2faf8d7a0d14c09,651c1c043e165a8f0b398013,null,null,"<p style=""font-size: 60px; font-family: BACS"">NQZvYaOk</p>",,,,,,,,,,
html-keyboard-response,81,250217,0.0-8.0-0.73,60957b300f08087b0af0031c,650c16f0f2faf8d7a0d14c09,651c1c043e165a8f0b398013,null,null,"<p style=""font-size: 60px; font-family: BACS"">lKdbcmtKP</p>",,,,,,,,,,
html-keyboard-response,82,251220,0.0-8.0-0.74,60957b300f08087b0af0031c,650c16f0f2faf8d7a0d14c09,651c1c043e165a8f0b398013,null,null,"<p style=""font-size: 60px; font-family: BACS"">kPkRAmKcD</p>",,,,,,,,,,
html-keyboard-response,83,252225,0.0-8.0-0.75,60957b300f08087b0af0031c,650c16f0f2faf8d7a0d14c09,651c1c043e165a8f0b398013,null,null,"<p style=""font-size: 60px; font-family: BACS"">tcYbdtRb</p>",,,,,,,,,,
html-keyboard-response,84,253232,0.0-8.0-0.76,60957b300f08087b0af0031c,650c16f0f2faf8d7a0d14c09,651c1c043e165a8f0b398013,null,null,"<p style=""font-size: 60px; font-family: BACS"">ZJLmrlvk</p>",,,,,,,,,,
html-keyboard-response,85,254242,0.0-8.0-0.77,60957b300f08087b0af0031c,650c16f0f2faf8d7a0d14c09,651c1c043e165a8f0b398013,null,null,"<p style=""font-size: 60px; font-family: BACS"">DOchlmtKP</p>",,,,,,,,,,
html-keyboard-response,86,255246,0.0-8.0-0.78,60957b300f08087b0af0031c,650c16f0f2faf8d7a0d14c09,651c1c043e165a8f0b398013,null,null,"<p style=""font-size: 60px; font-family: BACS"">kPkRAEAO</p>",,,,,,,,,,
html-keyboard-response,87,256251,0.0-8.0-0.79,60957b300f08087b0af0031c,650c16f0f2faf8d7a0d14c09,651c1c043e165a8f0b398013,null,null,"<p style=""font-size: 60px; font-family: BACS"">OAmGrOJNk</p>",,,,,,,,,,
html-keyboard-response,88,282773,0.0-9.0,60957b300f08087b0af0031c,650c16f0f2faf8d7a0d14c09,651c1c043e165a8f0b398013,26521, ,"<p>Great, you've seen the first block of words. You may now take a short break.</p>
      <p>Press the spacebar when you're ready to continue.</p>",,,,,,,,,,
html-keyboard-response,89,283777,0.0-10.0-0.0,60957b300f08087b0af0031c,650c16f0f2faf8d7a0d14c09,651c1c043e165a8f0b398013,null,null,"<p style=""font-size: 60px; font-family: BACS"">mdkKmtKP</p>",,,,,,,,,,
html-keyboard-response,90,284789,0.0-10.0-0.1,60957b300f08087b0af0031c,650c16f0f2faf8d7a0d14c09,651c1c043e165a8f0b398013,null,null,"<p style=""font-size: 60px; font-family: BACS"">vJabukbY</p>",,,,,,,,,,
html-keyboard-response,91,285800,0.0-10.0-0.2,60957b300f08087b0af0031c,650c16f0f2faf8d7a0d14c09,651c1c043e165a8f0b398013,null,null,"<p style=""font-size: 60px; font-family: BACS"">rvOvUlvk</p>",,,,,,,,,,
html-keyboard-response,92,286806,0.0-10.0-0.3,60957b300f08087b0af0031c,650c16f0f2faf8d7a0d14c09,651c1c043e165a8f0b398013,null,null,"<p style=""font-size: 60px; font-family: BACS"">kPkRAOBT</p>",,,,,,,,,,
html-keyboard-response,93,287809,0.0-10.0-0.4,60957b300f08087b0af0031c,650c16f0f2faf8d7a0d14c09,651c1c043e165a8f0b398013,null,null,"<p style=""font-size: 60px; font-family: BACS"">ckduAOJNk</p>",,,,,,,,,,
html-keyboard-response,94,288813,0.0-10.0-0.5,60957b300f08087b0af0031c,650c16f0f2faf8d7a0d14c09,651c1c043e165a8f0b398013,null,null,"<p style=""font-size: 60px; font-family: BACS"">LckGNukbY</p>",,,,,,,,,,
html-keyboard-response,95,289822,0.0-10.0-0.6,60957b300f08087b0af0031c,650c16f0f2faf8d7a0d14c09,651c1c043e165a8f0b398013,null,null,"<p style=""font-size: 60px; font-family: BACS"">ZcGdNlvk</p>",,,,,,,,,,
html-keyboard-response,96,290836,0.0-10.0-0.7,60957b300f08087b0af0031c,650c16f0f2faf8d7a0d14c09,651c1c043e165a8f0b398013,null,null,"<p style=""font-size: 60px; font-family: BACS"">vJabYaOk</p>",,,,,,,,,,
html-keyboard-response,97,291847,0.0-10.0-0.8,60957b300f08087b0af0031c,650c16f0f2faf8d7a0d14c09,651c1c043e165a8f0b398013,null,null,"<p style=""font-size: 60px; font-family: BACS"">tcYbdtRb</p>",,,,,,,,,,
html-keyboard-response,98,292861,0.0-10.0-0.9,60957b300f08087b0af0031c,650c16f0f2faf8d7a0d14c09,651c1c043e165a8f0b398013,null,null,"<p style=""font-size: 60px; font-family: BACS"">ZJLmrlvk</p>",,,,,,,,,,
html-keyboard-response,99,293870,0.0-10.0-0.10,60957b300f08087b0af0031c,650c16f0f2faf8d7a0d14c09,651c1c043e165a8f0b398013,null,null,"<p style=""font-size: 60px; font-family: BACS"">DOchlOBT</p>",,,,,,,,,,
html-keyboard-response,100,294885,0.0-10.0-0.11,60957b300f08087b0af0031c,650c16f0f2faf8d7a0d14c09,651c1c043e165a8f0b398013,null,null,"<p style=""font-size: 60px; font-family: BACS"">lKdbctRb</p>",,,,,,,,,,
html-keyboard-response,101,295897,0.0-10.0-0.12,60957b300f08087b0af0031c,650c16f0f2faf8d7a0d14c09,651c1c043e165a8f0b398013,null,null,"<p style=""font-size: 60px; font-family: BACS"">NQZvYaOk</p>",,,,,,,,,,
html-keyboard-response,102,296907,0.0-10.0-0.13,60957b300f08087b0af0031c,650c16f0f2faf8d7a0d14c09,651c1c043e165a8f0b398013,null,null,"<p style=""font-size: 60px; font-family: BACS"">OAmGrOJlN</p>",,,,,,,,,,
html-keyboard-response,103,297917,0.0-10.0-0.14,60957b300f08087b0af0031c,650c16f0f2faf8d7a0d14c09,651c1c043e165a8f0b398013,null,null,"<p style=""font-size: 60px; font-family: BACS"">ckduAukbY</p>",,,,,,,,,,
html-keyboard-response,104,298928,0.0-10.0-0.15,60957b300f08087b0af0031c,650c16f0f2faf8d7a0d14c09,651c1c043e165a8f0b398013,null,null,"<p style=""font-size: 60px; font-family: BACS"">ZJLmrOJlN</p>",,,,,,,,,,
html-keyboard-response,105,299942,0.0-10.0-0.16,60957b300f08087b0af0031c,650c16f0f2faf8d7a0d14c09,651c1c043e165a8f0b398013,null,null,"<p style=""font-size: 60px; font-family: BACS"">ukYZYaOk</p>",,,,,,,,,,
html-keyboard-response,106,300952,0.0-10.0-0.17,60957b300f08087b0af0031c,650c16f0f2faf8d7a0d14c09,651c1c043e165a8f0b398013,null,null,"<p style=""font-size: 60px; font-family: BACS"">MlthmtKP</p>",,,,,,,,,,
html-keyboard-response,107,301968,0.0-10.0-0.18,60957b300f08087b0af0031c,650c16f0f2faf8d7a0d14c09,651c1c043e165a8f0b398013,null,null,"<p style=""font-size: 60px; font-family: BACS"">kPkRAmKcD</p>",,,,,,,,,,
html-keyboard-response,108,302981,0.0-10.0-0.19,60957b300f08087b0af0031c,650c16f0f2faf8d7a0d14c09,651c1c043e165a8f0b398013,null,null,"<p style=""font-size: 60px; font-family: BACS"">ckduAYaOk</p>",,,,,,,,,,
html-keyboard-response,109,303996,0.0-10.0-0.20,60957b300f08087b0af0031c,650c16f0f2faf8d7a0d14c09,651c1c043e165a8f0b398013,null,null,"<p style=""font-size: 60px; font-family: BACS"">EPERdOBT</p>",,,,,,,,,,
html-keyboard-response,110,305009,0.0-10.0-0.21,60957b300f08087b0af0031c,650c16f0f2faf8d7a0d14c09,651c1c043e165a8f0b398013,null,null,"<p style=""font-size: 60px; font-family: BACS"">LckGNOJNk</p>",,,,,,,,,,
html-keyboard-response,111,306015,0.0-10.0-0.22,60957b300f08087b0af0031c,650c16f0f2faf8d7a0d14c09,651c1c043e165a8f0b398013,null,null,"<p style=""font-size: 60px; font-family: BACS"">tcYbdmKcD</p>",,,,,,,,,,
html-keyboard-response,112,307026,0.0-10.0-0.23,60957b300f08087b0af0031c,650c16f0f2faf8d7a0d14c09,651c1c043e165a8f0b398013,null,null,"<p style=""font-size: 60px; font-family: BACS"">QbkAclvk</p>",,,,,,,,,,
html-keyboard-response,113,308038,0.0-10.0-0.24,60957b300f08087b0af0031c,650c16f0f2faf8d7a0d14c09,651c1c043e165a8f0b398013,null,null,"<p style=""font-size: 60px; font-family: BACS"">kPkRAEAO</p>",,,,,,,,,,
html-keyboard-response,114,309045,0.0-10.0-0.25,60957b300f08087b0af0031c,650c16f0f2faf8d7a0d14c09,651c1c043e165a8f0b398013,null,null,"<p style=""font-size: 60px; font-family: BACS"">bcORtRb</p>",,,,,,,,,,
html-keyboard-response,115,310059,0.0-10.0-0.26,60957b300f08087b0af0031c,650c16f0f2faf8d7a0d14c09,651c1c043e165a8f0b398013,null,null,"<p style=""font-size: 60px; font-family: BACS"">rvOvUukbY</p>",,,,,,,,,,
html-keyboard-response,116,311075,0.0-10.0-0.27,60957b300f08087b0af0031c,650c16f0f2faf8d7a0d14c09,651c1c043e165a8f0b398013,null,null,"<p style=""font-size: 60px; font-family: BACS"">PCPDhmKcD</p>",,,,,,,,,,
html-keyboard-response,117,312087,0.0-10.0-0.28,60957b300f08087b0af0031c,650c16f0f2faf8d7a0d14c09,651c1c043e165a8f0b398013,null,null,"<p style=""font-size: 60px; font-family: BACS"">NQZvlvk</p>",,,,,,,,,,
html-keyboard-response,118,313095,0.0-10.0-0.29,60957b300f08087b0af0031c,650c16f0f2faf8d7a0d14c09,651c1c043e165a8f0b398013,null,null,"<p style=""font-size: 60px; font-family: BACS"">ckduAOJlN</p>",,,,,,,,,,
html-keyboard-response,119,314099,0.0-10.0-0.30,60957b300f08087b0af0031c,650c16f0f2faf8d7a0d14c09,651c1c043e165a8f0b398013,null,null,"<p style=""font-size: 60px; font-family: BACS"">ZJLmrukbY</p>",,,,,,,,,,
html-keyboard-response,120,315107,0.0-10.0-0.31,60957b300f08087b0af0031c,650c16f0f2faf8d7a0d14c09,651c1c043e165a8f0b398013,null,null,"<p style=""font-size: 60px; font-family: BACS"">NQZvOJNk</p>",,,,,,,,,,
html-keyboard-response,121,316118,0.0-10.0-0.32,60957b300f08087b0af0031c,650c16f0f2faf8d7a0d14c09,651c1c043e165a8f0b398013,null,null,"<p style=""font-size: 60px; font-family: BACS"">EPERdmKcD</p>",,,,,,,,,,
html-keyboard-response,122,317132,0.0-10.0-0.33,60957b300f08087b0af0031c,650c16f0f2faf8d7a0d14c09,651c1c043e165a8f0b398013,null,null,"<p style=""font-size: 60px; font-family: BACS"">lKdbcOBT</p>",,,,,,,,,,
html-keyboard-response,123,318142,0.0-10.0-0.34,60957b300f08087b0af0031c,650c16f0f2faf8d7a0d14c09,651c1c043e165a8f0b398013,null,null,"<p style=""font-size: 60px; font-family: BACS"">EPERdEAO</p>",,,,,,,,,,
html-keyboard-response,124,319155,0.0-10.0-0.35,60957b300f08087b0af0031c,650c16f0f2faf8d7a0d14c09,651c1c043e165a8f0b398013,null,null,"<p style=""font-size: 60px; font-family: BACS"">ZcGdNOJNk</p>",,,,,,,,,,
html-keyboard-response,125,320168,0.0-10.0-0.36,60957b300f08087b0af0031c,650c16f0f2faf8d7a0d14c09,651c1c043e165a8f0b398013,null,null,"<p style=""font-size: 60px; font-family: BACS"">TEBKOBT</p>",,,,,,,,,,
html-keyboard-response,126,321174,0.0-10.0-0.37,60957b300f08087b0af0031c,650c16f0f2faf8d7a0d14c09,651c1c043e165a8f0b398013,null,null,"<p style=""font-size: 60px; font-family: BACS"">MlthmKcD</p>",,,,,,,,,,
html-keyboard-response,127,322185,0.0-10.0-0.38,60957b300f08087b0af0031c,650c16f0f2faf8d7a0d14c09,651c1c043e165a8f0b398013,null,null,"<p style=""font-size: 60px; font-family: BACS"">tcYbdEAO</p>",,,,,,,,,,
html-keyboard-response,128,323197,0.0-10.0-0.39,60957b300f08087b0af0031c,650c16f0f2faf8d7a0d14c09,651c1c043e165a8f0b398013,null,null,"<p style=""font-size: 60px; font-family: BACS"">rvOvUOJNk</p>",,,,,,,,,,
html-keyboard-response,129,324214,0.0-10.0-0.40,60957b300f08087b0af0031c,650c16f0f2faf8d7a0d14c09,651c1c043e165a8f0b398013,null,null,"<p style=""font-size: 60px; font-family: BACS"">vJabOJlN</p>",,,,,,,,,,
html-keyboard-response,130,325228,0.0-10.0-0.41,60957b300f08087b0af0031c,650c16f0f2faf8d7a0d14c09,651c1c043e165a8f0b398013,null,null,"<p style=""font-size: 60px; font-family: BACS"">OAmGrlvk</p>",,,,,,,,,,
html-keyboard-response,131,326230,0.0-10.0-0.42,60957b300f08087b0af0031c,650c16f0f2faf8d7a0d14c09,651c1c043e165a8f0b398013,null,null,"<p style=""font-size: 60px; font-family: BACS"">tcYbdmtKP</p>",,,,,,,,,,
html-keyboard-response,132,327242,0.0-10.0-0.43,60957b300f08087b0af0031c,650c16f0f2faf8d7a0d14c09,651c1c043e165a8f0b398013,null,null,"<p style=""font-size: 60px; font-family: BACS"">TEBKtRb</p>",,,,,,,,,,
html-keyboard-response,133,328250,0.0-10.0-0.44,60957b300f08087b0af0031c,650c16f0f2faf8d7a0d14c09,651c1c043e165a8f0b398013,null,null,"<p style=""font-size: 60px; font-family: BACS"">OAmGrYaOk</p>",,,,,,,,,,
html-keyboard-response,134,329262,0.0-10.0-0.45,60957b300f08087b0af0031c,650c16f0f2faf8d7a0d14c09,651c1c043e165a8f0b398013,null,null,"<p style=""font-size: 60px; font-family: BACS"">mdkKmKcD</p>",,,,,,,,,,
html-keyboard-response,135,330265,0.0-10.0-0.46,60957b300f08087b0af0031c,650c16f0f2faf8d7a0d14c09,651c1c043e165a8f0b398013,null,null,"<p style=""font-size: 60px; font-family: BACS"">TEBKmtKP</p>",,,,,,,,,,
html-keyboard-response,136,331273,0.0-10.0-0.47,60957b300f08087b0af0031c,650c16f0f2faf8d7a0d14c09,651c1c043e165a8f0b398013,null,null,"<p style=""font-size: 60px; font-family: BACS"">PCPDhOBT</p>",,,,,,,,,,
html-keyboard-response,137,332280,0.0-10.0-0.48,60957b300f08087b0af0031c,650c16f0f2faf8d7a0d14c09,651c1c043e165a8f0b398013,null,null,"<p style=""font-size: 60px; font-family: BACS"">bcORmKcD</p>",,,,,,,,,,
html-keyboard-response,138,333294,0.0-10.0-0.49,60957b300f08087b0af0031c,650c16f0f2faf8d7a0d14c09,651c1c043e165a8f0b398013,null,null,"<p style=""font-size: 60px; font-family: BACS"">QbkAcukbY</p>",,,,,,,,,,
html-keyboard-response,139,334304,0.0-10.0-0.50,60957b300f08087b0af0031c,650c16f0f2faf8d7a0d14c09,651c1c043e165a8f0b398013,null,null,"<p style=""font-size: 60px; font-family: BACS"">TEBKEAO</p>",,,,,,,,,,
html-keyboard-response,140,335312,0.0-10.0-0.51,60957b300f08087b0af0031c,650c16f0f2faf8d7a0d14c09,651c1c043e165a8f0b398013,null,null,"<p style=""font-size: 60px; font-family: BACS"">ZcGdNukbY</p>",,,,,,,,,,
html-keyboard-response,141,336314,0.0-10.0-0.52,60957b300f08087b0af0031c,650c16f0f2faf8d7a0d14c09,651c1c043e165a8f0b398013,null,null,"<p style=""font-size: 60px; font-family: BACS"">DOchlmtKP</p>",,,,,,,,,,
html-keyboard-response,142,337328,0.0-10.0-0.53,60957b300f08087b0af0031c,650c16f0f2faf8d7a0d14c09,651c1c043e165a8f0b398013,null,null,"<p style=""font-size: 60px; font-family: BACS"">NQZvukbY</p>",,,,,,,,,,
html-keyboard-response,143,338332,0.0-10.0-0.54,60957b300f08087b0af0031c,650c16f0f2faf8d7a0d14c09,651c1c043e165a8f0b398013,null,null,"<p style=""font-size: 60px; font-family: BACS"">bcORmtKP</p>",,,,,,,,,,
html-keyboard-response,144,339338,0.0-10.0-0.55,60957b300f08087b0af0031c,650c16f0f2faf8d7a0d14c09,651c1c043e165a8f0b398013,null,null,"<p style=""font-size: 60px; font-family: BACS"">MlthtRb</p>",,,,,,,,,,
html-keyboard-response,145,340343,0.0-10.0-0.56,60957b300f08087b0af0031c,650c16f0f2faf8d7a0d14c09,651c1c043e165a8f0b398013,null,null,"<p style=""font-size: 60px; font-family: BACS"">LckGNYaOk</p>",,,,,,,,,,
html-keyboard-response,146,341345,0.0-10.0-0.57,60957b300f08087b0af0031c,650c16f0f2faf8d7a0d14c09,651c1c043e165a8f0b398013,null,null,"<p style=""font-size: 60px; font-family: BACS"">ukYZOJlN</p>",,,,,,,,,,
html-keyboard-response,147,342361,0.0-10.0-0.58,60957b300f08087b0af0031c,650c16f0f2faf8d7a0d14c09,651c1c043e165a8f0b398013,null,null,"<p style=""font-size: 60px; font-family: BACS"">MlthEAO</p>",,,,,,,,,,
html-keyboard-response,148,343374,0.0-10.0-0.59,60957b300f08087b0af0031c,650c16f0f2faf8d7a0d14c09,651c1c043e165a8f0b398013,null,null,"<p style=""font-size: 60px; font-family: BACS"">ZcGdNOJlN</p>",,,,,,,,,,
html-keyboard-response,149,344390,0.0-10.0-0.60,60957b300f08087b0af0031c,650c16f0f2faf8d7a0d14c09,651c1c043e165a8f0b398013,null,null,"<p style=""font-size: 60px; font-family: BACS"">OAmGrOJNk</p>",,,,,,,,,,
html-keyboard-response,150,345393,0.0-10.0-0.61,60957b300f08087b0af0031c,650c16f0f2faf8d7a0d14c09,651c1c043e165a8f0b398013,null,null,"<p style=""font-size: 60px; font-family: BACS"">QbkAcYaOk</p>",,,,,,,,,,
html-keyboard-response,151,346397,0.0-10.0-0.62,60957b300f08087b0af0031c,650c16f0f2faf8d7a0d14c09,651c1c043e165a8f0b398013,null,null,"<p style=""font-size: 60px; font-family: BACS"">DOchlmKcD</p>",,,,,,,,,,
html-keyboard-response,152,347410,0.0-10.0-0.63,60957b300f08087b0af0031c,650c16f0f2faf8d7a0d14c09,651c1c043e165a8f0b398013,null,null,"<p style=""font-size: 60px; font-family: BACS"">mdkKEAO</p>",,,,,,,,,,
html-keyboard-response,153,348412,0.0-10.0-0.64,60957b300f08087b0af0031c,650c16f0f2faf8d7a0d14c09,651c1c043e165a8f0b398013,null,null,"<p style=""font-size: 60px; font-family: BACS"">bcOROBT</p>",,,,,,,,,,
html-keyboard-response,154,349418,0.0-10.0-0.65,60957b300f08087b0af0031c,650c16f0f2faf8d7a0d14c09,651c1c043e165a8f0b398013,null,null,"<p style=""font-size: 60px; font-family: BACS"">ukYZOJNk</p>",,,,,,,,,,
html-keyboard-response,155,350426,0.0-10.0-0.66,60957b300f08087b0af0031c,650c16f0f2faf8d7a0d14c09,651c1c043e165a8f0b398013,null,null,"<p style=""font-size: 60px; font-family: BACS"">lKdbcmtKP</p>",,,,,,,,,,
html-keyboard-response,156,351433,0.0-10.0-0.67,60957b300f08087b0af0031c,650c16f0f2faf8d7a0d14c09,651c1c043e165a8f0b398013,null,null,"<p style=""font-size: 60px; font-family: BACS"">mdkKOBT</p>",,,,,,,,,,
html-keyboard-response,157,352447,0.0-10.0-0.68,60957b300f08087b0af0031c,650c16f0f2faf8d7a0d14c09,651c1c043e165a8f0b398013,null,null,"<p style=""font-size: 60px; font-family: BACS"">EPERdmtKP</p>",,,,,,,,,,
html-keyboard-response,158,353455,0.0-10.0-0.69,60957b300f08087b0af0031c,650c16f0f2faf8d7a0d14c09,651c1c043e165a8f0b398013,null,null,"<p style=""font-size: 60px; font-family: BACS"">lKdbcEAO</p>",,,,,,,,,,
html-keyboard-response,159,354466,0.0-10.0-0.70,60957b300f08087b0af0031c,650c16f0f2faf8d7a0d14c09,651c1c043e165a8f0b398013,null,null,"<p style=""font-size: 60px; font-family: BACS"">QbkAcOJlN</p>",,,,,,,,,,
html-keyboard-response,160,355474,0.0-10.0-0.71,60957b300f08087b0af0031c,650c16f0f2faf8d7a0d14c09,651c1c043e165a8f0b398013,null,null,"<p style=""font-size: 60px; font-family: BACS"">PCPDhEAO</p>",,,,,,,,,,
html-keyboard-response,161,356478,0.0-10.0-0.72,60957b300f08087b0af0031c,650c16f0f2faf8d7a0d14c09,651c1c043e165a8f0b398013,null,null,"<p style=""font-size: 60px; font-family: BACS"">ukYZlvk</p>",,,,,,,,,,
html-keyboard-response,162,357493,0.0-10.0-0.73,60957b300f08087b0af0031c,650c16f0f2faf8d7a0d14c09,651c1c043e165a8f0b398013,null,null,"<p style=""font-size: 60px; font-family: BACS"">vJabOJNk</p>",,,,,,,,,,
html-keyboard-response,163,358505,0.0-10.0-0.74,60957b300f08087b0af0031c,650c16f0f2faf8d7a0d14c09,651c1c043e165a8f0b398013,null,null,"<p style=""font-size: 60px; font-family: BACS"">kPkRAtRb</p>",,,,,,,,,,
html-keyboard-response,164,359520,0.0-10.0-0.75,60957b300f08087b0af0031c,650c16f0f2faf8d7a0d14c09,651c1c043e165a8f0b398013,null,null,"<p style=""font-size: 60px; font-family: BACS"">LckGNlvk</p>",,,,,,,,,,
html-keyboard-response,165,360527,0.0-10.0-0.76,60957b300f08087b0af0031c,650c16f0f2faf8d7a0d14c09,651c1c043e165a8f0b398013,null,null,"<p style=""font-size: 60px; font-family: BACS"">rvOvUOJlN</p>",,,,,,,,,,
html-keyboard-response,166,361542,0.0-10.0-0.77,60957b300f08087b0af0031c,650c16f0f2faf8d7a0d14c09,651c1c043e165a8f0b398013,null,null,"<p style=""font-size: 60px; font-family: BACS"">DOchltRb</p>",,,,,,,,,,
html-keyboard-response,167,362544,0.0-10.0-0.78,60957b300f08087b0af0031c,650c16f0f2faf8d7a0d14c09,651c1c043e165a8f0b398013,null,null,"<p style=""font-size: 60px; font-family: BACS"">ZJLmrYaOk</p>",,,,,,,,,,
html-keyboard-response,168,363547,0.0-10.0-0.79,60957b300f08087b0af0031c,650c16f0f2faf8d7a0d14c09,651c1c043e165a8f0b398013,null,null,"<p style=""font-size: 60px; font-family: BACS"">PCPDhtRb</p>",,,,,,,,,,
html-keyboard-response,169,368419,0.0-11.0,60957b300f08087b0af0031c,650c16f0f2faf8d7a0d14c09,651c1c043e165a8f0b398013,4871, ,"<p>Great, you've seen the second block of words. You may now take a short break.</p>
      <p>Press the spacebar when you're ready to continue.</p>",,,,,,,,,,
html-keyboard-response,170,369430,0.0-12.0-0.0,60957b300f08087b0af0031c,650c16f0f2faf8d7a0d14c09,651c1c043e165a8f0b398013,null,null,"<p style=""font-size: 60px; font-family: BACS"">DOchlmKcD</p>",,,,,,,,,,
html-keyboard-response,171,370441,0.0-12.0-0.1,60957b300f08087b0af0031c,650c16f0f2faf8d7a0d14c09,651c1c043e165a8f0b398013,null,null,"<p style=""font-size: 60px; font-family: BACS"">vJabukbY</p>",,,,,,,,,,
html-keyboard-response,172,371453,0.0-12.0-0.2,60957b300f08087b0af0031c,650c16f0f2faf8d7a0d14c09,651c1c043e165a8f0b398013,null,null,"<p style=""font-size: 60px; font-family: BACS"">MlthmtKP</p>",,,,,,,,,,
html-keyboard-response,173,372462,0.0-12.0-0.3,60957b300f08087b0af0031c,650c16f0f2faf8d7a0d14c09,651c1c043e165a8f0b398013,null,null,"<p style=""font-size: 60px; font-family: BACS"">ukYZOJlN</p>",,,,,,,,,,
html-keyboard-response,174,373464,0.0-12.0-0.4,60957b300f08087b0af0031c,650c16f0f2faf8d7a0d14c09,651c1c043e165a8f0b398013,null,null,"<p style=""font-size: 60px; font-family: BACS"">bcORmKcD</p>",,,,,,,,,,
html-keyboard-response,175,374473,0.0-12.0-0.5,60957b300f08087b0af0031c,650c16f0f2faf8d7a0d14c09,651c1c043e165a8f0b398013,null,null,"<p style=""font-size: 60px; font-family: BACS"">QbkAcOJlN</p>",,,,,,,,,,
html-keyboard-response,176,375486,0.0-12.0-0.6,60957b300f08087b0af0031c,650c16f0f2faf8d7a0d14c09,651c1c043e165a8f0b398013,null,null,"<p style=""font-size: 60px; font-family: BACS"">ckduAOJNk</p>",,,,,,,,,,
html-keyboard-response,177,376496,0.0-12.0-0.7,60957b300f08087b0af0031c,650c16f0f2faf8d7a0d14c09,651c1c043e165a8f0b398013,null,null,"<p style=""font-size: 60px; font-family: BACS"">EPERdOBT</p>",,,,,,,,,,
html-keyboard-response,178,377509,0.0-12.0-0.8,60957b300f08087b0af0031c,650c16f0f2faf8d7a0d14c09,651c1c043e165a8f0b398013,null,null,"<p style=""font-size: 60px; font-family: BACS"">ZcGdNOJNk</p>",,,,,,,,,,
html-keyboard-response,179,378520,0.0-12.0-0.9,60957b300f08087b0af0031c,650c16f0f2faf8d7a0d14c09,651c1c043e165a8f0b398013,null,null,"<p style=""font-size: 60px; font-family: BACS"">MlthmKcD</p>",,,,,,,,,,
html-keyboard-response,180,379531,0.0-12.0-0.10,60957b300f08087b0af0031c,650c16f0f2faf8d7a0d14c09,651c1c043e165a8f0b398013,null,null,"<p style=""font-size: 60px; font-family: BACS"">lKdbcOBT</p>",,,,,,,,,,
html-keyboard-response,181,380535,0.0-12.0-0.11,60957b300f08087b0af0031c,650c16f0f2faf8d7a0d14c09,651c1c043e165a8f0b398013,null,null,"<p style=""font-size: 60px; font-family: BACS"">ZJLmrOJlN</p>",,,,,,,,,,
html-keyboard-response,182,381543,0.0-12.0-0.12,60957b300f08087b0af0031c,650c16f0f2faf8d7a0d14c09,651c1c043e165a8f0b398013,null,null,"<p style=""font-size: 60px; font-family: BACS"">OAmGrYaOk</p>",,,,,,,,,,
html-keyboard-response,183,382555,0.0-12.0-0.13,60957b300f08087b0af0031c,650c16f0f2faf8d7a0d14c09,651c1c043e165a8f0b398013,null,null,"<p style=""font-size: 60px; font-family: BACS"">MlthEAO</p>",,,,,,,,,,
html-keyboard-response,184,383569,0.0-12.0-0.14,60957b300f08087b0af0031c,650c16f0f2faf8d7a0d14c09,651c1c043e165a8f0b398013,null,null,"<p style=""font-size: 60px; font-family: BACS"">DOchltRb</p>",,,,,,,,,,
html-keyboard-response,185,384575,0.0-12.0-0.15,60957b300f08087b0af0031c,650c16f0f2faf8d7a0d14c09,651c1c043e165a8f0b398013,null,null,"<p style=""font-size: 60px; font-family: BACS"">QbkAclvk</p>",,,,,,,,,,
html-keyboard-response,186,385588,0.0-12.0-0.16,60957b300f08087b0af0031c,650c16f0f2faf8d7a0d14c09,651c1c043e165a8f0b398013,null,null,"<p style=""font-size: 60px; font-family: BACS"">TEBKEAO</p>",,,,,,,,,,
html-keyboard-response,187,386594,0.0-12.0-0.17,60957b300f08087b0af0031c,650c16f0f2faf8d7a0d14c09,651c1c043e165a8f0b398013,null,null,"<p style=""font-size: 60px; font-family: BACS"">ukYZlvk</p>",,,,,,,,,,
html-keyboard-response,188,387606,0.0-12.0-0.18,60957b300f08087b0af0031c,650c16f0f2faf8d7a0d14c09,651c1c043e165a8f0b398013,null,null,"<p style=""font-size: 60px; font-family: BACS"">mdkKEAO</p>",,,,,,,,,,
html-keyboard-response,189,388612,0.0-12.0-0.19,60957b300f08087b0af0031c,650c16f0f2faf8d7a0d14c09,651c1c043e165a8f0b398013,null,null,"<p style=""font-size: 60px; font-family: BACS"">PCPDhOBT</p>",,,,,,,,,,
html-keyboard-response,190,389621,0.0-12.0-0.20,60957b300f08087b0af0031c,650c16f0f2faf8d7a0d14c09,651c1c043e165a8f0b398013,null,null,"<p style=""font-size: 60px; font-family: BACS"">kPkRAEAO</p>",,,,,,,,,,
html-keyboard-response,191,390631,0.0-12.0-0.21,60957b300f08087b0af0031c,650c16f0f2faf8d7a0d14c09,651c1c043e165a8f0b398013,null,null,"<p style=""font-size: 60px; font-family: BACS"">ckduAukbY</p>",,,,,,,,,,
html-keyboard-response,192,391643,0.0-12.0-0.22,60957b300f08087b0af0031c,650c16f0f2faf8d7a0d14c09,651c1c043e165a8f0b398013,null,null,"<p style=""font-size: 60px; font-family: BACS"">vJabOJNk</p>",,,,,,,,,,
html-keyboard-response,193,392653,0.0-12.0-0.23,60957b300f08087b0af0031c,650c16f0f2faf8d7a0d14c09,651c1c043e165a8f0b398013,null,null,"<p style=""font-size: 60px; font-family: BACS"">MlthtRb</p>",,,,,,,,,,
html-keyboard-response,194,393666,0.0-12.0-0.24,60957b300f08087b0af0031c,650c16f0f2faf8d7a0d14c09,651c1c043e165a8f0b398013,null,null,"<p style=""font-size: 60px; font-family: BACS"">PCPDhEAO</p>",,,,,,,,,,
html-keyboard-response,195,394675,0.0-12.0-0.25,60957b300f08087b0af0031c,650c16f0f2faf8d7a0d14c09,651c1c043e165a8f0b398013,null,null,"<p style=""font-size: 60px; font-family: BACS"">rvOvUOJNk</p>",,,,,,,,,,
html-keyboard-response,196,395684,0.0-12.0-0.26,60957b300f08087b0af0031c,650c16f0f2faf8d7a0d14c09,651c1c043e165a8f0b398013,null,null,"<p style=""font-size: 60px; font-family: BACS"">EPERdmtKP</p>",,,,,,,,,,
html-keyboard-response,197,396701,0.0-12.0-0.27,60957b300f08087b0af0031c,650c16f0f2faf8d7a0d14c09,651c1c043e165a8f0b398013,null,null,"<p style=""font-size: 60px; font-family: BACS"">bcOROBT</p>",,,,,,,,,,
html-keyboard-response,198,397712,0.0-12.0-0.28,60957b300f08087b0af0031c,650c16f0f2faf8d7a0d14c09,651c1c043e165a8f0b398013,null,null,"<p style=""font-size: 60px; font-family: BACS"">vJabYaOk</p>",,,,,,,,,,
html-keyboard-response,199,398714,0.0-12.0-0.29,60957b300f08087b0af0031c,650c16f0f2faf8d7a0d14c09,651c1c043e165a8f0b398013,null,null,"<p style=""font-size: 60px; font-family: BACS"">NQZvOJNk</p>",,,,,,,,,,
html-keyboard-response,200,399724,0.0-12.0-0.30,60957b300f08087b0af0031c,650c16f0f2faf8d7a0d14c09,651c1c043e165a8f0b398013,null,null,"<p style=""font-size: 60px; font-family: BACS"">DOchlmtKP</p>",,,,,,,,,,
html-keyboard-response,201,400729,0.0-12.0-0.31,60957b300f08087b0af0031c,650c16f0f2faf8d7a0d14c09,651c1c043e165a8f0b398013,null,null,"<p style=""font-size: 60px; font-family: BACS"">ZcGdNukbY</p>",,,,,,,,,,
html-keyboard-response,202,401731,0.0-12.0-0.32,60957b300f08087b0af0031c,650c16f0f2faf8d7a0d14c09,651c1c043e165a8f0b398013,null,null,"<p style=""font-size: 60px; font-family: BACS"">tcYbdEAO</p>",,,,,,,,,,
html-keyboard-response,203,402736,0.0-12.0-0.33,60957b300f08087b0af0031c,650c16f0f2faf8d7a0d14c09,651c1c043e165a8f0b398013,null,null,"<p style=""font-size: 60px; font-family: BACS"">PCPDhtRb</p>",,,,,,,,,,
html-keyboard-response,204,403738,0.0-12.0-0.34,60957b300f08087b0af0031c,650c16f0f2faf8d7a0d14c09,651c1c043e165a8f0b398013,null,null,"<p style=""font-size: 60px; font-family: BACS"">ZJLmrYaOk</p>",,,,,,,,,,
html-keyboard-response,205,404748,0.0-12.0-0.35,60957b300f08087b0af0031c,650c16f0f2faf8d7a0d14c09,651c1c043e165a8f0b398013,null,null,"<p style=""font-size: 60px; font-family: BACS"">rvOvUOJlN</p>",,,,,,,,,,
html-keyboard-response,206,405762,0.0-12.0-0.36,60957b300f08087b0af0031c,650c16f0f2faf8d7a0d14c09,651c1c043e165a8f0b398013,null,null,"<p style=""font-size: 60px; font-family: BACS"">bcORtRb</p>",,,,,,,,,,
html-keyboard-response,207,406764,0.0-12.0-0.37,60957b300f08087b0af0031c,650c16f0f2faf8d7a0d14c09,651c1c043e165a8f0b398013,null,null,"<p style=""font-size: 60px; font-family: BACS"">ZcGdNlvk</p>",,,,,,,,,,
html-keyboard-response,208,407777,0.0-12.0-0.38,60957b300f08087b0af0031c,650c16f0f2faf8d7a0d14c09,651c1c043e165a8f0b398013,null,null,"<p style=""font-size: 60px; font-family: BACS"">ukYZYaOk</p>",,,,,,,,,,
html-keyboard-response,209,408789,0.0-12.0-0.39,60957b300f08087b0af0031c,650c16f0f2faf8d7a0d14c09,651c1c043e165a8f0b398013,null,null,"<p style=""font-size: 60px; font-family: BACS"">lKdbcmtKP</p>",,,,,,,,,,
html-keyboard-response,210,409803,0.0-12.0-0.40,60957b300f08087b0af0031c,650c16f0f2faf8d7a0d14c09,651c1c043e165a8f0b398013,null,null,"<p style=""font-size: 60px; font-family: BACS"">NQZvukbY</p>",,,,,,,,,,
html-keyboard-response,211,410815,0.0-12.0-0.41,60957b300f08087b0af0031c,650c16f0f2faf8d7a0d14c09,651c1c043e165a8f0b398013,null,null,"<p style=""font-size: 60px; font-family: BACS"">ZcGdNOJlN</p>",,,,,,,,,,
html-keyboard-response,212,411829,0.0-12.0-0.42,60957b300f08087b0af0031c,650c16f0f2faf8d7a0d14c09,651c1c043e165a8f0b398013,null,null,"<p style=""font-size: 60px; font-family: BACS"">mdkKmKcD</p>",,,,,,,,,,
html-keyboard-response,213,412841,0.0-12.0-0.43,60957b300f08087b0af0031c,650c16f0f2faf8d7a0d14c09,651c1c043e165a8f0b398013,null,null,"<p style=""font-size: 60px; font-family: BACS"">QbkAcYaOk</p>",,,,,,,,,,
html-keyboard-response,214,413845,0.0-12.0-0.44,60957b300f08087b0af0031c,650c16f0f2faf8d7a0d14c09,651c1c043e165a8f0b398013,null,null,"<p style=""font-size: 60px; font-family: BACS"">rvOvUukbY</p>",,,,,,,,,,
html-keyboard-response,215,414852,0.0-12.0-0.45,60957b300f08087b0af0031c,650c16f0f2faf8d7a0d14c09,651c1c043e165a8f0b398013,null,null,"<p style=""font-size: 60px; font-family: BACS"">OAmGrOJNk</p>",,,,,,,,,,
html-keyboard-response,216,415864,0.0-12.0-0.46,60957b300f08087b0af0031c,650c16f0f2faf8d7a0d14c09,651c1c043e165a8f0b398013,null,null,"<p style=""font-size: 60px; font-family: BACS"">vJabOJlN</p>",,,,,,,,,,
html-keyboard-response,217,416877,0.0-12.0-0.47,60957b300f08087b0af0031c,650c16f0f2faf8d7a0d14c09,651c1c043e165a8f0b398013,null,null,"<p style=""font-size: 60px; font-family: BACS"">bcORmtKP</p>",,,,,,,,,,
html-keyboard-response,218,417889,0.0-12.0-0.48,60957b300f08087b0af0031c,650c16f0f2faf8d7a0d14c09,651c1c043e165a8f0b398013,null,null,"<p style=""font-size: 60px; font-family: BACS"">DOchlOBT</p>",,,,,,,,,,
html-keyboard-response,219,418893,0.0-12.0-0.49,60957b300f08087b0af0031c,650c16f0f2faf8d7a0d14c09,651c1c043e165a8f0b398013,null,null,"<p style=""font-size: 60px; font-family: BACS"">rvOvUlvk</p>",,,,,,,,,,
html-keyboard-response,220,419896,0.0-12.0-0.50,60957b300f08087b0af0031c,650c16f0f2faf8d7a0d14c09,651c1c043e165a8f0b398013,null,null,"<p style=""font-size: 60px; font-family: BACS"">lKdbctRb</p>",,,,,,,,,,
html-keyboard-response,221,420899,0.0-12.0-0.51,60957b300f08087b0af0031c,650c16f0f2faf8d7a0d14c09,651c1c043e165a8f0b398013,null,null,"<p style=""font-size: 60px; font-family: BACS"">tcYbdmtKP</p>",,,,,,,,,,
html-keyboard-response,222,421912,0.0-12.0-0.52,60957b300f08087b0af0031c,650c16f0f2faf8d7a0d14c09,651c1c043e165a8f0b398013,null,null,"<p style=""font-size: 60px; font-family: BACS"">ckduAOJlN</p>",,,,,,,,,,
html-keyboard-response,223,422914,0.0-12.0-0.53,60957b300f08087b0af0031c,650c16f0f2faf8d7a0d14c09,651c1c043e165a8f0b398013,null,null,"<p style=""font-size: 60px; font-family: BACS"">kPkRAmKcD</p>",,,,,,,,,,
html-keyboard-response,224,423926,0.0-12.0-0.54,60957b300f08087b0af0031c,650c16f0f2faf8d7a0d14c09,651c1c043e165a8f0b398013,null,null,"<p style=""font-size: 60px; font-family: BACS"">ZJLmrlvk</p>",,,,,,,,,,
html-keyboard-response,225,424939,0.0-12.0-0.55,60957b300f08087b0af0031c,650c16f0f2faf8d7a0d14c09,651c1c043e165a8f0b398013,null,null,"<p style=""font-size: 60px; font-family: BACS"">NQZvYaOk</p>",,,,,,,,,,
html-keyboard-response,226,425951,0.0-12.0-0.56,60957b300f08087b0af0031c,650c16f0f2faf8d7a0d14c09,651c1c043e165a8f0b398013,null,null,"<p style=""font-size: 60px; font-family: BACS"">EPERdEAO</p>",,,,,,,,,,
html-keyboard-response,227,426954,0.0-12.0-0.57,60957b300f08087b0af0031c,650c16f0f2faf8d7a0d14c09,651c1c043e165a8f0b398013,null,null,"<p style=""font-size: 60px; font-family: BACS"">PCPDhmKcD</p>",,,,,,,,,,
html-keyboard-response,228,427965,0.0-12.0-0.58,60957b300f08087b0af0031c,650c16f0f2faf8d7a0d14c09,651c1c043e165a8f0b398013,null,null,"<p style=""font-size: 60px; font-family: BACS"">LckGNYaOk</p>",,,,,,,,,,
html-keyboard-response,229,428969,0.0-12.0-0.59,60957b300f08087b0af0031c,650c16f0f2faf8d7a0d14c09,651c1c043e165a8f0b398013,null,null,"<p style=""font-size: 60px; font-family: BACS"">TEBKmtKP</p>",,,,,,,,,,
html-keyboard-response,230,429973,0.0-12.0-0.60,60957b300f08087b0af0031c,650c16f0f2faf8d7a0d14c09,651c1c043e165a8f0b398013,null,null,"<p style=""font-size: 60px; font-family: BACS"">OAmGrlvk</p>",,,,,,,,,,
html-keyboard-response,231,430986,0.0-12.0-0.61,60957b300f08087b0af0031c,650c16f0f2faf8d7a0d14c09,651c1c043e165a8f0b398013,null,null,"<p style=""font-size: 60px; font-family: BACS"">QbkAcukbY</p>",,,,,,,,,,
html-keyboard-response,232,432002,0.0-12.0-0.62,60957b300f08087b0af0031c,650c16f0f2faf8d7a0d14c09,651c1c043e165a8f0b398013,null,null,"<p style=""font-size: 60px; font-family: BACS"">ckduAYaOk</p>",,,,,,,,,,
html-keyboard-response,233,433012,0.0-12.0-0.63,60957b300f08087b0af0031c,650c16f0f2faf8d7a0d14c09,651c1c043e165a8f0b398013,null,null,"<p style=""font-size: 60px; font-family: BACS"">NQZvlvk</p>",,,,,,,,,,
html-keyboard-response,234,434020,0.0-12.0-0.64,60957b300f08087b0af0031c,650c16f0f2faf8d7a0d14c09,651c1c043e165a8f0b398013,null,null,"<p style=""font-size: 60px; font-family: BACS"">tcYbdtRb</p>",,,,,,,,,,
html-keyboard-response,235,435026,0.0-12.0-0.65,60957b300f08087b0af0031c,650c16f0f2faf8d7a0d14c09,651c1c043e165a8f0b398013,null,null,"<p style=""font-size: 60px; font-family: BACS"">mdkKmtKP</p>",,,,,,,,,,
html-keyboard-response,236,436032,0.0-12.0-0.66,60957b300f08087b0af0031c,650c16f0f2faf8d7a0d14c09,651c1c043e165a8f0b398013,null,null,"<p style=""font-size: 60px; font-family: BACS"">lKdbcEAO</p>",,,,,,,,,,
html-keyboard-response,237,437034,0.0-12.0-0.67,60957b300f08087b0af0031c,650c16f0f2faf8d7a0d14c09,651c1c043e165a8f0b398013,null,null,"<p style=""font-size: 60px; font-family: BACS"">ZJLmrukbY</p>",,,,,,,,,,
html-keyboard-response,238,438042,0.0-12.0-0.68,60957b300f08087b0af0031c,650c16f0f2faf8d7a0d14c09,651c1c043e165a8f0b398013,null,null,"<p style=""font-size: 60px; font-family: BACS"">ukYZOJNk</p>",,,,,,,,,,
html-keyboard-response,239,439056,0.0-12.0-0.69,60957b300f08087b0af0031c,650c16f0f2faf8d7a0d14c09,651c1c043e165a8f0b398013,null,null,"<p style=""font-size: 60px; font-family: BACS"">mdkKOBT</p>",,,,,,,,,,
html-keyboard-response,240,440061,0.0-12.0-0.70,60957b300f08087b0af0031c,650c16f0f2faf8d7a0d14c09,651c1c043e165a8f0b398013,null,null,"<p style=""font-size: 60px; font-family: BACS"">kPkRAtRb</p>",,,,,,,,,,
html-keyboard-response,241,441076,0.0-12.0-0.71,60957b300f08087b0af0031c,650c16f0f2faf8d7a0d14c09,651c1c043e165a8f0b398013,null,null,"<p style=""font-size: 60px; font-family: BACS"">LckGNukbY</p>",,,,,,,,,,
html-keyboard-response,242,442085,0.0-12.0-0.72,60957b300f08087b0af0031c,650c16f0f2faf8d7a0d14c09,651c1c043e165a8f0b398013,null,null,"<p style=""font-size: 60px; font-family: BACS"">kPkRAOBT</p>",,,,,,,,,,
html-keyboard-response,243,443098,0.0-12.0-0.73,60957b300f08087b0af0031c,650c16f0f2faf8d7a0d14c09,651c1c043e165a8f0b398013,null,null,"<p style=""font-size: 60px; font-family: BACS"">LckGNOJNk</p>",,,,,,,,,,
html-keyboard-response,244,444112,0.0-12.0-0.74,60957b300f08087b0af0031c,650c16f0f2faf8d7a0d14c09,651c1c043e165a8f0b398013,null,null,"<p style=""font-size: 60px; font-family: BACS"">EPERdmKcD</p>",,,,,,,,,,
html-keyboard-response,245,445123,0.0-12.0-0.75,60957b300f08087b0af0031c,650c16f0f2faf8d7a0d14c09,651c1c043e165a8f0b398013,null,null,"<p style=""font-size: 60px; font-family: BACS"">OAmGrOJlN</p>",,,,,,,,,,
html-keyboard-response,246,446129,0.0-12.0-0.76,60957b300f08087b0af0031c,650c16f0f2faf8d7a0d14c09,651c1c043e165a8f0b398013,null,null,"<p style=""font-size: 60px; font-family: BACS"">TEBKtRb</p>",,,,,,,,,,
html-keyboard-response,247,447143,0.0-12.0-0.77,60957b300f08087b0af0031c,650c16f0f2faf8d7a0d14c09,651c1c043e165a8f0b398013,null,null,"<p style=""font-size: 60px; font-family: BACS"">tcYbdmKcD</p>",,,,,,,,,,
html-keyboard-response,248,448150,0.0-12.0-0.78,60957b300f08087b0af0031c,650c16f0f2faf8d7a0d14c09,651c1c043e165a8f0b398013,null,null,"<p style=""font-size: 60px; font-family: BACS"">LckGNlvk</p>",,,,,,,,,,
html-keyboard-response,249,449156,0.0-12.0-0.79,60957b300f08087b0af0031c,650c16f0f2faf8d7a0d14c09,651c1c043e165a8f0b398013,null,null,"<p style=""font-size: 60px; font-family: BACS"">TEBKOBT</p>",,,,,,,,,,
html-keyboard-response,250,484706,0.0-13.0,60957b300f08087b0af0031c,650c16f0f2faf8d7a0d14c09,651c1c043e165a8f0b398013,35553, ,"<p>Great, you've seen the third block of words. You may now take a short break.</p>
      <p>Press the spacebar when you're ready to continue.</p>",,,,,,,,,,
html-keyboard-response,251,485719,0.0-14.0-0.0,60957b300f08087b0af0031c,650c16f0f2faf8d7a0d14c09,651c1c043e165a8f0b398013,null,null,"<p style=""font-size: 60px; font-family: BACS"">NQZvYaOk</p>",,,,,,,,,,
html-keyboard-response,252,486731,0.0-14.0-0.1,60957b300f08087b0af0031c,650c16f0f2faf8d7a0d14c09,651c1c043e165a8f0b398013,null,null,"<p style=""font-size: 60px; font-family: BACS"">ZJLmrlvk</p>",,,,,,,,,,
html-keyboard-response,253,487737,0.0-14.0-0.2,60957b300f08087b0af0031c,650c16f0f2faf8d7a0d14c09,651c1c043e165a8f0b398013,null,null,"<p style=""font-size: 60px; font-family: BACS"">LckGNYaOk</p>",,,,,,,,,,
html-keyboard-response,254,488741,0.0-14.0-0.3,60957b300f08087b0af0031c,650c16f0f2faf8d7a0d14c09,651c1c043e165a8f0b398013,null,null,"<p style=""font-size: 60px; font-family: BACS"">tcYbdtRb</p>",,,,,,,,,,
html-keyboard-response,255,489747,0.0-14.0-0.4,60957b300f08087b0af0031c,650c16f0f2faf8d7a0d14c09,651c1c043e165a8f0b398013,null,null,"<p style=""font-size: 60px; font-family: BACS"">EPERdOBT</p>",,,,,,,,,,
html-keyboard-response,256,490754,0.0-14.0-0.5,60957b300f08087b0af0031c,650c16f0f2faf8d7a0d14c09,651c1c043e165a8f0b398013,null,null,"<p style=""font-size: 60px; font-family: BACS"">bcORmtKP</p>",,,,,,,,,,
html-keyboard-response,257,491768,0.0-14.0-0.6,60957b300f08087b0af0031c,650c16f0f2faf8d7a0d14c09,651c1c043e165a8f0b398013,null,null,"<p style=""font-size: 60px; font-family: BACS"">ukYZOJlN</p>",,,,,,,,,,
html-keyboard-response,258,492778,0.0-14.0-0.7,60957b300f08087b0af0031c,650c16f0f2faf8d7a0d14c09,651c1c043e165a8f0b398013,null,null,"<p style=""font-size: 60px; font-family: BACS"">TEBKEAO</p>",,,,,,,,,,
html-keyboard-response,259,493785,0.0-14.0-0.8,60957b300f08087b0af0031c,650c16f0f2faf8d7a0d14c09,651c1c043e165a8f0b398013,null,null,"<p style=""font-size: 60px; font-family: BACS"">tcYbdmKcD</p>",,,,,,,,,,
html-keyboard-response,260,494787,0.0-14.0-0.9,60957b300f08087b0af0031c,650c16f0f2faf8d7a0d14c09,651c1c043e165a8f0b398013,null,null,"<p style=""font-size: 60px; font-family: BACS"">lKdbcEAO</p>",,,,,,,,,,
html-keyboard-response,261,495802,0.0-14.0-0.10,60957b300f08087b0af0031c,650c16f0f2faf8d7a0d14c09,651c1c043e165a8f0b398013,null,null,"<p style=""font-size: 60px; font-family: BACS"">vJabukbY</p>",,,,,,,,,,
html-keyboard-response,262,496808,0.0-14.0-0.11,60957b300f08087b0af0031c,650c16f0f2faf8d7a0d14c09,651c1c043e165a8f0b398013,null,null,"<p style=""font-size: 60px; font-family: BACS"">LckGNlvk</p>",,,,,,,,,,
html-keyboard-response,263,497810,0.0-14.0-0.12,60957b300f08087b0af0031c,650c16f0f2faf8d7a0d14c09,651c1c043e165a8f0b398013,null,null,"<p style=""font-size: 60px; font-family: BACS"">EPERdEAO</p>",,,,,,,,,,
html-keyboard-response,264,498826,0.0-14.0-0.13,60957b300f08087b0af0031c,650c16f0f2faf8d7a0d14c09,651c1c043e165a8f0b398013,null,null,"<p style=""font-size: 60px; font-family: BACS"">kPkRAtRb</p>",,,,,,,,,,
html-keyboard-response,265,499830,0.0-14.0-0.14,60957b300f08087b0af0031c,650c16f0f2faf8d7a0d14c09,651c1c043e165a8f0b398013,null,null,"<p style=""font-size: 60px; font-family: BACS"">PCPDhmKcD</p>",,,,,,,,,,
html-keyboard-response,266,500843,0.0-14.0-0.15,60957b300f08087b0af0031c,650c16f0f2faf8d7a0d14c09,651c1c043e165a8f0b398013,null,null,"<p style=""font-size: 60px; font-family: BACS"">mdkKOBT</p>",,,,,,,,,,
html-keyboard-response,267,501853,0.0-14.0-0.16,60957b300f08087b0af0031c,650c16f0f2faf8d7a0d14c09,651c1c043e165a8f0b398013,null,null,"<p style=""font-size: 60px; font-family: BACS"">DOchlmKcD</p>",,,,,,,,,,
html-keyboard-response,268,502867,0.0-14.0-0.17,60957b300f08087b0af0031c,650c16f0f2faf8d7a0d14c09,651c1c043e165a8f0b398013,null,null,"<p style=""font-size: 60px; font-family: BACS"">LckGNukbY</p>",,,,,,,,,,
html-keyboard-response,269,503880,0.0-14.0-0.18,60957b300f08087b0af0031c,650c16f0f2faf8d7a0d14c09,651c1c043e165a8f0b398013,null,null,"<p style=""font-size: 60px; font-family: BACS"">tcYbdmtKP</p>",,,,,,,,,,
html-keyboard-response,270,504893,0.0-14.0-0.19,60957b300f08087b0af0031c,650c16f0f2faf8d7a0d14c09,651c1c043e165a8f0b398013,null,null,"<p style=""font-size: 60px; font-family: BACS"">OAmGrOJNk</p>",,,,,,,,,,
html-keyboard-response,271,505895,0.0-14.0-0.20,60957b300f08087b0af0031c,650c16f0f2faf8d7a0d14c09,651c1c043e165a8f0b398013,null,null,"<p style=""font-size: 60px; font-family: BACS"">ZJLmrukbY</p>",,,,,,,,,,
html-keyboard-response,272,506907,0.0-14.0-0.21,60957b300f08087b0af0031c,650c16f0f2faf8d7a0d14c09,651c1c043e165a8f0b398013,null,null,"<p style=""font-size: 60px; font-family: BACS"">LckGNOJNk</p>",,,,,,,,,,
html-keyboard-response,273,507916,0.0-14.0-0.22,60957b300f08087b0af0031c,650c16f0f2faf8d7a0d14c09,651c1c043e165a8f0b398013,null,null,"<p style=""font-size: 60px; font-family: BACS"">mdkKmKcD</p>",,,,,,,,,,
html-keyboard-response,274,508921,0.0-14.0-0.23,60957b300f08087b0af0031c,650c16f0f2faf8d7a0d14c09,651c1c043e165a8f0b398013,null,null,"<p style=""font-size: 60px; font-family: BACS"">ukYZOJNk</p>",,,,,,,,,,
html-keyboard-response,275,509925,0.0-14.0-0.24,60957b300f08087b0af0031c,650c16f0f2faf8d7a0d14c09,651c1c043e165a8f0b398013,null,null,"<p style=""font-size: 60px; font-family: BACS"">PCPDhOBT</p>",,,,,,,,,,
html-keyboard-response,276,510941,0.0-14.0-0.25,60957b300f08087b0af0031c,650c16f0f2faf8d7a0d14c09,651c1c043e165a8f0b398013,null,null,"<p style=""font-size: 60px; font-family: BACS"">ZcGdNlvk</p>",,,,,,,,,,
html-keyboard-response,277,511946,0.0-14.0-0.26,60957b300f08087b0af0031c,650c16f0f2faf8d7a0d14c09,651c1c043e165a8f0b398013,null,null,"<p style=""font-size: 60px; font-family: BACS"">ZJLmrYaOk</p>",,,,,,,,,,
html-keyboard-response,278,512950,0.0-14.0-0.27,60957b300f08087b0af0031c,650c16f0f2faf8d7a0d14c09,651c1c043e165a8f0b398013,null,null,"<p style=""font-size: 60px; font-family: BACS"">DOchltRb</p>",,,,,,,,,,
html-keyboard-response,279,513953,0.0-14.0-0.28,60957b300f08087b0af0031c,650c16f0f2faf8d7a0d14c09,651c1c043e165a8f0b398013,null,null,"<p style=""font-size: 60px; font-family: BACS"">NQZvukbY</p>",,,,,,,,,,
html-keyboard-response,280,514968,0.0-14.0-0.29,60957b300f08087b0af0031c,650c16f0f2faf8d7a0d14c09,651c1c043e165a8f0b398013,null,null,"<p style=""font-size: 60px; font-family: BACS"">rvOvUlvk</p>",,,,,,,,,,
html-keyboard-response,281,515973,0.0-14.0-0.30,60957b300f08087b0af0031c,650c16f0f2faf8d7a0d14c09,651c1c043e165a8f0b398013,null,null,"<p style=""font-size: 60px; font-family: BACS"">ZcGdNOJlN</p>",,,,,,,,,,
html-keyboard-response,282,516986,0.0-14.0-0.31,60957b300f08087b0af0031c,650c16f0f2faf8d7a0d14c09,651c1c043e165a8f0b398013,null,null,"<p style=""font-size: 60px; font-family: BACS"">bcORtRb</p>",,,,,,,,,,
html-keyboard-response,283,517992,0.0-14.0-0.32,60957b300f08087b0af0031c,650c16f0f2faf8d7a0d14c09,651c1c043e165a8f0b398013,null,null,"<p style=""font-size: 60px; font-family: BACS"">OAmGrYaOk</p>",,,,,,,,,,
html-keyboard-response,284,519004,0.0-14.0-0.33,60957b300f08087b0af0031c,650c16f0f2faf8d7a0d14c09,651c1c043e165a8f0b398013,null,null,"<p style=""font-size: 60px; font-family: BACS"">vJabOJlN</p>",,,,,,,,,,
html-keyboard-response,285,520016,0.0-14.0-0.34,60957b300f08087b0af0031c,650c16f0f2faf8d7a0d14c09,651c1c043e165a8f0b398013,null,null,"<p style=""font-size: 60px; font-family: BACS"">DOchlOBT</p>",,,,,,,,,,
html-keyboard-response,286,521019,0.0-14.0-0.35,60957b300f08087b0af0031c,650c16f0f2faf8d7a0d14c09,651c1c043e165a8f0b398013,null,null,"<p style=""font-size: 60px; font-family: BACS"">OAmGrlvk</p>",,,,,,,,,,
html-keyboard-response,287,522030,0.0-14.0-0.36,60957b300f08087b0af0031c,650c16f0f2faf8d7a0d14c09,651c1c043e165a8f0b398013,null,null,"<p style=""font-size: 60px; font-family: BACS"">ZJLmrOJlN</p>",,,,,,,,,,
html-keyboard-response,288,523041,0.0-14.0-0.37,60957b300f08087b0af0031c,650c16f0f2faf8d7a0d14c09,651c1c043e165a8f0b398013,null,null,"<p style=""font-size: 60px; font-family: BACS"">QbkAcYaOk</p>",,,,,,,,,,
html-keyboard-response,289,524055,0.0-14.0-0.38,60957b300f08087b0af0031c,650c16f0f2faf8d7a0d14c09,651c1c043e165a8f0b398013,null,null,"<p style=""font-size: 60px; font-family: BACS"">MlthEAO</p>",,,,,,,,,,
html-keyboard-response,290,525061,0.0-14.0-0.39,60957b300f08087b0af0031c,650c16f0f2faf8d7a0d14c09,651c1c043e165a8f0b398013,null,null,"<p style=""font-size: 60px; font-family: BACS"">lKdbctRb</p>",,,,,,,,,,
html-keyboard-response,291,526069,0.0-14.0-0.40,60957b300f08087b0af0031c,650c16f0f2faf8d7a0d14c09,651c1c043e165a8f0b398013,null,null,"<p style=""font-size: 60px; font-family: BACS"">tcYbdEAO</p>",,,,,,,,,,
html-keyboard-response,292,527077,0.0-14.0-0.41,60957b300f08087b0af0031c,650c16f0f2faf8d7a0d14c09,651c1c043e165a8f0b398013,null,null,"<p style=""font-size: 60px; font-family: BACS"">OAmGrOJlN</p>",,,,,,,,,,
html-keyboard-response,293,528087,0.0-14.0-0.42,60957b300f08087b0af0031c,650c16f0f2faf8d7a0d14c09,651c1c043e165a8f0b398013,null,null,"<p style=""font-size: 60px; font-family: BACS"">ckduAOJNk</p>",,,,,,,,,,
html-keyboard-response,294,529092,0.0-14.0-0.43,60957b300f08087b0af0031c,650c16f0f2faf8d7a0d14c09,651c1c043e165a8f0b398013,null,null,"<p style=""font-size: 60px; font-family: BACS"">kPkRAmKcD</p>",,,,,,,,,,
html-keyboard-response,295,530104,0.0-14.0-0.44,60957b300f08087b0af0031c,650c16f0f2faf8d7a0d14c09,651c1c043e165a8f0b398013,null,null,"<p style=""font-size: 60px; font-family: BACS"">QbkAcOJlN</p>",,,,,,,,,,
html-keyboard-response,296,531113,0.0-14.0-0.45,60957b300f08087b0af0031c,650c16f0f2faf8d7a0d14c09,651c1c043e165a8f0b398013,null,null,"<p style=""font-size: 60px; font-family: BACS"">mdkKmtKP</p>",,,,,,,,,,
html-keyboard-response,297,532118,0.0-14.0-0.46,60957b300f08087b0af0031c,650c16f0f2faf8d7a0d14c09,651c1c043e165a8f0b398013,null,null,"<p style=""font-size: 60px; font-family: BACS"">lKdbcOBT</p>",,,,,,,,,,
html-keyboard-response,298,533125,0.0-14.0-0.47,60957b300f08087b0af0031c,650c16f0f2faf8d7a0d14c09,651c1c043e165a8f0b398013,null,null,"<p style=""font-size: 60px; font-family: BACS"">EPERdmKcD</p>",,,,,,,,,,
html-keyboard-response,299,534131,0.0-14.0-0.48,60957b300f08087b0af0031c,650c16f0f2faf8d7a0d14c09,651c1c043e165a8f0b398013,null,null,"<p style=""font-size: 60px; font-family: BACS"">rvOvUOJlN</p>",,,,,,,,,,
html-keyboard-response,300,535134,0.0-14.0-0.49,60957b300f08087b0af0031c,650c16f0f2faf8d7a0d14c09,651c1c043e165a8f0b398013,null,null,"<p style=""font-size: 60px; font-family: BACS"">ckduAYaOk</p>",,,,,,,,,,
html-keyboard-response,301,536140,0.0-14.0-0.50,60957b300f08087b0af0031c,650c16f0f2faf8d7a0d14c09,651c1c043e165a8f0b398013,null,null,"<p style=""font-size: 60px; font-family: BACS"">PCPDhtRb</p>",,,,,,,,,,
html-keyboard-response,302,537154,0.0-14.0-0.51,60957b300f08087b0af0031c,650c16f0f2faf8d7a0d14c09,651c1c043e165a8f0b398013,null,null,"<p style=""font-size: 60px; font-family: BACS"">kPkRAOBT</p>",,,,,,,,,,
html-keyboard-response,303,538164,0.0-14.0-0.52,60957b300f08087b0af0031c,650c16f0f2faf8d7a0d14c09,651c1c043e165a8f0b398013,null,null,"<p style=""font-size: 60px; font-family: BACS"">mdkKEAO</p>",,,,,,,,,,
html-keyboard-response,304,539168,0.0-14.0-0.53,60957b300f08087b0af0031c,650c16f0f2faf8d7a0d14c09,651c1c043e165a8f0b398013,null,null,"<p style=""font-size: 60px; font-family: BACS"">rvOvUOJNk</p>",,,,,,,,,,
html-keyboard-response,305,540180,0.0-14.0-0.54,60957b300f08087b0af0031c,650c16f0f2faf8d7a0d14c09,651c1c043e165a8f0b398013,null,null,"<p style=""font-size: 60px; font-family: BACS"">MlthmtKP</p>",,,,,,,,,,
html-keyboard-response,306,541181,0.0-14.0-0.55,60957b300f08087b0af0031c,650c16f0f2faf8d7a0d14c09,651c1c043e165a8f0b398013,null,null,"<p style=""font-size: 60px; font-family: BACS"">TEBKOBT</p>",,,,,,,,,,
html-keyboard-response,307,542183,0.0-14.0-0.56,60957b300f08087b0af0031c,650c16f0f2faf8d7a0d14c09,651c1c043e165a8f0b398013,null,null,"<p style=""font-size: 60px; font-family: BACS"">EPERdmtKP</p>",,,,,,,,,,
html-keyboard-response,308,543195,0.0-14.0-0.57,60957b300f08087b0af0031c,650c16f0f2faf8d7a0d14c09,651c1c043e165a8f0b398013,null,null,"<p style=""font-size: 60px; font-family: BACS"">MlthtRb</p>",,,,,,,,,,
html-keyboard-response,309,544213,0.0-14.0-0.58,60957b300f08087b0af0031c,650c16f0f2faf8d7a0d14c09,651c1c043e165a8f0b398013,null,null,"<p style=""font-size: 60px; font-family: BACS"">vJabOJNk</p>",,,,,,,,,,
html-keyboard-response,310,545218,0.0-14.0-0.59,60957b300f08087b0af0031c,650c16f0f2faf8d7a0d14c09,651c1c043e165a8f0b398013,null,null,"<p style=""font-size: 60px; font-family: BACS"">rvOvUukbY</p>",,,,,,,,,,
html-keyboard-response,311,546231,0.0-14.0-0.60,60957b300f08087b0af0031c,650c16f0f2faf8d7a0d14c09,651c1c043e165a8f0b398013,null,null,"<p style=""font-size: 60px; font-family: BACS"">kPkRAEAO</p>",,,,,,,,,,
html-keyboard-response,312,547246,0.0-14.0-0.61,60957b300f08087b0af0031c,650c16f0f2faf8d7a0d14c09,651c1c043e165a8f0b398013,null,null,"<p style=""font-size: 60px; font-family: BACS"">TEBKmtKP</p>",,,,,,,,,,
html-keyboard-response,313,548257,0.0-14.0-0.62,60957b300f08087b0af0031c,650c16f0f2faf8d7a0d14c09,651c1c043e165a8f0b398013,null,null,"<p style=""font-size: 60px; font-family: BACS"">ckduAOJlN</p>",,,,,,,,,,
html-keyboard-response,314,549263,0.0-14.0-0.63,60957b300f08087b0af0031c,650c16f0f2faf8d7a0d14c09,651c1c043e165a8f0b398013,null,null,"<p style=""font-size: 60px; font-family: BACS"">lKdbcmtKP</p>",,,,,,,,,,
html-keyboard-response,315,550275,0.0-14.0-0.64,60957b300f08087b0af0031c,650c16f0f2faf8d7a0d14c09,651c1c043e165a8f0b398013,null,null,"<p style=""font-size: 60px; font-family: BACS"">MlthmKcD</p>",,,,,,,,,,
html-keyboard-response,316,551279,0.0-14.0-0.65,60957b300f08087b0af0031c,650c16f0f2faf8d7a0d14c09,651c1c043e165a8f0b398013,null,null,"<p style=""font-size: 60px; font-family: BACS"">ZcGdNukbY</p>",,,,,,,,,,
html-keyboard-response,317,552289,0.0-14.0-0.66,60957b300f08087b0af0031c,650c16f0f2faf8d7a0d14c09,651c1c043e165a8f0b398013,null,null,"<p style=""font-size: 60px; font-family: BACS"">vJabYaOk</p>",,,,,,,,,,
html-keyboard-response,318,553295,0.0-14.0-0.67,60957b300f08087b0af0031c,650c16f0f2faf8d7a0d14c09,651c1c043e165a8f0b398013,null,null,"<p style=""font-size: 60px; font-family: BACS"">DOchlmtKP</p>",,,,,,,,,,
html-keyboard-response,319,554300,0.0-14.0-0.68,60957b300f08087b0af0031c,650c16f0f2faf8d7a0d14c09,651c1c043e165a8f0b398013,null,null,"<p style=""font-size: 60px; font-family: BACS"">bcOROBT</p>",,,,,,,,,,
html-keyboard-response,320,555311,0.0-14.0-0.69,60957b300f08087b0af0031c,650c16f0f2faf8d7a0d14c09,651c1c043e165a8f0b398013,null,null,"<p style=""font-size: 60px; font-family: BACS"">PCPDhEAO</p>",,,,,,,,,,
html-keyboard-response,321,556315,0.0-14.0-0.70,60957b300f08087b0af0031c,650c16f0f2faf8d7a0d14c09,651c1c043e165a8f0b398013,null,null,"<p style=""font-size: 60px; font-family: BACS"">NQZvOJNk</p>",,,,,,,,,,
html-keyboard-response,322,557324,0.0-14.0-0.71,60957b300f08087b0af0031c,650c16f0f2faf8d7a0d14c09,651c1c043e165a8f0b398013,null,null,"<p style=""font-size: 60px; font-family: BACS"">QbkAcukbY</p>",,,,,,,,,,
html-keyboard-response,323,558336,0.0-14.0-0.72,60957b300f08087b0af0031c,650c16f0f2faf8d7a0d14c09,651c1c043e165a8f0b398013,null,null,"<p style=""font-size: 60px; font-family: BACS"">NQZvlvk</p>",,,,,,,,,,
html-keyboard-response,324,559340,0.0-14.0-0.73,60957b300f08087b0af0031c,650c16f0f2faf8d7a0d14c09,651c1c043e165a8f0b398013,null,null,"<p style=""font-size: 60px; font-family: BACS"">ukYZYaOk</p>",,,,,,,,,,
html-keyboard-response,325,560348,0.0-14.0-0.74,60957b300f08087b0af0031c,650c16f0f2faf8d7a0d14c09,651c1c043e165a8f0b398013,null,null,"<p style=""font-size: 60px; font-family: BACS"">ckduAukbY</p>",,,,,,,,,,
html-keyboard-response,326,561357,0.0-14.0-0.75,60957b300f08087b0af0031c,650c16f0f2faf8d7a0d14c09,651c1c043e165a8f0b398013,null,null,"<p style=""font-size: 60px; font-family: BACS"">QbkAclvk</p>",,,,,,,,,,
html-keyboard-response,327,562372,0.0-14.0-0.76,60957b300f08087b0af0031c,650c16f0f2faf8d7a0d14c09,651c1c043e165a8f0b398013,null,null,"<p style=""font-size: 60px; font-family: BACS"">ZcGdNOJNk</p>",,,,,,,,,,
html-keyboard-response,328,563381,0.0-14.0-0.77,60957b300f08087b0af0031c,650c16f0f2faf8d7a0d14c09,651c1c043e165a8f0b398013,null,null,"<p style=""font-size: 60px; font-family: BACS"">bcORmKcD</p>",,,,,,,,,,
html-keyboard-response,329,564395,0.0-14.0-0.78,60957b300f08087b0af0031c,650c16f0f2faf8d7a0d14c09,651c1c043e165a8f0b398013,null,null,"<p style=""font-size: 60px; font-family: BACS"">TEBKtRb</p>",,,,,,,,,,
html-keyboard-response,330,565408,0.0-14.0-0.79,60957b300f08087b0af0031c,650c16f0f2faf8d7a0d14c09,651c1c043e165a8f0b398013,null,null,"<p style=""font-size: 60px; font-family: BACS"">ukYZlvk</p>",,,,,,,,,,
html-keyboard-response,331,568154,0.0-15.0,60957b300f08087b0af0031c,650c16f0f2faf8d7a0d14c09,651c1c043e165a8f0b398013,2744, ,"<p>Great, you've seen the fourth block of words. You may now take a short break.</p>
      <p>Press the spacebar when you're ready to continue.</p>",,,,,,,,,,
html-keyboard-response,332,569158,0.0-16.0-0.0,60957b300f08087b0af0031c,650c16f0f2faf8d7a0d14c09,651c1c043e165a8f0b398013,null,null,"<p style=""font-size: 60px; font-family: BACS"">OAmGrOJNk</p>",,,,,,,,,,
html-keyboard-response,333,570160,0.0-16.0-0.1,60957b300f08087b0af0031c,650c16f0f2faf8d7a0d14c09,651c1c043e165a8f0b398013,null,null,"<p style=""font-size: 60px; font-family: BACS"">OAmGrOJNk</p>",,,,,,,,,,
html-keyboard-response,334,571169,0.0-16.0-0.2,60957b300f08087b0af0031c,650c16f0f2faf8d7a0d14c09,651c1c043e165a8f0b398013,null,null,"<p style=""font-size: 60px; font-family: BACS"">OAmGrOJNk</p>",,,,,,,,,,
html-keyboard-response,335,572184,0.0-16.0-0.3,60957b300f08087b0af0031c,650c16f0f2faf8d7a0d14c09,651c1c043e165a8f0b398013,null,null,"<p style=""font-size: 60px; font-family: BACS"">OAmGrOJNk</p>",,,,,,,,,,
html-keyboard-response,336,573195,0.0-16.0-0.4,60957b300f08087b0af0031c,650c16f0f2faf8d7a0d14c09,651c1c043e165a8f0b398013,null,null,"<p style=""font-size: 60px; font-family: BACS"">OAmGrOJNk</p>",,,,,,,,,,
html-keyboard-response,337,574198,0.0-16.0-0.5,60957b300f08087b0af0031c,650c16f0f2faf8d7a0d14c09,651c1c043e165a8f0b398013,null,null,"<p style=""font-size: 60px; font-family: BACS"">OAmGrOJNk</p>",,,,,,,,,,
html-keyboard-response,338,575204,0.0-16.0-0.6,60957b300f08087b0af0031c,650c16f0f2faf8d7a0d14c09,651c1c043e165a8f0b398013,null,null,"<p style=""font-size: 60px; font-family: BACS"">OAmGrOJNk</p>",,,,,,,,,,
html-keyboard-response,339,576216,0.0-16.0-0.7,60957b300f08087b0af0031c,650c16f0f2faf8d7a0d14c09,651c1c043e165a8f0b398013,null,null,"<p style=""font-size: 60px; font-family: BACS"">OAmGrOJNk</p>",,,,,,,,,,
html-keyboard-response,340,577223,0.0-16.0-0.8,60957b300f08087b0af0031c,650c16f0f2faf8d7a0d14c09,651c1c043e165a8f0b398013,null,null,"<p style=""font-size: 60px; font-family: BACS"">OAmGrOJNk</p>",,,,,,,,,,
html-keyboard-response,341,578235,0.0-16.0-0.9,60957b300f08087b0af0031c,650c16f0f2faf8d7a0d14c09,651c1c043e165a8f0b398013,null,null,"<p style=""font-size: 60px; font-family: BACS"">OAmGrOJNk</p>",,,,,,,,,,
html-keyboard-response,342,579248,0.0-16.0-0.10,60957b300f08087b0af0031c,650c16f0f2faf8d7a0d14c09,651c1c043e165a8f0b398013,null,null,"<p style=""font-size: 60px; font-family: BACS"">OAmGrOJNk</p>",,,,,,,,,,
html-keyboard-response,343,580250,0.0-16.0-0.11,60957b300f08087b0af0031c,650c16f0f2faf8d7a0d14c09,651c1c043e165a8f0b398013,null,null,"<p style=""font-size: 60px; font-family: BACS"">OAmGrOJNk</p>",,,,,,,,,,
html-keyboard-response,344,581258,0.0-16.0-0.12,60957b300f08087b0af0031c,650c16f0f2faf8d7a0d14c09,651c1c043e165a8f0b398013,null,null,"<p style=""font-size: 60px; font-family: BACS"">OAmGrOJNk</p>",,,,,,,,,,
html-keyboard-response,345,582266,0.0-16.0-0.13,60957b300f08087b0af0031c,650c16f0f2faf8d7a0d14c09,651c1c043e165a8f0b398013,null,null,"<p style=""font-size: 60px; font-family: BACS"">OAmGrOJNk</p>",,,,,,,,,,
html-keyboard-response,346,583278,0.0-16.0-0.14,60957b300f08087b0af0031c,650c16f0f2faf8d7a0d14c09,651c1c043e165a8f0b398013,null,null,"<p style=""font-size: 60px; font-family: BACS"">OAmGrOJNk</p>",,,,,,,,,,
html-keyboard-response,347,584281,0.0-16.0-0.15,60957b300f08087b0af0031c,650c16f0f2faf8d7a0d14c09,651c1c043e165a8f0b398013,null,null,"<p style=""font-size: 60px; font-family: BACS"">OAmGrOJNk</p>",,,,,,,,,,
html-keyboard-response,348,585286,0.0-16.0-0.16,60957b300f08087b0af0031c,650c16f0f2faf8d7a0d14c09,651c1c043e165a8f0b398013,null,null,"<p style=""font-size: 60px; font-family: BACS"">OAmGrOJNk</p>",,,,,,,,,,
html-keyboard-response,349,586300,0.0-16.0-0.17,60957b300f08087b0af0031c,650c16f0f2faf8d7a0d14c09,651c1c043e165a8f0b398013,null,null,"<p style=""font-size: 60px; font-family: BACS"">OAmGrOJNk</p>",,,,,,,,,,
html-keyboard-response,350,587309,0.0-16.0-0.18,60957b300f08087b0af0031c,650c16f0f2faf8d7a0d14c09,651c1c043e165a8f0b398013,null,null,"<p style=""font-size: 60px; font-family: BACS"">OAmGrOJNk</p>",,,,,,,,,,
html-keyboard-response,351,588323,0.0-16.0-0.19,60957b300f08087b0af0031c,650c16f0f2faf8d7a0d14c09,651c1c043e165a8f0b398013,null,null,"<p style=""font-size: 60px; font-family: BACS"">OAmGrOJNk</p>",,,,,,,,,,
html-keyboard-response,352,589327,0.0-16.0-0.20,60957b300f08087b0af0031c,650c16f0f2faf8d7a0d14c09,651c1c043e165a8f0b398013,null,null,"<p style=""font-size: 60px; font-family: BACS"">OAmGrOJNk</p>",,,,,,,,,,
html-keyboard-response,353,590341,0.0-16.0-0.21,60957b300f08087b0af0031c,650c16f0f2faf8d7a0d14c09,651c1c043e165a8f0b398013,null,null,"<p style=""font-size: 60px; font-family: BACS"">OAmGrOJNk</p>",,,,,,,,,,
html-keyboard-response,354,591348,0.0-16.0-0.22,60957b300f08087b0af0031c,650c16f0f2faf8d7a0d14c09,651c1c043e165a8f0b398013,null,null,"<p style=""font-size: 60px; font-family: BACS"">OAmGrOJNk</p>",,,,,,,,,,
html-keyboard-response,355,592356,0.0-16.0-0.23,60957b300f08087b0af0031c,650c16f0f2faf8d7a0d14c09,651c1c043e165a8f0b398013,null,null,"<p style=""font-size: 60px; font-family: BACS"">OAmGrOJNk</p>",,,,,,,,,,
html-keyboard-response,356,593362,0.0-16.0-0.24,60957b300f08087b0af0031c,650c16f0f2faf8d7a0d14c09,651c1c043e165a8f0b398013,null,null,"<p style=""font-size: 60px; font-family: BACS"">OAmGrOJNk</p>",,,,,,,,,,
html-keyboard-response,357,594371,0.0-16.0-0.25,60957b300f08087b0af0031c,650c16f0f2faf8d7a0d14c09,651c1c043e165a8f0b398013,null,null,"<p style=""font-size: 60px; font-family: BACS"">OAmGrOJNk</p>",,,,,,,,,,
html-keyboard-response,358,595373,0.0-16.0-0.26,60957b300f08087b0af0031c,650c16f0f2faf8d7a0d14c09,651c1c043e165a8f0b398013,null,null,"<p style=""font-size: 60px; font-family: BACS"">OAmGrOJNk</p>",,,,,,,,,,
html-keyboard-response,359,596375,0.0-16.0-0.27,60957b300f08087b0af0031c,650c16f0f2faf8d7a0d14c09,651c1c043e165a8f0b398013,null,null,"<p style=""font-size: 60px; font-family: BACS"">OAmGrOJNk</p>",,,,,,,,,,
html-keyboard-response,360,597379,0.0-16.0-0.28,60957b300f08087b0af0031c,650c16f0f2faf8d7a0d14c09,651c1c043e165a8f0b398013,null,null,"<p style=""font-size: 60px; font-family: BACS"">OAmGrOJNk</p>",,,,,,,,,,
html-keyboard-response,361,598388,0.0-16.0-0.29,60957b300f08087b0af0031c,650c16f0f2faf8d7a0d14c09,651c1c043e165a8f0b398013,null,null,"<p style=""font-size: 60px; font-family: BACS"">OAmGrOJNk</p>",,,,,,,,,,
html-keyboard-response,362,599401,0.0-16.0-0.30,60957b300f08087b0af0031c,650c16f0f2faf8d7a0d14c09,651c1c043e165a8f0b398013,null,null,"<p style=""font-size: 60px; font-family: BACS"">OAmGrOJNk</p>",,,,,,,,,,
html-keyboard-response,363,600412,0.0-16.0-0.31,60957b300f08087b0af0031c,650c16f0f2faf8d7a0d14c09,651c1c043e165a8f0b398013,null,null,"<p style=""font-size: 60px; font-family: BACS"">OAmGrOJNk</p>",,,,,,,,,,
html-keyboard-response,364,601422,0.0-16.0-0.32,60957b300f08087b0af0031c,650c16f0f2faf8d7a0d14c09,651c1c043e165a8f0b398013,null,null,"<p style=""font-size: 60px; font-family: BACS"">OAmGrOJNk</p>",,,,,,,,,,
html-keyboard-response,365,602432,0.0-16.0-0.33,60957b300f08087b0af0031c,650c16f0f2faf8d7a0d14c09,651c1c043e165a8f0b398013,null,null,"<p style=""font-size: 60px; font-family: BACS"">OAmGrOJNk</p>",,,,,,,,,,
html-keyboard-response,366,603434,0.0-16.0-0.34,60957b300f08087b0af0031c,650c16f0f2faf8d7a0d14c09,651c1c043e165a8f0b398013,null,null,"<p style=""font-size: 60px; font-family: BACS"">OAmGrOJNk</p>",,,,,,,,,,
html-keyboard-response,367,604442,0.0-16.0-0.35,60957b300f08087b0af0031c,650c16f0f2faf8d7a0d14c09,651c1c043e165a8f0b398013,null,null,"<p style=""font-size: 60px; font-family: BACS"">OAmGrOJNk</p>",,,,,,,,,,
html-keyboard-response,368,605449,0.0-16.0-0.36,60957b300f08087b0af0031c,650c16f0f2faf8d7a0d14c09,651c1c043e165a8f0b398013,null,null,"<p style=""font-size: 60px; font-family: BACS"">OAmGrOJNk</p>",,,,,,,,,,
html-keyboard-response,369,606454,0.0-16.0-0.37,60957b300f08087b0af0031c,650c16f0f2faf8d7a0d14c09,651c1c043e165a8f0b398013,null,null,"<p style=""font-size: 60px; font-family: BACS"">OAmGrOJNk</p>",,,,,,,,,,
html-keyboard-response,370,607457,0.0-16.0-0.38,60957b300f08087b0af0031c,650c16f0f2faf8d7a0d14c09,651c1c043e165a8f0b398013,null,null,"<p style=""font-size: 60px; font-family: BACS"">OAmGrOJNk</p>",,,,,,,,,,
html-keyboard-response,371,608464,0.0-16.0-0.39,60957b300f08087b0af0031c,650c16f0f2faf8d7a0d14c09,651c1c043e165a8f0b398013,null,null,"<p style=""font-size: 60px; font-family: BACS"">OAmGrOJNk</p>",,,,,,,,,,
html-keyboard-response,372,609472,0.0-16.0-0.40,60957b300f08087b0af0031c,650c16f0f2faf8d7a0d14c09,651c1c043e165a8f0b398013,null,null,"<p style=""font-size: 60px; font-family: BACS"">OAmGrOJNk</p>",,,,,,,,,,
html-keyboard-response,373,610478,0.0-16.0-0.41,60957b300f08087b0af0031c,650c16f0f2faf8d7a0d14c09,651c1c043e165a8f0b398013,null,null,"<p style=""font-size: 60px; font-family: BACS"">OAmGrOJNk</p>",,,,,,,,,,
html-keyboard-response,374,611486,0.0-16.0-0.42,60957b300f08087b0af0031c,650c16f0f2faf8d7a0d14c09,651c1c043e165a8f0b398013,null,null,"<p style=""font-size: 60px; font-family: BACS"">OAmGrOJNk</p>",,,,,,,,,,
html-keyboard-response,375,612494,0.0-16.0-0.43,60957b300f08087b0af0031c,650c16f0f2faf8d7a0d14c09,651c1c043e165a8f0b398013,null,null,"<p style=""font-size: 60px; font-family: BACS"">OAmGrOJNk</p>",,,,,,,,,,
html-keyboard-response,376,613498,0.0-16.0-0.44,60957b300f08087b0af0031c,650c16f0f2faf8d7a0d14c09,651c1c043e165a8f0b398013,null,null,"<p style=""font-size: 60px; font-family: BACS"">OAmGrOJNk</p>",,,,,,,,,,
html-keyboard-response,377,614509,0.0-16.0-0.45,60957b300f08087b0af0031c,650c16f0f2faf8d7a0d14c09,651c1c043e165a8f0b398013,null,null,"<p style=""font-size: 60px; font-family: BACS"">OAmGrOJNk</p>",,,,,,,,,,
html-keyboard-response,378,615515,0.0-16.0-0.46,60957b300f08087b0af0031c,650c16f0f2faf8d7a0d14c09,651c1c043e165a8f0b398013,null,null,"<p style=""font-size: 60px; font-family: BACS"">OAmGrOJNk</p>",,,,,,,,,,
html-keyboard-response,379,616523,0.0-16.0-0.47,60957b300f08087b0af0031c,650c16f0f2faf8d7a0d14c09,651c1c043e165a8f0b398013,null,null,"<p style=""font-size: 60px; font-family: BACS"">OAmGrOJNk</p>",,,,,,,,,,
html-keyboard-response,380,617537,0.0-16.0-0.48,60957b300f08087b0af0031c,650c16f0f2faf8d7a0d14c09,651c1c043e165a8f0b398013,null,null,"<p style=""font-size: 60px; font-family: BACS"">OAmGrOJNk</p>",,,,,,,,,,
html-keyboard-response,381,618554,0.0-16.0-0.49,60957b300f08087b0af0031c,650c16f0f2faf8d7a0d14c09,651c1c043e165a8f0b398013,null,null,"<p style=""font-size: 60px; font-family: BACS"">OAmGrOJNk</p>",,,,,,,,,,
html-keyboard-response,382,619556,0.0-16.0-0.50,60957b300f08087b0af0031c,650c16f0f2faf8d7a0d14c09,651c1c043e165a8f0b398013,null,null,"<p style=""font-size: 60px; font-family: BACS"">OAmGrOJNk</p>",,,,,,,,,,
html-keyboard-response,383,620569,0.0-16.0-0.51,60957b300f08087b0af0031c,650c16f0f2faf8d7a0d14c09,651c1c043e165a8f0b398013,null,null,"<p style=""font-size: 60px; font-family: BACS"">OAmGrOJNk</p>",,,,,,,,,,
html-keyboard-response,384,621572,0.0-16.0-0.52,60957b300f08087b0af0031c,650c16f0f2faf8d7a0d14c09,651c1c043e165a8f0b398013,null,null,"<p style=""font-size: 60px; font-family: BACS"">OAmGrOJNk</p>",,,,,,,,,,
html-keyboard-response,385,622585,0.0-16.0-0.53,60957b300f08087b0af0031c,650c16f0f2faf8d7a0d14c09,651c1c043e165a8f0b398013,null,null,"<p style=""font-size: 60px; font-family: BACS"">OAmGrOJNk</p>",,,,,,,,,,
html-keyboard-response,386,623588,0.0-16.0-0.54,60957b300f08087b0af0031c,650c16f0f2faf8d7a0d14c09,651c1c043e165a8f0b398013,null,null,"<p style=""font-size: 60px; font-family: BACS"">OAmGrOJNk</p>",,,,,,,,,,
html-keyboard-response,387,624597,0.0-16.0-0.55,60957b300f08087b0af0031c,650c16f0f2faf8d7a0d14c09,651c1c043e165a8f0b398013,null,null,"<p style=""font-size: 60px; font-family: BACS"">OAmGrOJNk</p>",,,,,,,,,,
html-keyboard-response,388,625605,0.0-16.0-0.56,60957b300f08087b0af0031c,650c16f0f2faf8d7a0d14c09,651c1c043e165a8f0b398013,null,null,"<p style=""font-size: 60px; font-family: BACS"">OAmGrOJNk</p>",,,,,,,,,,
html-keyboard-response,389,626610,0.0-16.0-0.57,60957b300f08087b0af0031c,650c16f0f2faf8d7a0d14c09,651c1c043e165a8f0b398013,null,null,"<p style=""font-size: 60px; font-family: BACS"">OAmGrOJNk</p>",,,,,,,,,,
html-keyboard-response,390,627613,0.0-16.0-0.58,60957b300f08087b0af0031c,650c16f0f2faf8d7a0d14c09,651c1c043e165a8f0b398013,null,null,"<p style=""font-size: 60px; font-family: BACS"">OAmGrOJNk</p>",,,,,,,,,,
html-keyboard-response,391,628614,0.0-16.0-0.59,60957b300f08087b0af0031c,650c16f0f2faf8d7a0d14c09,651c1c043e165a8f0b398013,null,null,"<p style=""font-size: 60px; font-family: BACS"">OAmGrOJNk</p>",,,,,,,,,,
html-keyboard-response,392,629627,0.0-16.0-0.60,60957b300f08087b0af0031c,650c16f0f2faf8d7a0d14c09,651c1c043e165a8f0b398013,null,null,"<p style=""font-size: 60px; font-family: BACS"">OAmGrOJNk</p>",,,,,,,,,,
html-keyboard-response,393,630636,0.0-16.0-0.61,60957b300f08087b0af0031c,650c16f0f2faf8d7a0d14c09,651c1c043e165a8f0b398013,null,null,"<p style=""font-size: 60px; font-family: BACS"">OAmGrOJNk</p>",,,,,,,,,,
html-keyboard-response,394,631650,0.0-16.0-0.62,60957b300f08087b0af0031c,650c16f0f2faf8d7a0d14c09,651c1c043e165a8f0b398013,null,null,"<p style=""font-size: 60px; font-family: BACS"">OAmGrOJNk</p>",,,,,,,,,,
html-keyboard-response,395,632656,0.0-16.0-0.63,60957b300f08087b0af0031c,650c16f0f2faf8d7a0d14c09,651c1c043e165a8f0b398013,null,null,"<p style=""font-size: 60px; font-family: BACS"">OAmGrOJNk</p>",,,,,,,,,,
html-keyboard-response,396,633669,0.0-16.0-0.64,60957b300f08087b0af0031c,650c16f0f2faf8d7a0d14c09,651c1c043e165a8f0b398013,null,null,"<p style=""font-size: 60px; font-family: BACS"">OAmGrOJNk</p>",,,,,,,,,,
html-keyboard-response,397,634677,0.0-16.0-0.65,60957b300f08087b0af0031c,650c16f0f2faf8d7a0d14c09,651c1c043e165a8f0b398013,null,null,"<p style=""font-size: 60px; font-family: BACS"">OAmGrOJNk</p>",,,,,,,,,,
html-keyboard-response,398,635682,0.0-16.0-0.66,60957b300f08087b0af0031c,650c16f0f2faf8d7a0d14c09,651c1c043e165a8f0b398013,null,null,"<p style=""font-size: 60px; font-family: BACS"">OAmGrOJNk</p>",,,,,,,,,,
html-keyboard-response,399,636685,0.0-16.0-0.67,60957b300f08087b0af0031c,650c16f0f2faf8d7a0d14c09,651c1c043e165a8f0b398013,null,null,"<p style=""font-size: 60px; font-family: BACS"">OAmGrOJNk</p>",,,,,,,,,,
html-keyboard-response,400,637691,0.0-16.0-0.68,60957b300f08087b0af0031c,650c16f0f2faf8d7a0d14c09,651c1c043e165a8f0b398013,null,null,"<p style=""font-size: 60px; font-family: BACS"">OAmGrOJNk</p>",,,,,,,,,,
html-keyboard-response,401,638695,0.0-16.0-0.69,60957b300f08087b0af0031c,650c16f0f2faf8d7a0d14c09,651c1c043e165a8f0b398013,null,null,"<p style=""font-size: 60px; font-family: BACS"">OAmGrOJNk</p>",,,,,,,,,,
html-keyboard-response,402,639699,0.0-16.0-0.70,60957b300f08087b0af0031c,650c16f0f2faf8d7a0d14c09,651c1c043e165a8f0b398013,null,null,"<p style=""font-size: 60px; font-family: BACS"">OAmGrOJNk</p>",,,,,,,,,,
html-keyboard-response,403,640701,0.0-16.0-0.71,60957b300f08087b0af0031c,650c16f0f2faf8d7a0d14c09,651c1c043e165a8f0b398013,null,null,"<p style=""font-size: 60px; font-family: BACS"">OAmGrOJNk</p>",,,,,,,,,,
html-keyboard-response,404,641715,0.0-16.0-0.72,60957b300f08087b0af0031c,650c16f0f2faf8d7a0d14c09,651c1c043e165a8f0b398013,null,null,"<p style=""font-size: 60px; font-family: BACS"">OAmGrOJNk</p>",,,,,,,,,,
html-keyboard-response,405,642732,0.0-16.0-0.73,60957b300f08087b0af0031c,650c16f0f2faf8d7a0d14c09,651c1c043e165a8f0b398013,null,null,"<p style=""font-size: 60px; font-family: BACS"">OAmGrOJNk</p>",,,,,,,,,,
html-keyboard-response,406,643746,0.0-16.0-0.74,60957b300f08087b0af0031c,650c16f0f2faf8d7a0d14c09,651c1c043e165a8f0b398013,null,null,"<p style=""font-size: 60px; font-family: BACS"">OAmGrOJNk</p>",,,,,,,,,,
html-keyboard-response,407,644755,0.0-16.0-0.75,60957b300f08087b0af0031c,650c16f0f2faf8d7a0d14c09,651c1c043e165a8f0b398013,null,null,"<p style=""font-size: 60px; font-family: BACS"">OAmGrOJNk</p>",,,,,,,,,,
html-keyboard-response,408,645770,0.0-16.0-0.76,60957b300f08087b0af0031c,650c16f0f2faf8d7a0d14c09,651c1c043e165a8f0b398013,null,null,"<p style=""font-size: 60px; font-family: BACS"">OAmGrOJNk</p>",,,,,,,,,,
html-keyboard-response,409,646779,0.0-16.0-0.77,60957b300f08087b0af0031c,650c16f0f2faf8d7a0d14c09,651c1c043e165a8f0b398013,null,null,"<p style=""font-size: 60px; font-family: BACS"">OAmGrOJNk</p>",,,,,,,,,,
html-keyboard-response,410,647788,0.0-16.0-0.78,60957b300f08087b0af0031c,650c16f0f2faf8d7a0d14c09,651c1c043e165a8f0b398013,null,null,"<p style=""font-size: 60px; font-family: BACS"">OAmGrOJNk</p>",,,,,,,,,,
html-keyboard-response,411,648793,0.0-16.0-0.79,60957b300f08087b0af0031c,650c16f0f2faf8d7a0d14c09,651c1c043e165a8f0b398013,null,null,"<p style=""font-size: 60px; font-family: BACS"">OAmGrOJNk</p>",,,,,,,,,,
html-keyboard-response,412,650743,0.0-17.0,60957b300f08087b0af0031c,650c16f0f2faf8d7a0d14c09,651c1c043e165a8f0b398013,1949, ,"<p>Great, you've seen the fifth block of words. You may now take a short break.</p>
      <p>Press the spacebar when you're ready to continue.</p>",,,,,,,,,,
html-keyboard-response,413,651744,0.0-18.0-0.0,60957b300f08087b0af0031c,650c16f0f2faf8d7a0d14c09,651c1c043e165a8f0b398013,null,null,"<p style=""font-size: 60px; font-family: BACS"">mdkKmtKP</p>",,,,,,,,,,
html-keyboard-response,414,652757,0.0-18.0-0.1,60957b300f08087b0af0031c,650c16f0f2faf8d7a0d14c09,651c1c043e165a8f0b398013,null,null,"<p style=""font-size: 60px; font-family: BACS"">QbkAcOJlN</p>",,,,,,,,,,
html-keyboard-response,415,653758,0.0-18.0-0.2,60957b300f08087b0af0031c,650c16f0f2faf8d7a0d14c09,651c1c043e165a8f0b398013,null,null,"<p style=""font-size: 60px; font-family: BACS"">TEBKOBT</p>",,,,,,,,,,
html-keyboard-response,416,654769,0.0-18.0-0.3,60957b300f08087b0af0031c,650c16f0f2faf8d7a0d14c09,651c1c043e165a8f0b398013,null,null,"<p style=""font-size: 60px; font-family: BACS"">tcYbdtRb</p>",,,,,,,,,,
html-keyboard-response,417,655783,0.0-18.0-0.4,60957b300f08087b0af0031c,650c16f0f2faf8d7a0d14c09,651c1c043e165a8f0b398013,null,null,"<p style=""font-size: 60px; font-family: BACS"">lKdbcOBT</p>",,,,,,,,,,
html-keyboard-response,418,656787,0.0-18.0-0.5,60957b300f08087b0af0031c,650c16f0f2faf8d7a0d14c09,651c1c043e165a8f0b398013,null,null,"<p style=""font-size: 60px; font-family: BACS"">TEBKtRb</p>",,,,,,,,,,
html-keyboard-response,419,657790,0.0-18.0-0.6,60957b300f08087b0af0031c,650c16f0f2faf8d7a0d14c09,651c1c043e165a8f0b398013,null,null,"<p style=""font-size: 60px; font-family: BACS"">NQZvYaOk</p>",,,,,,,,,,
html-keyboard-response,420,658793,0.0-18.0-0.7,60957b300f08087b0af0031c,650c16f0f2faf8d7a0d14c09,651c1c043e165a8f0b398013,null,null,"<p style=""font-size: 60px; font-family: BACS"">OAmGrlvk</p>",,,,,,,,,,
html-keyboard-response,421,659809,0.0-18.0-0.8,60957b300f08087b0af0031c,650c16f0f2faf8d7a0d14c09,651c1c043e165a8f0b398013,null,null,"<p style=""font-size: 60px; font-family: BACS"">MlthmtKP</p>",,,,,,,,,,
html-keyboard-response,422,660816,0.0-18.0-0.9,60957b300f08087b0af0031c,650c16f0f2faf8d7a0d14c09,651c1c043e165a8f0b398013,null,null,"<p style=""font-size: 60px; font-family: BACS"">TEBKEAO</p>",,,,,,,,,,
html-keyboard-response,423,661831,0.0-18.0-0.10,60957b300f08087b0af0031c,650c16f0f2faf8d7a0d14c09,651c1c043e165a8f0b398013,null,null,"<p style=""font-size: 60px; font-family: BACS"">vJabOJNk</p>",,,,,,,,,,
html-keyboard-response,424,662846,0.0-18.0-0.11,60957b300f08087b0af0031c,650c16f0f2faf8d7a0d14c09,651c1c043e165a8f0b398013,null,null,"<p style=""font-size: 60px; font-family: BACS"">rvOvUOJlN</p>",,,,,,,,,,
html-keyboard-response,425,663858,0.0-18.0-0.12,60957b300f08087b0af0031c,650c16f0f2faf8d7a0d14c09,651c1c043e165a8f0b398013,null,null,"<p style=""font-size: 60px; font-family: BACS"">MlthtRb</p>",,,,,,,,,,
html-keyboard-response,426,664865,0.0-18.0-0.13,60957b300f08087b0af0031c,650c16f0f2faf8d7a0d14c09,651c1c043e165a8f0b398013,null,null,"<p style=""font-size: 60px; font-family: BACS"">rvOvUukbY</p>",,,,,,,,,,
html-keyboard-response,427,665878,0.0-18.0-0.14,60957b300f08087b0af0031c,650c16f0f2faf8d7a0d14c09,651c1c043e165a8f0b398013,null,null,"<p style=""font-size: 60px; font-family: BACS"">mdkKOBT</p>",,,,,,,,,,
html-keyboard-response,428,666880,0.0-18.0-0.15,60957b300f08087b0af0031c,650c16f0f2faf8d7a0d14c09,651c1c043e165a8f0b398013,null,null,"<p style=""font-size: 60px; font-family: BACS"">lKdbctRb</p>",,,,,,,,,,
html-keyboard-response,429,667893,0.0-18.0-0.16,60957b300f08087b0af0031c,650c16f0f2faf8d7a0d14c09,651c1c043e165a8f0b398013,null,null,"<p style=""font-size: 60px; font-family: BACS"">LckGNOJNk</p>",,,,,,,,,,
html-keyboard-response,430,668900,0.0-18.0-0.17,60957b300f08087b0af0031c,650c16f0f2faf8d7a0d14c09,651c1c043e165a8f0b398013,null,null,"<p style=""font-size: 60px; font-family: BACS"">lKdbcEAO</p>",,,,,,,,,,
html-keyboard-response,431,669908,0.0-18.0-0.18,60957b300f08087b0af0031c,650c16f0f2faf8d7a0d14c09,651c1c043e165a8f0b398013,null,null,"<p style=""font-size: 60px; font-family: BACS"">ukYZYaOk</p>",,,,,,,,,,
html-keyboard-response,432,670911,0.0-18.0-0.19,60957b300f08087b0af0031c,650c16f0f2faf8d7a0d14c09,651c1c043e165a8f0b398013,null,null,"<p style=""font-size: 60px; font-family: BACS"">ZJLmrukbY</p>",,,,,,,,,,
html-keyboard-response,433,671921,0.0-18.0-0.20,60957b300f08087b0af0031c,650c16f0f2faf8d7a0d14c09,651c1c043e165a8f0b398013,null,null,"<p style=""font-size: 60px; font-family: BACS"">ZcGdNOJNk</p>",,,,,,,,,,
html-keyboard-response,434,672926,0.0-18.0-0.21,60957b300f08087b0af0031c,650c16f0f2faf8d7a0d14c09,651c1c043e165a8f0b398013,null,null,"<p style=""font-size: 60px; font-family: BACS"">mdkKEAO</p>",,,,,,,,,,
html-keyboard-response,435,673939,0.0-18.0-0.22,60957b300f08087b0af0031c,650c16f0f2faf8d7a0d14c09,651c1c043e165a8f0b398013,null,null,"<p style=""font-size: 60px; font-family: BACS"">PCPDhtRb</p>",,,,,,,,,,
html-keyboard-response,436,674945,0.0-18.0-0.23,60957b300f08087b0af0031c,650c16f0f2faf8d7a0d14c09,651c1c043e165a8f0b398013,null,null,"<p style=""font-size: 60px; font-family: BACS"">EPERdmKcD</p>",,,,,,,,,,
html-keyboard-response,437,675951,0.0-18.0-0.24,60957b300f08087b0af0031c,650c16f0f2faf8d7a0d14c09,651c1c043e165a8f0b398013,null,null,"<p style=""font-size: 60px; font-family: BACS"">ukYZlvk</p>",,,,,,,,,,
html-keyboard-response,438,676955,0.0-18.0-0.25,60957b300f08087b0af0031c,650c16f0f2faf8d7a0d14c09,651c1c043e165a8f0b398013,null,null,"<p style=""font-size: 60px; font-family: BACS"">kPkRAmKcD</p>",,,,,,,,,,
html-keyboard-response,439,677963,0.0-18.0-0.26,60957b300f08087b0af0031c,650c16f0f2faf8d7a0d14c09,651c1c043e165a8f0b398013,null,null,"<p style=""font-size: 60px; font-family: BACS"">tcYbdEAO</p>",,,,,,,,,,
html-keyboard-response,440,678981,0.0-18.0-0.27,60957b300f08087b0af0031c,650c16f0f2faf8d7a0d14c09,651c1c043e165a8f0b398013,null,null,"<p style=""font-size: 60px; font-family: BACS"">vJabukbY</p>",,,,,,,,,,
html-keyboard-response,441,679992,0.0-18.0-0.28,60957b300f08087b0af0031c,650c16f0f2faf8d7a0d14c09,651c1c043e165a8f0b398013,null,null,"<p style=""font-size: 60px; font-family: BACS"">ukYZOJNk</p>",,,,,,,,,,
html-keyboard-response,442,680995,0.0-18.0-0.29,60957b300f08087b0af0031c,650c16f0f2faf8d7a0d14c09,651c1c043e165a8f0b398013,null,null,"<p style=""font-size: 60px; font-family: BACS"">DOchlmtKP</p>",,,,,,,,,,
html-keyboard-response,443,682006,0.0-18.0-0.30,60957b300f08087b0af0031c,650c16f0f2faf8d7a0d14c09,651c1c043e165a8f0b398013,null,null,"<p style=""font-size: 60px; font-family: BACS"">ZJLmrlvk</p>",,,,,,,,,,
html-keyboard-response,444,683018,0.0-18.0-0.31,60957b300f08087b0af0031c,650c16f0f2faf8d7a0d14c09,651c1c043e165a8f0b398013,null,null,"<p style=""font-size: 60px; font-family: BACS"">ckduAOJNk</p>",,,,,,,,,,
html-keyboard-response,445,684020,0.0-18.0-0.32,60957b300f08087b0af0031c,650c16f0f2faf8d7a0d14c09,651c1c043e165a8f0b398013,null,null,"<p style=""font-size: 60px; font-family: BACS"">ZJLmrYaOk</p>",,,,,,,,,,
html-keyboard-response,446,685024,0.0-18.0-0.33,60957b300f08087b0af0031c,650c16f0f2faf8d7a0d14c09,651c1c043e165a8f0b398013,null,null,"<p style=""font-size: 60px; font-family: BACS"">PCPDhEAO</p>",,,,,,,,,,
html-keyboard-response,447,686025,0.0-18.0-0.34,60957b300f08087b0af0031c,650c16f0f2faf8d7a0d14c09,651c1c043e165a8f0b398013,null,null,"<p style=""font-size: 60px; font-family: BACS"">NQZvukbY</p>",,,,,,,,,,
html-keyboard-response,448,687035,0.0-18.0-0.35,60957b300f08087b0af0031c,650c16f0f2faf8d7a0d14c09,651c1c043e165a8f0b398013,null,null,"<p style=""font-size: 60px; font-family: BACS"">kPkRAOBT</p>",,,,,,,,,,
html-keyboard-response,449,688042,0.0-18.0-0.36,60957b300f08087b0af0031c,650c16f0f2faf8d7a0d14c09,651c1c043e165a8f0b398013,null,null,"<p style=""font-size: 60px; font-family: BACS"">TEBKmtKP</p>",,,,,,,,,,
html-keyboard-response,450,689048,0.0-18.0-0.37,60957b300f08087b0af0031c,650c16f0f2faf8d7a0d14c09,651c1c043e165a8f0b398013,null,null,"<p style=""font-size: 60px; font-family: BACS"">EPERdOBT</p>",,,,,,,,,,
html-keyboard-response,451,690062,0.0-18.0-0.38,60957b300f08087b0af0031c,650c16f0f2faf8d7a0d14c09,651c1c043e165a8f0b398013,null,null,"<p style=""font-size: 60px; font-family: BACS"">QbkAcukbY</p>",,,,,,,,,,
html-keyboard-response,452,691074,0.0-18.0-0.39,60957b300f08087b0af0031c,650c16f0f2faf8d7a0d14c09,651c1c043e165a8f0b398013,null,null,"<p style=""font-size: 60px; font-family: BACS"">LckGNlvk</p>",,,,,,,,,,
html-keyboard-response,453,692077,0.0-18.0-0.40,60957b300f08087b0af0031c,650c16f0f2faf8d7a0d14c09,651c1c043e165a8f0b398013,null,null,"<p style=""font-size: 60px; font-family: BACS"">bcORmtKP</p>",,,,,,,,,,
html-keyboard-response,454,693090,0.0-18.0-0.41,60957b300f08087b0af0031c,650c16f0f2faf8d7a0d14c09,651c1c043e165a8f0b398013,null,null,"<p style=""font-size: 60px; font-family: BACS"">NQZvOJNk</p>",,,,,,,,,,
html-keyboard-response,455,694107,0.0-18.0-0.42,60957b300f08087b0af0031c,650c16f0f2faf8d7a0d14c09,651c1c043e165a8f0b398013,null,null,"<p style=""font-size: 60px; font-family: BACS"">tcYbdmtKP</p>",,,,,,,,,,
html-keyboard-response,456,695116,0.0-18.0-0.43,60957b300f08087b0af0031c,650c16f0f2faf8d7a0d14c09,651c1c043e165a8f0b398013,null,null,"<p style=""font-size: 60px; font-family: BACS"">PCPDhmKcD</p>",,,,,,,,,,
html-keyboard-response,457,696122,0.0-18.0-0.44,60957b300f08087b0af0031c,650c16f0f2faf8d7a0d14c09,651c1c043e165a8f0b398013,null,null,"<p style=""font-size: 60px; font-family: BACS"">EPERdmtKP</p>",,,,,,,,,,
html-keyboard-response,458,697136,0.0-18.0-0.45,60957b300f08087b0af0031c,650c16f0f2faf8d7a0d14c09,651c1c043e165a8f0b398013,null,null,"<p style=""font-size: 60px; font-family: BACS"">tcYbdmKcD</p>",,,,,,,,,,
html-keyboard-response,459,698142,0.0-18.0-0.46,60957b300f08087b0af0031c,650c16f0f2faf8d7a0d14c09,651c1c043e165a8f0b398013,null,null,"<p style=""font-size: 60px; font-family: BACS"">rvOvUlvk</p>",,,,,,,,,,
html-keyboard-response,460,699144,0.0-18.0-0.47,60957b300f08087b0af0031c,650c16f0f2faf8d7a0d14c09,651c1c043e165a8f0b398013,null,null,"<p style=""font-size: 60px; font-family: BACS"">OAmGrYaOk</p>",,,,,,,,,,
html-keyboard-response,461,700155,0.0-18.0-0.48,60957b300f08087b0af0031c,650c16f0f2faf8d7a0d14c09,651c1c043e165a8f0b398013,null,null,"<p style=""font-size: 60px; font-family: BACS"">ukYZOJlN</p>",,,,,,,,,,
html-keyboard-response,462,701159,0.0-18.0-0.49,60957b300f08087b0af0031c,650c16f0f2faf8d7a0d14c09,651c1c043e165a8f0b398013,null,null,"<p style=""font-size: 60px; font-family: BACS"">rvOvUOJNk</p>",,,,,,,,,,
html-keyboard-response,463,702171,0.0-18.0-0.50,60957b300f08087b0af0031c,650c16f0f2faf8d7a0d14c09,651c1c043e165a8f0b398013,null,null,"<p style=""font-size: 60px; font-family: BACS"">kPkRAEAO</p>",,,,,,,,,,
html-keyboard-response,464,703176,0.0-18.0-0.51,60957b300f08087b0af0031c,650c16f0f2faf8d7a0d14c09,651c1c043e165a8f0b398013,null,null,"<p style=""font-size: 60px; font-family: BACS"">QbkAcYaOk</p>",,,,,,,,,,
