"trial_type","trial_index","time_elapsed","internal_node_id","subject_id","study_id","session_id","rt","response","stimulus","success","item","task","correct_response","correct","target","confound","name"
"pavlovia","0","3020","0.0-0.0","5feb64b3341f42bb63200e36","64afc2c9a8732ea92db0087d","64afd84b2278b5a2a9cb4704","","","","","","","","","","",""
"survey-html-form","1","9179","0.0-1.0","5feb64b3341f42bb63200e36","64afc2c9a8732ea92db0087d","64afd84b2278b5a2a9cb4704","6158","{""ID"":""5feb64b3341f42bb63200e36""}","","","","","","","","",""
"html-keyboard-response","2","13170","0.0-2.0","5feb64b3341f42bb63200e36","64afc2c9a8732ea92db0087d","64afd84b2278b5a2a9cb4704","3990"," ","<p style=""font-size: 15px;"">Prima di cominciare, le chiediamo di leggere il modulo di consenso informato e confermare la sua volontà di partecipare all'esperimento.</p>
      <p style=""font-size: 15px;""> La preghiamo di ricordare che questo è un progetto di ricerca e che la sua partecipazione è completamente volontaria. Lei si potra' ritirare in qualunque momento, senza necessariamente dover dare alcuna spiegazione. Lo studio al quale Le si chiede di partecipare ha lo scopo di esaminare come i lettori elaborano le parole scritte. La somministrazione delle prove è individuale. Lei sarà impegnato in una sessione di lavoro della durata media di 10 minuti, e un questionario di 10 minuti. L’ordine delle prove ed il loro svolgimento sono stabiliti in modo tale da evitare un eventuale affaticamento. Tutte le prove saranno precedute da un breve addestramento in modo tale che abbia la possibilità di familiarizzare con il compito. Sono previste alcune pause nel corso dello svolgimento dell’esperimento. Una ricompensa di £4 (£8 per ora) Le verrà consegnata al termine della sessione di testing. Nonostante il testing preveda delle prove cognitive, il presente esperimento non costituisce una prova clinica che permetta la diagnosi di eventuali patologie.</p>
      <p style=""font-size: 15px;"">Tutti i dati raccolti grazie alla partecipazione Sua e di altre persone volontarie saranno custoditi in server sicuri e protetti da password, e non sarà consentito ad alcuna persona non autorizzata di accedervi. Le Sue informazioni personali saranno conservate separatamente dai risultati della presente ricerca, cui saranno associati soltanto attraverso un ID arbitrario. Grazie a questo processo di anonimizzazione dei dati, a nessun ricercatore sarà possibile analizzare i risultati sapendo da quale specifico partecipante essi provengono. Inoltre, questa procedura renderà impossibile la Sua identificazione anche nel momento in cui i risultati della ricerca fossero pubblicati su riviste scientifiche, o presentati a congressi o in qualsiasi altro pubblico consesso. Più in generale, i dati raccolti saranno trattati in accordo con le leggi sulla privacy e in conformità al Decreto Legislativo 30 giugno 2003 n. 196 “Codice in materia di protezione dei dati personali” e al Regolamento Europeo 2016/679 (General Data Protection Regulation - GDPR). Il Responsabile della protezione dei dati (RPD) è l’Avv. Valentina Carollo che può essere contattato ai seguenti indirizzi email: <a href=""mailto:dpo@sissa.it"">dpo@sissa.it</a> oppure <a href=""mailto:rpd@sissa.it"">rpd@sissa.it</a> - PEC: <a href=""mailto:protocollo@pec.sissa.it"">protocollo@pec.sissa.it</a>.</p>
      <p style=""font-size: 15px;""> Prima di esprimere il suo consenso alla partecipazione, Le ricordiamo ancora che in caso Lei abbia bisogno di delucidazioni su qualunque aspetto della procedura sperimentale, il ricercatore è a Sua completa disposizione (<a href=""mailto:aliebelt@sissa.it"">aliebelt@sissa.it</a>, <a href=""mailto:davide.crepaldi@sissa.it"">davide.crepaldi@sissa.it</a>).</p>
      <p style=""font-size: 15px;"">Se vuole scaricare il modulo di consenso informato, clicca qui: <a href=""BASL_modulo_consenso.pdf"" download>modulo di consenso</a>.</p>
      <p style=""font-size: 15px;""> Le chiediamo di premere la barra per continuare al consenso.</p>","","","","","","","",""
"survey-html-form","3","25419","0.0-3.0","5feb64b3341f42bb63200e36","64afc2c9a8732ea92db0087d","64afd84b2278b5a2a9cb4704","12248","{""consent1"":""YES"",""consent2"":""YES"",""consent3"":""YES"",""consent4"":""YES"",""consent5"":""YES"",""consent6"":""YES""}","","","","","","","","",""
"fullscreen","4","30225","0.0-4.0","5feb64b3341f42bb63200e36","64afc2c9a8732ea92db0087d","64afd84b2278b5a2a9cb4704","","","","true","","","","","","",""
"html-keyboard-response","5","65828","0.0-5.0","5feb64b3341f42bb63200e36","64afc2c9a8732ea92db0087d","64afd84b2278b5a2a9cb4704","35602"," ","<p>Benvenuta/o, e grazie mille del tuo tempo!</p>
      <p>In questo esperimento sarai un esperto/un'esperta di linguaggio cui è stato chiesto di dare un'occhiata ad alcuni messaggi che la Terra ha ricevuto dallo spazio. Il tuo compito, in questa prima parte dell'esperimento, sarà di fare molta attenzione alle parole che ti verranno mostrate; più tardi, i leader del mondo ti chiederanno qualche informazione su quello che hai visto. Le parole si susseguiranno abbastanza velocemente; sembra che questi alieni abbiano una certa fretta :-) </p>
      <p>Per favore, chiama lo sperimentatore se ha qualche domanda.</p><p>Premi la barra per continuare.</p>","","","","","","","",""
"html-keyboard-response","6","69196","0.0-6.0","5feb64b3341f42bb63200e36","64afc2c9a8732ea92db0087d","64afd84b2278b5a2a9cb4704","3367"," ","<p>Ecco un esempio delle parole che vedrai:</p>
      <img src='esempio.png' height='400px'>
      <p>Quando sei pronti per iniziare, premi la barra.</p></div>","","","","","","","",""
"html-keyboard-response","7","70202","0.0-7.0-0.0","5feb64b3341f42bb63200e36","64afc2c9a8732ea92db0087d","64afd84b2278b5a2a9cb4704","null","null","<p style=""font-size: 60px; font-family: BACS"">mLdkZYZUZ</p>","","","","","","","",""
"html-keyboard-response","8","71204","0.0-7.0-0.1","5feb64b3341f42bb63200e36","64afc2c9a8732ea92db0087d","64afd84b2278b5a2a9cb4704","null","null","<p style=""font-size: 60px; font-family: BACS"">GLYrAkGua</p>","","","","","","","",""
"html-keyboard-response","9","72208","0.0-7.0-0.2","5feb64b3341f42bb63200e36","64afc2c9a8732ea92db0087d","64afd84b2278b5a2a9cb4704","null","null","<p style=""font-size: 60px; font-family: BACS"">kNuaYbN</p>","","","","","","","",""
"html-keyboard-response","10","73209","0.0-7.0-0.3","5feb64b3341f42bb63200e36","64afc2c9a8732ea92db0087d","64afd84b2278b5a2a9cb4704","null","null","<p style=""font-size: 60px; font-family: BACS"">JmvmOkGua</p>","","","","","","","",""
"html-keyboard-response","11","74211","0.0-7.0-0.4","5feb64b3341f42bb63200e36","64afc2c9a8732ea92db0087d","64afd84b2278b5a2a9cb4704","null","null","<p style=""font-size: 60px; font-family: BACS"">CYPcTbk</p>","","","","","","","",""
"html-keyboard-response","12","75222","0.0-7.0-0.5","5feb64b3341f42bb63200e36","64afc2c9a8732ea92db0087d","64afd84b2278b5a2a9cb4704","null","null","<p style=""font-size: 60px; font-family: BACS"">uQuZckGua</p>","","","","","","","",""
"html-keyboard-response","13","76224","0.0-7.0-0.6","5feb64b3341f42bb63200e36","64afc2c9a8732ea92db0087d","64afd84b2278b5a2a9cb4704","null","null","<p style=""font-size: 60px; font-family: BACS"">ldAaYbN</p>","","","","","","","",""
"html-keyboard-response","14","77229","0.0-7.0-0.7","5feb64b3341f42bb63200e36","64afc2c9a8732ea92db0087d","64afd84b2278b5a2a9cb4704","null","null","<p style=""font-size: 60px; font-family: BACS"">NJZluda</p>","","","","","","","",""
"html-keyboard-response","15","78239","0.0-7.0-0.8","5feb64b3341f42bb63200e36","64afc2c9a8732ea92db0087d","64afd84b2278b5a2a9cb4704","null","null","<p style=""font-size: 60px; font-family: BACS"">DOBhYmCd</p>","","","","","","","",""
"html-keyboard-response","16","79244","0.0-7.0-0.9","5feb64b3341f42bb63200e36","64afc2c9a8732ea92db0087d","64afd84b2278b5a2a9cb4704","null","null","<p style=""font-size: 60px; font-family: BACS"">MhKdTPOM</p>","","","","","","","",""
"html-keyboard-response","17","80249","0.0-7.0-0.10","5feb64b3341f42bb63200e36","64afc2c9a8732ea92db0087d","64afd84b2278b5a2a9cb4704","null","null","<p style=""font-size: 60px; font-family: BACS"">GLYrAuda</p>","","","","","","","",""
"html-keyboard-response","18","81251","0.0-7.0-0.11","5feb64b3341f42bb63200e36","64afc2c9a8732ea92db0087d","64afd84b2278b5a2a9cb4704","null","null","<p style=""font-size: 60px; font-family: BACS"">lRCBtAY</p>","","","","","","","",""
"html-keyboard-response","19","82259","0.0-7.0-0.12","5feb64b3341f42bb63200e36","64afc2c9a8732ea92db0087d","64afd84b2278b5a2a9cb4704","null","null","<p style=""font-size: 60px; font-family: BACS"">vYLUuda</p>","","","","","","","",""
"html-keyboard-response","20","83270","0.0-7.0-0.13","5feb64b3341f42bb63200e36","64afc2c9a8732ea92db0087d","64afd84b2278b5a2a9cb4704","null","null","<p style=""font-size: 60px; font-family: BACS"">lRCBTPOM</p>","","","","","","","",""
"html-keyboard-response","21","84286","0.0-7.0-0.14","5feb64b3341f42bb63200e36","64afc2c9a8732ea92db0087d","64afd84b2278b5a2a9cb4704","null","null","<p style=""font-size: 60px; font-family: BACS"">GJGcZkGua</p>","","","","","","","",""
"html-keyboard-response","22","85301","0.0-7.0-0.15","5feb64b3341f42bb63200e36","64afc2c9a8732ea92db0087d","64afd84b2278b5a2a9cb4704","null","null","<p style=""font-size: 60px; font-family: BACS"">MhKdmhc</p>","","","","","","","",""
"html-keyboard-response","23","86304","0.0-7.0-0.16","5feb64b3341f42bb63200e36","64afc2c9a8732ea92db0087d","64afd84b2278b5a2a9cb4704","null","null","<p style=""font-size: 60px; font-family: BACS"">BECkTbk</p>","","","","","","","",""
"html-keyboard-response","24","87311","0.0-7.0-0.17","5feb64b3341f42bb63200e36","64afc2c9a8732ea92db0087d","64afd84b2278b5a2a9cb4704","null","null","<p style=""font-size: 60px; font-family: BACS"">GJGcZYbN</p>","","","","","","","",""
"html-keyboard-response","25","88312","0.0-7.0-0.18","5feb64b3341f42bb63200e36","64afc2c9a8732ea92db0087d","64afd84b2278b5a2a9cb4704","null","null","<p style=""font-size: 60px; font-family: BACS"">lRCBmhc</p>","","","","","","","",""
"html-keyboard-response","26","89327","0.0-7.0-0.19","5feb64b3341f42bb63200e36","64afc2c9a8732ea92db0087d","64afd84b2278b5a2a9cb4704","null","null","<p style=""font-size: 60px; font-family: BACS"">TCbDCmCd</p>","","","","","","","",""
"html-keyboard-response","27","90331","0.0-7.0-0.20","5feb64b3341f42bb63200e36","64afc2c9a8732ea92db0087d","64afd84b2278b5a2a9cb4704","null","null","<p style=""font-size: 60px; font-family: BACS"">EYtYRTbk</p>","","","","","","","",""
"html-keyboard-response","28","91337","0.0-7.0-0.21","5feb64b3341f42bb63200e36","64afc2c9a8732ea92db0087d","64afd84b2278b5a2a9cb4704","null","null","<p style=""font-size: 60px; font-family: BACS"">lhCTCmhc</p>","","","","","","","",""
"html-keyboard-response","29","92352","0.0-7.0-0.22","5feb64b3341f42bb63200e36","64afc2c9a8732ea92db0087d","64afd84b2278b5a2a9cb4704","null","null","<p style=""font-size: 60px; font-family: BACS"">vYLUQru</p>","","","","","","","",""
"html-keyboard-response","30","93362","0.0-7.0-0.23","5feb64b3341f42bb63200e36","64afc2c9a8732ea92db0087d","64afd84b2278b5a2a9cb4704","null","null","<p style=""font-size: 60px; font-family: BACS"">dMYBPTPOM</p>","","","","","","","",""
"html-keyboard-response","31","94369","0.0-7.0-0.24","5feb64b3341f42bb63200e36","64afc2c9a8732ea92db0087d","64afd84b2278b5a2a9cb4704","null","null","<p style=""font-size: 60px; font-family: BACS"">kNuaQru</p>","","","","","","","",""
"html-keyboard-response","32","95377","0.0-7.0-0.25","5feb64b3341f42bb63200e36","64afc2c9a8732ea92db0087d","64afd84b2278b5a2a9cb4704","null","null","<p style=""font-size: 60px; font-family: BACS"">NJZlYbN</p>","","","","","","","",""
"html-keyboard-response","33","96379","0.0-7.0-0.26","5feb64b3341f42bb63200e36","64afc2c9a8732ea92db0087d","64afd84b2278b5a2a9cb4704","null","null","<p style=""font-size: 60px; font-family: BACS"">JmvmOQru</p>","","","","","","","",""
"html-keyboard-response","34","97391","0.0-7.0-0.27","5feb64b3341f42bb63200e36","64afc2c9a8732ea92db0087d","64afd84b2278b5a2a9cb4704","null","null","<p style=""font-size: 60px; font-family: BACS"">kbmZOuda</p>","","","","","","","",""
"html-keyboard-response","35","98393","0.0-7.0-0.28","5feb64b3341f42bb63200e36","64afc2c9a8732ea92db0087d","64afd84b2278b5a2a9cb4704","null","null","<p style=""font-size: 60px; font-family: BACS"">BECkmCd</p>","","","","","","","",""
"html-keyboard-response","36","99397","0.0-7.0-0.29","5feb64b3341f42bb63200e36","64afc2c9a8732ea92db0087d","64afd84b2278b5a2a9cb4704","null","null","<p style=""font-size: 60px; font-family: BACS"">vYLUYZUZ</p>","","","","","","","",""
"html-keyboard-response","37","100400","0.0-7.0-0.30","5feb64b3341f42bb63200e36","64afc2c9a8732ea92db0087d","64afd84b2278b5a2a9cb4704","null","null","<p style=""font-size: 60px; font-family: BACS"">MhKdtAY</p>","","","","","","","",""
"html-keyboard-response","38","101406","0.0-7.0-0.31","5feb64b3341f42bb63200e36","64afc2c9a8732ea92db0087d","64afd84b2278b5a2a9cb4704","null","null","<p style=""font-size: 60px; font-family: BACS"">lhCTCTbk</p>","","","","","","","",""
"html-keyboard-response","39","102413","0.0-7.0-0.32","5feb64b3341f42bb63200e36","64afc2c9a8732ea92db0087d","64afd84b2278b5a2a9cb4704","null","null","<p style=""font-size: 60px; font-family: BACS"">kNuakGua</p>","","","","","","","",""
"html-keyboard-response","40","103426","0.0-7.0-0.33","5feb64b3341f42bb63200e36","64afc2c9a8732ea92db0087d","64afd84b2278b5a2a9cb4704","null","null","<p style=""font-size: 60px; font-family: BACS"">NJZlQru</p>","","","","","","","",""
"html-keyboard-response","41","104430","0.0-7.0-0.34","5feb64b3341f42bb63200e36","64afc2c9a8732ea92db0087d","64afd84b2278b5a2a9cb4704","null","null","<p style=""font-size: 60px; font-family: BACS"">GLYrAYZUZ</p>","","","","","","","",""
"html-keyboard-response","42","105433","0.0-7.0-0.35","5feb64b3341f42bb63200e36","64afc2c9a8732ea92db0087d","64afd84b2278b5a2a9cb4704","null","null","<p style=""font-size: 60px; font-family: BACS"">TCbDCTbk</p>","","","","","","","",""
"html-keyboard-response","43","106437","0.0-7.0-0.36","5feb64b3341f42bb63200e36","64afc2c9a8732ea92db0087d","64afd84b2278b5a2a9cb4704","null","null","<p style=""font-size: 60px; font-family: BACS"">lRCBmCd</p>","","","","","","","",""
"html-keyboard-response","44","107439","0.0-7.0-0.37","5feb64b3341f42bb63200e36","64afc2c9a8732ea92db0087d","64afd84b2278b5a2a9cb4704","null","null","<p style=""font-size: 60px; font-family: BACS"">mLdkZYbN</p>","","","","","","","",""
"html-keyboard-response","45","108450","0.0-7.0-0.38","5feb64b3341f42bb63200e36","64afc2c9a8732ea92db0087d","64afd84b2278b5a2a9cb4704","null","null","<p style=""font-size: 60px; font-family: BACS"">CYPcmCd</p>","","","","","","","",""
"html-keyboard-response","46","109466","0.0-7.0-0.39","5feb64b3341f42bb63200e36","64afc2c9a8732ea92db0087d","64afd84b2278b5a2a9cb4704","null","null","<p style=""font-size: 60px; font-family: BACS"">kbmZOkGua</p>","","","","","","","",""
"html-keyboard-response","47","110469","0.0-7.0-0.40","5feb64b3341f42bb63200e36","64afc2c9a8732ea92db0087d","64afd84b2278b5a2a9cb4704","null","null","<p style=""font-size: 60px; font-family: BACS"">mLdkZuda</p>","","","","","","","",""
"html-keyboard-response","48","111476","0.0-7.0-0.41","5feb64b3341f42bb63200e36","64afc2c9a8732ea92db0087d","64afd84b2278b5a2a9cb4704","null","null","<p style=""font-size: 60px; font-family: BACS"">lhCTCtAY</p>","","","","","","","",""
"html-keyboard-response","49","112491","0.0-7.0-0.42","5feb64b3341f42bb63200e36","64afc2c9a8732ea92db0087d","64afd84b2278b5a2a9cb4704","null","null","<p style=""font-size: 60px; font-family: BACS"">vYLUYbN</p>","","","","","","","",""
"html-keyboard-response","50","113499","0.0-7.0-0.43","5feb64b3341f42bb63200e36","64afc2c9a8732ea92db0087d","64afd84b2278b5a2a9cb4704","null","null","<p style=""font-size: 60px; font-family: BACS"">EYtYRtAY</p>","","","","","","","",""
"html-keyboard-response","51","114502","0.0-7.0-0.44","5feb64b3341f42bb63200e36","64afc2c9a8732ea92db0087d","64afd84b2278b5a2a9cb4704","null","null","<p style=""font-size: 60px; font-family: BACS"">kKRCmCd</p>","","","","","","","",""
"html-keyboard-response","52","115516","0.0-7.0-0.45","5feb64b3341f42bb63200e36","64afc2c9a8732ea92db0087d","64afd84b2278b5a2a9cb4704","null","null","<p style=""font-size: 60px; font-family: BACS"">EYtYRTPOM</p>","","","","","","","",""
"html-keyboard-response","53","116522","0.0-7.0-0.46","5feb64b3341f42bb63200e36","64afc2c9a8732ea92db0087d","64afd84b2278b5a2a9cb4704","null","null","<p style=""font-size: 60px; font-family: BACS"">ldAakGua</p>","","","","","","","",""
"html-keyboard-response","54","117525","0.0-7.0-0.47","5feb64b3341f42bb63200e36","64afc2c9a8732ea92db0087d","64afd84b2278b5a2a9cb4704","null","null","<p style=""font-size: 60px; font-family: BACS"">kKRCmhc</p>","","","","","","","",""
"html-keyboard-response","55","118529","0.0-7.0-0.48","5feb64b3341f42bb63200e36","64afc2c9a8732ea92db0087d","64afd84b2278b5a2a9cb4704","null","null","<p style=""font-size: 60px; font-family: BACS"">GJGcZYZUZ</p>","","","","","","","",""
"html-keyboard-response","56","119535","0.0-7.0-0.49","5feb64b3341f42bb63200e36","64afc2c9a8732ea92db0087d","64afd84b2278b5a2a9cb4704","null","null","<p style=""font-size: 60px; font-family: BACS"">lhCTCmCd</p>","","","","","","","",""
"html-keyboard-response","57","120540","0.0-7.0-0.50","5feb64b3341f42bb63200e36","64afc2c9a8732ea92db0087d","64afd84b2278b5a2a9cb4704","null","null","<p style=""font-size: 60px; font-family: BACS"">uQuZcYbN</p>","","","","","","","",""
"html-keyboard-response","58","121545","0.0-7.0-0.51","5feb64b3341f42bb63200e36","64afc2c9a8732ea92db0087d","64afd84b2278b5a2a9cb4704","null","null","<p style=""font-size: 60px; font-family: BACS"">NJZlYZUZ</p>","","","","","","","",""
"html-keyboard-response","59","122549","0.0-7.0-0.52","5feb64b3341f42bb63200e36","64afc2c9a8732ea92db0087d","64afd84b2278b5a2a9cb4704","null","null","<p style=""font-size: 60px; font-family: BACS"">BECktAY</p>","","","","","","","",""
"html-keyboard-response","60","123565","0.0-7.0-0.53","5feb64b3341f42bb63200e36","64afc2c9a8732ea92db0087d","64afd84b2278b5a2a9cb4704","null","null","<p style=""font-size: 60px; font-family: BACS"">TCbDCmhc</p>","","","","","","","",""
"html-keyboard-response","61","124580","0.0-7.0-0.54","5feb64b3341f42bb63200e36","64afc2c9a8732ea92db0087d","64afd84b2278b5a2a9cb4704","null","null","<p style=""font-size: 60px; font-family: BACS"">DOBhYTbk</p>","","","","","","","",""
"html-keyboard-response","62","125581","0.0-7.0-0.55","5feb64b3341f42bb63200e36","64afc2c9a8732ea92db0087d","64afd84b2278b5a2a9cb4704","null","null","<p style=""font-size: 60px; font-family: BACS"">uQuZcQru</p>","","","","","","","",""
"html-keyboard-response","63","126585","0.0-7.0-0.56","5feb64b3341f42bb63200e36","64afc2c9a8732ea92db0087d","64afd84b2278b5a2a9cb4704","null","null","<p style=""font-size: 60px; font-family: BACS"">dMYBPTbk</p>","","","","","","","",""
"html-keyboard-response","64","127593","0.0-7.0-0.57","5feb64b3341f42bb63200e36","64afc2c9a8732ea92db0087d","64afd84b2278b5a2a9cb4704","null","null","<p style=""font-size: 60px; font-family: BACS"">DOBhYTPOM</p>","","","","","","","",""
"html-keyboard-response","65","128610","0.0-7.0-0.58","5feb64b3341f42bb63200e36","64afc2c9a8732ea92db0087d","64afd84b2278b5a2a9cb4704","null","null","<p style=""font-size: 60px; font-family: BACS"">CYPctAY</p>","","","","","","","",""
"html-keyboard-response","66","129625","0.0-7.0-0.59","5feb64b3341f42bb63200e36","64afc2c9a8732ea92db0087d","64afd84b2278b5a2a9cb4704","null","null","<p style=""font-size: 60px; font-family: BACS"">dMYBPmhc</p>","","","","","","","",""
"html-keyboard-response","67","130639","0.0-7.0-0.60","5feb64b3341f42bb63200e36","64afc2c9a8732ea92db0087d","64afd84b2278b5a2a9cb4704","null","null","<p style=""font-size: 60px; font-family: BACS"">kKRCTPOM</p>","","","","","","","",""
"html-keyboard-response","68","131646","0.0-7.0-0.61","5feb64b3341f42bb63200e36","64afc2c9a8732ea92db0087d","64afd84b2278b5a2a9cb4704","null","null","<p style=""font-size: 60px; font-family: BACS"">kbmZOYZUZ</p>","","","","","","","",""
"html-keyboard-response","69","132649","0.0-7.0-0.62","5feb64b3341f42bb63200e36","64afc2c9a8732ea92db0087d","64afd84b2278b5a2a9cb4704","null","null","<p style=""font-size: 60px; font-family: BACS"">dMYBPtAY</p>","","","","","","","",""
"html-keyboard-response","70","133654","0.0-7.0-0.63","5feb64b3341f42bb63200e36","64afc2c9a8732ea92db0087d","64afd84b2278b5a2a9cb4704","null","null","<p style=""font-size: 60px; font-family: BACS"">kKRCTbk</p>","","","","","","","",""
"html-keyboard-response","71","134660","0.0-7.0-0.64","5feb64b3341f42bb63200e36","64afc2c9a8732ea92db0087d","64afd84b2278b5a2a9cb4704","null","null","<p style=""font-size: 60px; font-family: BACS"">MhKdmCd</p>","","","","","","","",""
"html-keyboard-response","72","135661","0.0-7.0-0.65","5feb64b3341f42bb63200e36","64afc2c9a8732ea92db0087d","64afd84b2278b5a2a9cb4704","null","null","<p style=""font-size: 60px; font-family: BACS"">TCbDCtAY</p>","","","","","","","",""
"html-keyboard-response","73","136667","0.0-7.0-0.66","5feb64b3341f42bb63200e36","64afc2c9a8732ea92db0087d","64afd84b2278b5a2a9cb4704","null","null","<p style=""font-size: 60px; font-family: BACS"">kNuauda</p>","","","","","","","",""
"html-keyboard-response","74","137672","0.0-7.0-0.67","5feb64b3341f42bb63200e36","64afc2c9a8732ea92db0087d","64afd84b2278b5a2a9cb4704","null","null","<p style=""font-size: 60px; font-family: BACS"">mLdkZkGua</p>","","","","","","","",""
"html-keyboard-response","75","138677","0.0-7.0-0.68","5feb64b3341f42bb63200e36","64afc2c9a8732ea92db0087d","64afd84b2278b5a2a9cb4704","null","null","<p style=""font-size: 60px; font-family: BACS"">CYPcTPOM</p>","","","","","","","",""
"html-keyboard-response","76","139685","0.0-7.0-0.69","5feb64b3341f42bb63200e36","64afc2c9a8732ea92db0087d","64afd84b2278b5a2a9cb4704","null","null","<p style=""font-size: 60px; font-family: BACS"">EYtYRmhc</p>","","","","","","","",""
"html-keyboard-response","77","140691","0.0-7.0-0.70","5feb64b3341f42bb63200e36","64afc2c9a8732ea92db0087d","64afd84b2278b5a2a9cb4704","null","null","<p style=""font-size: 60px; font-family: BACS"">uQuZcYZUZ</p>","","","","","","","",""
"html-keyboard-response","78","141693","0.0-7.0-0.71","5feb64b3341f42bb63200e36","64afc2c9a8732ea92db0087d","64afd84b2278b5a2a9cb4704","null","null","<p style=""font-size: 60px; font-family: BACS"">JmvmOuda</p>","","","","","","","",""
"html-keyboard-response","79","142708","0.0-7.0-0.72","5feb64b3341f42bb63200e36","64afc2c9a8732ea92db0087d","64afd84b2278b5a2a9cb4704","null","null","<p style=""font-size: 60px; font-family: BACS"">GJGcZQru</p>","","","","","","","",""
"html-keyboard-response","80","143713","0.0-7.0-0.73","5feb64b3341f42bb63200e36","64afc2c9a8732ea92db0087d","64afd84b2278b5a2a9cb4704","null","null","<p style=""font-size: 60px; font-family: BACS"">BECkTPOM</p>","","","","","","","",""
"html-keyboard-response","81","144727","0.0-7.0-0.74","5feb64b3341f42bb63200e36","64afc2c9a8732ea92db0087d","64afd84b2278b5a2a9cb4704","null","null","<p style=""font-size: 60px; font-family: BACS"">DOBhYmhc</p>","","","","","","","",""
"html-keyboard-response","82","145729","0.0-7.0-0.75","5feb64b3341f42bb63200e36","64afc2c9a8732ea92db0087d","64afd84b2278b5a2a9cb4704","null","null","<p style=""font-size: 60px; font-family: BACS"">kbmZOQru</p>","","","","","","","",""
"html-keyboard-response","83","146733","0.0-7.0-0.76","5feb64b3341f42bb63200e36","64afc2c9a8732ea92db0087d","64afd84b2278b5a2a9cb4704","null","null","<p style=""font-size: 60px; font-family: BACS"">GLYrAYbN</p>","","","","","","","",""
"html-keyboard-response","84","147736","0.0-7.0-0.77","5feb64b3341f42bb63200e36","64afc2c9a8732ea92db0087d","64afd84b2278b5a2a9cb4704","null","null","<p style=""font-size: 60px; font-family: BACS"">ldAauda</p>","","","","","","","",""
"html-keyboard-response","85","148740","0.0-7.0-0.78","5feb64b3341f42bb63200e36","64afc2c9a8732ea92db0087d","64afd84b2278b5a2a9cb4704","null","null","<p style=""font-size: 60px; font-family: BACS"">JmvmOYZUZ</p>","","","","","","","",""
"html-keyboard-response","86","149755","0.0-7.0-0.79","5feb64b3341f42bb63200e36","64afc2c9a8732ea92db0087d","64afd84b2278b5a2a9cb4704","null","null","<p style=""font-size: 60px; font-family: BACS"">ldAaQru</p>","","","","","","","",""
"html-keyboard-response","87","153222","0.0-8.0","5feb64b3341f42bb63200e36","64afc2c9a8732ea92db0087d","64afd84b2278b5a2a9cb4704","3466"," ","<p>Ottimo, hai visto il primo blocco di parole. Ora puoi prenderti una piccola pausa.</p>
      <p>Premi la barra quando sei pronta/o per riprendere.</p>","","","","","","","",""
"html-keyboard-response","88","154226","0.0-9.0-0.0","5feb64b3341f42bb63200e36","64afc2c9a8732ea92db0087d","64afd84b2278b5a2a9cb4704","null","null","<p style=""font-size: 60px; font-family: BACS"">MhKdtAY</p>","","","","","","","",""
"html-keyboard-response","89","155232","0.0-9.0-0.1","5feb64b3341f42bb63200e36","64afc2c9a8732ea92db0087d","64afd84b2278b5a2a9cb4704","null","null","<p style=""font-size: 60px; font-family: BACS"">kNuauda</p>","","","","","","","",""
"html-keyboard-response","90","156248","0.0-9.0-0.2","5feb64b3341f42bb63200e36","64afc2c9a8732ea92db0087d","64afd84b2278b5a2a9cb4704","null","null","<p style=""font-size: 60px; font-family: BACS"">JmvmOkGua</p>","","","","","","","",""
"html-keyboard-response","91","157254","0.0-9.0-0.3","5feb64b3341f42bb63200e36","64afc2c9a8732ea92db0087d","64afd84b2278b5a2a9cb4704","null","null","<p style=""font-size: 60px; font-family: BACS"">uQuZcYbN</p>","","","","","","","",""
"html-keyboard-response","92","158261","0.0-9.0-0.4","5feb64b3341f42bb63200e36","64afc2c9a8732ea92db0087d","64afd84b2278b5a2a9cb4704","null","null","<p style=""font-size: 60px; font-family: BACS"">TCbDCTbk</p>","","","","","","","",""
"html-keyboard-response","93","159265","0.0-9.0-0.5","5feb64b3341f42bb63200e36","64afc2c9a8732ea92db0087d","64afd84b2278b5a2a9cb4704","null","null","<p style=""font-size: 60px; font-family: BACS"">kbmZOuda</p>","","","","","","","",""
"html-keyboard-response","94","160279","0.0-9.0-0.6","5feb64b3341f42bb63200e36","64afc2c9a8732ea92db0087d","64afd84b2278b5a2a9cb4704","null","null","<p style=""font-size: 60px; font-family: BACS"">mLdkZYbN</p>","","","","","","","",""
"html-keyboard-response","95","161282","0.0-9.0-0.7","5feb64b3341f42bb63200e36","64afc2c9a8732ea92db0087d","64afd84b2278b5a2a9cb4704","null","null","<p style=""font-size: 60px; font-family: BACS"">GJGcZkGua</p>","","","","","","","",""
"html-keyboard-response","96","162289","0.0-9.0-0.8","5feb64b3341f42bb63200e36","64afc2c9a8732ea92db0087d","64afd84b2278b5a2a9cb4704","null","null","<p style=""font-size: 60px; font-family: BACS"">vYLUQru</p>","","","","","","","",""
"html-keyboard-response","97","163291","0.0-9.0-0.9","5feb64b3341f42bb63200e36","64afc2c9a8732ea92db0087d","64afd84b2278b5a2a9cb4704","null","null","<p style=""font-size: 60px; font-family: BACS"">kKRCmhc</p>","","","","","","","",""
"html-keyboard-response","98","164307","0.0-9.0-0.10","5feb64b3341f42bb63200e36","64afc2c9a8732ea92db0087d","64afd84b2278b5a2a9cb4704","null","null","<p style=""font-size: 60px; font-family: BACS"">lRCBTPOM</p>","","","","","","","",""
"html-keyboard-response","99","165314","0.0-9.0-0.11","5feb64b3341f42bb63200e36","64afc2c9a8732ea92db0087d","64afd84b2278b5a2a9cb4704","null","null","<p style=""font-size: 60px; font-family: BACS"">EYtYRTbk</p>","","","","","","","",""
"html-keyboard-response","100","166317","0.0-9.0-0.12","5feb64b3341f42bb63200e36","64afc2c9a8732ea92db0087d","64afd84b2278b5a2a9cb4704","null","null","<p style=""font-size: 60px; font-family: BACS"">CYPcTPOM</p>","","","","","","","",""
"html-keyboard-response","101","167322","0.0-9.0-0.13","5feb64b3341f42bb63200e36","64afc2c9a8732ea92db0087d","64afd84b2278b5a2a9cb4704","null","null","<p style=""font-size: 60px; font-family: BACS"">TCbDCmhc</p>","","","","","","","",""
"html-keyboard-response","102","168325","0.0-9.0-0.14","5feb64b3341f42bb63200e36","64afc2c9a8732ea92db0087d","64afd84b2278b5a2a9cb4704","null","null","<p style=""font-size: 60px; font-family: BACS"">MhKdTPOM</p>","","","","","","","",""
"html-keyboard-response","103","169328","0.0-9.0-0.15","5feb64b3341f42bb63200e36","64afc2c9a8732ea92db0087d","64afd84b2278b5a2a9cb4704","null","null","<p style=""font-size: 60px; font-family: BACS"">uQuZckGua</p>","","","","","","","",""
"html-keyboard-response","104","170338","0.0-9.0-0.16","5feb64b3341f42bb63200e36","64afc2c9a8732ea92db0087d","64afd84b2278b5a2a9cb4704","null","null","<p style=""font-size: 60px; font-family: BACS"">lhCTCmCd</p>","","","","","","","",""
"html-keyboard-response","105","171354","0.0-9.0-0.17","5feb64b3341f42bb63200e36","64afc2c9a8732ea92db0087d","64afd84b2278b5a2a9cb4704","null","null","<p style=""font-size: 60px; font-family: BACS"">kNuaQru</p>","","","","","","","",""
"html-keyboard-response","106","172370","0.0-9.0-0.18","5feb64b3341f42bb63200e36","64afc2c9a8732ea92db0087d","64afd84b2278b5a2a9cb4704","null","null","<p style=""font-size: 60px; font-family: BACS"">GLYrAYbN</p>","","","","","","","",""
"html-keyboard-response","107","173374","0.0-9.0-0.19","5feb64b3341f42bb63200e36","64afc2c9a8732ea92db0087d","64afd84b2278b5a2a9cb4704","null","null","<p style=""font-size: 60px; font-family: BACS"">DOBhYmCd</p>","","","","","","","",""
"html-keyboard-response","108","174390","0.0-9.0-0.20","5feb64b3341f42bb63200e36","64afc2c9a8732ea92db0087d","64afd84b2278b5a2a9cb4704","null","null","<p style=""font-size: 60px; font-family: BACS"">mLdkZYZUZ</p>","","","","","","","",""
"html-keyboard-response","109","175395","0.0-9.0-0.21","5feb64b3341f42bb63200e36","64afc2c9a8732ea92db0087d","64afd84b2278b5a2a9cb4704","null","null","<p style=""font-size: 60px; font-family: BACS"">JmvmOQru</p>","","","","","","","",""
"html-keyboard-response","110","176397","0.0-9.0-0.22","5feb64b3341f42bb63200e36","64afc2c9a8732ea92db0087d","64afd84b2278b5a2a9cb4704","null","null","<p style=""font-size: 60px; font-family: BACS"">BECktAY</p>","","","","","","","",""
"html-keyboard-response","111","177410","0.0-9.0-0.23","5feb64b3341f42bb63200e36","64afc2c9a8732ea92db0087d","64afd84b2278b5a2a9cb4704","null","null","<p style=""font-size: 60px; font-family: BACS"">dMYBPTbk</p>","","","","","","","",""
"html-keyboard-response","112","178415","0.0-9.0-0.24","5feb64b3341f42bb63200e36","64afc2c9a8732ea92db0087d","64afd84b2278b5a2a9cb4704","null","null","<p style=""font-size: 60px; font-family: BACS"">vYLUuda</p>","","","","","","","",""
"html-keyboard-response","113","179419","0.0-9.0-0.25","5feb64b3341f42bb63200e36","64afc2c9a8732ea92db0087d","64afd84b2278b5a2a9cb4704","null","null","<p style=""font-size: 60px; font-family: BACS"">dMYBPtAY</p>","","","","","","","",""
"html-keyboard-response","114","180427","0.0-9.0-0.26","5feb64b3341f42bb63200e36","64afc2c9a8732ea92db0087d","64afd84b2278b5a2a9cb4704","null","null","<p style=""font-size: 60px; font-family: BACS"">TCbDCmCd</p>","","","","","","","",""
"html-keyboard-response","115","181429","0.0-9.0-0.27","5feb64b3341f42bb63200e36","64afc2c9a8732ea92db0087d","64afd84b2278b5a2a9cb4704","null","null","<p style=""font-size: 60px; font-family: BACS"">ldAaYbN</p>","","","","","","","",""
"html-keyboard-response","116","182434","0.0-9.0-0.28","5feb64b3341f42bb63200e36","64afc2c9a8732ea92db0087d","64afd84b2278b5a2a9cb4704","null","null","<p style=""font-size: 60px; font-family: BACS"">mLdkZuda</p>","","","","","","","",""
"html-keyboard-response","117","183435","0.0-9.0-0.29","5feb64b3341f42bb63200e36","64afc2c9a8732ea92db0087d","64afd84b2278b5a2a9cb4704","null","null","<p style=""font-size: 60px; font-family: BACS"">NJZlYZUZ</p>","","","","","","","",""
"html-keyboard-response","118","184449","0.0-9.0-0.30","5feb64b3341f42bb63200e36","64afc2c9a8732ea92db0087d","64afd84b2278b5a2a9cb4704","null","null","<p style=""font-size: 60px; font-family: BACS"">DOBhYmhc</p>","","","","","","","",""
"html-keyboard-response","119","185452","0.0-9.0-0.31","5feb64b3341f42bb63200e36","64afc2c9a8732ea92db0087d","64afd84b2278b5a2a9cb4704","null","null","<p style=""font-size: 60px; font-family: BACS"">CYPctAY</p>","","","","","","","",""
"html-keyboard-response","120","186461","0.0-9.0-0.32","5feb64b3341f42bb63200e36","64afc2c9a8732ea92db0087d","64afd84b2278b5a2a9cb4704","null","null","<p style=""font-size: 60px; font-family: BACS"">NJZluda</p>","","","","","","","",""
"html-keyboard-response","121","187467","0.0-9.0-0.33","5feb64b3341f42bb63200e36","64afc2c9a8732ea92db0087d","64afd84b2278b5a2a9cb4704","null","null","<p style=""font-size: 60px; font-family: BACS"">ldAaQru</p>","","","","","","","",""
"html-keyboard-response","122","188473","0.0-9.0-0.34","5feb64b3341f42bb63200e36","64afc2c9a8732ea92db0087d","64afd84b2278b5a2a9cb4704","null","null","<p style=""font-size: 60px; font-family: BACS"">JmvmOYZUZ</p>","","","","","","","",""
"html-keyboard-response","123","189480","0.0-9.0-0.35","5feb64b3341f42bb63200e36","64afc2c9a8732ea92db0087d","64afd84b2278b5a2a9cb4704","null","null","<p style=""font-size: 60px; font-family: BACS"">vYLUYbN</p>","","","","","","","",""
"html-keyboard-response","124","190485","0.0-9.0-0.36","5feb64b3341f42bb63200e36","64afc2c9a8732ea92db0087d","64afd84b2278b5a2a9cb4704","null","null","<p style=""font-size: 60px; font-family: BACS"">EYtYRTPOM</p>","","","","","","","",""
"html-keyboard-response","125","191486","0.0-9.0-0.37","5feb64b3341f42bb63200e36","64afc2c9a8732ea92db0087d","64afd84b2278b5a2a9cb4704","null","null","<p style=""font-size: 60px; font-family: BACS"">CYPcmCd</p>","","","","","","","",""
"html-keyboard-response","126","192488","0.0-9.0-0.38","5feb64b3341f42bb63200e36","64afc2c9a8732ea92db0087d","64afd84b2278b5a2a9cb4704","null","null","<p style=""font-size: 60px; font-family: BACS"">NJZlQru</p>","","","","","","","",""
"html-keyboard-response","127","193502","0.0-9.0-0.39","5feb64b3341f42bb63200e36","64afc2c9a8732ea92db0087d","64afd84b2278b5a2a9cb4704","null","null","<p style=""font-size: 60px; font-family: BACS"">kKRCTPOM</p>","","","","","","","",""
"html-keyboard-response","128","194518","0.0-9.0-0.40","5feb64b3341f42bb63200e36","64afc2c9a8732ea92db0087d","64afd84b2278b5a2a9cb4704","null","null","<p style=""font-size: 60px; font-family: BACS"">GLYrAuda</p>","","","","","","","",""
"html-keyboard-response","129","195529","0.0-9.0-0.41","5feb64b3341f42bb63200e36","64afc2c9a8732ea92db0087d","64afd84b2278b5a2a9cb4704","null","null","<p style=""font-size: 60px; font-family: BACS"">GJGcZQru</p>","","","","","","","",""
"html-keyboard-response","130","196533","0.0-9.0-0.42","5feb64b3341f42bb63200e36","64afc2c9a8732ea92db0087d","64afd84b2278b5a2a9cb4704","null","null","<p style=""font-size: 60px; font-family: BACS"">MhKdmhc</p>","","","","","","","",""
"html-keyboard-response","131","197536","0.0-9.0-0.43","5feb64b3341f42bb63200e36","64afc2c9a8732ea92db0087d","64afd84b2278b5a2a9cb4704","null","null","<p style=""font-size: 60px; font-family: BACS"">kKRCmCd</p>","","","","","","","",""
"html-keyboard-response","132","198544","0.0-9.0-0.44","5feb64b3341f42bb63200e36","64afc2c9a8732ea92db0087d","64afd84b2278b5a2a9cb4704","null","null","<p style=""font-size: 60px; font-family: BACS"">dMYBPTPOM</p>","","","","","","","",""
"html-keyboard-response","133","199549","0.0-9.0-0.45","5feb64b3341f42bb63200e36","64afc2c9a8732ea92db0087d","64afd84b2278b5a2a9cb4704","null","null","<p style=""font-size: 60px; font-family: BACS"">uQuZcQru</p>","","","","","","","",""
"html-keyboard-response","134","200560","0.0-9.0-0.46","5feb64b3341f42bb63200e36","64afc2c9a8732ea92db0087d","64afd84b2278b5a2a9cb4704","null","null","<p style=""font-size: 60px; font-family: BACS"">mLdkZkGua</p>","","","","","","","",""
"html-keyboard-response","135","201577","0.0-9.0-0.47","5feb64b3341f42bb63200e36","64afc2c9a8732ea92db0087d","64afd84b2278b5a2a9cb4704","null","null","<p style=""font-size: 60px; font-family: BACS"">dMYBPmhc</p>","","","","","","","",""
"html-keyboard-response","136","202591","0.0-9.0-0.48","5feb64b3341f42bb63200e36","64afc2c9a8732ea92db0087d","64afd84b2278b5a2a9cb4704","null","null","<p style=""font-size: 60px; font-family: BACS"">GJGcZYZUZ</p>","","","","","","","",""
"html-keyboard-response","137","203605","0.0-9.0-0.49","5feb64b3341f42bb63200e36","64afc2c9a8732ea92db0087d","64afd84b2278b5a2a9cb4704","null","null","<p style=""font-size: 60px; font-family: BACS"">MhKdmCd</p>","","","","","","","",""
"html-keyboard-response","138","204608","0.0-9.0-0.50","5feb64b3341f42bb63200e36","64afc2c9a8732ea92db0087d","64afd84b2278b5a2a9cb4704","null","null","<p style=""font-size: 60px; font-family: BACS"">kbmZOkGua</p>","","","","","","","",""
"html-keyboard-response","139","205623","0.0-9.0-0.51","5feb64b3341f42bb63200e36","64afc2c9a8732ea92db0087d","64afd84b2278b5a2a9cb4704","null","null","<p style=""font-size: 60px; font-family: BACS"">lRCBmCd</p>","","","","","","","",""
"html-keyboard-response","140","206627","0.0-9.0-0.52","5feb64b3341f42bb63200e36","64afc2c9a8732ea92db0087d","64afd84b2278b5a2a9cb4704","null","null","<p style=""font-size: 60px; font-family: BACS"">BECkTPOM</p>","","","","","","","",""
"html-keyboard-response","141","207636","0.0-9.0-0.53","5feb64b3341f42bb63200e36","64afc2c9a8732ea92db0087d","64afd84b2278b5a2a9cb4704","null","null","<p style=""font-size: 60px; font-family: BACS"">CYPcTbk</p>","","","","","","","",""
"html-keyboard-response","142","208646","0.0-9.0-0.54","5feb64b3341f42bb63200e36","64afc2c9a8732ea92db0087d","64afd84b2278b5a2a9cb4704","null","null","<p style=""font-size: 60px; font-family: BACS"">EYtYRmhc</p>","","","","","","","",""
"html-keyboard-response","143","209653","0.0-9.0-0.55","5feb64b3341f42bb63200e36","64afc2c9a8732ea92db0087d","64afd84b2278b5a2a9cb4704","null","null","<p style=""font-size: 60px; font-family: BACS"">GLYrAYZUZ</p>","","","","","","","",""
"html-keyboard-response","144","210657","0.0-9.0-0.56","5feb64b3341f42bb63200e36","64afc2c9a8732ea92db0087d","64afd84b2278b5a2a9cb4704","null","null","<p style=""font-size: 60px; font-family: BACS"">DOBhYTbk</p>","","","","","","","",""
"html-keyboard-response","145","211662","0.0-9.0-0.57","5feb64b3341f42bb63200e36","64afc2c9a8732ea92db0087d","64afd84b2278b5a2a9cb4704","null","null","<p style=""font-size: 60px; font-family: BACS"">GJGcZYbN</p>","","","","","","","",""
"html-keyboard-response","146","212674","0.0-9.0-0.58","5feb64b3341f42bb63200e36","64afc2c9a8732ea92db0087d","64afd84b2278b5a2a9cb4704","null","null","<p style=""font-size: 60px; font-family: BACS"">lRCBmhc</p>","","","","","","","",""
"html-keyboard-response","147","213677","0.0-9.0-0.59","5feb64b3341f42bb63200e36","64afc2c9a8732ea92db0087d","64afd84b2278b5a2a9cb4704","null","null","<p style=""font-size: 60px; font-family: BACS"">lhCTCtAY</p>","","","","","","","",""
"html-keyboard-response","148","214690","0.0-9.0-0.60","5feb64b3341f42bb63200e36","64afc2c9a8732ea92db0087d","64afd84b2278b5a2a9cb4704","null","null","<p style=""font-size: 60px; font-family: BACS"">BECkmCd</p>","","","","","","","",""
"html-keyboard-response","149","215698","0.0-9.0-0.61","5feb64b3341f42bb63200e36","64afc2c9a8732ea92db0087d","64afd84b2278b5a2a9cb4704","null","null","<p style=""font-size: 60px; font-family: BACS"">kNuaYbN</p>","","","","","","","",""
"html-keyboard-response","150","216699","0.0-9.0-0.62","5feb64b3341f42bb63200e36","64afc2c9a8732ea92db0087d","64afd84b2278b5a2a9cb4704","null","null","<p style=""font-size: 60px; font-family: BACS"">kbmZOQru</p>","","","","","","","",""
"html-keyboard-response","151","217714","0.0-9.0-0.63","5feb64b3341f42bb63200e36","64afc2c9a8732ea92db0087d","64afd84b2278b5a2a9cb4704","null","null","<p style=""font-size: 60px; font-family: BACS"">DOBhYTPOM</p>","","","","","","","",""
"html-keyboard-response","152","218721","0.0-9.0-0.64","5feb64b3341f42bb63200e36","64afc2c9a8732ea92db0087d","64afd84b2278b5a2a9cb4704","null","null","<p style=""font-size: 60px; font-family: BACS"">ldAakGua</p>","","","","","","","",""
"html-keyboard-response","153","219724","0.0-9.0-0.65","5feb64b3341f42bb63200e36","64afc2c9a8732ea92db0087d","64afd84b2278b5a2a9cb4704","null","null","<p style=""font-size: 60px; font-family: BACS"">EYtYRtAY</p>","","","","","","","",""
"html-keyboard-response","154","220739","0.0-9.0-0.66","5feb64b3341f42bb63200e36","64afc2c9a8732ea92db0087d","64afd84b2278b5a2a9cb4704","null","null","<p style=""font-size: 60px; font-family: BACS"">ldAauda</p>","","","","","","","",""
"html-keyboard-response","155","221741","0.0-9.0-0.67","5feb64b3341f42bb63200e36","64afc2c9a8732ea92db0087d","64afd84b2278b5a2a9cb4704","null","null","<p style=""font-size: 60px; font-family: BACS"">lRCBtAY</p>","","","","","","","",""
"html-keyboard-response","156","222742","0.0-9.0-0.68","5feb64b3341f42bb63200e36","64afc2c9a8732ea92db0087d","64afd84b2278b5a2a9cb4704","null","null","<p style=""font-size: 60px; font-family: BACS"">BECkTbk</p>","","","","","","","",""
"html-keyboard-response","157","223743","0.0-9.0-0.69","5feb64b3341f42bb63200e36","64afc2c9a8732ea92db0087d","64afd84b2278b5a2a9cb4704","null","null","<p style=""font-size: 60px; font-family: BACS"">JmvmOuda</p>","","","","","","","",""
"html-keyboard-response","158","224759","0.0-9.0-0.70","5feb64b3341f42bb63200e36","64afc2c9a8732ea92db0087d","64afd84b2278b5a2a9cb4704","null","null","<p style=""font-size: 60px; font-family: BACS"">TCbDCtAY</p>","","","","","","","",""
"html-keyboard-response","159","225770","0.0-9.0-0.71","5feb64b3341f42bb63200e36","64afc2c9a8732ea92db0087d","64afd84b2278b5a2a9cb4704","null","null","<p style=""font-size: 60px; font-family: BACS"">kbmZOYZUZ</p>","","","","","","","",""
"html-keyboard-response","160","226779","0.0-9.0-0.72","5feb64b3341f42bb63200e36","64afc2c9a8732ea92db0087d","64afd84b2278b5a2a9cb4704","null","null","<p style=""font-size: 60px; font-family: BACS"">kNuakGua</p>","","","","","","","",""
"html-keyboard-response","161","227793","0.0-9.0-0.73","5feb64b3341f42bb63200e36","64afc2c9a8732ea92db0087d","64afd84b2278b5a2a9cb4704","null","null","<p style=""font-size: 60px; font-family: BACS"">lhCTCmhc</p>","","","","","","","",""
"html-keyboard-response","162","228805","0.0-9.0-0.74","5feb64b3341f42bb63200e36","64afc2c9a8732ea92db0087d","64afd84b2278b5a2a9cb4704","null","null","<p style=""font-size: 60px; font-family: BACS"">uQuZcYZUZ</p>","","","","","","","",""
"html-keyboard-response","163","229819","0.0-9.0-0.75","5feb64b3341f42bb63200e36","64afc2c9a8732ea92db0087d","64afd84b2278b5a2a9cb4704","null","null","<p style=""font-size: 60px; font-family: BACS"">kKRCTbk</p>","","","","","","","",""
"html-keyboard-response","164","230820","0.0-9.0-0.76","5feb64b3341f42bb63200e36","64afc2c9a8732ea92db0087d","64afd84b2278b5a2a9cb4704","null","null","<p style=""font-size: 60px; font-family: BACS"">NJZlYbN</p>","","","","","","","",""
"html-keyboard-response","165","231822","0.0-9.0-0.77","5feb64b3341f42bb63200e36","64afc2c9a8732ea92db0087d","64afd84b2278b5a2a9cb4704","null","null","<p style=""font-size: 60px; font-family: BACS"">lhCTCTbk</p>","","","","","","","",""
"html-keyboard-response","166","232825","0.0-9.0-0.78","5feb64b3341f42bb63200e36","64afc2c9a8732ea92db0087d","64afd84b2278b5a2a9cb4704","null","null","<p style=""font-size: 60px; font-family: BACS"">vYLUYZUZ</p>","","","","","","","",""
"html-keyboard-response","167","233827","0.0-9.0-0.79","5feb64b3341f42bb63200e36","64afc2c9a8732ea92db0087d","64afd84b2278b5a2a9cb4704","null","null","<p style=""font-size: 60px; font-family: BACS"">GLYrAkGua</p>","","","","","","","",""
"html-keyboard-response","168","240415","0.0-10.0","5feb64b3341f42bb63200e36","64afc2c9a8732ea92db0087d","64afd84b2278b5a2a9cb4704","6588"," ","<p>Ottimo, hai visto il secondo blocco di parole. Ora puoi prenderti una piccola pausa.</p>
      <p>Premi la barra quando sei pronta/o per riprendere.</p>","","","","","","","",""
"html-keyboard-response","169","241427","0.0-11.0-0.0","5feb64b3341f42bb63200e36","64afc2c9a8732ea92db0087d","64afd84b2278b5a2a9cb4704","null","null","<p style=""font-size: 60px; font-family: BACS"">NJZlYbN</p>","","","","","","","",""
"html-keyboard-response","170","242431","0.0-11.0-0.1","5feb64b3341f42bb63200e36","64afc2c9a8732ea92db0087d","64afd84b2278b5a2a9cb4704","null","null","<p style=""font-size: 60px; font-family: BACS"">DOBhYTPOM</p>","","","","","","","",""
"html-keyboard-response","171","243445","0.0-11.0-0.2","5feb64b3341f42bb63200e36","64afc2c9a8732ea92db0087d","64afd84b2278b5a2a9cb4704","null","null","<p style=""font-size: 60px; font-family: BACS"">kKRCmhc</p>","","","","","","","",""
"html-keyboard-response","172","244447","0.0-11.0-0.3","5feb64b3341f42bb63200e36","64afc2c9a8732ea92db0087d","64afd84b2278b5a2a9cb4704","null","null","<p style=""font-size: 60px; font-family: BACS"">GJGcZYZUZ</p>","","","","","","","",""
"html-keyboard-response","173","245450","0.0-11.0-0.4","5feb64b3341f42bb63200e36","64afc2c9a8732ea92db0087d","64afd84b2278b5a2a9cb4704","null","null","<p style=""font-size: 60px; font-family: BACS"">EYtYRTPOM</p>","","","","","","","",""
"html-keyboard-response","174","246455","0.0-11.0-0.5","5feb64b3341f42bb63200e36","64afc2c9a8732ea92db0087d","64afd84b2278b5a2a9cb4704","null","null","<p style=""font-size: 60px; font-family: BACS"">CYPctAY</p>","","","","","","","",""
"html-keyboard-response","175","247458","0.0-11.0-0.6","5feb64b3341f42bb63200e36","64afc2c9a8732ea92db0087d","64afd84b2278b5a2a9cb4704","null","null","<p style=""font-size: 60px; font-family: BACS"">vYLUYZUZ</p>","","","","","","","",""
"html-keyboard-response","176","248465","0.0-11.0-0.7","5feb64b3341f42bb63200e36","64afc2c9a8732ea92db0087d","64afd84b2278b5a2a9cb4704","null","null","<p style=""font-size: 60px; font-family: BACS"">uQuZckGua</p>","","","","","","","",""
"html-keyboard-response","177","249469","0.0-11.0-0.8","5feb64b3341f42bb63200e36","64afc2c9a8732ea92db0087d","64afd84b2278b5a2a9cb4704","null","null","<p style=""font-size: 60px; font-family: BACS"">kNuaYbN</p>","","","","","","","",""
"html-keyboard-response","178","250473","0.0-11.0-0.9","5feb64b3341f42bb63200e36","64afc2c9a8732ea92db0087d","64afd84b2278b5a2a9cb4704","null","null","<p style=""font-size: 60px; font-family: BACS"">EYtYRtAY</p>","","","","","","","",""
"html-keyboard-response","179","251477","0.0-11.0-0.10","5feb64b3341f42bb63200e36","64afc2c9a8732ea92db0087d","64afd84b2278b5a2a9cb4704","null","null","<p style=""font-size: 60px; font-family: BACS"">lRCBmhc</p>","","","","","","","",""
"html-keyboard-response","180","252482","0.0-11.0-0.11","5feb64b3341f42bb63200e36","64afc2c9a8732ea92db0087d","64afd84b2278b5a2a9cb4704","null","null","<p style=""font-size: 60px; font-family: BACS"">GJGcZYbN</p>","","","","","","","",""
"html-keyboard-response","181","253496","0.0-11.0-0.12","5feb64b3341f42bb63200e36","64afc2c9a8732ea92db0087d","64afd84b2278b5a2a9cb4704","null","null","<p style=""font-size: 60px; font-family: BACS"">JmvmOYZUZ</p>","","","","","","","",""
"html-keyboard-response","182","254499","0.0-11.0-0.13","5feb64b3341f42bb63200e36","64afc2c9a8732ea92db0087d","64afd84b2278b5a2a9cb4704","null","null","<p style=""font-size: 60px; font-family: BACS"">uQuZcQru</p>","","","","","","","",""
"html-keyboard-response","183","255501","0.0-11.0-0.14","5feb64b3341f42bb63200e36","64afc2c9a8732ea92db0087d","64afd84b2278b5a2a9cb4704","null","null","<p style=""font-size: 60px; font-family: BACS"">MhKdTPOM</p>","","","","","","","",""
"html-keyboard-response","184","256506","0.0-11.0-0.15","5feb64b3341f42bb63200e36","64afc2c9a8732ea92db0087d","64afd84b2278b5a2a9cb4704","null","null","<p style=""font-size: 60px; font-family: BACS"">BECktAY</p>","","","","","","","",""
"html-keyboard-response","185","257520","0.0-11.0-0.16","5feb64b3341f42bb63200e36","64afc2c9a8732ea92db0087d","64afd84b2278b5a2a9cb4704","null","null","<p style=""font-size: 60px; font-family: BACS"">GLYrAkGua</p>","","","","","","","",""
"html-keyboard-response","186","258524","0.0-11.0-0.17","5feb64b3341f42bb63200e36","64afc2c9a8732ea92db0087d","64afd84b2278b5a2a9cb4704","null","null","<p style=""font-size: 60px; font-family: BACS"">mLdkZYbN</p>","","","","","","","",""
"html-keyboard-response","187","259527","0.0-11.0-0.18","5feb64b3341f42bb63200e36","64afc2c9a8732ea92db0087d","64afd84b2278b5a2a9cb4704","null","null","<p style=""font-size: 60px; font-family: BACS"">JmvmOQru</p>","","","","","","","",""
"html-keyboard-response","188","260540","0.0-11.0-0.19","5feb64b3341f42bb63200e36","64afc2c9a8732ea92db0087d","64afd84b2278b5a2a9cb4704","null","null","<p style=""font-size: 60px; font-family: BACS"">ldAakGua</p>","","","","","","","",""
"html-keyboard-response","189","261543","0.0-11.0-0.20","5feb64b3341f42bb63200e36","64afc2c9a8732ea92db0087d","64afd84b2278b5a2a9cb4704","null","null","<p style=""font-size: 60px; font-family: BACS"">MhKdtAY</p>","","","","","","","",""
"html-keyboard-response","190","262549","0.0-11.0-0.21","5feb64b3341f42bb63200e36","64afc2c9a8732ea92db0087d","64afd84b2278b5a2a9cb4704","null","null","<p style=""font-size: 60px; font-family: BACS"">kbmZOQru</p>","","","","","","","",""
"html-keyboard-response","191","263558","0.0-11.0-0.22","5feb64b3341f42bb63200e36","64afc2c9a8732ea92db0087d","64afd84b2278b5a2a9cb4704","null","null","<p style=""font-size: 60px; font-family: BACS"">kKRCTbk</p>","","","","","","","",""
"html-keyboard-response","192","264567","0.0-11.0-0.23","5feb64b3341f42bb63200e36","64afc2c9a8732ea92db0087d","64afd84b2278b5a2a9cb4704","null","null","<p style=""font-size: 60px; font-family: BACS"">JmvmOkGua</p>","","","","","","","",""
"html-keyboard-response","193","265574","0.0-11.0-0.24","5feb64b3341f42bb63200e36","64afc2c9a8732ea92db0087d","64afd84b2278b5a2a9cb4704","null","null","<p style=""font-size: 60px; font-family: BACS"">TCbDCtAY</p>","","","","","","","",""
"html-keyboard-response","194","266584","0.0-11.0-0.25","5feb64b3341f42bb63200e36","64afc2c9a8732ea92db0087d","64afd84b2278b5a2a9cb4704","null","null","<p style=""font-size: 60px; font-family: BACS"">kbmZOkGua</p>","","","","","","","",""
"html-keyboard-response","195","267588","0.0-11.0-0.26","5feb64b3341f42bb63200e36","64afc2c9a8732ea92db0087d","64afd84b2278b5a2a9cb4704","null","null","<p style=""font-size: 60px; font-family: BACS"">dMYBPTbk</p>","","","","","","","",""
"html-keyboard-response","196","268592","0.0-11.0-0.27","5feb64b3341f42bb63200e36","64afc2c9a8732ea92db0087d","64afd84b2278b5a2a9cb4704","null","null","<p style=""font-size: 60px; font-family: BACS"">lhCTCmCd</p>","","","","","","","",""
"html-keyboard-response","197","269608","0.0-11.0-0.28","5feb64b3341f42bb63200e36","64afc2c9a8732ea92db0087d","64afd84b2278b5a2a9cb4704","null","null","<p style=""font-size: 60px; font-family: BACS"">NJZlQru</p>","","","","","","","",""
"html-keyboard-response","198","270610","0.0-11.0-0.29","5feb64b3341f42bb63200e36","64afc2c9a8732ea92db0087d","64afd84b2278b5a2a9cb4704","null","null","<p style=""font-size: 60px; font-family: BACS"">MhKdmhc</p>","","","","","","","",""
"html-keyboard-response","199","271615","0.0-11.0-0.30","5feb64b3341f42bb63200e36","64afc2c9a8732ea92db0087d","64afd84b2278b5a2a9cb4704","null","null","<p style=""font-size: 60px; font-family: BACS"">dMYBPTPOM</p>","","","","","","","",""
"html-keyboard-response","200","272620","0.0-11.0-0.31","5feb64b3341f42bb63200e36","64afc2c9a8732ea92db0087d","64afd84b2278b5a2a9cb4704","null","null","<p style=""font-size: 60px; font-family: BACS"">BECkmCd</p>","","","","","","","",""
"html-keyboard-response","201","273627","0.0-11.0-0.32","5feb64b3341f42bb63200e36","64afc2c9a8732ea92db0087d","64afd84b2278b5a2a9cb4704","null","null","<p style=""font-size: 60px; font-family: BACS"">GLYrAYbN</p>","","","","","","","",""
"html-keyboard-response","202","274630","0.0-11.0-0.33","5feb64b3341f42bb63200e36","64afc2c9a8732ea92db0087d","64afd84b2278b5a2a9cb4704","null","null","<p style=""font-size: 60px; font-family: BACS"">lhCTCmhc</p>","","","","","","","",""
"html-keyboard-response","203","275644","0.0-11.0-0.34","5feb64b3341f42bb63200e36","64afc2c9a8732ea92db0087d","64afd84b2278b5a2a9cb4704","null","null","<p style=""font-size: 60px; font-family: BACS"">vYLUuda</p>","","","","","","","",""
"html-keyboard-response","204","276647","0.0-11.0-0.35","5feb64b3341f42bb63200e36","64afc2c9a8732ea92db0087d","64afd84b2278b5a2a9cb4704","null","null","<p style=""font-size: 60px; font-family: BACS"">ldAaYbN</p>","","","","","","","",""
"html-keyboard-response","205","277651","0.0-11.0-0.36","5feb64b3341f42bb63200e36","64afc2c9a8732ea92db0087d","64afd84b2278b5a2a9cb4704","null","null","<p style=""font-size: 60px; font-family: BACS"">lhCTCtAY</p>","","","","","","","",""
"html-keyboard-response","206","278675","0.0-11.0-0.37","5feb64b3341f42bb63200e36","64afc2c9a8732ea92db0087d","64afd84b2278b5a2a9cb4704","null","null","<p style=""font-size: 60px; font-family: BACS"">DOBhYTbk</p>","","","","","","","",""
"html-keyboard-response","207","279679","0.0-11.0-0.38","5feb64b3341f42bb63200e36","64afc2c9a8732ea92db0087d","64afd84b2278b5a2a9cb4704","null","null","<p style=""font-size: 60px; font-family: BACS"">uQuZcYZUZ</p>","","","","","","","",""
"html-keyboard-response","208","280682","0.0-11.0-0.39","5feb64b3341f42bb63200e36","64afc2c9a8732ea92db0087d","64afd84b2278b5a2a9cb4704","null","null","<p style=""font-size: 60px; font-family: BACS"">dMYBPtAY</p>","","","","","","","",""
"html-keyboard-response","209","281696","0.0-11.0-0.40","5feb64b3341f42bb63200e36","64afc2c9a8732ea92db0087d","64afd84b2278b5a2a9cb4704","null","null","<p style=""font-size: 60px; font-family: BACS"">GLYrAYZUZ</p>","","","","","","","",""
"html-keyboard-response","210","282703","0.0-11.0-0.41","5feb64b3341f42bb63200e36","64afc2c9a8732ea92db0087d","64afd84b2278b5a2a9cb4704","null","null","<p style=""font-size: 60px; font-family: BACS"">TCbDCmhc</p>","","","","","","","",""
"html-keyboard-response","211","283713","0.0-11.0-0.42","5feb64b3341f42bb63200e36","64afc2c9a8732ea92db0087d","64afd84b2278b5a2a9cb4704","null","null","<p style=""font-size: 60px; font-family: BACS"">BECkTbk</p>","","","","","","","",""
"html-keyboard-response","212","284727","0.0-11.0-0.43","5feb64b3341f42bb63200e36","64afc2c9a8732ea92db0087d","64afd84b2278b5a2a9cb4704","null","null","<p style=""font-size: 60px; font-family: BACS"">mLdkZkGua</p>","","","","","","","",""
"html-keyboard-response","213","285742","0.0-11.0-0.44","5feb64b3341f42bb63200e36","64afc2c9a8732ea92db0087d","64afd84b2278b5a2a9cb4704","null","null","<p style=""font-size: 60px; font-family: BACS"">ldAaQru</p>","","","","","","","",""
"html-keyboard-response","214","286757","0.0-11.0-0.45","5feb64b3341f42bb63200e36","64afc2c9a8732ea92db0087d","64afd84b2278b5a2a9cb4704","null","null","<p style=""font-size: 60px; font-family: BACS"">DOBhYmCd</p>","","","","","","","",""
"html-keyboard-response","215","287760","0.0-11.0-0.46","5feb64b3341f42bb63200e36","64afc2c9a8732ea92db0087d","64afd84b2278b5a2a9cb4704","null","null","<p style=""font-size: 60px; font-family: BACS"">kNuakGua</p>","","","","","","","",""
"html-keyboard-response","216","288767","0.0-11.0-0.47","5feb64b3341f42bb63200e36","64afc2c9a8732ea92db0087d","64afd84b2278b5a2a9cb4704","null","null","<p style=""font-size: 60px; font-family: BACS"">CYPcTbk</p>","","","","","","","",""
"html-keyboard-response","217","289769","0.0-11.0-0.48","5feb64b3341f42bb63200e36","64afc2c9a8732ea92db0087d","64afd84b2278b5a2a9cb4704","null","null","<p style=""font-size: 60px; font-family: BACS"">EYtYRmhc</p>","","","","","","","",""
"html-keyboard-response","218","290776","0.0-11.0-0.49","5feb64b3341f42bb63200e36","64afc2c9a8732ea92db0087d","64afd84b2278b5a2a9cb4704","null","null","<p style=""font-size: 60px; font-family: BACS"">ldAauda</p>","","","","","","","",""
"html-keyboard-response","219","291782","0.0-11.0-0.50","5feb64b3341f42bb63200e36","64afc2c9a8732ea92db0087d","64afd84b2278b5a2a9cb4704","null","null","<p style=""font-size: 60px; font-family: BACS"">lRCBTPOM</p>","","","","","","","",""
"html-keyboard-response","220","292787","0.0-11.0-0.51","5feb64b3341f42bb63200e36","64afc2c9a8732ea92db0087d","64afd84b2278b5a2a9cb4704","null","null","<p style=""font-size: 60px; font-family: BACS"">lhCTCTbk</p>","","","","","","","",""
"html-keyboard-response","221","293794","0.0-11.0-0.52","5feb64b3341f42bb63200e36","64afc2c9a8732ea92db0087d","64afd84b2278b5a2a9cb4704","null","null","<p style=""font-size: 60px; font-family: BACS"">BECkTPOM</p>","","","","","","","",""
"html-keyboard-response","222","294801","0.0-11.0-0.53","5feb64b3341f42bb63200e36","64afc2c9a8732ea92db0087d","64afd84b2278b5a2a9cb4704","null","null","<p style=""font-size: 60px; font-family: BACS"">kNuauda</p>","","","","","","","",""
"html-keyboard-response","223","295809","0.0-11.0-0.54","5feb64b3341f42bb63200e36","64afc2c9a8732ea92db0087d","64afd84b2278b5a2a9cb4704","null","null","<p style=""font-size: 60px; font-family: BACS"">CYPcmCd</p>","","","","","","","",""
"html-keyboard-response","224","296824","0.0-11.0-0.55","5feb64b3341f42bb63200e36","64afc2c9a8732ea92db0087d","64afd84b2278b5a2a9cb4704","null","null","<p style=""font-size: 60px; font-family: BACS"">DOBhYmhc</p>","","","","","","","",""
"html-keyboard-response","225","297831","0.0-11.0-0.56","5feb64b3341f42bb63200e36","64afc2c9a8732ea92db0087d","64afd84b2278b5a2a9cb4704","null","null","<p style=""font-size: 60px; font-family: BACS"">kKRCmCd</p>","","","","","","","",""
"html-keyboard-response","226","298835","0.0-11.0-0.57","5feb64b3341f42bb63200e36","64afc2c9a8732ea92db0087d","64afd84b2278b5a2a9cb4704","null","null","<p style=""font-size: 60px; font-family: BACS"">TCbDCTbk</p>","","","","","","","",""
"html-keyboard-response","227","299842","0.0-11.0-0.58","5feb64b3341f42bb63200e36","64afc2c9a8732ea92db0087d","64afd84b2278b5a2a9cb4704","null","null","<p style=""font-size: 60px; font-family: BACS"">kbmZOYZUZ</p>","","","","","","","",""
"html-keyboard-response","228","300848","0.0-11.0-0.59","5feb64b3341f42bb63200e36","64afc2c9a8732ea92db0087d","64afd84b2278b5a2a9cb4704","null","null","<p style=""font-size: 60px; font-family: BACS"">vYLUYbN</p>","","","","","","","",""
"html-keyboard-response","229","301851","0.0-11.0-0.60","5feb64b3341f42bb63200e36","64afc2c9a8732ea92db0087d","64afd84b2278b5a2a9cb4704","null","null","<p style=""font-size: 60px; font-family: BACS"">NJZlYZUZ</p>","","","","","","","",""
"html-keyboard-response","230","302868","0.0-11.0-0.61","5feb64b3341f42bb63200e36","64afc2c9a8732ea92db0087d","64afd84b2278b5a2a9cb4704","null","null","<p style=""font-size: 60px; font-family: BACS"">GJGcZkGua</p>","","","","","","","",""
"html-keyboard-response","231","303871","0.0-11.0-0.62","5feb64b3341f42bb63200e36","64afc2c9a8732ea92db0087d","64afd84b2278b5a2a9cb4704","null","null","<p style=""font-size: 60px; font-family: BACS"">kKRCTPOM</p>","","","","","","","",""
"html-keyboard-response","232","304877","0.0-11.0-0.63","5feb64b3341f42bb63200e36","64afc2c9a8732ea92db0087d","64afd84b2278b5a2a9cb4704","null","null","<p style=""font-size: 60px; font-family: BACS"">MhKdmCd</p>","","","","","","","",""
"html-keyboard-response","233","305878","0.0-11.0-0.64","5feb64b3341f42bb63200e36","64afc2c9a8732ea92db0087d","64afd84b2278b5a2a9cb4704","null","null","<p style=""font-size: 60px; font-family: BACS"">EYtYRTbk</p>","","","","","","","",""
"html-keyboard-response","234","306881","0.0-11.0-0.65","5feb64b3341f42bb63200e36","64afc2c9a8732ea92db0087d","64afd84b2278b5a2a9cb4704","null","null","<p style=""font-size: 60px; font-family: BACS"">mLdkZYZUZ</p>","","","","","","","",""
"html-keyboard-response","235","307887","0.0-11.0-0.66","5feb64b3341f42bb63200e36","64afc2c9a8732ea92db0087d","64afd84b2278b5a2a9cb4704","null","null","<p style=""font-size: 60px; font-family: BACS"">lRCBtAY</p>","","","","","","","",""
"html-keyboard-response","236","308894","0.0-11.0-0.67","5feb64b3341f42bb63200e36","64afc2c9a8732ea92db0087d","64afd84b2278b5a2a9cb4704","null","null","<p style=""font-size: 60px; font-family: BACS"">kNuaQru</p>","","","","","","","",""
"html-keyboard-response","237","309909","0.0-11.0-0.68","5feb64b3341f42bb63200e36","64afc2c9a8732ea92db0087d","64afd84b2278b5a2a9cb4704","null","null","<p style=""font-size: 60px; font-family: BACS"">GLYrAuda</p>","","","","","","","",""
"html-keyboard-response","238","310917","0.0-11.0-0.69","5feb64b3341f42bb63200e36","64afc2c9a8732ea92db0087d","64afd84b2278b5a2a9cb4704","null","null","<p style=""font-size: 60px; font-family: BACS"">vYLUQru</p>","","","","","","","",""
"html-keyboard-response","239","311928","0.0-11.0-0.70","5feb64b3341f42bb63200e36","64afc2c9a8732ea92db0087d","64afd84b2278b5a2a9cb4704","null","null","<p style=""font-size: 60px; font-family: BACS"">uQuZcYbN</p>","","","","","","","",""
"html-keyboard-response","240","312943","0.0-11.0-0.71","5feb64b3341f42bb63200e36","64afc2c9a8732ea92db0087d","64afd84b2278b5a2a9cb4704","null","null","<p style=""font-size: 60px; font-family: BACS"">dMYBPmhc</p>","","","","","","","",""
"html-keyboard-response","241","313945","0.0-11.0-0.72","5feb64b3341f42bb63200e36","64afc2c9a8732ea92db0087d","64afd84b2278b5a2a9cb4704","null","null","<p style=""font-size: 60px; font-family: BACS"">kbmZOuda</p>","","","","","","","",""
"html-keyboard-response","242","314950","0.0-11.0-0.73","5feb64b3341f42bb63200e36","64afc2c9a8732ea92db0087d","64afd84b2278b5a2a9cb4704","null","null","<p style=""font-size: 60px; font-family: BACS"">GJGcZQru</p>","","","","","","","",""
"html-keyboard-response","243","315954","0.0-11.0-0.74","5feb64b3341f42bb63200e36","64afc2c9a8732ea92db0087d","64afd84b2278b5a2a9cb4704","null","null","<p style=""font-size: 60px; font-family: BACS"">JmvmOuda</p>","","","","","","","",""
"html-keyboard-response","244","316958","0.0-11.0-0.75","5feb64b3341f42bb63200e36","64afc2c9a8732ea92db0087d","64afd84b2278b5a2a9cb4704","null","null","<p style=""font-size: 60px; font-family: BACS"">lRCBmCd</p>","","","","","","","",""
"html-keyboard-response","245","317961","0.0-11.0-0.76","5feb64b3341f42bb63200e36","64afc2c9a8732ea92db0087d","64afd84b2278b5a2a9cb4704","null","null","<p style=""font-size: 60px; font-family: BACS"">NJZluda</p>","","","","","","","",""
"html-keyboard-response","246","318968","0.0-11.0-0.77","5feb64b3341f42bb63200e36","64afc2c9a8732ea92db0087d","64afd84b2278b5a2a9cb4704","null","null","<p style=""font-size: 60px; font-family: BACS"">CYPcTPOM</p>","","","","","","","",""
"html-keyboard-response","247","319975","0.0-11.0-0.78","5feb64b3341f42bb63200e36","64afc2c9a8732ea92db0087d","64afd84b2278b5a2a9cb4704","null","null","<p style=""font-size: 60px; font-family: BACS"">TCbDCmCd</p>","","","","","","","",""
"html-keyboard-response","248","320979","0.0-11.0-0.79","5feb64b3341f42bb63200e36","64afc2c9a8732ea92db0087d","64afd84b2278b5a2a9cb4704","null","null","<p style=""font-size: 60px; font-family: BACS"">mLdkZuda</p>","","","","","","","",""
"html-keyboard-response","249","323217","0.0-12.0","5feb64b3341f42bb63200e36","64afc2c9a8732ea92db0087d","64afd84b2278b5a2a9cb4704","2238"," ","<p>Ottimo, hai visto il terzo blocco di parole. Ora puoi prenderti una piccola pausa.</p>
      <p>Premi la barra quando sei pronta/o per riprendere.</p>","","","","","","","",""
"html-keyboard-response","250","324220","0.0-13.0-0.0","5feb64b3341f42bb63200e36","64afc2c9a8732ea92db0087d","64afd84b2278b5a2a9cb4704","null","null","<p style=""font-size: 60px; font-family: BACS"">ldAakGua</p>","","","","","","","",""
"html-keyboard-response","251","325236","0.0-13.0-0.1","5feb64b3341f42bb63200e36","64afc2c9a8732ea92db0087d","64afd84b2278b5a2a9cb4704","null","null","<p style=""font-size: 60px; font-family: BACS"">EYtYRTbk</p>","","","","","","","",""
"html-keyboard-response","252","326240","0.0-13.0-0.2","5feb64b3341f42bb63200e36","64afc2c9a8732ea92db0087d","64afd84b2278b5a2a9cb4704","null","null","<p style=""font-size: 60px; font-family: BACS"">MhKdmhc</p>","","","","","","","",""
"html-keyboard-response","253","327243","0.0-13.0-0.3","5feb64b3341f42bb63200e36","64afc2c9a8732ea92db0087d","64afd84b2278b5a2a9cb4704","null","null","<p style=""font-size: 60px; font-family: BACS"">kNuauda</p>","","","","","","","",""
"html-keyboard-response","254","328249","0.0-13.0-0.4","5feb64b3341f42bb63200e36","64afc2c9a8732ea92db0087d","64afd84b2278b5a2a9cb4704","null","null","<p style=""font-size: 60px; font-family: BACS"">CYPcmCd</p>","","","","","","","",""
"html-keyboard-response","255","329255","0.0-13.0-0.5","5feb64b3341f42bb63200e36","64afc2c9a8732ea92db0087d","64afd84b2278b5a2a9cb4704","null","null","<p style=""font-size: 60px; font-family: BACS"">kNuakGua</p>","","","","","","","",""
"html-keyboard-response","256","330270","0.0-13.0-0.6","5feb64b3341f42bb63200e36","64afc2c9a8732ea92db0087d","64afd84b2278b5a2a9cb4704","null","null","<p style=""font-size: 60px; font-family: BACS"">CYPctAY</p>","","","","","","","",""
"html-keyboard-response","257","331274","0.0-13.0-0.7","5feb64b3341f42bb63200e36","64afc2c9a8732ea92db0087d","64afd84b2278b5a2a9cb4704","null","null","<p style=""font-size: 60px; font-family: BACS"">kbmZOuda</p>","","","","","","","",""
"html-keyboard-response","258","332282","0.0-13.0-0.8","5feb64b3341f42bb63200e36","64afc2c9a8732ea92db0087d","64afd84b2278b5a2a9cb4704","null","null","<p style=""font-size: 60px; font-family: BACS"">dMYBPmhc</p>","","","","","","","",""
"html-keyboard-response","259","333298","0.0-13.0-0.9","5feb64b3341f42bb63200e36","64afc2c9a8732ea92db0087d","64afd84b2278b5a2a9cb4704","null","null","<p style=""font-size: 60px; font-family: BACS"">BECkTbk</p>","","","","","","","",""
"html-keyboard-response","260","334306","0.0-13.0-0.10","5feb64b3341f42bb63200e36","64afc2c9a8732ea92db0087d","64afd84b2278b5a2a9cb4704","null","null","<p style=""font-size: 60px; font-family: BACS"">TCbDCmhc</p>","","","","","","","",""
"html-keyboard-response","261","335315","0.0-13.0-0.11","5feb64b3341f42bb63200e36","64afc2c9a8732ea92db0087d","64afd84b2278b5a2a9cb4704","null","null","<p style=""font-size: 60px; font-family: BACS"">MhKdmCd</p>","","","","","","","",""
"html-keyboard-response","262","336329","0.0-13.0-0.12","5feb64b3341f42bb63200e36","64afc2c9a8732ea92db0087d","64afd84b2278b5a2a9cb4704","null","null","<p style=""font-size: 60px; font-family: BACS"">BECkTPOM</p>","","","","","","","",""
"html-keyboard-response","263","337334","0.0-13.0-0.13","5feb64b3341f42bb63200e36","64afc2c9a8732ea92db0087d","64afd84b2278b5a2a9cb4704","null","null","<p style=""font-size: 60px; font-family: BACS"">JmvmOuda</p>","","","","","","","",""
"html-keyboard-response","264","338350","0.0-13.0-0.14","5feb64b3341f42bb63200e36","64afc2c9a8732ea92db0087d","64afd84b2278b5a2a9cb4704","null","null","<p style=""font-size: 60px; font-family: BACS"">TCbDCTbk</p>","","","","","","","",""
"html-keyboard-response","265","339352","0.0-13.0-0.15","5feb64b3341f42bb63200e36","64afc2c9a8732ea92db0087d","64afd84b2278b5a2a9cb4704","null","null","<p style=""font-size: 60px; font-family: BACS"">GJGcZQru</p>","","","","","","","",""
"html-keyboard-response","266","340368","0.0-13.0-0.16","5feb64b3341f42bb63200e36","64afc2c9a8732ea92db0087d","64afd84b2278b5a2a9cb4704","null","null","<p style=""font-size: 60px; font-family: BACS"">EYtYRTPOM</p>","","","","","","","",""
"html-keyboard-response","267","341373","0.0-13.0-0.17","5feb64b3341f42bb63200e36","64afc2c9a8732ea92db0087d","64afd84b2278b5a2a9cb4704","null","null","<p style=""font-size: 60px; font-family: BACS"">DOBhYTbk</p>","","","","","","","",""
"html-keyboard-response","268","342385","0.0-13.0-0.18","5feb64b3341f42bb63200e36","64afc2c9a8732ea92db0087d","64afd84b2278b5a2a9cb4704","null","null","<p style=""font-size: 60px; font-family: BACS"">JmvmOQru</p>","","","","","","","",""
"html-keyboard-response","269","343396","0.0-13.0-0.19","5feb64b3341f42bb63200e36","64afc2c9a8732ea92db0087d","64afd84b2278b5a2a9cb4704","null","null","<p style=""font-size: 60px; font-family: BACS"">DOBhYmCd</p>","","","","","","","",""
"html-keyboard-response","270","344412","0.0-13.0-0.20","5feb64b3341f42bb63200e36","64afc2c9a8732ea92db0087d","64afd84b2278b5a2a9cb4704","null","null","<p style=""font-size: 60px; font-family: BACS"">lRCBTPOM</p>","","","","","","","",""
"html-keyboard-response","271","345422","0.0-13.0-0.21","5feb64b3341f42bb63200e36","64afc2c9a8732ea92db0087d","64afd84b2278b5a2a9cb4704","null","null","<p style=""font-size: 60px; font-family: BACS"">ldAaYbN</p>","","","","","","","",""
"html-keyboard-response","272","346426","0.0-13.0-0.22","5feb64b3341f42bb63200e36","64afc2c9a8732ea92db0087d","64afd84b2278b5a2a9cb4704","null","null","<p style=""font-size: 60px; font-family: BACS"">kNuaQru</p>","","","","","","","",""
"html-keyboard-response","273","347430","0.0-13.0-0.23","5feb64b3341f42bb63200e36","64afc2c9a8732ea92db0087d","64afd84b2278b5a2a9cb4704","null","null","<p style=""font-size: 60px; font-family: BACS"">lRCBmCd</p>","","","","","","","",""
"html-keyboard-response","274","348444","0.0-13.0-0.24","5feb64b3341f42bb63200e36","64afc2c9a8732ea92db0087d","64afd84b2278b5a2a9cb4704","null","null","<p style=""font-size: 60px; font-family: BACS"">NJZlQru</p>","","","","","","","",""
"html-keyboard-response","275","349460","0.0-13.0-0.25","5feb64b3341f42bb63200e36","64afc2c9a8732ea92db0087d","64afd84b2278b5a2a9cb4704","null","null","<p style=""font-size: 60px; font-family: BACS"">lRCBmhc</p>","","","","","","","",""
"html-keyboard-response","276","350474","0.0-13.0-0.26","5feb64b3341f42bb63200e36","64afc2c9a8732ea92db0087d","64afd84b2278b5a2a9cb4704","null","null","<p style=""font-size: 60px; font-family: BACS"">uQuZckGua</p>","","","","","","","",""
"html-keyboard-response","277","351489","0.0-13.0-0.27","5feb64b3341f42bb63200e36","64afc2c9a8732ea92db0087d","64afd84b2278b5a2a9cb4704","null","null","<p style=""font-size: 60px; font-family: BACS"">kbmZOYZUZ</p>","","","","","","","",""
"html-keyboard-response","278","352504","0.0-13.0-0.28","5feb64b3341f42bb63200e36","64afc2c9a8732ea92db0087d","64afd84b2278b5a2a9cb4704","null","null","<p style=""font-size: 60px; font-family: BACS"">uQuZcYbN</p>","","","","","","","",""
"html-keyboard-response","279","353519","0.0-13.0-0.29","5feb64b3341f42bb63200e36","64afc2c9a8732ea92db0087d","64afd84b2278b5a2a9cb4704","null","null","<p style=""font-size: 60px; font-family: BACS"">GLYrAuda</p>","","","","","","","",""
"html-keyboard-response","280","354521","0.0-13.0-0.30","5feb64b3341f42bb63200e36","64afc2c9a8732ea92db0087d","64afd84b2278b5a2a9cb4704","null","null","<p style=""font-size: 60px; font-family: BACS"">EYtYRtAY</p>","","","","","","","",""
"html-keyboard-response","281","355523","0.0-13.0-0.31","5feb64b3341f42bb63200e36","64afc2c9a8732ea92db0087d","64afd84b2278b5a2a9cb4704","null","null","<p style=""font-size: 60px; font-family: BACS"">uQuZcQru</p>","","","","","","","",""
"html-keyboard-response","282","356527","0.0-13.0-0.32","5feb64b3341f42bb63200e36","64afc2c9a8732ea92db0087d","64afd84b2278b5a2a9cb4704","null","null","<p style=""font-size: 60px; font-family: BACS"">GJGcZYZUZ</p>","","","","","","","",""
"html-keyboard-response","283","357543","0.0-13.0-0.33","5feb64b3341f42bb63200e36","64afc2c9a8732ea92db0087d","64afd84b2278b5a2a9cb4704","null","null","<p style=""font-size: 60px; font-family: BACS"">NJZlYbN</p>","","","","","","","",""
"html-keyboard-response","284","358544","0.0-13.0-0.34","5feb64b3341f42bb63200e36","64afc2c9a8732ea92db0087d","64afd84b2278b5a2a9cb4704","null","null","<p style=""font-size: 60px; font-family: BACS"">ldAaQru</p>","","","","","","","",""
"html-keyboard-response","285","359547","0.0-13.0-0.35","5feb64b3341f42bb63200e36","64afc2c9a8732ea92db0087d","64afd84b2278b5a2a9cb4704","null","null","<p style=""font-size: 60px; font-family: BACS"">DOBhYTPOM</p>","","","","","","","",""
"html-keyboard-response","286","360555","0.0-13.0-0.36","5feb64b3341f42bb63200e36","64afc2c9a8732ea92db0087d","64afd84b2278b5a2a9cb4704","null","null","<p style=""font-size: 60px; font-family: BACS"">kbmZOkGua</p>","","","","","","","",""
"html-keyboard-response","287","361556","0.0-13.0-0.37","5feb64b3341f42bb63200e36","64afc2c9a8732ea92db0087d","64afd84b2278b5a2a9cb4704","null","null","<p style=""font-size: 60px; font-family: BACS"">dMYBPTPOM</p>","","","","","","","",""
"html-keyboard-response","288","362569","0.0-13.0-0.38","5feb64b3341f42bb63200e36","64afc2c9a8732ea92db0087d","64afd84b2278b5a2a9cb4704","null","null","<p style=""font-size: 60px; font-family: BACS"">lhCTCmCd</p>","","","","","","","",""
"html-keyboard-response","289","363570","0.0-13.0-0.39","5feb64b3341f42bb63200e36","64afc2c9a8732ea92db0087d","64afd84b2278b5a2a9cb4704","null","null","<p style=""font-size: 60px; font-family: BACS"">NJZluda</p>","","","","","","","",""
"html-keyboard-response","290","364577","0.0-13.0-0.40","5feb64b3341f42bb63200e36","64afc2c9a8732ea92db0087d","64afd84b2278b5a2a9cb4704","null","null","<p style=""font-size: 60px; font-family: BACS"">mLdkZYbN</p>","","","","","","","",""
"html-keyboard-response","291","365593","0.0-13.0-0.41","5feb64b3341f42bb63200e36","64afc2c9a8732ea92db0087d","64afd84b2278b5a2a9cb4704","null","null","<p style=""font-size: 60px; font-family: BACS"">JmvmOkGua</p>","","","","","","","",""
"html-keyboard-response","292","366601","0.0-13.0-0.42","5feb64b3341f42bb63200e36","64afc2c9a8732ea92db0087d","64afd84b2278b5a2a9cb4704","null","null","<p style=""font-size: 60px; font-family: BACS"">dMYBPtAY</p>","","","","","","","",""
"html-keyboard-response","293","367612","0.0-13.0-0.43","5feb64b3341f42bb63200e36","64afc2c9a8732ea92db0087d","64afd84b2278b5a2a9cb4704","null","null","<p style=""font-size: 60px; font-family: BACS"">EYtYRmhc</p>","","","","","","","",""
"html-keyboard-response","294","368613","0.0-13.0-0.44","5feb64b3341f42bb63200e36","64afc2c9a8732ea92db0087d","64afd84b2278b5a2a9cb4704","null","null","<p style=""font-size: 60px; font-family: BACS"">TCbDCtAY</p>","","","","","","","",""
"html-keyboard-response","295","369615","0.0-13.0-0.45","5feb64b3341f42bb63200e36","64afc2c9a8732ea92db0087d","64afd84b2278b5a2a9cb4704","null","null","<p style=""font-size: 60px; font-family: BACS"">kKRCTPOM</p>","","","","","","","",""
"html-keyboard-response","296","370620","0.0-13.0-0.46","5feb64b3341f42bb63200e36","64afc2c9a8732ea92db0087d","64afd84b2278b5a2a9cb4704","null","null","<p style=""font-size: 60px; font-family: BACS"">ldAauda</p>","","","","","","","",""
"html-keyboard-response","297","371630","0.0-13.0-0.47","5feb64b3341f42bb63200e36","64afc2c9a8732ea92db0087d","64afd84b2278b5a2a9cb4704","null","null","<p style=""font-size: 60px; font-family: BACS"">kbmZOQru</p>","","","","","","","",""
"html-keyboard-response","298","372645","0.0-13.0-0.48","5feb64b3341f42bb63200e36","64afc2c9a8732ea92db0087d","64afd84b2278b5a2a9cb4704","null","null","<p style=""font-size: 60px; font-family: BACS"">GLYrAYbN</p>","","","","","","","",""
"html-keyboard-response","299","373647","0.0-13.0-0.49","5feb64b3341f42bb63200e36","64afc2c9a8732ea92db0087d","64afd84b2278b5a2a9cb4704","null","null","<p style=""font-size: 60px; font-family: BACS"">GJGcZkGua</p>","","","","","","","",""
"html-keyboard-response","300","374663","0.0-13.0-0.50","5feb64b3341f42bb63200e36","64afc2c9a8732ea92db0087d","64afd84b2278b5a2a9cb4704","null","null","<p style=""font-size: 60px; font-family: BACS"">lhCTCtAY</p>","","","","","","","",""
"html-keyboard-response","301","375674","0.0-13.0-0.51","5feb64b3341f42bb63200e36","64afc2c9a8732ea92db0087d","64afd84b2278b5a2a9cb4704","null","null","<p style=""font-size: 60px; font-family: BACS"">kNuaYbN</p>","","","","","","","",""
"html-keyboard-response","302","376679","0.0-13.0-0.52","5feb64b3341f42bb63200e36","64afc2c9a8732ea92db0087d","64afd84b2278b5a2a9cb4704","null","null","<p style=""font-size: 60px; font-family: BACS"">MhKdtAY</p>","","","","","","","",""
"html-keyboard-response","303","377680","0.0-13.0-0.53","5feb64b3341f42bb63200e36","64afc2c9a8732ea92db0087d","64afd84b2278b5a2a9cb4704","null","null","<p style=""font-size: 60px; font-family: BACS"">CYPcTbk</p>","","","","","","","",""
"html-keyboard-response","304","378683","0.0-13.0-0.54","5feb64b3341f42bb63200e36","64afc2c9a8732ea92db0087d","64afd84b2278b5a2a9cb4704","null","null","<p style=""font-size: 60px; font-family: BACS"">JmvmOYZUZ</p>","","","","","","","",""
"html-keyboard-response","305","379688","0.0-13.0-0.55","5feb64b3341f42bb63200e36","64afc2c9a8732ea92db0087d","64afd84b2278b5a2a9cb4704","null","null","<p style=""font-size: 60px; font-family: BACS"">lRCBtAY</p>","","","","","","","",""
"html-keyboard-response","306","380703","0.0-13.0-0.56","5feb64b3341f42bb63200e36","64afc2c9a8732ea92db0087d","64afd84b2278b5a2a9cb4704","null","null","<p style=""font-size: 60px; font-family: BACS"">GLYrAkGua</p>","","","","","","","",""
"html-keyboard-response","307","381704","0.0-13.0-0.57","5feb64b3341f42bb63200e36","64afc2c9a8732ea92db0087d","64afd84b2278b5a2a9cb4704","null","null","<p style=""font-size: 60px; font-family: BACS"">TCbDCmCd</p>","","","","","","","",""
"html-keyboard-response","308","382709","0.0-13.0-0.58","5feb64b3341f42bb63200e36","64afc2c9a8732ea92db0087d","64afd84b2278b5a2a9cb4704","null","null","<p style=""font-size: 60px; font-family: BACS"">MhKdTPOM</p>","","","","","","","",""
"html-keyboard-response","309","383712","0.0-13.0-0.59","5feb64b3341f42bb63200e36","64afc2c9a8732ea92db0087d","64afd84b2278b5a2a9cb4704","null","null","<p style=""font-size: 60px; font-family: BACS"">vYLUuda</p>","","","","","","","",""
"html-keyboard-response","310","384713","0.0-13.0-0.60","5feb64b3341f42bb63200e36","64afc2c9a8732ea92db0087d","64afd84b2278b5a2a9cb4704","null","null","<p style=""font-size: 60px; font-family: BACS"">mLdkZkGua</p>","","","","","","","",""
"html-keyboard-response","311","385727","0.0-13.0-0.61","5feb64b3341f42bb63200e36","64afc2c9a8732ea92db0087d","64afd84b2278b5a2a9cb4704","null","null","<p style=""font-size: 60px; font-family: BACS"">kKRCmhc</p>","","","","","","","",""
"html-keyboard-response","312","386732","0.0-13.0-0.62","5feb64b3341f42bb63200e36","64afc2c9a8732ea92db0087d","64afd84b2278b5a2a9cb4704","null","null","<p style=""font-size: 60px; font-family: BACS"">GLYrAYZUZ</p>","","","","","","","",""
"html-keyboard-response","313","387740","0.0-13.0-0.63","5feb64b3341f42bb63200e36","64afc2c9a8732ea92db0087d","64afd84b2278b5a2a9cb4704","null","null","<p style=""font-size: 60px; font-family: BACS"">kKRCmCd</p>","","","","","","","",""
"html-keyboard-response","314","388744","0.0-13.0-0.64","5feb64b3341f42bb63200e36","64afc2c9a8732ea92db0087d","64afd84b2278b5a2a9cb4704","null","null","<p style=""font-size: 60px; font-family: BACS"">lhCTCTbk</p>","","","","","","","",""
"html-keyboard-response","315","389759","0.0-13.0-0.65","5feb64b3341f42bb63200e36","64afc2c9a8732ea92db0087d","64afd84b2278b5a2a9cb4704","null","null","<p style=""font-size: 60px; font-family: BACS"">vYLUYZUZ</p>","","","","","","","",""
"html-keyboard-response","316","390764","0.0-13.0-0.66","5feb64b3341f42bb63200e36","64afc2c9a8732ea92db0087d","64afd84b2278b5a2a9cb4704","null","null","<p style=""font-size: 60px; font-family: BACS"">kKRCTbk</p>","","","","","","","",""
"html-keyboard-response","317","391780","0.0-13.0-0.67","5feb64b3341f42bb63200e36","64afc2c9a8732ea92db0087d","64afd84b2278b5a2a9cb4704","null","null","<p style=""font-size: 60px; font-family: BACS"">BECkmCd</p>","","","","","","","",""
"html-keyboard-response","318","392785","0.0-13.0-0.68","5feb64b3341f42bb63200e36","64afc2c9a8732ea92db0087d","64afd84b2278b5a2a9cb4704","null","null","<p style=""font-size: 60px; font-family: BACS"">vYLUQru</p>","","","","","","","",""
"html-keyboard-response","319","393800","0.0-13.0-0.69","5feb64b3341f42bb63200e36","64afc2c9a8732ea92db0087d","64afd84b2278b5a2a9cb4704","null","null","<p style=""font-size: 60px; font-family: BACS"">lhCTCmhc</p>","","","","","","","",""
"html-keyboard-response","320","394811","0.0-13.0-0.70","5feb64b3341f42bb63200e36","64afc2c9a8732ea92db0087d","64afd84b2278b5a2a9cb4704","null","null","<p style=""font-size: 60px; font-family: BACS"">uQuZcYZUZ</p>","","","","","","","",""
"html-keyboard-response","321","395815","0.0-13.0-0.71","5feb64b3341f42bb63200e36","64afc2c9a8732ea92db0087d","64afd84b2278b5a2a9cb4704","null","null","<p style=""font-size: 60px; font-family: BACS"">GJGcZYbN</p>","","","","","","","",""
"html-keyboard-response","322","396816","0.0-13.0-0.72","5feb64b3341f42bb63200e36","64afc2c9a8732ea92db0087d","64afd84b2278b5a2a9cb4704","null","null","<p style=""font-size: 60px; font-family: BACS"">BECktAY</p>","","","","","","","",""
"html-keyboard-response","323","397820","0.0-13.0-0.73","5feb64b3341f42bb63200e36","64afc2c9a8732ea92db0087d","64afd84b2278b5a2a9cb4704","null","null","<p style=""font-size: 60px; font-family: BACS"">DOBhYmhc</p>","","","","","","","",""
"html-keyboard-response","324","398836","0.0-13.0-0.74","5feb64b3341f42bb63200e36","64afc2c9a8732ea92db0087d","64afd84b2278b5a2a9cb4704","null","null","<p style=""font-size: 60px; font-family: BACS"">NJZlYZUZ</p>","","","","","","","",""
"html-keyboard-response","325","399847","0.0-13.0-0.75","5feb64b3341f42bb63200e36","64afc2c9a8732ea92db0087d","64afd84b2278b5a2a9cb4704","null","null","<p style=""font-size: 60px; font-family: BACS"">CYPcTPOM</p>","","","","","","","",""
"html-keyboard-response","326","400848","0.0-13.0-0.76","5feb64b3341f42bb63200e36","64afc2c9a8732ea92db0087d","64afd84b2278b5a2a9cb4704","null","null","<p style=""font-size: 60px; font-family: BACS"">mLdkZYZUZ</p>","","","","","","","",""
"html-keyboard-response","327","401863","0.0-13.0-0.77","5feb64b3341f42bb63200e36","64afc2c9a8732ea92db0087d","64afd84b2278b5a2a9cb4704","null","null","<p style=""font-size: 60px; font-family: BACS"">vYLUYbN</p>","","","","","","","",""
"html-keyboard-response","328","402878","0.0-13.0-0.78","5feb64b3341f42bb63200e36","64afc2c9a8732ea92db0087d","64afd84b2278b5a2a9cb4704","null","null","<p style=""font-size: 60px; font-family: BACS"">mLdkZuda</p>","","","","","","","",""
"html-keyboard-response","329","403881","0.0-13.0-0.79","5feb64b3341f42bb63200e36","64afc2c9a8732ea92db0087d","64afd84b2278b5a2a9cb4704","null","null","<p style=""font-size: 60px; font-family: BACS"">dMYBPTbk</p>","","","","","","","",""
"html-keyboard-response","330","443270","0.0-14.0","5feb64b3341f42bb63200e36","64afc2c9a8732ea92db0087d","64afd84b2278b5a2a9cb4704","39389"," ","<p>Ottimo! Hai visto tutte le parole che abbiamo ricevuto dallo spazio.</p>
      <p>Premi la barra quando sei pronta/o per continuare.</p>","","","","","","","",""
"html-keyboard-response","331","530016","0.0-15.0","5feb64b3341f42bb63200e36","64afc2c9a8732ea92db0087d","64afd84b2278b5a2a9cb4704","86745"," ","<p>In questa seconda parte, vedrai delle nuove parole che abbiamo ricevuto dallo stesso gruppo di alieni, e altre che invece provengono da un'altra comunicazione, con un altro gruppo di alieni. Purtroppo le due comunicazioni non arrivano a noi separatamente, per cui le parole sono mescolate tra loro. Il tuo compito sarà quello di individuare le parole che provengono dal gruppo che hai studiato nella prima parte dell'esperimento.</p>
      <p>Questo compito non è per nulla facile; le due comunicazioni infatti usano gli stessi caratteri. Il tuo meeting con i leader mondiali inizia tra poco, per cui non avrai molto tempo per prendere la tua decisione; dovrai essere veloce. Cerca di fare del tuo meglio usando la tua intuizione; non hai tempo di stare a pensare a lungo su ogni singola parola.</p>
      <p>Premi <strong>k</strong> quando pensi che la parola che stai vedendo sia degli stessi alieni che hai studiato prima, e <strong>d</strong> quando invece pensi che la parola che stai vedendo venga dall'altra comunicazione, con il nuovo gruppo di alieni.</p><p>Premi la barra quando sei pronta/o per iniziare.</p>","","","","","","","",""
"html-keyboard-response","332","531416","0.0-16.0-0.0","5feb64b3341f42bb63200e36","64afc2c9a8732ea92db0087d","64afd84b2278b5a2a9cb4704","1399","k","<p style=""font-size: 30px;"">La parola viene del gruppo di alieni che hai studiato prima?</p><br><p style=""font-size: 60px; font-family: BACS"">BECkmhc<p style=""font-size: 15px"">Premi <strong>k</strong> per sì, <strong>d</strong> per no.</p>","","BECkmhc","testing","k","true","","",""
"html-keyboard-response","333","532336","0.0-16.0-0.1","5feb64b3341f42bb63200e36","64afc2c9a8732ea92db0087d","64afd84b2278b5a2a9cb4704","918","d","<p style=""font-size: 30px;"">La parola viene del gruppo di alieni che hai studiato prima?</p><br><p style=""font-size: 60px; font-family: BACS"">lhCTCTPOM<p style=""font-size: 15px"">Premi <strong>k</strong> per sì, <strong>d</strong> per no.</p>","","lhCTCTPOM","testing","k","false","","",""
"html-keyboard-response","334","533640","0.0-16.0-0.2","5feb64b3341f42bb63200e36","64afc2c9a8732ea92db0087d","64afd84b2278b5a2a9cb4704","1304","d","<p style=""font-size: 30px;"">La parola viene del gruppo di alieni che hai studiato prima?</p><br><p style=""font-size: 60px; font-family: BACS"">kbmZOYbN<p style=""font-size: 15px"">Premi <strong>k</strong> per sì, <strong>d</strong> per no.</p>","","kbmZOYbN","testing","k","false","","",""
"html-keyboard-response","335","534440","0.0-16.0-0.3","5feb64b3341f42bb63200e36","64afc2c9a8732ea92db0087d","64afd84b2278b5a2a9cb4704","799","k","<p style=""font-size: 30px"">&emsp;</p><br><p style=""font-size: 60px; font-family: BACS"">vYLUTPOM<p style=""font-size: 15px"">Premi <strong>k</strong> per sì, <strong>d</strong> per no.</p>","","vYLUTPOM","testing","d","false","","",""
"html-keyboard-response","336","535568","0.0-16.0-0.4","5feb64b3341f42bb63200e36","64afc2c9a8732ea92db0087d","64afd84b2278b5a2a9cb4704","1128","k","<p style=""font-size: 30px"">&emsp;</p><br><p style=""font-size: 60px; font-family: BACS"">dMYBPmCd<p style=""font-size: 15px"">Premi <strong>k</strong> per sì, <strong>d</strong> per no.</p>","","dMYBPmCd","testing","k","true","","",""
"html-keyboard-response","337","536681","0.0-16.0-0.5","5feb64b3341f42bb63200e36","64afc2c9a8732ea92db0087d","64afd84b2278b5a2a9cb4704","1112","d","<p style=""font-size: 30px"">&emsp;</p><br><p style=""font-size: 60px; font-family: BACS"">lRCBTbk<p style=""font-size: 15px"">Premi <strong>k</strong> per sì, <strong>d</strong> per no.</p>","","lRCBTbk","testing","k","false","","",""
"html-keyboard-response","338","537465","0.0-16.0-0.6","5feb64b3341f42bb63200e36","64afc2c9a8732ea92db0087d","64afd84b2278b5a2a9cb4704","784","d","<p style=""font-size: 30px"">&emsp;</p><br><p style=""font-size: 60px; font-family: BACS"">GLYrAmCd<p style=""font-size: 15px"">Premi <strong>k</strong> per sì, <strong>d</strong> per no.</p>","","GLYrAmCd","testing","d","true","","",""
"html-keyboard-response","339","538377","0.0-16.0-0.7","5feb64b3341f42bb63200e36","64afc2c9a8732ea92db0087d","64afd84b2278b5a2a9cb4704","912","d","<p style=""font-size: 30px"">&emsp;</p><br><p style=""font-size: 60px; font-family: BACS"">uQuZcuda<p style=""font-size: 15px"">Premi <strong>k</strong> per sì, <strong>d</strong> per no.</p>","","uQuZcuda","testing","k","false","","",""
"html-keyboard-response","340","539777","0.0-16.0-0.8","5feb64b3341f42bb63200e36","64afc2c9a8732ea92db0087d","64afd84b2278b5a2a9cb4704","1400","k","<p style=""font-size: 30px"">&emsp;</p><br><p style=""font-size: 60px; font-family: BACS"">lhCTCkGua<p style=""font-size: 15px"">Premi <strong>k</strong> per sì, <strong>d</strong> per no.</p>","","lhCTCkGua","testing","d","false","","",""
"html-keyboard-response","341","540545","0.0-16.0-0.9","5feb64b3341f42bb63200e36","64afc2c9a8732ea92db0087d","64afd84b2278b5a2a9cb4704","768","d","<p style=""font-size: 30px"">&emsp;</p><br><p style=""font-size: 60px; font-family: BACS"">kKRCtAY<p style=""font-size: 15px"">Premi <strong>k</strong> per sì, <strong>d</strong> per no.</p>","","kKRCtAY","testing","k","false","","",""
"html-keyboard-response","342","541577","0.0-16.0-0.10","5feb64b3341f42bb63200e36","64afc2c9a8732ea92db0087d","64afd84b2278b5a2a9cb4704","1031","d","<p style=""font-size: 30px"">&emsp;</p><br><p style=""font-size: 60px; font-family: BACS"">CYPcmhc<p style=""font-size: 15px"">Premi <strong>k</strong> per sì, <strong>d</strong> per no.</p>","","CYPcmhc","testing","k","false","","",""
"html-keyboard-response","343","542425","0.0-16.0-0.11","5feb64b3341f42bb63200e36","64afc2c9a8732ea92db0087d","64afd84b2278b5a2a9cb4704","848","d","<p style=""font-size: 30px"">&emsp;</p><br><p style=""font-size: 60px; font-family: BACS"">kKRCuda<p style=""font-size: 15px"">Premi <strong>k</strong> per sì, <strong>d</strong> per no.</p>","","kKRCuda","testing","d","true","","",""
"html-keyboard-response","344","543849","0.0-16.0-0.12","5feb64b3341f42bb63200e36","64afc2c9a8732ea92db0087d","64afd84b2278b5a2a9cb4704","1424","k","<p style=""font-size: 30px"">&emsp;</p><br><p style=""font-size: 60px; font-family: BACS"">NJZlkGua<p style=""font-size: 15px"">Premi <strong>k</strong> per sì, <strong>d</strong> per no.</p>","","NJZlkGua","testing","k","true","","",""
"html-keyboard-response","345","544937","0.0-16.0-0.13","5feb64b3341f42bb63200e36","64afc2c9a8732ea92db0087d","64afd84b2278b5a2a9cb4704","1088","k","<p style=""font-size: 30px"">&emsp;</p><br><p style=""font-size: 60px; font-family: BACS"">dMYBPQru<p style=""font-size: 15px"">Premi <strong>k</strong> per sì, <strong>d</strong> per no.</p>","","dMYBPQru","testing","d","false","","",""
"html-keyboard-response","346","545658","0.0-16.0-0.14","5feb64b3341f42bb63200e36","64afc2c9a8732ea92db0087d","64afd84b2278b5a2a9cb4704","720","k","<p style=""font-size: 30px"">&emsp;</p><br><p style=""font-size: 60px; font-family: BACS"">JmvmOYbN<p style=""font-size: 15px"">Premi <strong>k</strong> per sì, <strong>d</strong> per no.</p>","","JmvmOYbN","testing","k","true","","",""
"html-keyboard-response","347","546690","0.0-16.0-0.15","5feb64b3341f42bb63200e36","64afc2c9a8732ea92db0087d","64afd84b2278b5a2a9cb4704","1032","d","<p style=""font-size: 30px"">&emsp;</p><br><p style=""font-size: 60px; font-family: BACS"">GJGcZtAY<p style=""font-size: 15px"">Premi <strong>k</strong> per sì, <strong>d</strong> per no.</p>","","GJGcZtAY","testing","d","true","","",""
"html-keyboard-response","348","548170","0.0-16.0-0.16","5feb64b3341f42bb63200e36","64afc2c9a8732ea92db0087d","64afd84b2278b5a2a9cb4704","1480","d","<p style=""font-size: 30px"">&emsp;</p><br><p style=""font-size: 60px; font-family: BACS"">BECkYbN<p style=""font-size: 15px"">Premi <strong>k</strong> per sì, <strong>d</strong> per no.</p>","","BECkYbN","testing","d","true","","",""
"html-keyboard-response","349","549402","0.0-16.0-0.17","5feb64b3341f42bb63200e36","64afc2c9a8732ea92db0087d","64afd84b2278b5a2a9cb4704","1232","d","<p style=""font-size: 30px"">&emsp;</p><br><p style=""font-size: 60px; font-family: BACS"">lRCBYZUZ<p style=""font-size: 15px"">Premi <strong>k</strong> per sì, <strong>d</strong> per no.</p>","","lRCBYZUZ","testing","d","true","","",""
"html-keyboard-response","350","550995","0.0-16.0-0.18","5feb64b3341f42bb63200e36","64afc2c9a8732ea92db0087d","64afd84b2278b5a2a9cb4704","1592","k","<p style=""font-size: 30px"">&emsp;</p><br><p style=""font-size: 60px; font-family: BACS"">TCbDCTPOM<p style=""font-size: 15px"">Premi <strong>k</strong> per sì, <strong>d</strong> per no.</p>","","TCbDCTPOM","testing","k","true","","",""
"html-keyboard-response","351","552066","0.0-16.0-0.19","5feb64b3341f42bb63200e36","64afc2c9a8732ea92db0087d","64afd84b2278b5a2a9cb4704","1071","d","<p style=""font-size: 30px"">&emsp;</p><br><p style=""font-size: 60px; font-family: BACS"">CYPcYbN<p style=""font-size: 15px"">Premi <strong>k</strong> per sì, <strong>d</strong> per no.</p>","","CYPcYbN","testing","d","true","","",""
"html-keyboard-response","352","552923","0.0-16.0-0.20","5feb64b3341f42bb63200e36","64afc2c9a8732ea92db0087d","64afd84b2278b5a2a9cb4704","856","d","<p style=""font-size: 30px"">&emsp;</p><br><p style=""font-size: 60px; font-family: BACS"">EYtYRQru<p style=""font-size: 15px"">Premi <strong>k</strong> per sì, <strong>d</strong> per no.</p>","","EYtYRQru","testing","d","true","","",""
"html-keyboard-response","353","553859","0.0-16.0-0.21","5feb64b3341f42bb63200e36","64afc2c9a8732ea92db0087d","64afd84b2278b5a2a9cb4704","935","d","<p style=""font-size: 30px"">&emsp;</p><br><p style=""font-size: 60px; font-family: BACS"">uQuZctAY<p style=""font-size: 15px"">Premi <strong>k</strong> per sì, <strong>d</strong> per no.</p>","","uQuZctAY","testing","d","true","","",""
"html-keyboard-response","354","554555","0.0-16.0-0.22","5feb64b3341f42bb63200e36","64afc2c9a8732ea92db0087d","64afd84b2278b5a2a9cb4704","695","k","<p style=""font-size: 30px"">&emsp;</p><br><p style=""font-size: 60px; font-family: BACS"">MhKdYZUZ<p style=""font-size: 15px"">Premi <strong>k</strong> per sì, <strong>d</strong> per no.</p>","","MhKdYZUZ","testing","d","false","","",""
"html-keyboard-response","355","555363","0.0-16.0-0.23","5feb64b3341f42bb63200e36","64afc2c9a8732ea92db0087d","64afd84b2278b5a2a9cb4704","808","k","<p style=""font-size: 30px"">&emsp;</p><br><p style=""font-size: 60px; font-family: BACS"">GLYrAQru<p style=""font-size: 15px"">Premi <strong>k</strong> per sì, <strong>d</strong> per no.</p>","","GLYrAQru","testing","k","true","","",""
"html-keyboard-response","356","556043","0.0-16.0-0.24","5feb64b3341f42bb63200e36","64afc2c9a8732ea92db0087d","64afd84b2278b5a2a9cb4704","680","k","<p style=""font-size: 30px"">&emsp;</p><br><p style=""font-size: 60px; font-family: BACS"">vYLUkGua<p style=""font-size: 15px"">Premi <strong>k</strong> per sì, <strong>d</strong> per no.</p>","","vYLUkGua","testing","k","true","","",""
"html-keyboard-response","357","557035","0.0-16.0-0.25","5feb64b3341f42bb63200e36","64afc2c9a8732ea92db0087d","64afd84b2278b5a2a9cb4704","991","k","<p style=""font-size: 30px"">&emsp;</p><br><p style=""font-size: 60px; font-family: BACS"">GJGcZuda<p style=""font-size: 15px"">Premi <strong>k</strong> per sì, <strong>d</strong> per no.</p>","","GJGcZuda","testing","k","true","","",""
"html-keyboard-response","358","558019","0.0-16.0-0.26","5feb64b3341f42bb63200e36","64afc2c9a8732ea92db0087d","64afd84b2278b5a2a9cb4704","984","k","<p style=""font-size: 30px"">&emsp;</p><br><p style=""font-size: 60px; font-family: BACS"">MhKdTbk<p style=""font-size: 15px"">Premi <strong>k</strong> per sì, <strong>d</strong> per no.</p>","","MhKdTbk","testing","k","true","","",""
"html-keyboard-response","359","558731","0.0-16.0-0.27","5feb64b3341f42bb63200e36","64afc2c9a8732ea92db0087d","64afd84b2278b5a2a9cb4704","712","k","<p style=""font-size: 30px"">&emsp;</p><br><p style=""font-size: 60px; font-family: BACS"">DOBhYuda<p style=""font-size: 15px"">Premi <strong>k</strong> per sì, <strong>d</strong> per no.</p>","","DOBhYuda","testing","d","false","","",""
"html-keyboard-response","360","559492","0.0-16.0-0.28","5feb64b3341f42bb63200e36","64afc2c9a8732ea92db0087d","64afd84b2278b5a2a9cb4704","760","k","<p style=""font-size: 30px"">&emsp;</p><br><p style=""font-size: 60px; font-family: BACS"">EYtYRmCd<p style=""font-size: 15px"">Premi <strong>k</strong> per sì, <strong>d</strong> per no.</p>","","EYtYRmCd","testing","k","true","","",""
"html-keyboard-response","361","560579","0.0-16.0-0.29","5feb64b3341f42bb63200e36","64afc2c9a8732ea92db0087d","64afd84b2278b5a2a9cb4704","1087","d","<p style=""font-size: 30px"">&emsp;</p><br><p style=""font-size: 60px; font-family: BACS"">JmvmOmhc<p style=""font-size: 15px"">Premi <strong>k</strong> per sì, <strong>d</strong> per no.</p>","","JmvmOmhc","testing","d","true","","",""
"html-keyboard-response","362","561844","0.0-16.0-0.30","5feb64b3341f42bb63200e36","64afc2c9a8732ea92db0087d","64afd84b2278b5a2a9cb4704","1264","d","<p style=""font-size: 30px"">&emsp;</p><br><p style=""font-size: 60px; font-family: BACS"">ldAaTbk<p style=""font-size: 15px"">Premi <strong>k</strong> per sì, <strong>d</strong> per no.</p>","","ldAaTbk","testing","d","true","","",""
"html-keyboard-response","363","562651","0.0-16.0-0.31","5feb64b3341f42bb63200e36","64afc2c9a8732ea92db0087d","64afd84b2278b5a2a9cb4704","807","d","<p style=""font-size: 30px"">&emsp;</p><br><p style=""font-size: 60px; font-family: BACS"">kNuaYZUZ<p style=""font-size: 15px"">Premi <strong>k</strong> per sì, <strong>d</strong> per no.</p>","","kNuaYZUZ","testing","k","false","","",""
"html-keyboard-response","364","563284","0.0-16.0-0.32","5feb64b3341f42bb63200e36","64afc2c9a8732ea92db0087d","64afd84b2278b5a2a9cb4704","632","k","<p style=""font-size: 30px"">&emsp;</p><br><p style=""font-size: 60px; font-family: BACS"">kbmZOmhc<p style=""font-size: 15px"">Premi <strong>k</strong> per sì, <strong>d</strong> per no.</p>","","kbmZOmhc","testing","d","false","","",""
"html-keyboard-response","365","564141","0.0-16.0-0.33","5feb64b3341f42bb63200e36","64afc2c9a8732ea92db0087d","64afd84b2278b5a2a9cb4704","856","d","<p style=""font-size: 30px"">&emsp;</p><br><p style=""font-size: 60px; font-family: BACS"">mLdkZQru<p style=""font-size: 15px"">Premi <strong>k</strong> per sì, <strong>d</strong> per no.</p>","","mLdkZQru","testing","k","false","","",""
"html-keyboard-response","366","565276","0.0-16.0-0.34","5feb64b3341f42bb63200e36","64afc2c9a8732ea92db0087d","64afd84b2278b5a2a9cb4704","1135","k","<p style=""font-size: 30px"">&emsp;</p><br><p style=""font-size: 60px; font-family: BACS"">kNuaTbk<p style=""font-size: 15px"">Premi <strong>k</strong> per sì, <strong>d</strong> per no.</p>","","kNuaTbk","testing","d","false","","",""
"html-keyboard-response","367","566020","0.0-16.0-0.35","5feb64b3341f42bb63200e36","64afc2c9a8732ea92db0087d","64afd84b2278b5a2a9cb4704","743","d","<p style=""font-size: 30px"">&emsp;</p><br><p style=""font-size: 60px; font-family: BACS"">mLdkZmCd<p style=""font-size: 15px"">Premi <strong>k</strong> per sì, <strong>d</strong> per no.</p>","","mLdkZmCd","testing","d","true","","",""
"html-keyboard-response","368","567452","0.0-16.0-0.36","5feb64b3341f42bb63200e36","64afc2c9a8732ea92db0087d","64afd84b2278b5a2a9cb4704","1432","k","<p style=""font-size: 30px"">&emsp;</p><br><p style=""font-size: 60px; font-family: BACS"">ldAaYZUZ<p style=""font-size: 15px"">Premi <strong>k</strong> per sì, <strong>d</strong> per no.</p>","","ldAaYZUZ","testing","k","true","","",""
"html-keyboard-response","369","568588","0.0-16.0-0.37","5feb64b3341f42bb63200e36","64afc2c9a8732ea92db0087d","64afd84b2278b5a2a9cb4704","1136","d","<p style=""font-size: 30px"">&emsp;</p><br><p style=""font-size: 60px; font-family: BACS"">NJZlTPOM<p style=""font-size: 15px"">Premi <strong>k</strong> per sì, <strong>d</strong> per no.</p>","","NJZlTPOM","testing","d","true","","",""
"html-keyboard-response","370","569508","0.0-16.0-0.38","5feb64b3341f42bb63200e36","64afc2c9a8732ea92db0087d","64afd84b2278b5a2a9cb4704","920","k","<p style=""font-size: 30px"">&emsp;</p><br><p style=""font-size: 60px; font-family: BACS"">DOBhYtAY<p style=""font-size: 15px"">Premi <strong>k</strong> per sì, <strong>d</strong> per no.</p>","","DOBhYtAY","testing","k","true","","",""
"html-keyboard-response","371","570228","0.0-16.0-0.39","5feb64b3341f42bb63200e36","64afc2c9a8732ea92db0087d","64afd84b2278b5a2a9cb4704","720","k","<p style=""font-size: 30px"">&emsp;</p><br><p style=""font-size: 60px; font-family: BACS"">TCbDCkGua<p style=""font-size: 15px"">Premi <strong>k</strong> per sì, <strong>d</strong> per no.</p>","","TCbDCkGua","testing","d","false","","",""
