trial_type,trial_index,time_elapsed,internal_node_id,subject_id,study_id,session_id,rt,response,stimulus,success,item,task,correct_response,testing_condition,correct,target,confound,name,view_history
pavlovia,0,934,0.0-0.0,601ffb441dc6d959b855eea5,650c16f0f2faf8d7a0d14c09,651c1d94f84770358d76ef0b,,,,,,,,,,,,,
survey-html-form,1,9411,0.0-1.0,601ffb441dc6d959b855eea5,650c16f0f2faf8d7a0d14c09,651c1d94f84770358d76ef0b,8476,"{""ID"":""601ffb441dc6d959b855eea5""}",,,,,,,,,,,
html-keyboard-response,2,103921,0.0-2.0,601ffb441dc6d959b855eea5,650c16f0f2faf8d7a0d14c09,651c1d94f84770358d76ef0b,94509, ,"<p style=""font-size: 15px;"">Before beginning, we ask that you read the consent information and confirm your agreement to participate in the experiment.</p>
      <p style=""font-size: 15px;""> We ask that you remember that this is a research project and that your participation is entirely voluntary. You can stop your participation at any time, without needing to provide any explanation. The study we're asking you to participate in aims at examining how readers process written words. You will be engaged in a session of apprximately 20 minutes, followed by a brief questionnaire. You will have the opportunity to take a few breaks during the experiment. You will be paid £4 for your participation, corresponding to a rate of £8/hour. While this experiment looks at cognitive faculties, this experiment doesn't constitute clinical proof of eventual pathologies.</p>
      <p style=""font-size: 15px;"">All of the information collected thanks to yours and others' participation will be held in a secure password-protected server, and will not be shared with anyone not authorised to view it. Your personal information will be kept with an arbitrary participant ID. Thanks to this data anonymity process, any researcher analysing the data won't be able to track the information back to a specific participant. Therefore, this process will make identifying you impossibile, even when results from the study will be published in scientific reviews, presented at congresses, or at any other public forum. More generally, the collected data will be treated in accordance with the laws on privacy and conformity to the Legislative Degree n. 196 ""Code regarding the protection of personal data"" of the 30th of June 2003 and to the European Regulation 2016/670 (General Data Protection Regulation - GDPR). The Data Protection Officer is Avv. Valentina Carollo, who can be contacted at the following email addresses: <a href=""mailto:dpo@sissa.it"">dpo@sissa.it</a> or <a href=""mailto:rpd@sissa.it"">rpd@sissa.it</a> - PEC: <a href=""mailto:protocollo@pec.sissa.it"">protocollo@pec.sissa.it</a>.</p>
      <p style=""font-size: 15px;""> Before expressing your consent to participate, we would like to remind you again that in case you need explanations on any aspect of the experimental procedure, the researcher is at your disposition (<a href=""mailto:aliebelt@sissa.it"">aliebelt@sissa.it</a>, <a href=""mailto:davide.crepaldi@sissa.it"">davide.crepaldi@sissa.it</a>).</p>
      <p style=""font-size: 15px;"">If you would like to download the informed consent form, you can do so here: <a href=""BASL-Informed_Consent.pdf"" download>informed consent form</a>.</p>
      <p style=""font-size: 15px;"">We ask that you press the spacebar to proceed to the consent section.</p>",,,,,,,,,,
survey-html-form,3,146509,0.0-3.0,601ffb441dc6d959b855eea5,650c16f0f2faf8d7a0d14c09,651c1d94f84770358d76ef0b,42588,"{""consent1"":""YES"",""consent2"":""YES"",""consent3"":""YES"",""consent4"":""YES"",""consent5"":""YES"",""consent6"":""YES""}",,,,,,,,,,,
fullscreen,4,151308,0.0-4.0,601ffb441dc6d959b855eea5,650c16f0f2faf8d7a0d14c09,651c1d94f84770358d76ef0b,,,,TRUE,,,,,,,,,
html-keyboard-response,5,245837,0.0-5.0,601ffb441dc6d959b855eea5,650c16f0f2faf8d7a0d14c09,651c1d94f84770358d76ef0b,94528, ,"<p>Welcome, and thank you very much for your time!</p>
      <p>In this experiment, you'll be a language expert who's been asked to take a look at words that Earth has received in its first communication with aliens. Your task, in this first part of the experiment, is to pay close attention to the words you'll be shown; later, world leaders will ask you questions on what you saw. The words will be shown to you quite quickly; it seems that the aliens were in a hurry :-)</p>
      <p>Press the spacebar to continue.<p>",,,,,,,,,,
html-keyboard-response,6,245888,0.0-6.0,601ffb441dc6d959b855eea5,650c16f0f2faf8d7a0d14c09,651c1d94f84770358d76ef0b,null,null,"<p style=""font-size: 120px; font-family: BACS""> </p>",,,,,,,,,,
html-keyboard-response,7,254011,0.0-7.0,601ffb441dc6d959b855eea5,650c16f0f2faf8d7a0d14c09,651c1d94f84770358d76ef0b,8123, ,"<p>Here is an example of the words you'll see:</p>
      <img src='esempio.png' height='400px'>
      <p>When you're ready to begin, press the spacebar.</p></div>",,,,,,,,,,
html-keyboard-response,8,255012,0.0-8.0-0.0,601ffb441dc6d959b855eea5,650c16f0f2faf8d7a0d14c09,651c1d94f84770358d76ef0b,null,null,"<p style=""font-size: 60px; font-family: BACS"">vkYGlJcUk</p>",,,,,,,,,,
html-keyboard-response,9,256014,0.0-8.0-0.1,601ffb441dc6d959b855eea5,650c16f0f2faf8d7a0d14c09,651c1d94f84770358d76ef0b,null,null,"<p style=""font-size: 60px; font-family: BACS"">ZNLOvkJdr</p>",,,,,,,,,,
html-keyboard-response,10,257015,0.0-8.0-0.2,601ffb441dc6d959b855eea5,650c16f0f2faf8d7a0d14c09,651c1d94f84770358d76ef0b,null,null,"<p style=""font-size: 60px; font-family: BACS"">bcbMRdCc</p>",,,,,,,,,,
html-keyboard-response,11,258016,0.0-8.0-0.3,601ffb441dc6d959b855eea5,650c16f0f2faf8d7a0d14c09,651c1d94f84770358d76ef0b,null,null,"<p style=""font-size: 60px; font-family: BACS"">ZdNmUNUZ</p>",,,,,,,,,,
html-keyboard-response,12,259016,0.0-8.0-0.4,601ffb441dc6d959b855eea5,650c16f0f2faf8d7a0d14c09,651c1d94f84770358d76ef0b,null,null,"<p style=""font-size: 60px; font-family: BACS"">vkYGlkJdr</p>",,,,,,,,,,
html-keyboard-response,13,260017,0.0-8.0-0.5,601ffb441dc6d959b855eea5,650c16f0f2faf8d7a0d14c09,651c1d94f84770358d76ef0b,null,null,"<p style=""font-size: 60px; font-family: BACS"">kcdOtRdCc</p>",,,,,,,,,,
html-keyboard-response,14,261018,0.0-8.0-0.6,601ffb441dc6d959b855eea5,650c16f0f2faf8d7a0d14c09,651c1d94f84770358d76ef0b,null,null,"<p style=""font-size: 60px; font-family: BACS"">bcbMRCdc</p>",,,,,,,,,,
html-keyboard-response,15,262019,0.0-8.0-0.7,601ffb441dc6d959b855eea5,650c16f0f2faf8d7a0d14c09,651c1d94f84770358d76ef0b,null,null,"<p style=""font-size: 60px; font-family: BACS"">vkYGlrAm</p>",,,,,,,,,,
html-keyboard-response,16,263020,0.0-8.0-0.8,601ffb441dc6d959b855eea5,650c16f0f2faf8d7a0d14c09,651c1d94f84770358d76ef0b,null,null,"<p style=""font-size: 60px; font-family: BACS"">PDPhlEKBO</p>",,,,,,,,,,
html-keyboard-response,17,264021,0.0-8.0-0.9,601ffb441dc6d959b855eea5,650c16f0f2faf8d7a0d14c09,651c1d94f84770358d76ef0b,null,null,"<p style=""font-size: 60px; font-family: BACS"">kKEdMRCdc</p>",,,,,,,,,,
html-keyboard-response,18,265021,0.0-8.0-0.10,601ffb441dc6d959b855eea5,650c16f0f2faf8d7a0d14c09,651c1d94f84770358d76ef0b,null,null,"<p style=""font-size: 60px; font-family: BACS"">aYQmNUZ</p>",,,,,,,,,,
html-keyboard-response,19,266022,0.0-8.0-0.11,601ffb441dc6d959b855eea5,650c16f0f2faf8d7a0d14c09,651c1d94f84770358d76ef0b,null,null,"<p style=""font-size: 60px; font-family: BACS"">bvuZkJdr</p>",,,,,,,,,,
html-keyboard-response,20,267023,0.0-8.0-0.12,601ffb441dc6d959b855eea5,650c16f0f2faf8d7a0d14c09,651c1d94f84770358d76ef0b,null,null,"<p style=""font-size: 60px; font-family: BACS"">GAcYNUZ</p>",,,,,,,,,,
html-keyboard-response,21,268024,0.0-8.0-0.13,601ffb441dc6d959b855eea5,650c16f0f2faf8d7a0d14c09,651c1d94f84770358d76ef0b,null,null,"<p style=""font-size: 60px; font-family: BACS"">AMkCRCdc</p>",,,,,,,,,,
html-keyboard-response,22,269025,0.0-8.0-0.14,601ffb441dc6d959b855eea5,650c16f0f2faf8d7a0d14c09,651c1d94f84770358d76ef0b,null,null,"<p style=""font-size: 60px; font-family: BACS"">aOLZUrAm</p>",,,,,,,,,,
html-keyboard-response,23,270026,0.0-8.0-0.15,601ffb441dc6d959b855eea5,650c16f0f2faf8d7a0d14c09,651c1d94f84770358d76ef0b,null,null,"<p style=""font-size: 60px; font-family: BACS"">PCPDhRCdc</p>",,,,,,,,,,
html-keyboard-response,24,271027,0.0-8.0-0.16,601ffb441dc6d959b855eea5,650c16f0f2faf8d7a0d14c09,651c1d94f84770358d76ef0b,null,null,"<p style=""font-size: 60px; font-family: BACS"">ZNLOvJcUk</p>",,,,,,,,,,
html-keyboard-response,25,272028,0.0-8.0-0.17,601ffb441dc6d959b855eea5,650c16f0f2faf8d7a0d14c09,651c1d94f84770358d76ef0b,null,null,"<p style=""font-size: 60px; font-family: BACS"">uauOrAm</p>",,,,,,,,,,
html-keyboard-response,26,273028,0.0-8.0-0.18,601ffb441dc6d959b855eea5,650c16f0f2faf8d7a0d14c09,651c1d94f84770358d76ef0b,null,null,"<p style=""font-size: 60px; font-family: BACS"">PDPhlAlKD</p>",,,,,,,,,,
html-keyboard-response,27,274029,0.0-8.0-0.19,601ffb441dc6d959b855eea5,650c16f0f2faf8d7a0d14c09,651c1d94f84770358d76ef0b,null,null,"<p style=""font-size: 60px; font-family: BACS"">kcdOtEKBO</p>",,,,,,,,,,
html-keyboard-response,28,275030,0.0-8.0-0.20,601ffb441dc6d959b855eea5,650c16f0f2faf8d7a0d14c09,651c1d94f84770358d76ef0b,null,null,"<p style=""font-size: 60px; font-family: BACS"">dMThkTmc</p>",,,,,,,,,,
html-keyboard-response,29,276031,0.0-8.0-0.21,601ffb441dc6d959b855eea5,650c16f0f2faf8d7a0d14c09,651c1d94f84770358d76ef0b,null,null,"<p style=""font-size: 60px; font-family: BACS"">kcdOtAlKD</p>",,,,,,,,,,
html-keyboard-response,30,277032,0.0-8.0-0.22,601ffb441dc6d959b855eea5,650c16f0f2faf8d7a0d14c09,651c1d94f84770358d76ef0b,null,null,"<p style=""font-size: 60px; font-family: BACS"">ZdNmUJcUk</p>",,,,,,,,,,
html-keyboard-response,31,278033,0.0-8.0-0.23,601ffb441dc6d959b855eea5,650c16f0f2faf8d7a0d14c09,651c1d94f84770358d76ef0b,null,null,"<p style=""font-size: 60px; font-family: BACS"">aYQmuvJ</p>",,,,,,,,,,
html-keyboard-response,32,279033,0.0-8.0-0.24,601ffb441dc6d959b855eea5,650c16f0f2faf8d7a0d14c09,651c1d94f84770358d76ef0b,null,null,"<p style=""font-size: 60px; font-family: BACS"">ukcYNUZ</p>",,,,,,,,,,
html-keyboard-response,33,280034,0.0-8.0-0.25,601ffb441dc6d959b855eea5,650c16f0f2faf8d7a0d14c09,651c1d94f84770358d76ef0b,null,null,"<p style=""font-size: 60px; font-family: BACS"">aYQmJcUk</p>",,,,,,,,,,
html-keyboard-response,34,281035,0.0-8.0-0.26,601ffb441dc6d959b855eea5,650c16f0f2faf8d7a0d14c09,651c1d94f84770358d76ef0b,null,null,"<p style=""font-size: 60px; font-family: BACS"">KTDTBAlKD</p>",,,,,,,,,,
html-keyboard-response,35,282036,0.0-8.0-0.27,601ffb441dc6d959b855eea5,650c16f0f2faf8d7a0d14c09,651c1d94f84770358d76ef0b,null,null,"<p style=""font-size: 60px; font-family: BACS"">AlUYNUZ</p>",,,,,,,,,,
html-keyboard-response,36,283037,0.0-8.0-0.28,601ffb441dc6d959b855eea5,650c16f0f2faf8d7a0d14c09,651c1d94f84770358d76ef0b,null,null,"<p style=""font-size: 60px; font-family: BACS"">PCPDhRdCc</p>",,,,,,,,,,
html-keyboard-response,37,284037,0.0-8.0-0.29,601ffb441dc6d959b855eea5,650c16f0f2faf8d7a0d14c09,651c1d94f84770358d76ef0b,null,null,"<p style=""font-size: 60px; font-family: BACS"">kcdOtRCdc</p>",,,,,,,,,,
html-keyboard-response,38,285038,0.0-8.0-0.30,601ffb441dc6d959b855eea5,650c16f0f2faf8d7a0d14c09,651c1d94f84770358d76ef0b,null,null,"<p style=""font-size: 60px; font-family: BACS"">ZNLOvNUZ</p>",,,,,,,,,,
html-keyboard-response,39,286039,0.0-8.0-0.31,601ffb441dc6d959b855eea5,650c16f0f2faf8d7a0d14c09,651c1d94f84770358d76ef0b,null,null,"<p style=""font-size: 60px; font-family: BACS"">AMkCTmc</p>",,,,,,,,,,
html-keyboard-response,40,287040,0.0-8.0-0.32,601ffb441dc6d959b855eea5,650c16f0f2faf8d7a0d14c09,651c1d94f84770358d76ef0b,null,null,"<p style=""font-size: 60px; font-family: BACS"">KTDTBRdCc</p>",,,,,,,,,,
html-keyboard-response,41,288041,0.0-8.0-0.33,601ffb441dc6d959b855eea5,650c16f0f2faf8d7a0d14c09,651c1d94f84770358d76ef0b,null,null,"<p style=""font-size: 60px; font-family: BACS"">PCPDhAlKD</p>",,,,,,,,,,
html-keyboard-response,42,289042,0.0-8.0-0.34,601ffb441dc6d959b855eea5,650c16f0f2faf8d7a0d14c09,651c1d94f84770358d76ef0b,null,null,"<p style=""font-size: 60px; font-family: BACS"">dMThkRdCc</p>",,,,,,,,,,
html-keyboard-response,43,290042,0.0-8.0-0.35,601ffb441dc6d959b855eea5,650c16f0f2faf8d7a0d14c09,651c1d94f84770358d76ef0b,null,null,"<p style=""font-size: 60px; font-family: BACS"">uauONUZ</p>",,,,,,,,,,
html-keyboard-response,44,291044,0.0-8.0-0.36,601ffb441dc6d959b855eea5,650c16f0f2faf8d7a0d14c09,651c1d94f84770358d76ef0b,null,null,"<p style=""font-size: 60px; font-family: BACS"">blMkEKBO</p>",,,,,,,,,,
html-keyboard-response,45,292044,0.0-8.0-0.37,601ffb441dc6d959b855eea5,650c16f0f2faf8d7a0d14c09,651c1d94f84770358d76ef0b,null,null,"<p style=""font-size: 60px; font-family: BACS"">aOLZUuvJ</p>",,,,,,,,,,
html-keyboard-response,46,293045,0.0-8.0-0.38,601ffb441dc6d959b855eea5,650c16f0f2faf8d7a0d14c09,651c1d94f84770358d76ef0b,null,null,"<p style=""font-size: 60px; font-family: BACS"">ukcYJcUk</p>",,,,,,,,,,
html-keyboard-response,47,294046,0.0-8.0-0.39,601ffb441dc6d959b855eea5,650c16f0f2faf8d7a0d14c09,651c1d94f84770358d76ef0b,null,null,"<p style=""font-size: 60px; font-family: BACS"">tRdMEKBO</p>",,,,,,,,,,
html-keyboard-response,48,295047,0.0-8.0-0.40,601ffb441dc6d959b855eea5,650c16f0f2faf8d7a0d14c09,651c1d94f84770358d76ef0b,null,null,"<p style=""font-size: 60px; font-family: BACS"">AlUYrAm</p>",,,,,,,,,,
html-keyboard-response,49,296048,0.0-8.0-0.41,601ffb441dc6d959b855eea5,650c16f0f2faf8d7a0d14c09,651c1d94f84770358d76ef0b,null,null,"<p style=""font-size: 60px; font-family: BACS"">vkYGluvJ</p>",,,,,,,,,,
html-keyboard-response,50,297049,0.0-8.0-0.42,601ffb441dc6d959b855eea5,650c16f0f2faf8d7a0d14c09,651c1d94f84770358d76ef0b,null,null,"<p style=""font-size: 60px; font-family: BACS"">tRdMAlKD</p>",,,,,,,,,,
html-keyboard-response,51,298049,0.0-8.0-0.43,601ffb441dc6d959b855eea5,650c16f0f2faf8d7a0d14c09,651c1d94f84770358d76ef0b,null,null,"<p style=""font-size: 60px; font-family: BACS"">KTDTBTmc</p>",,,,,,,,,,
html-keyboard-response,52,299050,0.0-8.0-0.44,601ffb441dc6d959b855eea5,650c16f0f2faf8d7a0d14c09,651c1d94f84770358d76ef0b,null,null,"<p style=""font-size: 60px; font-family: BACS"">GAcYkJdr</p>",,,,,,,,,,
html-keyboard-response,53,300051,0.0-8.0-0.45,601ffb441dc6d959b855eea5,650c16f0f2faf8d7a0d14c09,651c1d94f84770358d76ef0b,null,null,"<p style=""font-size: 60px; font-family: BACS"">PDPhlRdCc</p>",,,,,,,,,,
html-keyboard-response,54,301052,0.0-8.0-0.46,601ffb441dc6d959b855eea5,650c16f0f2faf8d7a0d14c09,651c1d94f84770358d76ef0b,null,null,"<p style=""font-size: 60px; font-family: BACS"">dMThkRCdc</p>",,,,,,,,,,
html-keyboard-response,55,302052,0.0-8.0-0.47,601ffb441dc6d959b855eea5,650c16f0f2faf8d7a0d14c09,651c1d94f84770358d76ef0b,null,null,"<p style=""font-size: 60px; font-family: BACS"">kKEdMTmc</p>",,,,,,,,,,
html-keyboard-response,56,303053,0.0-8.0-0.48,601ffb441dc6d959b855eea5,650c16f0f2faf8d7a0d14c09,651c1d94f84770358d76ef0b,null,null,"<p style=""font-size: 60px; font-family: BACS"">KTDTBEKBO</p>",,,,,,,,,,
html-keyboard-response,57,304054,0.0-8.0-0.49,601ffb441dc6d959b855eea5,650c16f0f2faf8d7a0d14c09,651c1d94f84770358d76ef0b,null,null,"<p style=""font-size: 60px; font-family: BACS"">PDPhlTmc</p>",,,,,,,,,,
html-keyboard-response,58,305055,0.0-8.0-0.50,601ffb441dc6d959b855eea5,650c16f0f2faf8d7a0d14c09,651c1d94f84770358d76ef0b,null,null,"<p style=""font-size: 60px; font-family: BACS"">AMkCAlKD</p>",,,,,,,,,,
html-keyboard-response,59,306056,0.0-8.0-0.51,601ffb441dc6d959b855eea5,650c16f0f2faf8d7a0d14c09,651c1d94f84770358d76ef0b,null,null,"<p style=""font-size: 60px; font-family: BACS"">ukcYrAm</p>",,,,,,,,,,
html-keyboard-response,60,307056,0.0-8.0-0.52,601ffb441dc6d959b855eea5,650c16f0f2faf8d7a0d14c09,651c1d94f84770358d76ef0b,null,null,"<p style=""font-size: 60px; font-family: BACS"">aOLZUJcUk</p>",,,,,,,,,,
html-keyboard-response,61,308057,0.0-8.0-0.53,601ffb441dc6d959b855eea5,650c16f0f2faf8d7a0d14c09,651c1d94f84770358d76ef0b,null,null,"<p style=""font-size: 60px; font-family: BACS"">PCPDhTmc</p>",,,,,,,,,,
html-keyboard-response,62,309058,0.0-8.0-0.54,601ffb441dc6d959b855eea5,650c16f0f2faf8d7a0d14c09,651c1d94f84770358d76ef0b,null,null,"<p style=""font-size: 60px; font-family: BACS"">uauOkJdr</p>",,,,,,,,,,
html-keyboard-response,63,310058,0.0-8.0-0.55,601ffb441dc6d959b855eea5,650c16f0f2faf8d7a0d14c09,651c1d94f84770358d76ef0b,null,null,"<p style=""font-size: 60px; font-family: BACS"">kKEdMRdCc</p>",,,,,,,,,,
html-keyboard-response,64,311059,0.0-8.0-0.56,601ffb441dc6d959b855eea5,650c16f0f2faf8d7a0d14c09,651c1d94f84770358d76ef0b,null,null,"<p style=""font-size: 60px; font-family: BACS"">aOLZUNUZ</p>",,,,,,,,,,
html-keyboard-response,65,312060,0.0-8.0-0.57,601ffb441dc6d959b855eea5,650c16f0f2faf8d7a0d14c09,651c1d94f84770358d76ef0b,null,null,"<p style=""font-size: 60px; font-family: BACS"">kKEdMEKBO</p>",,,,,,,,,,
html-keyboard-response,66,313060,0.0-8.0-0.58,601ffb441dc6d959b855eea5,650c16f0f2faf8d7a0d14c09,651c1d94f84770358d76ef0b,null,null,"<p style=""font-size: 60px; font-family: BACS"">AMkCRdCc</p>",,,,,,,,,,
html-keyboard-response,67,314061,0.0-8.0-0.59,601ffb441dc6d959b855eea5,650c16f0f2faf8d7a0d14c09,651c1d94f84770358d76ef0b,null,null,"<p style=""font-size: 60px; font-family: BACS"">AlUYuvJ</p>",,,,,,,,,,
html-keyboard-response,68,315061,0.0-8.0-0.60,601ffb441dc6d959b855eea5,650c16f0f2faf8d7a0d14c09,651c1d94f84770358d76ef0b,null,null,"<p style=""font-size: 60px; font-family: BACS"">bvuZJcUk</p>",,,,,,,,,,
html-keyboard-response,69,316063,0.0-8.0-0.61,601ffb441dc6d959b855eea5,650c16f0f2faf8d7a0d14c09,651c1d94f84770358d76ef0b,null,null,"<p style=""font-size: 60px; font-family: BACS"">tRdMRCdc</p>",,,,,,,,,,
html-keyboard-response,70,317063,0.0-8.0-0.62,601ffb441dc6d959b855eea5,650c16f0f2faf8d7a0d14c09,651c1d94f84770358d76ef0b,null,null,"<p style=""font-size: 60px; font-family: BACS"">ZdNmUrAm</p>",,,,,,,,,,
html-keyboard-response,71,318064,0.0-8.0-0.63,601ffb441dc6d959b855eea5,650c16f0f2faf8d7a0d14c09,651c1d94f84770358d76ef0b,null,null,"<p style=""font-size: 60px; font-family: BACS"">GAcYuvJ</p>",,,,,,,,,,
html-keyboard-response,72,319065,0.0-8.0-0.64,601ffb441dc6d959b855eea5,650c16f0f2faf8d7a0d14c09,651c1d94f84770358d76ef0b,null,null,"<p style=""font-size: 60px; font-family: BACS"">aYQmkJdr</p>",,,,,,,,,,
html-keyboard-response,73,320066,0.0-8.0-0.65,601ffb441dc6d959b855eea5,650c16f0f2faf8d7a0d14c09,651c1d94f84770358d76ef0b,null,null,"<p style=""font-size: 60px; font-family: BACS"">bvuZrAm</p>",,,,,,,,,,
html-keyboard-response,74,321067,0.0-8.0-0.66,601ffb441dc6d959b855eea5,650c16f0f2faf8d7a0d14c09,651c1d94f84770358d76ef0b,null,null,"<p style=""font-size: 60px; font-family: BACS"">tRdMTmc</p>",,,,,,,,,,
html-keyboard-response,75,322068,0.0-8.0-0.67,601ffb441dc6d959b855eea5,650c16f0f2faf8d7a0d14c09,651c1d94f84770358d76ef0b,null,null,"<p style=""font-size: 60px; font-family: BACS"">ZdNmUuvJ</p>",,,,,,,,,,
html-keyboard-response,76,323068,0.0-8.0-0.68,601ffb441dc6d959b855eea5,650c16f0f2faf8d7a0d14c09,651c1d94f84770358d76ef0b,null,null,"<p style=""font-size: 60px; font-family: BACS"">blMkTmc</p>",,,,,,,,,,
html-keyboard-response,77,324069,0.0-8.0-0.69,601ffb441dc6d959b855eea5,650c16f0f2faf8d7a0d14c09,651c1d94f84770358d76ef0b,null,null,"<p style=""font-size: 60px; font-family: BACS"">bvuZuvJ</p>",,,,,,,,,,
html-keyboard-response,78,325070,0.0-8.0-0.70,601ffb441dc6d959b855eea5,650c16f0f2faf8d7a0d14c09,651c1d94f84770358d76ef0b,null,null,"<p style=""font-size: 60px; font-family: BACS"">AlUYkJdr</p>",,,,,,,,,,
html-keyboard-response,79,326071,0.0-8.0-0.71,601ffb441dc6d959b855eea5,650c16f0f2faf8d7a0d14c09,651c1d94f84770358d76ef0b,null,null,"<p style=""font-size: 60px; font-family: BACS"">ZNLOvrAm</p>",,,,,,,,,,
html-keyboard-response,80,327072,0.0-8.0-0.72,601ffb441dc6d959b855eea5,650c16f0f2faf8d7a0d14c09,651c1d94f84770358d76ef0b,null,null,"<p style=""font-size: 60px; font-family: BACS"">bcbMEKBO</p>",,,,,,,,,,
html-keyboard-response,81,328073,0.0-8.0-0.73,601ffb441dc6d959b855eea5,650c16f0f2faf8d7a0d14c09,651c1d94f84770358d76ef0b,null,null,"<p style=""font-size: 60px; font-family: BACS"">blMkAlKD</p>",,,,,,,,,,
html-keyboard-response,82,329073,0.0-8.0-0.74,601ffb441dc6d959b855eea5,650c16f0f2faf8d7a0d14c09,651c1d94f84770358d76ef0b,null,null,"<p style=""font-size: 60px; font-family: BACS"">dMThkEKBO</p>",,,,,,,,,,
html-keyboard-response,83,330074,0.0-8.0-0.75,601ffb441dc6d959b855eea5,650c16f0f2faf8d7a0d14c09,651c1d94f84770358d76ef0b,null,null,"<p style=""font-size: 60px; font-family: BACS"">blMkRCdc</p>",,,,,,,,,,
html-keyboard-response,84,331075,0.0-8.0-0.76,601ffb441dc6d959b855eea5,650c16f0f2faf8d7a0d14c09,651c1d94f84770358d76ef0b,null,null,"<p style=""font-size: 60px; font-family: BACS"">ukcYkJdr</p>",,,,,,,,,,
html-keyboard-response,85,332076,0.0-8.0-0.77,601ffb441dc6d959b855eea5,650c16f0f2faf8d7a0d14c09,651c1d94f84770358d76ef0b,null,null,"<p style=""font-size: 60px; font-family: BACS"">bcbMAlKD</p>",,,,,,,,,,
html-keyboard-response,86,333076,0.0-8.0-0.78,601ffb441dc6d959b855eea5,650c16f0f2faf8d7a0d14c09,651c1d94f84770358d76ef0b,null,null,"<p style=""font-size: 60px; font-family: BACS"">GAcYJcUk</p>",,,,,,,,,,
html-keyboard-response,87,334077,0.0-8.0-0.79,601ffb441dc6d959b855eea5,650c16f0f2faf8d7a0d14c09,651c1d94f84770358d76ef0b,null,null,"<p style=""font-size: 60px; font-family: BACS"">uauOuvJ</p>",,,,,,,,,,
html-keyboard-response,88,354564,0.0-9.0,601ffb441dc6d959b855eea5,650c16f0f2faf8d7a0d14c09,651c1d94f84770358d76ef0b,20487, ,"<p>Great, you've seen the first block of words. You may now take a short break.</p>
      <p>Press the spacebar when you're ready to continue.</p>",,,,,,,,,,
html-keyboard-response,89,355565,0.0-10.0-0.0,601ffb441dc6d959b855eea5,650c16f0f2faf8d7a0d14c09,651c1d94f84770358d76ef0b,null,null,"<p style=""font-size: 60px; font-family: BACS"">bcbMAlKD</p>",,,,,,,,,,
html-keyboard-response,90,356566,0.0-10.0-0.1,601ffb441dc6d959b855eea5,650c16f0f2faf8d7a0d14c09,651c1d94f84770358d76ef0b,null,null,"<p style=""font-size: 60px; font-family: BACS"">AlUYNUZ</p>",,,,,,,,,,
html-keyboard-response,91,357567,0.0-10.0-0.2,601ffb441dc6d959b855eea5,650c16f0f2faf8d7a0d14c09,651c1d94f84770358d76ef0b,null,null,"<p style=""font-size: 60px; font-family: BACS"">bvuZJcUk</p>",,,,,,,,,,
html-keyboard-response,92,358567,0.0-10.0-0.3,601ffb441dc6d959b855eea5,650c16f0f2faf8d7a0d14c09,651c1d94f84770358d76ef0b,null,null,"<p style=""font-size: 60px; font-family: BACS"">uauOuvJ</p>",,,,,,,,,,
html-keyboard-response,93,359568,0.0-10.0-0.4,601ffb441dc6d959b855eea5,650c16f0f2faf8d7a0d14c09,651c1d94f84770358d76ef0b,null,null,"<p style=""font-size: 60px; font-family: BACS"">ukcYJcUk</p>",,,,,,,,,,
html-keyboard-response,94,360569,0.0-10.0-0.5,601ffb441dc6d959b855eea5,650c16f0f2faf8d7a0d14c09,651c1d94f84770358d76ef0b,null,null,"<p style=""font-size: 60px; font-family: BACS"">tRdMEKBO</p>",,,,,,,,,,
html-keyboard-response,95,361569,0.0-10.0-0.6,601ffb441dc6d959b855eea5,650c16f0f2faf8d7a0d14c09,651c1d94f84770358d76ef0b,null,null,"<p style=""font-size: 60px; font-family: BACS"">dMThkTmc</p>",,,,,,,,,,
html-keyboard-response,96,362570,0.0-10.0-0.7,601ffb441dc6d959b855eea5,650c16f0f2faf8d7a0d14c09,651c1d94f84770358d76ef0b,null,null,"<p style=""font-size: 60px; font-family: BACS"">blMkEKBO</p>",,,,,,,,,,
html-keyboard-response,97,363571,0.0-10.0-0.8,601ffb441dc6d959b855eea5,650c16f0f2faf8d7a0d14c09,651c1d94f84770358d76ef0b,null,null,"<p style=""font-size: 60px; font-family: BACS"">bcbMRdCc</p>",,,,,,,,,,
html-keyboard-response,98,364572,0.0-10.0-0.9,601ffb441dc6d959b855eea5,650c16f0f2faf8d7a0d14c09,651c1d94f84770358d76ef0b,null,null,"<p style=""font-size: 60px; font-family: BACS"">AlUYuvJ</p>",,,,,,,,,,
html-keyboard-response,99,365573,0.0-10.0-0.10,601ffb441dc6d959b855eea5,650c16f0f2faf8d7a0d14c09,651c1d94f84770358d76ef0b,null,null,"<p style=""font-size: 60px; font-family: BACS"">ZdNmUNUZ</p>",,,,,,,,,,
html-keyboard-response,100,366574,0.0-10.0-0.11,601ffb441dc6d959b855eea5,650c16f0f2faf8d7a0d14c09,651c1d94f84770358d76ef0b,null,null,"<p style=""font-size: 60px; font-family: BACS"">dMThkRdCc</p>",,,,,,,,,,
html-keyboard-response,101,367575,0.0-10.0-0.12,601ffb441dc6d959b855eea5,650c16f0f2faf8d7a0d14c09,651c1d94f84770358d76ef0b,null,null,"<p style=""font-size: 60px; font-family: BACS"">PCPDhAlKD</p>",,,,,,,,,,
html-keyboard-response,102,368576,0.0-10.0-0.13,601ffb441dc6d959b855eea5,650c16f0f2faf8d7a0d14c09,651c1d94f84770358d76ef0b,null,null,"<p style=""font-size: 60px; font-family: BACS"">aOLZUJcUk</p>",,,,,,,,,,
html-keyboard-response,103,369576,0.0-10.0-0.14,601ffb441dc6d959b855eea5,650c16f0f2faf8d7a0d14c09,651c1d94f84770358d76ef0b,null,null,"<p style=""font-size: 60px; font-family: BACS"">kKEdMRdCc</p>",,,,,,,,,,
html-keyboard-response,104,370577,0.0-10.0-0.15,601ffb441dc6d959b855eea5,650c16f0f2faf8d7a0d14c09,651c1d94f84770358d76ef0b,null,null,"<p style=""font-size: 60px; font-family: BACS"">bvuZkJdr</p>",,,,,,,,,,
html-keyboard-response,105,371578,0.0-10.0-0.16,601ffb441dc6d959b855eea5,650c16f0f2faf8d7a0d14c09,651c1d94f84770358d76ef0b,null,null,"<p style=""font-size: 60px; font-family: BACS"">AMkCTmc</p>",,,,,,,,,,
html-keyboard-response,106,372579,0.0-10.0-0.17,601ffb441dc6d959b855eea5,650c16f0f2faf8d7a0d14c09,651c1d94f84770358d76ef0b,null,null,"<p style=""font-size: 60px; font-family: BACS"">blMkAlKD</p>",,,,,,,,,,
html-keyboard-response,107,373580,0.0-10.0-0.18,601ffb441dc6d959b855eea5,650c16f0f2faf8d7a0d14c09,651c1d94f84770358d76ef0b,null,null,"<p style=""font-size: 60px; font-family: BACS"">kcdOtRCdc</p>",,,,,,,,,,
html-keyboard-response,108,374581,0.0-10.0-0.19,601ffb441dc6d959b855eea5,650c16f0f2faf8d7a0d14c09,651c1d94f84770358d76ef0b,null,null,"<p style=""font-size: 60px; font-family: BACS"">KTDTBTmc</p>",,,,,,,,,,
html-keyboard-response,109,375581,0.0-10.0-0.20,601ffb441dc6d959b855eea5,650c16f0f2faf8d7a0d14c09,651c1d94f84770358d76ef0b,null,null,"<p style=""font-size: 60px; font-family: BACS"">GAcYkJdr</p>",,,,,,,,,,
html-keyboard-response,110,376582,0.0-10.0-0.21,601ffb441dc6d959b855eea5,650c16f0f2faf8d7a0d14c09,651c1d94f84770358d76ef0b,null,null,"<p style=""font-size: 60px; font-family: BACS"">ZdNmUuvJ</p>",,,,,,,,,,
html-keyboard-response,111,377583,0.0-10.0-0.22,601ffb441dc6d959b855eea5,650c16f0f2faf8d7a0d14c09,651c1d94f84770358d76ef0b,null,null,"<p style=""font-size: 60px; font-family: BACS"">PDPhlAlKD</p>",,,,,,,,,,
html-keyboard-response,112,378584,0.0-10.0-0.23,601ffb441dc6d959b855eea5,650c16f0f2faf8d7a0d14c09,651c1d94f84770358d76ef0b,null,null,"<p style=""font-size: 60px; font-family: BACS"">bcbMRCdc</p>",,,,,,,,,,
html-keyboard-response,113,379585,0.0-10.0-0.24,601ffb441dc6d959b855eea5,650c16f0f2faf8d7a0d14c09,651c1d94f84770358d76ef0b,null,null,"<p style=""font-size: 60px; font-family: BACS"">bvuZrAm</p>",,,,,,,,,,
html-keyboard-response,114,380585,0.0-10.0-0.25,601ffb441dc6d959b855eea5,650c16f0f2faf8d7a0d14c09,651c1d94f84770358d76ef0b,null,null,"<p style=""font-size: 60px; font-family: BACS"">bcbMEKBO</p>",,,,,,,,,,
html-keyboard-response,115,381586,0.0-10.0-0.26,601ffb441dc6d959b855eea5,650c16f0f2faf8d7a0d14c09,651c1d94f84770358d76ef0b,null,null,"<p style=""font-size: 60px; font-family: BACS"">vkYGlkJdr</p>",,,,,,,,,,
html-keyboard-response,116,382587,0.0-10.0-0.27,601ffb441dc6d959b855eea5,650c16f0f2faf8d7a0d14c09,651c1d94f84770358d76ef0b,null,null,"<p style=""font-size: 60px; font-family: BACS"">KTDTBRdCc</p>",,,,,,,,,,
html-keyboard-response,117,383588,0.0-10.0-0.28,601ffb441dc6d959b855eea5,650c16f0f2faf8d7a0d14c09,651c1d94f84770358d76ef0b,null,null,"<p style=""font-size: 60px; font-family: BACS"">blMkRCdc</p>",,,,,,,,,,
html-keyboard-response,118,384589,0.0-10.0-0.29,601ffb441dc6d959b855eea5,650c16f0f2faf8d7a0d14c09,651c1d94f84770358d76ef0b,null,null,"<p style=""font-size: 60px; font-family: BACS"">uauONUZ</p>",,,,,,,,,,
html-keyboard-response,119,385590,0.0-10.0-0.30,601ffb441dc6d959b855eea5,650c16f0f2faf8d7a0d14c09,651c1d94f84770358d76ef0b,null,null,"<p style=""font-size: 60px; font-family: BACS"">PCPDhRdCc</p>",,,,,,,,,,
html-keyboard-response,120,386591,0.0-10.0-0.31,601ffb441dc6d959b855eea5,650c16f0f2faf8d7a0d14c09,651c1d94f84770358d76ef0b,null,null,"<p style=""font-size: 60px; font-family: BACS"">tRdMRCdc</p>",,,,,,,,,,
html-keyboard-response,121,387591,0.0-10.0-0.32,601ffb441dc6d959b855eea5,650c16f0f2faf8d7a0d14c09,651c1d94f84770358d76ef0b,null,null,"<p style=""font-size: 60px; font-family: BACS"">GAcYJcUk</p>",,,,,,,,,,
html-keyboard-response,122,388592,0.0-10.0-0.33,601ffb441dc6d959b855eea5,650c16f0f2faf8d7a0d14c09,651c1d94f84770358d76ef0b,null,null,"<p style=""font-size: 60px; font-family: BACS"">kKEdMEKBO</p>",,,,,,,,,,
html-keyboard-response,123,389593,0.0-10.0-0.34,601ffb441dc6d959b855eea5,650c16f0f2faf8d7a0d14c09,651c1d94f84770358d76ef0b,null,null,"<p style=""font-size: 60px; font-family: BACS"">PDPhlRdCc</p>",,,,,,,,,,
html-keyboard-response,124,390594,0.0-10.0-0.35,601ffb441dc6d959b855eea5,650c16f0f2faf8d7a0d14c09,651c1d94f84770358d76ef0b,null,null,"<p style=""font-size: 60px; font-family: BACS"">AlUYkJdr</p>",,,,,,,,,,
html-keyboard-response,125,391595,0.0-10.0-0.36,601ffb441dc6d959b855eea5,650c16f0f2faf8d7a0d14c09,651c1d94f84770358d76ef0b,null,null,"<p style=""font-size: 60px; font-family: BACS"">vkYGlJcUk</p>",,,,,,,,,,
html-keyboard-response,126,392595,0.0-10.0-0.37,601ffb441dc6d959b855eea5,650c16f0f2faf8d7a0d14c09,651c1d94f84770358d76ef0b,null,null,"<p style=""font-size: 60px; font-family: BACS"">aOLZUuvJ</p>",,,,,,,,,,
html-keyboard-response,127,393596,0.0-10.0-0.38,601ffb441dc6d959b855eea5,650c16f0f2faf8d7a0d14c09,651c1d94f84770358d76ef0b,null,null,"<p style=""font-size: 60px; font-family: BACS"">kcdOtEKBO</p>",,,,,,,,,,
html-keyboard-response,128,394597,0.0-10.0-0.39,601ffb441dc6d959b855eea5,650c16f0f2faf8d7a0d14c09,651c1d94f84770358d76ef0b,null,null,"<p style=""font-size: 60px; font-family: BACS"">dMThkRCdc</p>",,,,,,,,,,
html-keyboard-response,129,395598,0.0-10.0-0.40,601ffb441dc6d959b855eea5,650c16f0f2faf8d7a0d14c09,651c1d94f84770358d76ef0b,null,null,"<p style=""font-size: 60px; font-family: BACS"">ZdNmUrAm</p>",,,,,,,,,,
html-keyboard-response,130,396599,0.0-10.0-0.41,601ffb441dc6d959b855eea5,650c16f0f2faf8d7a0d14c09,651c1d94f84770358d76ef0b,null,null,"<p style=""font-size: 60px; font-family: BACS"">ukcYNUZ</p>",,,,,,,,,,
html-keyboard-response,131,397600,0.0-10.0-0.42,601ffb441dc6d959b855eea5,650c16f0f2faf8d7a0d14c09,651c1d94f84770358d76ef0b,null,null,"<p style=""font-size: 60px; font-family: BACS"">PCPDhRCdc</p>",,,,,,,,,,
html-keyboard-response,132,398601,0.0-10.0-0.43,601ffb441dc6d959b855eea5,650c16f0f2faf8d7a0d14c09,651c1d94f84770358d76ef0b,null,null,"<p style=""font-size: 60px; font-family: BACS"">ZNLOvJcUk</p>",,,,,,,,,,
html-keyboard-response,133,399602,0.0-10.0-0.44,601ffb441dc6d959b855eea5,650c16f0f2faf8d7a0d14c09,651c1d94f84770358d76ef0b,null,null,"<p style=""font-size: 60px; font-family: BACS"">tRdMTmc</p>",,,,,,,,,,
html-keyboard-response,134,400603,0.0-10.0-0.45,601ffb441dc6d959b855eea5,650c16f0f2faf8d7a0d14c09,651c1d94f84770358d76ef0b,null,null,"<p style=""font-size: 60px; font-family: BACS"">aOLZUrAm</p>",,,,,,,,,,
html-keyboard-response,135,401604,0.0-10.0-0.46,601ffb441dc6d959b855eea5,650c16f0f2faf8d7a0d14c09,651c1d94f84770358d76ef0b,null,null,"<p style=""font-size: 60px; font-family: BACS"">aYQmNUZ</p>",,,,,,,,,,
html-keyboard-response,136,402605,0.0-10.0-0.47,601ffb441dc6d959b855eea5,650c16f0f2faf8d7a0d14c09,651c1d94f84770358d76ef0b,null,null,"<p style=""font-size: 60px; font-family: BACS"">vkYGluvJ</p>",,,,,,,,,,
html-keyboard-response,137,403605,0.0-10.0-0.48,601ffb441dc6d959b855eea5,650c16f0f2faf8d7a0d14c09,651c1d94f84770358d76ef0b,null,null,"<p style=""font-size: 60px; font-family: BACS"">ukcYkJdr</p>",,,,,,,,,,
html-keyboard-response,138,404606,0.0-10.0-0.49,601ffb441dc6d959b855eea5,650c16f0f2faf8d7a0d14c09,651c1d94f84770358d76ef0b,null,null,"<p style=""font-size: 60px; font-family: BACS"">vkYGlrAm</p>",,,,,,,,,,
html-keyboard-response,139,405607,0.0-10.0-0.50,601ffb441dc6d959b855eea5,650c16f0f2faf8d7a0d14c09,651c1d94f84770358d76ef0b,null,null,"<p style=""font-size: 60px; font-family: BACS"">kcdOtRdCc</p>",,,,,,,,,,
html-keyboard-response,140,406608,0.0-10.0-0.51,601ffb441dc6d959b855eea5,650c16f0f2faf8d7a0d14c09,651c1d94f84770358d76ef0b,null,null,"<p style=""font-size: 60px; font-family: BACS"">ZNLOvkJdr</p>",,,,,,,,,,
html-keyboard-response,141,407609,0.0-10.0-0.52,601ffb441dc6d959b855eea5,650c16f0f2faf8d7a0d14c09,651c1d94f84770358d76ef0b,null,null,"<p style=""font-size: 60px; font-family: BACS"">aOLZUNUZ</p>",,,,,,,,,,
html-keyboard-response,142,408609,0.0-10.0-0.53,601ffb441dc6d959b855eea5,650c16f0f2faf8d7a0d14c09,651c1d94f84770358d76ef0b,null,null,"<p style=""font-size: 60px; font-family: BACS"">ZNLOvrAm</p>",,,,,,,,,,
html-keyboard-response,143,409610,0.0-10.0-0.54,601ffb441dc6d959b855eea5,650c16f0f2faf8d7a0d14c09,651c1d94f84770358d76ef0b,null,null,"<p style=""font-size: 60px; font-family: BACS"">ZdNmUJcUk</p>",,,,,,,,,,
html-keyboard-response,144,410611,0.0-10.0-0.55,601ffb441dc6d959b855eea5,650c16f0f2faf8d7a0d14c09,651c1d94f84770358d76ef0b,null,null,"<p style=""font-size: 60px; font-family: BACS"">AMkCAlKD</p>",,,,,,,,,,
html-keyboard-response,145,411612,0.0-10.0-0.56,601ffb441dc6d959b855eea5,650c16f0f2faf8d7a0d14c09,651c1d94f84770358d76ef0b,null,null,"<p style=""font-size: 60px; font-family: BACS"">GAcYNUZ</p>",,,,,,,,,,
html-keyboard-response,146,412613,0.0-10.0-0.57,601ffb441dc6d959b855eea5,650c16f0f2faf8d7a0d14c09,651c1d94f84770358d76ef0b,null,null,"<p style=""font-size: 60px; font-family: BACS"">ukcYrAm</p>",,,,,,,,,,
html-keyboard-response,147,413614,0.0-10.0-0.58,601ffb441dc6d959b855eea5,650c16f0f2faf8d7a0d14c09,651c1d94f84770358d76ef0b,null,null,"<p style=""font-size: 60px; font-family: BACS"">bvuZuvJ</p>",,,,,,,,,,
html-keyboard-response,148,414614,0.0-10.0-0.59,601ffb441dc6d959b855eea5,650c16f0f2faf8d7a0d14c09,651c1d94f84770358d76ef0b,null,null,"<p style=""font-size: 60px; font-family: BACS"">PDPhlTmc</p>",,,,,,,,,,
html-keyboard-response,149,415615,0.0-10.0-0.60,601ffb441dc6d959b855eea5,650c16f0f2faf8d7a0d14c09,651c1d94f84770358d76ef0b,null,null,"<p style=""font-size: 60px; font-family: BACS"">aYQmJcUk</p>",,,,,,,,,,
html-keyboard-response,150,416616,0.0-10.0-0.61,601ffb441dc6d959b855eea5,650c16f0f2faf8d7a0d14c09,651c1d94f84770358d76ef0b,null,null,"<p style=""font-size: 60px; font-family: BACS"">kcdOtAlKD</p>",,,,,,,,,,
html-keyboard-response,151,417617,0.0-10.0-0.62,601ffb441dc6d959b855eea5,650c16f0f2faf8d7a0d14c09,651c1d94f84770358d76ef0b,null,null,"<p style=""font-size: 60px; font-family: BACS"">AMkCRCdc</p>",,,,,,,,,,
html-keyboard-response,152,418618,0.0-10.0-0.63,601ffb441dc6d959b855eea5,650c16f0f2faf8d7a0d14c09,651c1d94f84770358d76ef0b,null,null,"<p style=""font-size: 60px; font-family: BACS"">uauOrAm</p>",,,,,,,,,,
html-keyboard-response,153,419619,0.0-10.0-0.64,601ffb441dc6d959b855eea5,650c16f0f2faf8d7a0d14c09,651c1d94f84770358d76ef0b,null,null,"<p style=""font-size: 60px; font-family: BACS"">aYQmuvJ</p>",,,,,,,,,,
html-keyboard-response,154,420620,0.0-10.0-0.65,601ffb441dc6d959b855eea5,650c16f0f2faf8d7a0d14c09,651c1d94f84770358d76ef0b,null,null,"<p style=""font-size: 60px; font-family: BACS"">AMkCRdCc</p>",,,,,,,,,,
html-keyboard-response,155,421621,0.0-10.0-0.66,601ffb441dc6d959b855eea5,650c16f0f2faf8d7a0d14c09,651c1d94f84770358d76ef0b,null,null,"<p style=""font-size: 60px; font-family: BACS"">uauOkJdr</p>",,,,,,,,,,
html-keyboard-response,156,422621,0.0-10.0-0.67,601ffb441dc6d959b855eea5,650c16f0f2faf8d7a0d14c09,651c1d94f84770358d76ef0b,null,null,"<p style=""font-size: 60px; font-family: BACS"">kKEdMTmc</p>",,,,,,,,,,
html-keyboard-response,157,423622,0.0-10.0-0.68,601ffb441dc6d959b855eea5,650c16f0f2faf8d7a0d14c09,651c1d94f84770358d76ef0b,null,null,"<p style=""font-size: 60px; font-family: BACS"">KTDTBAlKD</p>",,,,,,,,,,
html-keyboard-response,158,424623,0.0-10.0-0.69,601ffb441dc6d959b855eea5,650c16f0f2faf8d7a0d14c09,651c1d94f84770358d76ef0b,null,null,"<p style=""font-size: 60px; font-family: BACS"">GAcYuvJ</p>",,,,,,,,,,
html-keyboard-response,159,425624,0.0-10.0-0.70,601ffb441dc6d959b855eea5,650c16f0f2faf8d7a0d14c09,651c1d94f84770358d76ef0b,null,null,"<p style=""font-size: 60px; font-family: BACS"">aYQmkJdr</p>",,,,,,,,,,
html-keyboard-response,160,426625,0.0-10.0-0.71,601ffb441dc6d959b855eea5,650c16f0f2faf8d7a0d14c09,651c1d94f84770358d76ef0b,null,null,"<p style=""font-size: 60px; font-family: BACS"">blMkTmc</p>",,,,,,,,,,
html-keyboard-response,161,427626,0.0-10.0-0.72,601ffb441dc6d959b855eea5,650c16f0f2faf8d7a0d14c09,651c1d94f84770358d76ef0b,null,null,"<p style=""font-size: 60px; font-family: BACS"">dMThkEKBO</p>",,,,,,,,,,
html-keyboard-response,162,428626,0.0-10.0-0.73,601ffb441dc6d959b855eea5,650c16f0f2faf8d7a0d14c09,651c1d94f84770358d76ef0b,null,null,"<p style=""font-size: 60px; font-family: BACS"">tRdMAlKD</p>",,,,,,,,,,
html-keyboard-response,163,429627,0.0-10.0-0.74,601ffb441dc6d959b855eea5,650c16f0f2faf8d7a0d14c09,651c1d94f84770358d76ef0b,null,null,"<p style=""font-size: 60px; font-family: BACS"">AlUYrAm</p>",,,,,,,,,,
html-keyboard-response,164,430628,0.0-10.0-0.75,601ffb441dc6d959b855eea5,650c16f0f2faf8d7a0d14c09,651c1d94f84770358d76ef0b,null,null,"<p style=""font-size: 60px; font-family: BACS"">PDPhlEKBO</p>",,,,,,,,,,
html-keyboard-response,165,431629,0.0-10.0-0.76,601ffb441dc6d959b855eea5,650c16f0f2faf8d7a0d14c09,651c1d94f84770358d76ef0b,null,null,"<p style=""font-size: 60px; font-family: BACS"">ZNLOvNUZ</p>",,,,,,,,,,
html-keyboard-response,166,432630,0.0-10.0-0.77,601ffb441dc6d959b855eea5,650c16f0f2faf8d7a0d14c09,651c1d94f84770358d76ef0b,null,null,"<p style=""font-size: 60px; font-family: BACS"">kKEdMRCdc</p>",,,,,,,,,,
html-keyboard-response,167,433631,0.0-10.0-0.78,601ffb441dc6d959b855eea5,650c16f0f2faf8d7a0d14c09,651c1d94f84770358d76ef0b,null,null,"<p style=""font-size: 60px; font-family: BACS"">KTDTBEKBO</p>",,,,,,,,,,
html-keyboard-response,168,434632,0.0-10.0-0.79,601ffb441dc6d959b855eea5,650c16f0f2faf8d7a0d14c09,651c1d94f84770358d76ef0b,null,null,"<p style=""font-size: 60px; font-family: BACS"">PCPDhTmc</p>",,,,,,,,,,
html-keyboard-response,169,436565,0.0-11.0,601ffb441dc6d959b855eea5,650c16f0f2faf8d7a0d14c09,651c1d94f84770358d76ef0b,1932, ,"<p>Great, you've seen the second block of words. You may now take a short break.</p>
      <p>Press the spacebar when you're ready to continue.</p>",,,,,,,,,,
html-keyboard-response,170,437565,0.0-12.0-0.0,601ffb441dc6d959b855eea5,650c16f0f2faf8d7a0d14c09,651c1d94f84770358d76ef0b,null,null,"<p style=""font-size: 60px; font-family: BACS"">aOLZUNUZ</p>",,,,,,,,,,
html-keyboard-response,171,438566,0.0-12.0-0.1,601ffb441dc6d959b855eea5,650c16f0f2faf8d7a0d14c09,651c1d94f84770358d76ef0b,null,null,"<p style=""font-size: 60px; font-family: BACS"">PCPDhRdCc</p>",,,,,,,,,,
html-keyboard-response,172,439567,0.0-12.0-0.2,601ffb441dc6d959b855eea5,650c16f0f2faf8d7a0d14c09,651c1d94f84770358d76ef0b,null,null,"<p style=""font-size: 60px; font-family: BACS"">aYQmNUZ</p>",,,,,,,,,,
html-keyboard-response,173,440568,0.0-12.0-0.3,601ffb441dc6d959b855eea5,650c16f0f2faf8d7a0d14c09,651c1d94f84770358d76ef0b,null,null,"<p style=""font-size: 60px; font-family: BACS"">PDPhlTmc</p>",,,,,,,,,,
html-keyboard-response,174,441568,0.0-12.0-0.4,601ffb441dc6d959b855eea5,650c16f0f2faf8d7a0d14c09,651c1d94f84770358d76ef0b,null,null,"<p style=""font-size: 60px; font-family: BACS"">ZdNmUuvJ</p>",,,,,,,,,,
html-keyboard-response,175,442569,0.0-12.0-0.5,601ffb441dc6d959b855eea5,650c16f0f2faf8d7a0d14c09,651c1d94f84770358d76ef0b,null,null,"<p style=""font-size: 60px; font-family: BACS"">PDPhlRdCc</p>",,,,,,,,,,
html-keyboard-response,176,443570,0.0-12.0-0.6,601ffb441dc6d959b855eea5,650c16f0f2faf8d7a0d14c09,651c1d94f84770358d76ef0b,null,null,"<p style=""font-size: 60px; font-family: BACS"">AMkCRCdc</p>",,,,,,,,,,
html-keyboard-response,177,444571,0.0-12.0-0.7,601ffb441dc6d959b855eea5,650c16f0f2faf8d7a0d14c09,651c1d94f84770358d76ef0b,null,null,"<p style=""font-size: 60px; font-family: BACS"">blMkTmc</p>",,,,,,,,,,
html-keyboard-response,178,445572,0.0-12.0-0.8,601ffb441dc6d959b855eea5,650c16f0f2faf8d7a0d14c09,651c1d94f84770358d76ef0b,null,null,"<p style=""font-size: 60px; font-family: BACS"">ZNLOvrAm</p>",,,,,,,,,,
html-keyboard-response,179,446573,0.0-12.0-0.9,601ffb441dc6d959b855eea5,650c16f0f2faf8d7a0d14c09,651c1d94f84770358d76ef0b,null,null,"<p style=""font-size: 60px; font-family: BACS"">PCPDhRCdc</p>",,,,,,,,,,
html-keyboard-response,180,447574,0.0-12.0-0.10,601ffb441dc6d959b855eea5,650c16f0f2faf8d7a0d14c09,651c1d94f84770358d76ef0b,null,null,"<p style=""font-size: 60px; font-family: BACS"">aOLZUJcUk</p>",,,,,,,,,,
html-keyboard-response,181,448574,0.0-12.0-0.11,601ffb441dc6d959b855eea5,650c16f0f2faf8d7a0d14c09,651c1d94f84770358d76ef0b,null,null,"<p style=""font-size: 60px; font-family: BACS"">dMThkTmc</p>",,,,,,,,,,
html-keyboard-response,182,449575,0.0-12.0-0.12,601ffb441dc6d959b855eea5,650c16f0f2faf8d7a0d14c09,651c1d94f84770358d76ef0b,null,null,"<p style=""font-size: 60px; font-family: BACS"">AMkCAlKD</p>",,,,,,,,,,
html-keyboard-response,183,450576,0.0-12.0-0.13,601ffb441dc6d959b855eea5,650c16f0f2faf8d7a0d14c09,651c1d94f84770358d76ef0b,null,null,"<p style=""font-size: 60px; font-family: BACS"">GAcYNUZ</p>",,,,,,,,,,
html-keyboard-response,184,451577,0.0-12.0-0.14,601ffb441dc6d959b855eea5,650c16f0f2faf8d7a0d14c09,651c1d94f84770358d76ef0b,null,null,"<p style=""font-size: 60px; font-family: BACS"">dMThkEKBO</p>",,,,,,,,,,
html-keyboard-response,185,452578,0.0-12.0-0.15,601ffb441dc6d959b855eea5,650c16f0f2faf8d7a0d14c09,651c1d94f84770358d76ef0b,null,null,"<p style=""font-size: 60px; font-family: BACS"">aOLZUuvJ</p>",,,,,,,,,,
html-keyboard-response,186,453579,0.0-12.0-0.16,601ffb441dc6d959b855eea5,650c16f0f2faf8d7a0d14c09,651c1d94f84770358d76ef0b,null,null,"<p style=""font-size: 60px; font-family: BACS"">tRdMRCdc</p>",,,,,,,,,,
html-keyboard-response,187,454580,0.0-12.0-0.17,601ffb441dc6d959b855eea5,650c16f0f2faf8d7a0d14c09,651c1d94f84770358d76ef0b,null,null,"<p style=""font-size: 60px; font-family: BACS"">kKEdMTmc</p>",,,,,,,,,,
html-keyboard-response,188,455581,0.0-12.0-0.18,601ffb441dc6d959b855eea5,650c16f0f2faf8d7a0d14c09,651c1d94f84770358d76ef0b,null,null,"<p style=""font-size: 60px; font-family: BACS"">ZNLOvkJdr</p>",,,,,,,,,,
html-keyboard-response,189,456581,0.0-12.0-0.19,601ffb441dc6d959b855eea5,650c16f0f2faf8d7a0d14c09,651c1d94f84770358d76ef0b,null,null,"<p style=""font-size: 60px; font-family: BACS"">aYQmJcUk</p>",,,,,,,,,,
html-keyboard-response,190,457582,0.0-12.0-0.20,601ffb441dc6d959b855eea5,650c16f0f2faf8d7a0d14c09,651c1d94f84770358d76ef0b,null,null,"<p style=""font-size: 60px; font-family: BACS"">PCPDhTmc</p>",,,,,,,,,,
html-keyboard-response,191,458583,0.0-12.0-0.21,601ffb441dc6d959b855eea5,650c16f0f2faf8d7a0d14c09,651c1d94f84770358d76ef0b,null,null,"<p style=""font-size: 60px; font-family: BACS"">ZdNmUJcUk</p>",,,,,,,,,,
html-keyboard-response,192,459584,0.0-12.0-0.22,601ffb441dc6d959b855eea5,650c16f0f2faf8d7a0d14c09,651c1d94f84770358d76ef0b,null,null,"<p style=""font-size: 60px; font-family: BACS"">bvuZkJdr</p>",,,,,,,,,,
html-keyboard-response,193,460585,0.0-12.0-0.23,601ffb441dc6d959b855eea5,650c16f0f2faf8d7a0d14c09,651c1d94f84770358d76ef0b,null,null,"<p style=""font-size: 60px; font-family: BACS"">AMkCTmc</p>",,,,,,,,,,
html-keyboard-response,194,461586,0.0-12.0-0.24,601ffb441dc6d959b855eea5,650c16f0f2faf8d7a0d14c09,651c1d94f84770358d76ef0b,null,null,"<p style=""font-size: 60px; font-family: BACS"">PDPhlAlKD</p>",,,,,,,,,,
html-keyboard-response,195,462587,0.0-12.0-0.25,601ffb441dc6d959b855eea5,650c16f0f2faf8d7a0d14c09,651c1d94f84770358d76ef0b,null,null,"<p style=""font-size: 60px; font-family: BACS"">KTDTBRdCc</p>",,,,,,,,,,
html-keyboard-response,196,463588,0.0-12.0-0.26,601ffb441dc6d959b855eea5,650c16f0f2faf8d7a0d14c09,651c1d94f84770358d76ef0b,null,null,"<p style=""font-size: 60px; font-family: BACS"">tRdMTmc</p>",,,,,,,,,,
html-keyboard-response,197,464589,0.0-12.0-0.27,601ffb441dc6d959b855eea5,650c16f0f2faf8d7a0d14c09,651c1d94f84770358d76ef0b,null,null,"<p style=""font-size: 60px; font-family: BACS"">AlUYNUZ</p>",,,,,,,,,,
html-keyboard-response,198,465589,0.0-12.0-0.28,601ffb441dc6d959b855eea5,650c16f0f2faf8d7a0d14c09,651c1d94f84770358d76ef0b,null,null,"<p style=""font-size: 60px; font-family: BACS"">aYQmkJdr</p>",,,,,,,,,,
html-keyboard-response,199,466590,0.0-12.0-0.29,601ffb441dc6d959b855eea5,650c16f0f2faf8d7a0d14c09,651c1d94f84770358d76ef0b,null,null,"<p style=""font-size: 60px; font-family: BACS"">blMkAlKD</p>",,,,,,,,,,
html-keyboard-response,200,467591,0.0-12.0-0.30,601ffb441dc6d959b855eea5,650c16f0f2faf8d7a0d14c09,651c1d94f84770358d76ef0b,null,null,"<p style=""font-size: 60px; font-family: BACS"">bcbMRCdc</p>",,,,,,,,,,
html-keyboard-response,201,468592,0.0-12.0-0.31,601ffb441dc6d959b855eea5,650c16f0f2faf8d7a0d14c09,651c1d94f84770358d76ef0b,null,null,"<p style=""font-size: 60px; font-family: BACS"">ZNLOvNUZ</p>",,,,,,,,,,
html-keyboard-response,202,469593,0.0-12.0-0.32,601ffb441dc6d959b855eea5,650c16f0f2faf8d7a0d14c09,651c1d94f84770358d76ef0b,null,null,"<p style=""font-size: 60px; font-family: BACS"">AMkCRdCc</p>",,,,,,,,,,
html-keyboard-response,203,470594,0.0-12.0-0.33,601ffb441dc6d959b855eea5,650c16f0f2faf8d7a0d14c09,651c1d94f84770358d76ef0b,null,null,"<p style=""font-size: 60px; font-family: BACS"">tRdMEKBO</p>",,,,,,,,,,
html-keyboard-response,204,471594,0.0-12.0-0.34,601ffb441dc6d959b855eea5,650c16f0f2faf8d7a0d14c09,651c1d94f84770358d76ef0b,null,null,"<p style=""font-size: 60px; font-family: BACS"">GAcYJcUk</p>",,,,,,,,,,
html-keyboard-response,205,472595,0.0-12.0-0.35,601ffb441dc6d959b855eea5,650c16f0f2faf8d7a0d14c09,651c1d94f84770358d76ef0b,null,null,"<p style=""font-size: 60px; font-family: BACS"">uauOuvJ</p>",,,,,,,,,,
html-keyboard-response,206,473596,0.0-12.0-0.36,601ffb441dc6d959b855eea5,650c16f0f2faf8d7a0d14c09,651c1d94f84770358d76ef0b,null,null,"<p style=""font-size: 60px; font-family: BACS"">ukcYkJdr</p>",,,,,,,,,,
html-keyboard-response,207,474597,0.0-12.0-0.37,601ffb441dc6d959b855eea5,650c16f0f2faf8d7a0d14c09,651c1d94f84770358d76ef0b,null,null,"<p style=""font-size: 60px; font-family: BACS"">kcdOtRdCc</p>",,,,,,,,,,
html-keyboard-response,208,475598,0.0-12.0-0.38,601ffb441dc6d959b855eea5,650c16f0f2faf8d7a0d14c09,651c1d94f84770358d76ef0b,null,null,"<p style=""font-size: 60px; font-family: BACS"">vkYGluvJ</p>",,,,,,,,,,
html-keyboard-response,209,476599,0.0-12.0-0.39,601ffb441dc6d959b855eea5,650c16f0f2faf8d7a0d14c09,651c1d94f84770358d76ef0b,null,null,"<p style=""font-size: 60px; font-family: BACS"">dMThkRCdc</p>",,,,,,,,,,
html-keyboard-response,210,477599,0.0-12.0-0.40,601ffb441dc6d959b855eea5,650c16f0f2faf8d7a0d14c09,651c1d94f84770358d76ef0b,null,null,"<p style=""font-size: 60px; font-family: BACS"">kcdOtEKBO</p>",,,,,,,,,,
html-keyboard-response,211,478600,0.0-12.0-0.41,601ffb441dc6d959b855eea5,650c16f0f2faf8d7a0d14c09,651c1d94f84770358d76ef0b,null,null,"<p style=""font-size: 60px; font-family: BACS"">bcbMRdCc</p>",,,,,,,,,,
html-keyboard-response,212,479601,0.0-12.0-0.42,601ffb441dc6d959b855eea5,650c16f0f2faf8d7a0d14c09,651c1d94f84770358d76ef0b,null,null,"<p style=""font-size: 60px; font-family: BACS"">vkYGlrAm</p>",,,,,,,,,,
html-keyboard-response,213,480602,0.0-12.0-0.43,601ffb441dc6d959b855eea5,650c16f0f2faf8d7a0d14c09,651c1d94f84770358d76ef0b,null,null,"<p style=""font-size: 60px; font-family: BACS"">uauONUZ</p>",,,,,,,,,,
html-keyboard-response,214,481603,0.0-12.0-0.44,601ffb441dc6d959b855eea5,650c16f0f2faf8d7a0d14c09,651c1d94f84770358d76ef0b,null,null,"<p style=""font-size: 60px; font-family: BACS"">AlUYkJdr</p>",,,,,,,,,,
html-keyboard-response,215,482604,0.0-12.0-0.45,601ffb441dc6d959b855eea5,650c16f0f2faf8d7a0d14c09,651c1d94f84770358d76ef0b,null,null,"<p style=""font-size: 60px; font-family: BACS"">ukcYrAm</p>",,,,,,,,,,
html-keyboard-response,216,483606,0.0-12.0-0.46,601ffb441dc6d959b855eea5,650c16f0f2faf8d7a0d14c09,651c1d94f84770358d76ef0b,null,null,"<p style=""font-size: 60px; font-family: BACS"">PDPhlEKBO</p>",,,,,,,,,,
html-keyboard-response,217,484607,0.0-12.0-0.47,601ffb441dc6d959b855eea5,650c16f0f2faf8d7a0d14c09,651c1d94f84770358d76ef0b,null,null,"<p style=""font-size: 60px; font-family: BACS"">AlUYrAm</p>",,,,,,,,,,
html-keyboard-response,218,485608,0.0-12.0-0.48,601ffb441dc6d959b855eea5,650c16f0f2faf8d7a0d14c09,651c1d94f84770358d76ef0b,null,null,"<p style=""font-size: 60px; font-family: BACS"">bvuZJcUk</p>",,,,,,,,,,
html-keyboard-response,219,486608,0.0-12.0-0.49,601ffb441dc6d959b855eea5,650c16f0f2faf8d7a0d14c09,651c1d94f84770358d76ef0b,null,null,"<p style=""font-size: 60px; font-family: BACS"">GAcYkJdr</p>",,,,,,,,,,
html-keyboard-response,220,487609,0.0-12.0-0.50,601ffb441dc6d959b855eea5,650c16f0f2faf8d7a0d14c09,651c1d94f84770358d76ef0b,null,null,"<p style=""font-size: 60px; font-family: BACS"">kKEdMRCdc</p>",,,,,,,,,,
html-keyboard-response,221,488610,0.0-12.0-0.51,601ffb441dc6d959b855eea5,650c16f0f2faf8d7a0d14c09,651c1d94f84770358d76ef0b,null,null,"<p style=""font-size: 60px; font-family: BACS"">bvuZrAm</p>",,,,,,,,,,
html-keyboard-response,222,489610,0.0-12.0-0.52,601ffb441dc6d959b855eea5,650c16f0f2faf8d7a0d14c09,651c1d94f84770358d76ef0b,null,null,"<p style=""font-size: 60px; font-family: BACS"">blMkEKBO</p>",,,,,,,,,,
html-keyboard-response,223,490612,0.0-12.0-0.53,601ffb441dc6d959b855eea5,650c16f0f2faf8d7a0d14c09,651c1d94f84770358d76ef0b,null,null,"<p style=""font-size: 60px; font-family: BACS"">ZNLOvJcUk</p>",,,,,,,,,,
html-keyboard-response,224,491612,0.0-12.0-0.54,601ffb441dc6d959b855eea5,650c16f0f2faf8d7a0d14c09,651c1d94f84770358d76ef0b,null,null,"<p style=""font-size: 60px; font-family: BACS"">uauOrAm</p>",,,,,,,,,,
html-keyboard-response,225,492613,0.0-12.0-0.55,601ffb441dc6d959b855eea5,650c16f0f2faf8d7a0d14c09,651c1d94f84770358d76ef0b,null,null,"<p style=""font-size: 60px; font-family: BACS"">PCPDhAlKD</p>",,,,,,,,,,
html-keyboard-response,226,493614,0.0-12.0-0.56,601ffb441dc6d959b855eea5,650c16f0f2faf8d7a0d14c09,651c1d94f84770358d76ef0b,null,null,"<p style=""font-size: 60px; font-family: BACS"">ZdNmUrAm</p>",,,,,,,,,,
html-keyboard-response,227,494614,0.0-12.0-0.57,601ffb441dc6d959b855eea5,650c16f0f2faf8d7a0d14c09,651c1d94f84770358d76ef0b,null,null,"<p style=""font-size: 60px; font-family: BACS"">blMkRCdc</p>",,,,,,,,,,
html-keyboard-response,228,495615,0.0-12.0-0.58,601ffb441dc6d959b855eea5,650c16f0f2faf8d7a0d14c09,651c1d94f84770358d76ef0b,null,null,"<p style=""font-size: 60px; font-family: BACS"">kKEdMRdCc</p>",,,,,,,,,,
html-keyboard-response,229,496616,0.0-12.0-0.59,601ffb441dc6d959b855eea5,650c16f0f2faf8d7a0d14c09,651c1d94f84770358d76ef0b,null,null,"<p style=""font-size: 60px; font-family: BACS"">tRdMAlKD</p>",,,,,,,,,,
html-keyboard-response,230,497617,0.0-12.0-0.60,601ffb441dc6d959b855eea5,650c16f0f2faf8d7a0d14c09,651c1d94f84770358d76ef0b,null,null,"<p style=""font-size: 60px; font-family: BACS"">kcdOtRCdc</p>",,,,,,,,,,
html-keyboard-response,231,498618,0.0-12.0-0.61,601ffb441dc6d959b855eea5,650c16f0f2faf8d7a0d14c09,651c1d94f84770358d76ef0b,null,null,"<p style=""font-size: 60px; font-family: BACS"">bcbMAlKD</p>",,,,,,,,,,
html-keyboard-response,232,499619,0.0-12.0-0.62,601ffb441dc6d959b855eea5,650c16f0f2faf8d7a0d14c09,651c1d94f84770358d76ef0b,null,null,"<p style=""font-size: 60px; font-family: BACS"">ukcYNUZ</p>",,,,,,,,,,
html-keyboard-response,233,500620,0.0-12.0-0.63,601ffb441dc6d959b855eea5,650c16f0f2faf8d7a0d14c09,651c1d94f84770358d76ef0b,null,null,"<p style=""font-size: 60px; font-family: BACS"">uauOkJdr</p>",,,,,,,,,,
html-keyboard-response,234,501620,0.0-12.0-0.64,601ffb441dc6d959b855eea5,650c16f0f2faf8d7a0d14c09,651c1d94f84770358d76ef0b,null,null,"<p style=""font-size: 60px; font-family: BACS"">aOLZUrAm</p>",,,,,,,,,,
html-keyboard-response,235,502621,0.0-12.0-0.65,601ffb441dc6d959b855eea5,650c16f0f2faf8d7a0d14c09,651c1d94f84770358d76ef0b,null,null,"<p style=""font-size: 60px; font-family: BACS"">ukcYJcUk</p>",,,,,,,,,,
html-keyboard-response,236,503622,0.0-12.0-0.66,601ffb441dc6d959b855eea5,650c16f0f2faf8d7a0d14c09,651c1d94f84770358d76ef0b,null,null,"<p style=""font-size: 60px; font-family: BACS"">KTDTBAlKD</p>",,,,,,,,,,
html-keyboard-response,237,504623,0.0-12.0-0.67,601ffb441dc6d959b855eea5,650c16f0f2faf8d7a0d14c09,651c1d94f84770358d76ef0b,null,null,"<p style=""font-size: 60px; font-family: BACS"">vkYGlkJdr</p>",,,,,,,,,,
html-keyboard-response,238,505624,0.0-12.0-0.68,601ffb441dc6d959b855eea5,650c16f0f2faf8d7a0d14c09,651c1d94f84770358d76ef0b,null,null,"<p style=""font-size: 60px; font-family: BACS"">aYQmuvJ</p>",,,,,,,,,,
html-keyboard-response,239,506625,0.0-12.0-0.69,601ffb441dc6d959b855eea5,650c16f0f2faf8d7a0d14c09,651c1d94f84770358d76ef0b,null,null,"<p style=""font-size: 60px; font-family: BACS"">vkYGlJcUk</p>",,,,,,,,,,
html-keyboard-response,240,507625,0.0-12.0-0.70,601ffb441dc6d959b855eea5,650c16f0f2faf8d7a0d14c09,651c1d94f84770358d76ef0b,null,null,"<p style=""font-size: 60px; font-family: BACS"">dMThkRdCc</p>",,,,,,,,,,
html-keyboard-response,241,508626,0.0-12.0-0.71,601ffb441dc6d959b855eea5,650c16f0f2faf8d7a0d14c09,651c1d94f84770358d76ef0b,null,null,"<p style=""font-size: 60px; font-family: BACS"">bcbMEKBO</p>",,,,,,,,,,
html-keyboard-response,242,509627,0.0-12.0-0.72,601ffb441dc6d959b855eea5,650c16f0f2faf8d7a0d14c09,651c1d94f84770358d76ef0b,null,null,"<p style=""font-size: 60px; font-family: BACS"">kcdOtAlKD</p>",,,,,,,,,,
html-keyboard-response,243,510628,0.0-12.0-0.73,601ffb441dc6d959b855eea5,650c16f0f2faf8d7a0d14c09,651c1d94f84770358d76ef0b,null,null,"<p style=""font-size: 60px; font-family: BACS"">AlUYuvJ</p>",,,,,,,,,,
html-keyboard-response,244,511629,0.0-12.0-0.74,601ffb441dc6d959b855eea5,650c16f0f2faf8d7a0d14c09,651c1d94f84770358d76ef0b,null,null,"<p style=""font-size: 60px; font-family: BACS"">KTDTBEKBO</p>",,,,,,,,,,
html-keyboard-response,245,512630,0.0-12.0-0.75,601ffb441dc6d959b855eea5,650c16f0f2faf8d7a0d14c09,651c1d94f84770358d76ef0b,null,null,"<p style=""font-size: 60px; font-family: BACS"">ZdNmUNUZ</p>",,,,,,,,,,
html-keyboard-response,246,513631,0.0-12.0-0.76,601ffb441dc6d959b855eea5,650c16f0f2faf8d7a0d14c09,651c1d94f84770358d76ef0b,null,null,"<p style=""font-size: 60px; font-family: BACS"">GAcYuvJ</p>",,,,,,,,,,
html-keyboard-response,247,514632,0.0-12.0-0.77,601ffb441dc6d959b855eea5,650c16f0f2faf8d7a0d14c09,651c1d94f84770358d76ef0b,null,null,"<p style=""font-size: 60px; font-family: BACS"">kKEdMEKBO</p>",,,,,,,,,,
html-keyboard-response,248,515632,0.0-12.0-0.78,601ffb441dc6d959b855eea5,650c16f0f2faf8d7a0d14c09,651c1d94f84770358d76ef0b,null,null,"<p style=""font-size: 60px; font-family: BACS"">KTDTBTmc</p>",,,,,,,,,,
html-keyboard-response,249,516633,0.0-12.0-0.79,601ffb441dc6d959b855eea5,650c16f0f2faf8d7a0d14c09,651c1d94f84770358d76ef0b,null,null,"<p style=""font-size: 60px; font-family: BACS"">bvuZuvJ</p>",,,,,,,,,,
html-keyboard-response,250,523334,0.0-13.0,601ffb441dc6d959b855eea5,650c16f0f2faf8d7a0d14c09,651c1d94f84770358d76ef0b,6700, ,"<p>Great, you've seen the third block of words. You may now take a short break.</p>
      <p>Press the spacebar when you're ready to continue.</p>",,,,,,,,,,
html-keyboard-response,251,524335,0.0-14.0-0.0,601ffb441dc6d959b855eea5,650c16f0f2faf8d7a0d14c09,651c1d94f84770358d76ef0b,null,null,"<p style=""font-size: 60px; font-family: BACS"">PCPDhRCdc</p>",,,,,,,,,,
html-keyboard-response,252,525336,0.0-14.0-0.1,601ffb441dc6d959b855eea5,650c16f0f2faf8d7a0d14c09,651c1d94f84770358d76ef0b,null,null,"<p style=""font-size: 60px; font-family: BACS"">aOLZUNUZ</p>",,,,,,,,,,
html-keyboard-response,253,526337,0.0-14.0-0.2,601ffb441dc6d959b855eea5,650c16f0f2faf8d7a0d14c09,651c1d94f84770358d76ef0b,null,null,"<p style=""font-size: 60px; font-family: BACS"">tRdMEKBO</p>",,,,,,,,,,
html-keyboard-response,254,527338,0.0-14.0-0.3,601ffb441dc6d959b855eea5,650c16f0f2faf8d7a0d14c09,651c1d94f84770358d76ef0b,null,null,"<p style=""font-size: 60px; font-family: BACS"">AlUYuvJ</p>",,,,,,,,,,
html-keyboard-response,255,528338,0.0-14.0-0.4,601ffb441dc6d959b855eea5,650c16f0f2faf8d7a0d14c09,651c1d94f84770358d76ef0b,null,null,"<p style=""font-size: 60px; font-family: BACS"">ukcYJcUk</p>",,,,,,,,,,
html-keyboard-response,256,529339,0.0-14.0-0.5,601ffb441dc6d959b855eea5,650c16f0f2faf8d7a0d14c09,651c1d94f84770358d76ef0b,null,null,"<p style=""font-size: 60px; font-family: BACS"">KTDTBTmc</p>",,,,,,,,,,
html-keyboard-response,257,530340,0.0-14.0-0.6,601ffb441dc6d959b855eea5,650c16f0f2faf8d7a0d14c09,651c1d94f84770358d76ef0b,null,null,"<p style=""font-size: 60px; font-family: BACS"">kcdOtEKBO</p>",,,,,,,,,,
html-keyboard-response,258,531341,0.0-14.0-0.7,601ffb441dc6d959b855eea5,650c16f0f2faf8d7a0d14c09,651c1d94f84770358d76ef0b,null,null,"<p style=""font-size: 60px; font-family: BACS"">PCPDhTmc</p>",,,,,,,,,,
html-keyboard-response,259,532342,0.0-14.0-0.8,601ffb441dc6d959b855eea5,650c16f0f2faf8d7a0d14c09,651c1d94f84770358d76ef0b,null,null,"<p style=""font-size: 60px; font-family: BACS"">GAcYkJdr</p>",,,,,,,,,,
html-keyboard-response,260,533342,0.0-14.0-0.9,601ffb441dc6d959b855eea5,650c16f0f2faf8d7a0d14c09,651c1d94f84770358d76ef0b,null,null,"<p style=""font-size: 60px; font-family: BACS"">ZNLOvNUZ</p>",,,,,,,,,,
html-keyboard-response,261,534343,0.0-14.0-0.10,601ffb441dc6d959b855eea5,650c16f0f2faf8d7a0d14c09,651c1d94f84770358d76ef0b,null,null,"<p style=""font-size: 60px; font-family: BACS"">blMkTmc</p>",,,,,,,,,,
html-keyboard-response,262,535344,0.0-14.0-0.11,601ffb441dc6d959b855eea5,650c16f0f2faf8d7a0d14c09,651c1d94f84770358d76ef0b,null,null,"<p style=""font-size: 60px; font-family: BACS"">bvuZuvJ</p>",,,,,,,,,,
html-keyboard-response,263,536345,0.0-14.0-0.12,601ffb441dc6d959b855eea5,650c16f0f2faf8d7a0d14c09,651c1d94f84770358d76ef0b,null,null,"<p style=""font-size: 60px; font-family: BACS"">blMkAlKD</p>",,,,,,,,,,
html-keyboard-response,264,537346,0.0-14.0-0.13,601ffb441dc6d959b855eea5,650c16f0f2faf8d7a0d14c09,651c1d94f84770358d76ef0b,null,null,"<p style=""font-size: 60px; font-family: BACS"">aYQmNUZ</p>",,,,,,,,,,
html-keyboard-response,265,538346,0.0-14.0-0.14,601ffb441dc6d959b855eea5,650c16f0f2faf8d7a0d14c09,651c1d94f84770358d76ef0b,null,null,"<p style=""font-size: 60px; font-family: BACS"">AMkCAlKD</p>",,,,,,,,,,
html-keyboard-response,266,539347,0.0-14.0-0.15,601ffb441dc6d959b855eea5,650c16f0f2faf8d7a0d14c09,651c1d94f84770358d76ef0b,null,null,"<p style=""font-size: 60px; font-family: BACS"">dMThkTmc</p>",,,,,,,,,,
html-keyboard-response,267,540348,0.0-14.0-0.16,601ffb441dc6d959b855eea5,650c16f0f2faf8d7a0d14c09,651c1d94f84770358d76ef0b,null,null,"<p style=""font-size: 60px; font-family: BACS"">ukcYNUZ</p>",,,,,,,,,,
html-keyboard-response,268,541349,0.0-14.0-0.17,601ffb441dc6d959b855eea5,650c16f0f2faf8d7a0d14c09,651c1d94f84770358d76ef0b,null,null,"<p style=""font-size: 60px; font-family: BACS"">aOLZUJcUk</p>",,,,,,,,,,
html-keyboard-response,269,542349,0.0-14.0-0.18,601ffb441dc6d959b855eea5,650c16f0f2faf8d7a0d14c09,651c1d94f84770358d76ef0b,null,null,"<p style=""font-size: 60px; font-family: BACS"">ZNLOvrAm</p>",,,,,,,,,,
html-keyboard-response,270,543350,0.0-14.0-0.19,601ffb441dc6d959b855eea5,650c16f0f2faf8d7a0d14c09,651c1d94f84770358d76ef0b,null,null,"<p style=""font-size: 60px; font-family: BACS"">KTDTBRdCc</p>",,,,,,,,,,
html-keyboard-response,271,544350,0.0-14.0-0.20,601ffb441dc6d959b855eea5,650c16f0f2faf8d7a0d14c09,651c1d94f84770358d76ef0b,null,null,"<p style=""font-size: 60px; font-family: BACS"">blMkEKBO</p>",,,,,,,,,,
html-keyboard-response,272,545351,0.0-14.0-0.21,601ffb441dc6d959b855eea5,650c16f0f2faf8d7a0d14c09,651c1d94f84770358d76ef0b,null,null,"<p style=""font-size: 60px; font-family: BACS"">kKEdMTmc</p>",,,,,,,,,,
html-keyboard-response,273,546351,0.0-14.0-0.22,601ffb441dc6d959b855eea5,650c16f0f2faf8d7a0d14c09,651c1d94f84770358d76ef0b,null,null,"<p style=""font-size: 60px; font-family: BACS"">ZdNmUJcUk</p>",,,,,,,,,,
html-keyboard-response,274,547352,0.0-14.0-0.23,601ffb441dc6d959b855eea5,650c16f0f2faf8d7a0d14c09,651c1d94f84770358d76ef0b,null,null,"<p style=""font-size: 60px; font-family: BACS"">PCPDhRdCc</p>",,,,,,,,,,
html-keyboard-response,275,548353,0.0-14.0-0.24,601ffb441dc6d959b855eea5,650c16f0f2faf8d7a0d14c09,651c1d94f84770358d76ef0b,null,null,"<p style=""font-size: 60px; font-family: BACS"">aOLZUrAm</p>",,,,,,,,,,
html-keyboard-response,276,549353,0.0-14.0-0.25,601ffb441dc6d959b855eea5,650c16f0f2faf8d7a0d14c09,651c1d94f84770358d76ef0b,null,null,"<p style=""font-size: 60px; font-family: BACS"">GAcYNUZ</p>",,,,,,,,,,
html-keyboard-response,277,550354,0.0-14.0-0.26,601ffb441dc6d959b855eea5,650c16f0f2faf8d7a0d14c09,651c1d94f84770358d76ef0b,null,null,"<p style=""font-size: 60px; font-family: BACS"">ukcYkJdr</p>",,,,,,,,,,
html-keyboard-response,278,551354,0.0-14.0-0.27,601ffb441dc6d959b855eea5,650c16f0f2faf8d7a0d14c09,651c1d94f84770358d76ef0b,null,null,"<p style=""font-size: 60px; font-family: BACS"">kcdOtAlKD</p>",,,,,,,,,,
html-keyboard-response,279,552355,0.0-14.0-0.28,601ffb441dc6d959b855eea5,650c16f0f2faf8d7a0d14c09,651c1d94f84770358d76ef0b,null,null,"<p style=""font-size: 60px; font-family: BACS"">kKEdMRCdc</p>",,,,,,,,,,
html-keyboard-response,280,553356,0.0-14.0-0.29,601ffb441dc6d959b855eea5,650c16f0f2faf8d7a0d14c09,651c1d94f84770358d76ef0b,null,null,"<p style=""font-size: 60px; font-family: BACS"">uauOuvJ</p>",,,,,,,,,,
html-keyboard-response,281,554356,0.0-14.0-0.30,601ffb441dc6d959b855eea5,650c16f0f2faf8d7a0d14c09,651c1d94f84770358d76ef0b,null,null,"<p style=""font-size: 60px; font-family: BACS"">KTDTBEKBO</p>",,,,,,,,,,
html-keyboard-response,282,555357,0.0-14.0-0.31,601ffb441dc6d959b855eea5,650c16f0f2faf8d7a0d14c09,651c1d94f84770358d76ef0b,null,null,"<p style=""font-size: 60px; font-family: BACS"">tRdMTmc</p>",,,,,,,,,,
html-keyboard-response,283,556358,0.0-14.0-0.32,601ffb441dc6d959b855eea5,650c16f0f2faf8d7a0d14c09,651c1d94f84770358d76ef0b,null,null,"<p style=""font-size: 60px; font-family: BACS"">bvuZkJdr</p>",,,,,,,,,,
html-keyboard-response,284,557359,0.0-14.0-0.33,601ffb441dc6d959b855eea5,650c16f0f2faf8d7a0d14c09,651c1d94f84770358d76ef0b,null,null,"<p style=""font-size: 60px; font-family: BACS"">AlUYrAm</p>",,,,,,,,,,
html-keyboard-response,285,558359,0.0-14.0-0.34,601ffb441dc6d959b855eea5,650c16f0f2faf8d7a0d14c09,651c1d94f84770358d76ef0b,null,null,"<p style=""font-size: 60px; font-family: BACS"">ZdNmUuvJ</p>",,,,,,,,,,
html-keyboard-response,286,559360,0.0-14.0-0.35,601ffb441dc6d959b855eea5,650c16f0f2faf8d7a0d14c09,651c1d94f84770358d76ef0b,null,null,"<p style=""font-size: 60px; font-family: BACS"">vkYGlkJdr</p>",,,,,,,,,,
html-keyboard-response,287,560360,0.0-14.0-0.36,601ffb441dc6d959b855eea5,650c16f0f2faf8d7a0d14c09,651c1d94f84770358d76ef0b,null,null,"<p style=""font-size: 60px; font-family: BACS"">tRdMAlKD</p>",,,,,,,,,,
html-keyboard-response,288,561361,0.0-14.0-0.37,601ffb441dc6d959b855eea5,650c16f0f2faf8d7a0d14c09,651c1d94f84770358d76ef0b,null,null,"<p style=""font-size: 60px; font-family: BACS"">aOLZUuvJ</p>",,,,,,,,,,
html-keyboard-response,289,562362,0.0-14.0-0.38,601ffb441dc6d959b855eea5,650c16f0f2faf8d7a0d14c09,651c1d94f84770358d76ef0b,null,null,"<p style=""font-size: 60px; font-family: BACS"">kcdOtRCdc</p>",,,,,,,,,,
html-keyboard-response,290,563363,0.0-14.0-0.39,601ffb441dc6d959b855eea5,650c16f0f2faf8d7a0d14c09,651c1d94f84770358d76ef0b,null,null,"<p style=""font-size: 60px; font-family: BACS"">vkYGlJcUk</p>",,,,,,,,,,
html-keyboard-response,291,564363,0.0-14.0-0.40,601ffb441dc6d959b855eea5,650c16f0f2faf8d7a0d14c09,651c1d94f84770358d76ef0b,null,null,"<p style=""font-size: 60px; font-family: BACS"">AMkCRdCc</p>",,,,,,,,,,
html-keyboard-response,292,565364,0.0-14.0-0.41,601ffb441dc6d959b855eea5,650c16f0f2faf8d7a0d14c09,651c1d94f84770358d76ef0b,null,null,"<p style=""font-size: 60px; font-family: BACS"">ZdNmUNUZ</p>",,,,,,,,,,
html-keyboard-response,293,566364,0.0-14.0-0.42,601ffb441dc6d959b855eea5,650c16f0f2faf8d7a0d14c09,651c1d94f84770358d76ef0b,null,null,"<p style=""font-size: 60px; font-family: BACS"">vkYGlrAm</p>",,,,,,,,,,
html-keyboard-response,294,567365,0.0-14.0-0.43,601ffb441dc6d959b855eea5,650c16f0f2faf8d7a0d14c09,651c1d94f84770358d76ef0b,null,null,"<p style=""font-size: 60px; font-family: BACS"">bcbMRdCc</p>",,,,,,,,,,
html-keyboard-response,295,568366,0.0-14.0-0.44,601ffb441dc6d959b855eea5,650c16f0f2faf8d7a0d14c09,651c1d94f84770358d76ef0b,null,null,"<p style=""font-size: 60px; font-family: BACS"">ZNLOvJcUk</p>",,,,,,,,,,
html-keyboard-response,296,569366,0.0-14.0-0.45,601ffb441dc6d959b855eea5,650c16f0f2faf8d7a0d14c09,651c1d94f84770358d76ef0b,null,null,"<p style=""font-size: 60px; font-family: BACS"">tRdMRCdc</p>",,,,,,,,,,
html-keyboard-response,297,570367,0.0-14.0-0.46,601ffb441dc6d959b855eea5,650c16f0f2faf8d7a0d14c09,651c1d94f84770358d76ef0b,null,null,"<p style=""font-size: 60px; font-family: BACS"">PDPhlEKBO</p>",,,,,,,,,,
html-keyboard-response,298,571368,0.0-14.0-0.47,601ffb441dc6d959b855eea5,650c16f0f2faf8d7a0d14c09,651c1d94f84770358d76ef0b,null,null,"<p style=""font-size: 60px; font-family: BACS"">bvuZJcUk</p>",,,,,,,,,,
html-keyboard-response,299,572369,0.0-14.0-0.48,601ffb441dc6d959b855eea5,650c16f0f2faf8d7a0d14c09,651c1d94f84770358d76ef0b,null,null,"<p style=""font-size: 60px; font-family: BACS"">uauOrAm</p>",,,,,,,,,,
html-keyboard-response,300,573369,0.0-14.0-0.49,601ffb441dc6d959b855eea5,650c16f0f2faf8d7a0d14c09,651c1d94f84770358d76ef0b,null,null,"<p style=""font-size: 60px; font-family: BACS"">dMThkRCdc</p>",,,,,,,,,,
html-keyboard-response,301,574370,0.0-14.0-0.50,601ffb441dc6d959b855eea5,650c16f0f2faf8d7a0d14c09,651c1d94f84770358d76ef0b,null,null,"<p style=""font-size: 60px; font-family: BACS"">aYQmkJdr</p>",,,,,,,,,,
html-keyboard-response,302,575370,0.0-14.0-0.51,601ffb441dc6d959b855eea5,650c16f0f2faf8d7a0d14c09,651c1d94f84770358d76ef0b,null,null,"<p style=""font-size: 60px; font-family: BACS"">uauONUZ</p>",,,,,,,,,,
html-keyboard-response,303,576371,0.0-14.0-0.52,601ffb441dc6d959b855eea5,650c16f0f2faf8d7a0d14c09,651c1d94f84770358d76ef0b,null,null,"<p style=""font-size: 60px; font-family: BACS"">PDPhlRdCc</p>",,,,,,,,,,
html-keyboard-response,304,577372,0.0-14.0-0.53,601ffb441dc6d959b855eea5,650c16f0f2faf8d7a0d14c09,651c1d94f84770358d76ef0b,null,null,"<p style=""font-size: 60px; font-family: BACS"">ukcYrAm</p>",,,,,,,,,,
html-keyboard-response,305,578372,0.0-14.0-0.54,601ffb441dc6d959b855eea5,650c16f0f2faf8d7a0d14c09,651c1d94f84770358d76ef0b,null,null,"<p style=""font-size: 60px; font-family: BACS"">bcbMRCdc</p>",,,,,,,,,,
html-keyboard-response,306,579372,0.0-14.0-0.55,601ffb441dc6d959b855eea5,650c16f0f2faf8d7a0d14c09,651c1d94f84770358d76ef0b,null,null,"<p style=""font-size: 60px; font-family: BACS"">ZNLOvkJdr</p>",,,,,,,,,,
html-keyboard-response,307,580373,0.0-14.0-0.56,601ffb441dc6d959b855eea5,650c16f0f2faf8d7a0d14c09,651c1d94f84770358d76ef0b,null,null,"<p style=""font-size: 60px; font-family: BACS"">blMkRCdc</p>",,,,,,,,,,
html-keyboard-response,308,581374,0.0-14.0-0.57,601ffb441dc6d959b855eea5,650c16f0f2faf8d7a0d14c09,651c1d94f84770358d76ef0b,null,null,"<p style=""font-size: 60px; font-family: BACS"">AMkCTmc</p>",,,,,,,,,,
html-keyboard-response,309,582375,0.0-14.0-0.58,601ffb441dc6d959b855eea5,650c16f0f2faf8d7a0d14c09,651c1d94f84770358d76ef0b,null,null,"<p style=""font-size: 60px; font-family: BACS"">bcbMAlKD</p>",,,,,,,,,,
html-keyboard-response,310,583376,0.0-14.0-0.59,601ffb441dc6d959b855eea5,650c16f0f2faf8d7a0d14c09,651c1d94f84770358d76ef0b,null,null,"<p style=""font-size: 60px; font-family: BACS"">vkYGluvJ</p>",,,,,,,,,,
html-keyboard-response,311,584376,0.0-14.0-0.60,601ffb441dc6d959b855eea5,650c16f0f2faf8d7a0d14c09,651c1d94f84770358d76ef0b,null,null,"<p style=""font-size: 60px; font-family: BACS"">bvuZrAm</p>",,,,,,,,,,
html-keyboard-response,312,585377,0.0-14.0-0.61,601ffb441dc6d959b855eea5,650c16f0f2faf8d7a0d14c09,651c1d94f84770358d76ef0b,null,null,"<p style=""font-size: 60px; font-family: BACS"">kKEdMRdCc</p>",,,,,,,,,,
html-keyboard-response,313,586378,0.0-14.0-0.62,601ffb441dc6d959b855eea5,650c16f0f2faf8d7a0d14c09,651c1d94f84770358d76ef0b,null,null,"<p style=""font-size: 60px; font-family: BACS"">bcbMEKBO</p>",,,,,,,,,,
html-keyboard-response,314,587379,0.0-14.0-0.63,601ffb441dc6d959b855eea5,650c16f0f2faf8d7a0d14c09,651c1d94f84770358d76ef0b,null,null,"<p style=""font-size: 60px; font-family: BACS"">AlUYkJdr</p>",,,,,,,,,,
html-keyboard-response,315,588380,0.0-14.0-0.64,601ffb441dc6d959b855eea5,650c16f0f2faf8d7a0d14c09,651c1d94f84770358d76ef0b,null,null,"<p style=""font-size: 60px; font-family: BACS"">aYQmuvJ</p>",,,,,,,,,,
html-keyboard-response,316,589381,0.0-14.0-0.65,601ffb441dc6d959b855eea5,650c16f0f2faf8d7a0d14c09,651c1d94f84770358d76ef0b,null,null,"<p style=""font-size: 60px; font-family: BACS"">dMThkEKBO</p>",,,,,,,,,,
html-keyboard-response,317,590381,0.0-14.0-0.66,601ffb441dc6d959b855eea5,650c16f0f2faf8d7a0d14c09,651c1d94f84770358d76ef0b,null,null,"<p style=""font-size: 60px; font-family: BACS"">AMkCRCdc</p>",,,,,,,,,,
html-keyboard-response,318,591382,0.0-14.0-0.67,601ffb441dc6d959b855eea5,650c16f0f2faf8d7a0d14c09,651c1d94f84770358d76ef0b,null,null,"<p style=""font-size: 60px; font-family: BACS"">PDPhlTmc</p>",,,,,,,,,,
html-keyboard-response,319,592383,0.0-14.0-0.68,601ffb441dc6d959b855eea5,650c16f0f2faf8d7a0d14c09,651c1d94f84770358d76ef0b,null,null,"<p style=""font-size: 60px; font-family: BACS"">kKEdMEKBO</p>",,,,,,,,,,
html-keyboard-response,320,593384,0.0-14.0-0.69,601ffb441dc6d959b855eea5,650c16f0f2faf8d7a0d14c09,651c1d94f84770358d76ef0b,null,null,"<p style=""font-size: 60px; font-family: BACS"">dMThkRdCc</p>",,,,,,,,,,
html-keyboard-response,321,594384,0.0-14.0-0.70,601ffb441dc6d959b855eea5,650c16f0f2faf8d7a0d14c09,651c1d94f84770358d76ef0b,null,null,"<p style=""font-size: 60px; font-family: BACS"">PCPDhAlKD</p>",,,,,,,,,,
html-keyboard-response,322,595385,0.0-14.0-0.71,601ffb441dc6d959b855eea5,650c16f0f2faf8d7a0d14c09,651c1d94f84770358d76ef0b,null,null,"<p style=""font-size: 60px; font-family: BACS"">GAcYJcUk</p>",,,,,,,,,,
html-keyboard-response,323,596386,0.0-14.0-0.72,601ffb441dc6d959b855eea5,650c16f0f2faf8d7a0d14c09,651c1d94f84770358d76ef0b,null,null,"<p style=""font-size: 60px; font-family: BACS"">PDPhlAlKD</p>",,,,,,,,,,
html-keyboard-response,324,597387,0.0-14.0-0.73,601ffb441dc6d959b855eea5,650c16f0f2faf8d7a0d14c09,651c1d94f84770358d76ef0b,null,null,"<p style=""font-size: 60px; font-family: BACS"">kcdOtRdCc</p>",,,,,,,,,,
html-keyboard-response,325,598388,0.0-14.0-0.74,601ffb441dc6d959b855eea5,650c16f0f2faf8d7a0d14c09,651c1d94f84770358d76ef0b,null,null,"<p style=""font-size: 60px; font-family: BACS"">uauOkJdr</p>",,,,,,,,,,
html-keyboard-response,326,599389,0.0-14.0-0.75,601ffb441dc6d959b855eea5,650c16f0f2faf8d7a0d14c09,651c1d94f84770358d76ef0b,null,null,"<p style=""font-size: 60px; font-family: BACS"">AlUYNUZ</p>",,,,,,,,,,
html-keyboard-response,327,600389,0.0-14.0-0.76,601ffb441dc6d959b855eea5,650c16f0f2faf8d7a0d14c09,651c1d94f84770358d76ef0b,null,null,"<p style=""font-size: 60px; font-family: BACS"">aYQmJcUk</p>",,,,,,,,,,
html-keyboard-response,328,601390,0.0-14.0-0.77,601ffb441dc6d959b855eea5,650c16f0f2faf8d7a0d14c09,651c1d94f84770358d76ef0b,null,null,"<p style=""font-size: 60px; font-family: BACS"">KTDTBAlKD</p>",,,,,,,,,,
html-keyboard-response,329,602391,0.0-14.0-0.78,601ffb441dc6d959b855eea5,650c16f0f2faf8d7a0d14c09,651c1d94f84770358d76ef0b,null,null,"<p style=""font-size: 60px; font-family: BACS"">GAcYuvJ</p>",,,,,,,,,,
html-keyboard-response,330,603392,0.0-14.0-0.79,601ffb441dc6d959b855eea5,650c16f0f2faf8d7a0d14c09,651c1d94f84770358d76ef0b,null,null,"<p style=""font-size: 60px; font-family: BACS"">ZdNmUrAm</p>",,,,,,,,,,
html-keyboard-response,331,607503,0.0-15.0,601ffb441dc6d959b855eea5,650c16f0f2faf8d7a0d14c09,651c1d94f84770358d76ef0b,4110, ,"<p>Great, you've seen the fourth block of words. You may now take a short break.</p>
      <p>Press the spacebar when you're ready to continue.</p>",,,,,,,,,,
html-keyboard-response,332,608504,0.0-16.0-0.0,601ffb441dc6d959b855eea5,650c16f0f2faf8d7a0d14c09,651c1d94f84770358d76ef0b,null,null,"<p style=""font-size: 60px; font-family: BACS"">uauOuvJ</p>",,,,,,,,,,
html-keyboard-response,333,609504,0.0-16.0-0.1,601ffb441dc6d959b855eea5,650c16f0f2faf8d7a0d14c09,651c1d94f84770358d76ef0b,null,null,"<p style=""font-size: 60px; font-family: BACS"">uauOuvJ</p>",,,,,,,,,,
html-keyboard-response,334,610505,0.0-16.0-0.2,601ffb441dc6d959b855eea5,650c16f0f2faf8d7a0d14c09,651c1d94f84770358d76ef0b,null,null,"<p style=""font-size: 60px; font-family: BACS"">uauOuvJ</p>",,,,,,,,,,
html-keyboard-response,335,611506,0.0-16.0-0.3,601ffb441dc6d959b855eea5,650c16f0f2faf8d7a0d14c09,651c1d94f84770358d76ef0b,null,null,"<p style=""font-size: 60px; font-family: BACS"">uauOuvJ</p>",,,,,,,,,,
html-keyboard-response,336,612507,0.0-16.0-0.4,601ffb441dc6d959b855eea5,650c16f0f2faf8d7a0d14c09,651c1d94f84770358d76ef0b,null,null,"<p style=""font-size: 60px; font-family: BACS"">uauOuvJ</p>",,,,,,,,,,
html-keyboard-response,337,613508,0.0-16.0-0.5,601ffb441dc6d959b855eea5,650c16f0f2faf8d7a0d14c09,651c1d94f84770358d76ef0b,null,null,"<p style=""font-size: 60px; font-family: BACS"">uauOuvJ</p>",,,,,,,,,,
html-keyboard-response,338,614508,0.0-16.0-0.6,601ffb441dc6d959b855eea5,650c16f0f2faf8d7a0d14c09,651c1d94f84770358d76ef0b,null,null,"<p style=""font-size: 60px; font-family: BACS"">uauOuvJ</p>",,,,,,,,,,
html-keyboard-response,339,615509,0.0-16.0-0.7,601ffb441dc6d959b855eea5,650c16f0f2faf8d7a0d14c09,651c1d94f84770358d76ef0b,null,null,"<p style=""font-size: 60px; font-family: BACS"">uauOuvJ</p>",,,,,,,,,,
html-keyboard-response,340,616510,0.0-16.0-0.8,601ffb441dc6d959b855eea5,650c16f0f2faf8d7a0d14c09,651c1d94f84770358d76ef0b,null,null,"<p style=""font-size: 60px; font-family: BACS"">uauOuvJ</p>",,,,,,,,,,
html-keyboard-response,341,617511,0.0-16.0-0.9,601ffb441dc6d959b855eea5,650c16f0f2faf8d7a0d14c09,651c1d94f84770358d76ef0b,null,null,"<p style=""font-size: 60px; font-family: BACS"">uauOuvJ</p>",,,,,,,,,,
html-keyboard-response,342,618512,0.0-16.0-0.10,601ffb441dc6d959b855eea5,650c16f0f2faf8d7a0d14c09,651c1d94f84770358d76ef0b,null,null,"<p style=""font-size: 60px; font-family: BACS"">uauOuvJ</p>",,,,,,,,,,
html-keyboard-response,343,619512,0.0-16.0-0.11,601ffb441dc6d959b855eea5,650c16f0f2faf8d7a0d14c09,651c1d94f84770358d76ef0b,null,null,"<p style=""font-size: 60px; font-family: BACS"">uauOuvJ</p>",,,,,,,,,,
html-keyboard-response,344,620513,0.0-16.0-0.12,601ffb441dc6d959b855eea5,650c16f0f2faf8d7a0d14c09,651c1d94f84770358d76ef0b,null,null,"<p style=""font-size: 60px; font-family: BACS"">uauOuvJ</p>",,,,,,,,,,
html-keyboard-response,345,621514,0.0-16.0-0.13,601ffb441dc6d959b855eea5,650c16f0f2faf8d7a0d14c09,651c1d94f84770358d76ef0b,null,null,"<p style=""font-size: 60px; font-family: BACS"">uauOuvJ</p>",,,,,,,,,,
html-keyboard-response,346,622515,0.0-16.0-0.14,601ffb441dc6d959b855eea5,650c16f0f2faf8d7a0d14c09,651c1d94f84770358d76ef0b,null,null,"<p style=""font-size: 60px; font-family: BACS"">uauOuvJ</p>",,,,,,,,,,
html-keyboard-response,347,623516,0.0-16.0-0.15,601ffb441dc6d959b855eea5,650c16f0f2faf8d7a0d14c09,651c1d94f84770358d76ef0b,null,null,"<p style=""font-size: 60px; font-family: BACS"">uauOuvJ</p>",,,,,,,,,,
html-keyboard-response,348,624517,0.0-16.0-0.16,601ffb441dc6d959b855eea5,650c16f0f2faf8d7a0d14c09,651c1d94f84770358d76ef0b,null,null,"<p style=""font-size: 60px; font-family: BACS"">uauOuvJ</p>",,,,,,,,,,
html-keyboard-response,349,625518,0.0-16.0-0.17,601ffb441dc6d959b855eea5,650c16f0f2faf8d7a0d14c09,651c1d94f84770358d76ef0b,null,null,"<p style=""font-size: 60px; font-family: BACS"">uauOuvJ</p>",,,,,,,,,,
html-keyboard-response,350,626519,0.0-16.0-0.18,601ffb441dc6d959b855eea5,650c16f0f2faf8d7a0d14c09,651c1d94f84770358d76ef0b,null,null,"<p style=""font-size: 60px; font-family: BACS"">uauOuvJ</p>",,,,,,,,,,
html-keyboard-response,351,627520,0.0-16.0-0.19,601ffb441dc6d959b855eea5,650c16f0f2faf8d7a0d14c09,651c1d94f84770358d76ef0b,null,null,"<p style=""font-size: 60px; font-family: BACS"">uauOuvJ</p>",,,,,,,,,,
html-keyboard-response,352,628520,0.0-16.0-0.20,601ffb441dc6d959b855eea5,650c16f0f2faf8d7a0d14c09,651c1d94f84770358d76ef0b,null,null,"<p style=""font-size: 60px; font-family: BACS"">uauOuvJ</p>",,,,,,,,,,
html-keyboard-response,353,629521,0.0-16.0-0.21,601ffb441dc6d959b855eea5,650c16f0f2faf8d7a0d14c09,651c1d94f84770358d76ef0b,null,null,"<p style=""font-size: 60px; font-family: BACS"">uauOuvJ</p>",,,,,,,,,,
html-keyboard-response,354,630522,0.0-16.0-0.22,601ffb441dc6d959b855eea5,650c16f0f2faf8d7a0d14c09,651c1d94f84770358d76ef0b,null,null,"<p style=""font-size: 60px; font-family: BACS"">uauOuvJ</p>",,,,,,,,,,
html-keyboard-response,355,631523,0.0-16.0-0.23,601ffb441dc6d959b855eea5,650c16f0f2faf8d7a0d14c09,651c1d94f84770358d76ef0b,null,null,"<p style=""font-size: 60px; font-family: BACS"">uauOuvJ</p>",,,,,,,,,,
html-keyboard-response,356,632524,0.0-16.0-0.24,601ffb441dc6d959b855eea5,650c16f0f2faf8d7a0d14c09,651c1d94f84770358d76ef0b,null,null,"<p style=""font-size: 60px; font-family: BACS"">uauOuvJ</p>",,,,,,,,,,
html-keyboard-response,357,633525,0.0-16.0-0.25,601ffb441dc6d959b855eea5,650c16f0f2faf8d7a0d14c09,651c1d94f84770358d76ef0b,null,null,"<p style=""font-size: 60px; font-family: BACS"">uauOuvJ</p>",,,,,,,,,,
html-keyboard-response,358,634526,0.0-16.0-0.26,601ffb441dc6d959b855eea5,650c16f0f2faf8d7a0d14c09,651c1d94f84770358d76ef0b,null,null,"<p style=""font-size: 60px; font-family: BACS"">uauOuvJ</p>",,,,,,,,,,
html-keyboard-response,359,635526,0.0-16.0-0.27,601ffb441dc6d959b855eea5,650c16f0f2faf8d7a0d14c09,651c1d94f84770358d76ef0b,null,null,"<p style=""font-size: 60px; font-family: BACS"">uauOuvJ</p>",,,,,,,,,,
html-keyboard-response,360,636528,0.0-16.0-0.28,601ffb441dc6d959b855eea5,650c16f0f2faf8d7a0d14c09,651c1d94f84770358d76ef0b,null,null,"<p style=""font-size: 60px; font-family: BACS"">uauOuvJ</p>",,,,,,,,,,
html-keyboard-response,361,637529,0.0-16.0-0.29,601ffb441dc6d959b855eea5,650c16f0f2faf8d7a0d14c09,651c1d94f84770358d76ef0b,null,null,"<p style=""font-size: 60px; font-family: BACS"">uauOuvJ</p>",,,,,,,,,,
html-keyboard-response,362,638530,0.0-16.0-0.30,601ffb441dc6d959b855eea5,650c16f0f2faf8d7a0d14c09,651c1d94f84770358d76ef0b,null,null,"<p style=""font-size: 60px; font-family: BACS"">uauOuvJ</p>",,,,,,,,,,
html-keyboard-response,363,639531,0.0-16.0-0.31,601ffb441dc6d959b855eea5,650c16f0f2faf8d7a0d14c09,651c1d94f84770358d76ef0b,null,null,"<p style=""font-size: 60px; font-family: BACS"">uauOuvJ</p>",,,,,,,,,,
html-keyboard-response,364,640532,0.0-16.0-0.32,601ffb441dc6d959b855eea5,650c16f0f2faf8d7a0d14c09,651c1d94f84770358d76ef0b,null,null,"<p style=""font-size: 60px; font-family: BACS"">uauOuvJ</p>",,,,,,,,,,
html-keyboard-response,365,641533,0.0-16.0-0.33,601ffb441dc6d959b855eea5,650c16f0f2faf8d7a0d14c09,651c1d94f84770358d76ef0b,null,null,"<p style=""font-size: 60px; font-family: BACS"">uauOuvJ</p>",,,,,,,,,,
html-keyboard-response,366,642534,0.0-16.0-0.34,601ffb441dc6d959b855eea5,650c16f0f2faf8d7a0d14c09,651c1d94f84770358d76ef0b,null,null,"<p style=""font-size: 60px; font-family: BACS"">uauOuvJ</p>",,,,,,,,,,
html-keyboard-response,367,643534,0.0-16.0-0.35,601ffb441dc6d959b855eea5,650c16f0f2faf8d7a0d14c09,651c1d94f84770358d76ef0b,null,null,"<p style=""font-size: 60px; font-family: BACS"">uauOuvJ</p>",,,,,,,,,,
html-keyboard-response,368,644535,0.0-16.0-0.36,601ffb441dc6d959b855eea5,650c16f0f2faf8d7a0d14c09,651c1d94f84770358d76ef0b,null,null,"<p style=""font-size: 60px; font-family: BACS"">uauOuvJ</p>",,,,,,,,,,
html-keyboard-response,369,645536,0.0-16.0-0.37,601ffb441dc6d959b855eea5,650c16f0f2faf8d7a0d14c09,651c1d94f84770358d76ef0b,null,null,"<p style=""font-size: 60px; font-family: BACS"">uauOuvJ</p>",,,,,,,,,,
html-keyboard-response,370,646537,0.0-16.0-0.38,601ffb441dc6d959b855eea5,650c16f0f2faf8d7a0d14c09,651c1d94f84770358d76ef0b,null,null,"<p style=""font-size: 60px; font-family: BACS"">uauOuvJ</p>",,,,,,,,,,
html-keyboard-response,371,647538,0.0-16.0-0.39,601ffb441dc6d959b855eea5,650c16f0f2faf8d7a0d14c09,651c1d94f84770358d76ef0b,null,null,"<p style=""font-size: 60px; font-family: BACS"">uauOuvJ</p>",,,,,,,,,,
html-keyboard-response,372,648539,0.0-16.0-0.40,601ffb441dc6d959b855eea5,650c16f0f2faf8d7a0d14c09,651c1d94f84770358d76ef0b,null,null,"<p style=""font-size: 60px; font-family: BACS"">uauOuvJ</p>",,,,,,,,,,
html-keyboard-response,373,649540,0.0-16.0-0.41,601ffb441dc6d959b855eea5,650c16f0f2faf8d7a0d14c09,651c1d94f84770358d76ef0b,null,null,"<p style=""font-size: 60px; font-family: BACS"">uauOuvJ</p>",,,,,,,,,,
html-keyboard-response,374,650541,0.0-16.0-0.42,601ffb441dc6d959b855eea5,650c16f0f2faf8d7a0d14c09,651c1d94f84770358d76ef0b,null,null,"<p style=""font-size: 60px; font-family: BACS"">uauOuvJ</p>",,,,,,,,,,
html-keyboard-response,375,651542,0.0-16.0-0.43,601ffb441dc6d959b855eea5,650c16f0f2faf8d7a0d14c09,651c1d94f84770358d76ef0b,null,null,"<p style=""font-size: 60px; font-family: BACS"">uauOuvJ</p>",,,,,,,,,,
html-keyboard-response,376,652543,0.0-16.0-0.44,601ffb441dc6d959b855eea5,650c16f0f2faf8d7a0d14c09,651c1d94f84770358d76ef0b,null,null,"<p style=""font-size: 60px; font-family: BACS"">uauOuvJ</p>",,,,,,,,,,
html-keyboard-response,377,653544,0.0-16.0-0.45,601ffb441dc6d959b855eea5,650c16f0f2faf8d7a0d14c09,651c1d94f84770358d76ef0b,null,null,"<p style=""font-size: 60px; font-family: BACS"">uauOuvJ</p>",,,,,,,,,,
html-keyboard-response,378,654545,0.0-16.0-0.46,601ffb441dc6d959b855eea5,650c16f0f2faf8d7a0d14c09,651c1d94f84770358d76ef0b,null,null,"<p style=""font-size: 60px; font-family: BACS"">uauOuvJ</p>",,,,,,,,,,
html-keyboard-response,379,655545,0.0-16.0-0.47,601ffb441dc6d959b855eea5,650c16f0f2faf8d7a0d14c09,651c1d94f84770358d76ef0b,null,null,"<p style=""font-size: 60px; font-family: BACS"">uauOuvJ</p>",,,,,,,,,,
html-keyboard-response,380,656546,0.0-16.0-0.48,601ffb441dc6d959b855eea5,650c16f0f2faf8d7a0d14c09,651c1d94f84770358d76ef0b,null,null,"<p style=""font-size: 60px; font-family: BACS"">uauOuvJ</p>",,,,,,,,,,
html-keyboard-response,381,657547,0.0-16.0-0.49,601ffb441dc6d959b855eea5,650c16f0f2faf8d7a0d14c09,651c1d94f84770358d76ef0b,null,null,"<p style=""font-size: 60px; font-family: BACS"">uauOuvJ</p>",,,,,,,,,,
html-keyboard-response,382,658548,0.0-16.0-0.50,601ffb441dc6d959b855eea5,650c16f0f2faf8d7a0d14c09,651c1d94f84770358d76ef0b,null,null,"<p style=""font-size: 60px; font-family: BACS"">uauOuvJ</p>",,,,,,,,,,
html-keyboard-response,383,659549,0.0-16.0-0.51,601ffb441dc6d959b855eea5,650c16f0f2faf8d7a0d14c09,651c1d94f84770358d76ef0b,null,null,"<p style=""font-size: 60px; font-family: BACS"">uauOuvJ</p>",,,,,,,,,,
html-keyboard-response,384,660550,0.0-16.0-0.52,601ffb441dc6d959b855eea5,650c16f0f2faf8d7a0d14c09,651c1d94f84770358d76ef0b,null,null,"<p style=""font-size: 60px; font-family: BACS"">uauOuvJ</p>",,,,,,,,,,
html-keyboard-response,385,661551,0.0-16.0-0.53,601ffb441dc6d959b855eea5,650c16f0f2faf8d7a0d14c09,651c1d94f84770358d76ef0b,null,null,"<p style=""font-size: 60px; font-family: BACS"">uauOuvJ</p>",,,,,,,,,,
html-keyboard-response,386,662552,0.0-16.0-0.54,601ffb441dc6d959b855eea5,650c16f0f2faf8d7a0d14c09,651c1d94f84770358d76ef0b,null,null,"<p style=""font-size: 60px; font-family: BACS"">uauOuvJ</p>",,,,,,,,,,
html-keyboard-response,387,663552,0.0-16.0-0.55,601ffb441dc6d959b855eea5,650c16f0f2faf8d7a0d14c09,651c1d94f84770358d76ef0b,null,null,"<p style=""font-size: 60px; font-family: BACS"">uauOuvJ</p>",,,,,,,,,,
html-keyboard-response,388,664553,0.0-16.0-0.56,601ffb441dc6d959b855eea5,650c16f0f2faf8d7a0d14c09,651c1d94f84770358d76ef0b,null,null,"<p style=""font-size: 60px; font-family: BACS"">uauOuvJ</p>",,,,,,,,,,
html-keyboard-response,389,665554,0.0-16.0-0.57,601ffb441dc6d959b855eea5,650c16f0f2faf8d7a0d14c09,651c1d94f84770358d76ef0b,null,null,"<p style=""font-size: 60px; font-family: BACS"">uauOuvJ</p>",,,,,,,,,,
html-keyboard-response,390,666555,0.0-16.0-0.58,601ffb441dc6d959b855eea5,650c16f0f2faf8d7a0d14c09,651c1d94f84770358d76ef0b,null,null,"<p style=""font-size: 60px; font-family: BACS"">uauOuvJ</p>",,,,,,,,,,
html-keyboard-response,391,667556,0.0-16.0-0.59,601ffb441dc6d959b855eea5,650c16f0f2faf8d7a0d14c09,651c1d94f84770358d76ef0b,null,null,"<p style=""font-size: 60px; font-family: BACS"">uauOuvJ</p>",,,,,,,,,,
html-keyboard-response,392,668557,0.0-16.0-0.60,601ffb441dc6d959b855eea5,650c16f0f2faf8d7a0d14c09,651c1d94f84770358d76ef0b,null,null,"<p style=""font-size: 60px; font-family: BACS"">uauOuvJ</p>",,,,,,,,,,
html-keyboard-response,393,669557,0.0-16.0-0.61,601ffb441dc6d959b855eea5,650c16f0f2faf8d7a0d14c09,651c1d94f84770358d76ef0b,null,null,"<p style=""font-size: 60px; font-family: BACS"">uauOuvJ</p>",,,,,,,,,,
html-keyboard-response,394,670558,0.0-16.0-0.62,601ffb441dc6d959b855eea5,650c16f0f2faf8d7a0d14c09,651c1d94f84770358d76ef0b,null,null,"<p style=""font-size: 60px; font-family: BACS"">uauOuvJ</p>",,,,,,,,,,
html-keyboard-response,395,671558,0.0-16.0-0.63,601ffb441dc6d959b855eea5,650c16f0f2faf8d7a0d14c09,651c1d94f84770358d76ef0b,null,null,"<p style=""font-size: 60px; font-family: BACS"">uauOuvJ</p>",,,,,,,,,,
html-keyboard-response,396,672558,0.0-16.0-0.64,601ffb441dc6d959b855eea5,650c16f0f2faf8d7a0d14c09,651c1d94f84770358d76ef0b,null,null,"<p style=""font-size: 60px; font-family: BACS"">uauOuvJ</p>",,,,,,,,,,
html-keyboard-response,397,673559,0.0-16.0-0.65,601ffb441dc6d959b855eea5,650c16f0f2faf8d7a0d14c09,651c1d94f84770358d76ef0b,null,null,"<p style=""font-size: 60px; font-family: BACS"">uauOuvJ</p>",,,,,,,,,,
html-keyboard-response,398,674560,0.0-16.0-0.66,601ffb441dc6d959b855eea5,650c16f0f2faf8d7a0d14c09,651c1d94f84770358d76ef0b,null,null,"<p style=""font-size: 60px; font-family: BACS"">uauOuvJ</p>",,,,,,,,,,
html-keyboard-response,399,675561,0.0-16.0-0.67,601ffb441dc6d959b855eea5,650c16f0f2faf8d7a0d14c09,651c1d94f84770358d76ef0b,null,null,"<p style=""font-size: 60px; font-family: BACS"">uauOuvJ</p>",,,,,,,,,,
html-keyboard-response,400,676561,0.0-16.0-0.68,601ffb441dc6d959b855eea5,650c16f0f2faf8d7a0d14c09,651c1d94f84770358d76ef0b,null,null,"<p style=""font-size: 60px; font-family: BACS"">uauOuvJ</p>",,,,,,,,,,
html-keyboard-response,401,677562,0.0-16.0-0.69,601ffb441dc6d959b855eea5,650c16f0f2faf8d7a0d14c09,651c1d94f84770358d76ef0b,null,null,"<p style=""font-size: 60px; font-family: BACS"">uauOuvJ</p>",,,,,,,,,,
html-keyboard-response,402,678563,0.0-16.0-0.70,601ffb441dc6d959b855eea5,650c16f0f2faf8d7a0d14c09,651c1d94f84770358d76ef0b,null,null,"<p style=""font-size: 60px; font-family: BACS"">uauOuvJ</p>",,,,,,,,,,
html-keyboard-response,403,679564,0.0-16.0-0.71,601ffb441dc6d959b855eea5,650c16f0f2faf8d7a0d14c09,651c1d94f84770358d76ef0b,null,null,"<p style=""font-size: 60px; font-family: BACS"">uauOuvJ</p>",,,,,,,,,,
html-keyboard-response,404,680565,0.0-16.0-0.72,601ffb441dc6d959b855eea5,650c16f0f2faf8d7a0d14c09,651c1d94f84770358d76ef0b,null,null,"<p style=""font-size: 60px; font-family: BACS"">uauOuvJ</p>",,,,,,,,,,
html-keyboard-response,405,681565,0.0-16.0-0.73,601ffb441dc6d959b855eea5,650c16f0f2faf8d7a0d14c09,651c1d94f84770358d76ef0b,null,null,"<p style=""font-size: 60px; font-family: BACS"">uauOuvJ</p>",,,,,,,,,,
html-keyboard-response,406,682566,0.0-16.0-0.74,601ffb441dc6d959b855eea5,650c16f0f2faf8d7a0d14c09,651c1d94f84770358d76ef0b,null,null,"<p style=""font-size: 60px; font-family: BACS"">uauOuvJ</p>",,,,,,,,,,
html-keyboard-response,407,683567,0.0-16.0-0.75,601ffb441dc6d959b855eea5,650c16f0f2faf8d7a0d14c09,651c1d94f84770358d76ef0b,null,null,"<p style=""font-size: 60px; font-family: BACS"">uauOuvJ</p>",,,,,,,,,,
html-keyboard-response,408,684568,0.0-16.0-0.76,601ffb441dc6d959b855eea5,650c16f0f2faf8d7a0d14c09,651c1d94f84770358d76ef0b,null,null,"<p style=""font-size: 60px; font-family: BACS"">uauOuvJ</p>",,,,,,,,,,
html-keyboard-response,409,685569,0.0-16.0-0.77,601ffb441dc6d959b855eea5,650c16f0f2faf8d7a0d14c09,651c1d94f84770358d76ef0b,null,null,"<p style=""font-size: 60px; font-family: BACS"">uauOuvJ</p>",,,,,,,,,,
html-keyboard-response,410,686570,0.0-16.0-0.78,601ffb441dc6d959b855eea5,650c16f0f2faf8d7a0d14c09,651c1d94f84770358d76ef0b,null,null,"<p style=""font-size: 60px; font-family: BACS"">uauOuvJ</p>",,,,,,,,,,
html-keyboard-response,411,687571,0.0-16.0-0.79,601ffb441dc6d959b855eea5,650c16f0f2faf8d7a0d14c09,651c1d94f84770358d76ef0b,null,null,"<p style=""font-size: 60px; font-family: BACS"">uauOuvJ</p>",,,,,,,,,,
html-keyboard-response,412,694120,0.0-17.0,601ffb441dc6d959b855eea5,650c16f0f2faf8d7a0d14c09,651c1d94f84770358d76ef0b,6548, ,"<p>Great, you've seen the fifth block of words. You may now take a short break.</p>
      <p>Press the spacebar when you're ready to continue.</p>",,,,,,,,,,
html-keyboard-response,413,695120,0.0-18.0-0.0,601ffb441dc6d959b855eea5,650c16f0f2faf8d7a0d14c09,651c1d94f84770358d76ef0b,null,null,"<p style=""font-size: 60px; font-family: BACS"">aYQmJcUk</p>",,,,,,,,,,
html-keyboard-response,414,696121,0.0-18.0-0.1,601ffb441dc6d959b855eea5,650c16f0f2faf8d7a0d14c09,651c1d94f84770358d76ef0b,null,null,"<p style=""font-size: 60px; font-family: BACS"">ZNLOvNUZ</p>",,,,,,,,,,
html-keyboard-response,415,697122,0.0-18.0-0.2,601ffb441dc6d959b855eea5,650c16f0f2faf8d7a0d14c09,651c1d94f84770358d76ef0b,null,null,"<p style=""font-size: 60px; font-family: BACS"">vkYGlJcUk</p>",,,,,,,,,,
html-keyboard-response,416,698123,0.0-18.0-0.3,601ffb441dc6d959b855eea5,650c16f0f2faf8d7a0d14c09,651c1d94f84770358d76ef0b,null,null,"<p style=""font-size: 60px; font-family: BACS"">GAcYuvJ</p>",,,,,,,,,,
html-keyboard-response,417,699125,0.0-18.0-0.4,601ffb441dc6d959b855eea5,650c16f0f2faf8d7a0d14c09,651c1d94f84770358d76ef0b,null,null,"<p style=""font-size: 60px; font-family: BACS"">bcbMRCdc</p>",,,,,,,,,,
html-keyboard-response,418,700126,0.0-18.0-0.5,601ffb441dc6d959b855eea5,650c16f0f2faf8d7a0d14c09,651c1d94f84770358d76ef0b,null,null,"<p style=""font-size: 60px; font-family: BACS"">ZNLOvrAm</p>",,,,,,,,,,
html-keyboard-response,419,701127,0.0-18.0-0.6,601ffb441dc6d959b855eea5,650c16f0f2faf8d7a0d14c09,651c1d94f84770358d76ef0b,null,null,"<p style=""font-size: 60px; font-family: BACS"">GAcYJcUk</p>",,,,,,,,,,
html-keyboard-response,420,702127,0.0-18.0-0.7,601ffb441dc6d959b855eea5,650c16f0f2faf8d7a0d14c09,651c1d94f84770358d76ef0b,null,null,"<p style=""font-size: 60px; font-family: BACS"">ukcYNUZ</p>",,,,,,,,,,
html-keyboard-response,421,703128,0.0-18.0-0.8,601ffb441dc6d959b855eea5,650c16f0f2faf8d7a0d14c09,651c1d94f84770358d76ef0b,null,null,"<p style=""font-size: 60px; font-family: BACS"">kcdOtEKBO</p>",,,,,,,,,,
html-keyboard-response,422,704129,0.0-18.0-0.9,601ffb441dc6d959b855eea5,650c16f0f2faf8d7a0d14c09,651c1d94f84770358d76ef0b,null,null,"<p style=""font-size: 60px; font-family: BACS"">ZdNmUNUZ</p>",,,,,,,,,,
html-keyboard-response,423,705130,0.0-18.0-0.10,601ffb441dc6d959b855eea5,650c16f0f2faf8d7a0d14c09,651c1d94f84770358d76ef0b,null,null,"<p style=""font-size: 60px; font-family: BACS"">PDPhlRdCc</p>",,,,,,,,,,
html-keyboard-response,424,706131,0.0-18.0-0.11,601ffb441dc6d959b855eea5,650c16f0f2faf8d7a0d14c09,651c1d94f84770358d76ef0b,null,null,"<p style=""font-size: 60px; font-family: BACS"">vkYGlkJdr</p>",,,,,,,,,,
html-keyboard-response,425,707132,0.0-18.0-0.12,601ffb441dc6d959b855eea5,650c16f0f2faf8d7a0d14c09,651c1d94f84770358d76ef0b,null,null,"<p style=""font-size: 60px; font-family: BACS"">aOLZUrAm</p>",,,,,,,,,,
html-keyboard-response,426,708133,0.0-18.0-0.13,601ffb441dc6d959b855eea5,650c16f0f2faf8d7a0d14c09,651c1d94f84770358d76ef0b,null,null,"<p style=""font-size: 60px; font-family: BACS"">kcdOtAlKD</p>",,,,,,,,,,
html-keyboard-response,427,709134,0.0-18.0-0.14,601ffb441dc6d959b855eea5,650c16f0f2faf8d7a0d14c09,651c1d94f84770358d76ef0b,null,null,"<p style=""font-size: 60px; font-family: BACS"">KTDTBEKBO</p>",,,,,,,,,,
html-keyboard-response,428,710135,0.0-18.0-0.15,601ffb441dc6d959b855eea5,650c16f0f2faf8d7a0d14c09,651c1d94f84770358d76ef0b,null,null,"<p style=""font-size: 60px; font-family: BACS"">uauOuvJ</p>",,,,,,,,,,
html-keyboard-response,429,711136,0.0-18.0-0.16,601ffb441dc6d959b855eea5,650c16f0f2faf8d7a0d14c09,651c1d94f84770358d76ef0b,null,null,"<p style=""font-size: 60px; font-family: BACS"">bvuZkJdr</p>",,,,,,,,,,
html-keyboard-response,430,712137,0.0-18.0-0.17,601ffb441dc6d959b855eea5,650c16f0f2faf8d7a0d14c09,651c1d94f84770358d76ef0b,null,null,"<p style=""font-size: 60px; font-family: BACS"">ZdNmUuvJ</p>",,,,,,,,,,
html-keyboard-response,431,713137,0.0-18.0-0.18,601ffb441dc6d959b855eea5,650c16f0f2faf8d7a0d14c09,651c1d94f84770358d76ef0b,null,null,"<p style=""font-size: 60px; font-family: BACS"">dMThkRCdc</p>",,,,,,,,,,
html-keyboard-response,432,714138,0.0-18.0-0.19,601ffb441dc6d959b855eea5,650c16f0f2faf8d7a0d14c09,651c1d94f84770358d76ef0b,null,null,"<p style=""font-size: 60px; font-family: BACS"">ZNLOvJcUk</p>",,,,,,,,,,
html-keyboard-response,433,715139,0.0-18.0-0.20,601ffb441dc6d959b855eea5,650c16f0f2faf8d7a0d14c09,651c1d94f84770358d76ef0b,null,null,"<p style=""font-size: 60px; font-family: BACS"">uauONUZ</p>",,,,,,,,,,
html-keyboard-response,434,716140,0.0-18.0-0.21,601ffb441dc6d959b855eea5,650c16f0f2faf8d7a0d14c09,651c1d94f84770358d76ef0b,null,null,"<p style=""font-size: 60px; font-family: BACS"">PCPDhAlKD</p>",,,,,,,,,,
html-keyboard-response,435,717141,0.0-18.0-0.22,601ffb441dc6d959b855eea5,650c16f0f2faf8d7a0d14c09,651c1d94f84770358d76ef0b,null,null,"<p style=""font-size: 60px; font-family: BACS"">GAcYkJdr</p>",,,,,,,,,,
html-keyboard-response,436,718142,0.0-18.0-0.23,601ffb441dc6d959b855eea5,650c16f0f2faf8d7a0d14c09,651c1d94f84770358d76ef0b,null,null,"<p style=""font-size: 60px; font-family: BACS"">KTDTBTmc</p>",,,,,,,,,,
html-keyboard-response,437,719143,0.0-18.0-0.24,601ffb441dc6d959b855eea5,650c16f0f2faf8d7a0d14c09,651c1d94f84770358d76ef0b,null,null,"<p style=""font-size: 60px; font-family: BACS"">ZdNmUrAm</p>",,,,,,,,,,
html-keyboard-response,438,720143,0.0-18.0-0.25,601ffb441dc6d959b855eea5,650c16f0f2faf8d7a0d14c09,651c1d94f84770358d76ef0b,null,null,"<p style=""font-size: 60px; font-family: BACS"">PDPhlTmc</p>",,,,,,,,,,
html-keyboard-response,439,721144,0.0-18.0-0.26,601ffb441dc6d959b855eea5,650c16f0f2faf8d7a0d14c09,651c1d94f84770358d76ef0b,null,null,"<p style=""font-size: 60px; font-family: BACS"">KTDTBRdCc</p>",,,,,,,,,,
html-keyboard-response,440,722145,0.0-18.0-0.27,601ffb441dc6d959b855eea5,650c16f0f2faf8d7a0d14c09,651c1d94f84770358d76ef0b,null,null,"<p style=""font-size: 60px; font-family: BACS"">uauOkJdr</p>",,,,,,,,,,
html-keyboard-response,441,723146,0.0-18.0-0.28,601ffb441dc6d959b855eea5,650c16f0f2faf8d7a0d14c09,651c1d94f84770358d76ef0b,null,null,"<p style=""font-size: 60px; font-family: BACS"">vkYGluvJ</p>",,,,,,,,,,
html-keyboard-response,442,724147,0.0-18.0-0.29,601ffb441dc6d959b855eea5,650c16f0f2faf8d7a0d14c09,651c1d94f84770358d76ef0b,null,null,"<p style=""font-size: 60px; font-family: BACS"">aYQmNUZ</p>",,,,,,,,,,
html-keyboard-response,443,725148,0.0-18.0-0.30,601ffb441dc6d959b855eea5,650c16f0f2faf8d7a0d14c09,651c1d94f84770358d76ef0b,null,null,"<p style=""font-size: 60px; font-family: BACS"">aOLZUuvJ</p>",,,,,,,,,,
html-keyboard-response,444,726149,0.0-18.0-0.31,601ffb441dc6d959b855eea5,650c16f0f2faf8d7a0d14c09,651c1d94f84770358d76ef0b,null,null,"<p style=""font-size: 60px; font-family: BACS"">bcbMRdCc</p>",,,,,,,,,,
html-keyboard-response,445,727149,0.0-18.0-0.32,601ffb441dc6d959b855eea5,650c16f0f2faf8d7a0d14c09,651c1d94f84770358d76ef0b,null,null,"<p style=""font-size: 60px; font-family: BACS"">ukcYkJdr</p>",,,,,,,,,,
html-keyboard-response,446,728150,0.0-18.0-0.33,601ffb441dc6d959b855eea5,650c16f0f2faf8d7a0d14c09,651c1d94f84770358d76ef0b,null,null,"<p style=""font-size: 60px; font-family: BACS"">bcbMEKBO</p>",,,,,,,,,,
html-keyboard-response,447,729151,0.0-18.0-0.34,601ffb441dc6d959b855eea5,650c16f0f2faf8d7a0d14c09,651c1d94f84770358d76ef0b,null,null,"<p style=""font-size: 60px; font-family: BACS"">KTDTBAlKD</p>",,,,,,,,,,
html-keyboard-response,448,730152,0.0-18.0-0.35,601ffb441dc6d959b855eea5,650c16f0f2faf8d7a0d14c09,651c1d94f84770358d76ef0b,null,null,"<p style=""font-size: 60px; font-family: BACS"">bvuZuvJ</p>",,,,,,,,,,
html-keyboard-response,449,731152,0.0-18.0-0.36,601ffb441dc6d959b855eea5,650c16f0f2faf8d7a0d14c09,651c1d94f84770358d76ef0b,null,null,"<p style=""font-size: 60px; font-family: BACS"">blMkAlKD</p>",,,,,,,,,,
html-keyboard-response,450,732153,0.0-18.0-0.37,601ffb441dc6d959b855eea5,650c16f0f2faf8d7a0d14c09,651c1d94f84770358d76ef0b,null,null,"<p style=""font-size: 60px; font-family: BACS"">kKEdMRdCc</p>",,,,,,,,,,
html-keyboard-response,451,733154,0.0-18.0-0.38,601ffb441dc6d959b855eea5,650c16f0f2faf8d7a0d14c09,651c1d94f84770358d76ef0b,null,null,"<p style=""font-size: 60px; font-family: BACS"">ukcYrAm</p>",,,,,,,,,,
html-keyboard-response,452,734155,0.0-18.0-0.39,601ffb441dc6d959b855eea5,650c16f0f2faf8d7a0d14c09,651c1d94f84770358d76ef0b,null,null,"<p style=""font-size: 60px; font-family: BACS"">kKEdMEKBO</p>",,,,,,,,,,
html-keyboard-response,453,735156,0.0-18.0-0.40,601ffb441dc6d959b855eea5,650c16f0f2faf8d7a0d14c09,651c1d94f84770358d76ef0b,null,null,"<p style=""font-size: 60px; font-family: BACS"">PCPDhRCdc</p>",,,,,,,,,,
html-keyboard-response,454,736157,0.0-18.0-0.41,601ffb441dc6d959b855eea5,650c16f0f2faf8d7a0d14c09,651c1d94f84770358d76ef0b,null,null,"<p style=""font-size: 60px; font-family: BACS"">dMThkEKBO</p>",,,,,,,,,,
html-keyboard-response,455,737158,0.0-18.0-0.42,601ffb441dc6d959b855eea5,650c16f0f2faf8d7a0d14c09,651c1d94f84770358d76ef0b,null,null,"<p style=""font-size: 60px; font-family: BACS"">bvuZrAm</p>",,,,,,,,,,
html-keyboard-response,456,738159,0.0-18.0-0.43,601ffb441dc6d959b855eea5,650c16f0f2faf8d7a0d14c09,651c1d94f84770358d76ef0b,null,null,"<p style=""font-size: 60px; font-family: BACS"">AlUYuvJ</p>",,,,,,,,,,
html-keyboard-response,457,739160,0.0-18.0-0.44,601ffb441dc6d959b855eea5,650c16f0f2faf8d7a0d14c09,651c1d94f84770358d76ef0b,null,null,"<p style=""font-size: 60px; font-family: BACS"">kcdOtRdCc</p>",,,,,,,,,,
html-keyboard-response,458,740160,0.0-18.0-0.45,601ffb441dc6d959b855eea5,650c16f0f2faf8d7a0d14c09,651c1d94f84770358d76ef0b,null,null,"<p style=""font-size: 60px; font-family: BACS"">aYQmuvJ</p>",,,,,,,,,,
html-keyboard-response,459,741161,0.0-18.0-0.46,601ffb441dc6d959b855eea5,650c16f0f2faf8d7a0d14c09,651c1d94f84770358d76ef0b,null,null,"<p style=""font-size: 60px; font-family: BACS"">bvuZJcUk</p>",,,,,,,,,,
html-keyboard-response,460,742162,0.0-18.0-0.47,601ffb441dc6d959b855eea5,650c16f0f2faf8d7a0d14c09,651c1d94f84770358d76ef0b,null,null,"<p style=""font-size: 60px; font-family: BACS"">PDPhlEKBO</p>",,,,,,,,,,
html-keyboard-response,461,743163,0.0-18.0-0.48,601ffb441dc6d959b855eea5,650c16f0f2faf8d7a0d14c09,651c1d94f84770358d76ef0b,null,null,"<p style=""font-size: 60px; font-family: BACS"">AlUYkJdr</p>",,,,,,,,,,
html-keyboard-response,462,744164,0.0-18.0-0.49,601ffb441dc6d959b855eea5,650c16f0f2faf8d7a0d14c09,651c1d94f84770358d76ef0b,null,null,"<p style=""font-size: 60px; font-family: BACS"">AMkCRdCc</p>",,,,,,,,,,
html-keyboard-response,463,745164,0.0-18.0-0.50,601ffb441dc6d959b855eea5,650c16f0f2faf8d7a0d14c09,651c1d94f84770358d76ef0b,null,null,"<p style=""font-size: 60px; font-family: BACS"">ZdNmUJcUk</p>",,,,,,,,,,
html-keyboard-response,464,746165,0.0-18.0-0.51,601ffb441dc6d959b855eea5,650c16f0f2faf8d7a0d14c09,651c1d94f84770358d76ef0b,null,null,"<p style=""font-size: 60px; font-family: BACS"">blMkTmc</p>",,,,,,,,,,
html-keyboard-response,465,747166,0.0-18.0-0.52,601ffb441dc6d959b855eea5,650c16f0f2faf8d7a0d14c09,651c1d94f84770358d76ef0b,null,null,"<p style=""font-size: 60px; font-family: BACS"">dMThkRdCc</p>",,,,,,,,,,
