"trial_type","trial_index","time_elapsed","internal_node_id","subject_id","study_id","session_id","rt","response","stimulus","success","item","task","correct_response","testing_condition","correct","target","confound","name"
"pavlovia","0","2471","0.0-0.0","611cebb780fbae98c5bcc84d","650c16f0f2faf8d7a0d14c09","651c1b00f2caf4c516718fbe","","","","","","","","","","","",""
"survey-html-form","1","11709","0.0-1.0","611cebb780fbae98c5bcc84d","650c16f0f2faf8d7a0d14c09","651c1b00f2caf4c516718fbe","9232","{""ID"":""611cebb780fbae98c5bcc84d""}","","","","","","","","","",""
"html-keyboard-response","2","56306","0.0-2.0","611cebb780fbae98c5bcc84d","650c16f0f2faf8d7a0d14c09","651c1b00f2caf4c516718fbe","44593"," ","<p style=""font-size: 15px;"">Before beginning, we ask that you read the consent information and confirm your agreement to participate in the experiment.</p>
      <p style=""font-size: 15px;""> We ask that you remember that this is a research project and that your participation is entirely voluntary. You can stop your participation at any time, without needing to provide any explanation. The study we're asking you to participate in aims at examining how readers process written words. You will be engaged in a session of apprximately 20 minutes, followed by a brief questionnaire. You will have the opportunity to take a few breaks during the experiment. You will be paid £4 for your participation, corresponding to a rate of £8/hour. While this experiment looks at cognitive faculties, this experiment doesn't constitute clinical proof of eventual pathologies.</p>
      <p style=""font-size: 15px;"">All of the information collected thanks to yours and others' participation will be held in a secure password-protected server, and will not be shared with anyone not authorised to view it. Your personal information will be kept with an arbitrary participant ID. Thanks to this data anonymity process, any researcher analysing the data won't be able to track the information back to a specific participant. Therefore, this process will make identifying you impossibile, even when results from the study will be published in scientific reviews, presented at congresses, or at any other public forum. More generally, the collected data will be treated in accordance with the laws on privacy and conformity to the Legislative Degree n. 196 ""Code regarding the protection of personal data"" of the 30th of June 2003 and to the European Regulation 2016/670 (General Data Protection Regulation - GDPR). The Data Protection Officer is Avv. Valentina Carollo, who can be contacted at the following email addresses: <a href=""mailto:dpo@sissa.it"">dpo@sissa.it</a> or <a href=""mailto:rpd@sissa.it"">rpd@sissa.it</a> - PEC: <a href=""mailto:protocollo@pec.sissa.it"">protocollo@pec.sissa.it</a>.</p>
      <p style=""font-size: 15px;""> Before expressing your consent to participate, we would like to remind you again that in case you need explanations on any aspect of the experimental procedure, the researcher is at your disposition (<a href=""mailto:aliebelt@sissa.it"">aliebelt@sissa.it</a>, <a href=""mailto:davide.crepaldi@sissa.it"">davide.crepaldi@sissa.it</a>).</p>
      <p style=""font-size: 15px;"">If you would like to download the informed consent form, you can do so here: <a href=""BASL-Informed_Consent.pdf"" download>informed consent form</a>.</p>
      <p style=""font-size: 15px;"">We ask that you press the spacebar to proceed to the consent section.</p>","","","","","","","","",""
"survey-html-form","3","78782","0.0-3.0","611cebb780fbae98c5bcc84d","650c16f0f2faf8d7a0d14c09","651c1b00f2caf4c516718fbe","22473","{""consent1"":""YES"",""consent2"":""YES"",""consent3"":""YES"",""consent4"":""YES"",""consent5"":""YES"",""consent6"":""YES""}","","","","","","","","","",""
"fullscreen","4","88442","0.0-4.0","611cebb780fbae98c5bcc84d","650c16f0f2faf8d7a0d14c09","651c1b00f2caf4c516718fbe","","","","true","","","","","","","",""
"html-keyboard-response","5","138767","0.0-5.0","611cebb780fbae98c5bcc84d","650c16f0f2faf8d7a0d14c09","651c1b00f2caf4c516718fbe","50321"," ","<p>Welcome, and thank you very much for your time!</p>
      <p>In this experiment, you'll be a language expert who's been asked to take a look at words that Earth has received in its first communication with aliens. Your task, in this first part of the experiment, is to pay close attention to the words you'll be shown; later, world leaders will ask you questions on what you saw. The words will be shown to you quite quickly; it seems that the aliens were in a hurry :-)</p>
      <p>Press the spacebar to continue.<p>","","","","","","","","",""
"html-keyboard-response","6","138834","0.0-6.0","611cebb780fbae98c5bcc84d","650c16f0f2faf8d7a0d14c09","651c1b00f2caf4c516718fbe","null","null","<p style=""font-size: 120px; font-family: BACS""> </p>","","","","","","","","",""
"html-keyboard-response","7","146844","0.0-7.0","611cebb780fbae98c5bcc84d","650c16f0f2faf8d7a0d14c09","651c1b00f2caf4c516718fbe","8008"," ","<p>Here is an example of the words you'll see:</p>
      <img src='esempio.png' height='400px'>
      <p>When you're ready to begin, press the spacebar.</p></div>","","","","","","","","",""
"html-keyboard-response","8","147864","0.0-8.0-0.0","611cebb780fbae98c5bcc84d","650c16f0f2faf8d7a0d14c09","651c1b00f2caf4c516718fbe","null","null","<p style=""font-size: 60px; font-family: BACS"">udkmJQA</p>","","","","","","","","",""
"html-keyboard-response","9","148881","0.0-8.0-0.1","611cebb780fbae98c5bcc84d","650c16f0f2faf8d7a0d14c09","651c1b00f2caf4c516718fbe","null","null","<p style=""font-size: 60px; font-family: BACS"">ZvalvGUa</p>","","","","","","","","",""
"html-keyboard-response","10","149884","0.0-8.0-0.2","611cebb780fbae98c5bcc84d","650c16f0f2faf8d7a0d14c09","651c1b00f2caf4c516718fbe","null","null","<p style=""font-size: 60px; font-family: BACS"">OcYMYcM</p>","","","","","","","","",""
"html-keyboard-response","11","150896","0.0-8.0-0.3","611cebb780fbae98c5bcc84d","650c16f0f2faf8d7a0d14c09","651c1b00f2caf4c516718fbe","null","null","<p style=""font-size: 60px; font-family: BACS"">JdGmLcO</p>","","","","","","","","",""
"html-keyboard-response","12","151906","0.0-8.0-0.4","611cebb780fbae98c5bcc84d","650c16f0f2faf8d7a0d14c09","651c1b00f2caf4c516718fbe","null","null","<p style=""font-size: 60px; font-family: BACS"">OcYMbAMO</p>","","","","","","","","",""
"html-keyboard-response","13","152914","0.0-8.0-0.5","611cebb780fbae98c5bcc84d","650c16f0f2faf8d7a0d14c09","651c1b00f2caf4c516718fbe","null","null","<p style=""font-size: 60px; font-family: BACS"">LGkAJQA</p>","","","","","","","","",""
"html-keyboard-response","14","153931","0.0-8.0-0.6","611cebb780fbae98c5bcc84d","650c16f0f2faf8d7a0d14c09","651c1b00f2caf4c516718fbe","null","null","<p style=""font-size: 60px; font-family: BACS"">ZvalvJud</p>","","","","","","","","",""
"html-keyboard-response","15","154940","0.0-8.0-0.7","611cebb780fbae98c5bcc84d","650c16f0f2faf8d7a0d14c09","651c1b00f2caf4c516718fbe","null","null","<p style=""font-size: 60px; font-family: BACS"">LGkAGUa</p>","","","","","","","","",""
"html-keyboard-response","16","155948","0.0-8.0-0.8","611cebb780fbae98c5bcc84d","650c16f0f2faf8d7a0d14c09","651c1b00f2caf4c516718fbe","null","null","<p style=""font-size: 60px; font-family: BACS"">AbKDPMd</p>","","","","","","","","",""
"html-keyboard-response","17","156964","0.0-8.0-0.9","611cebb780fbae98c5bcc84d","650c16f0f2faf8d7a0d14c09","651c1b00f2caf4c516718fbe","null","null","<p style=""font-size: 60px; font-family: BACS"">udkmLcO</p>","","","","","","","","",""
"html-keyboard-response","18","157980","0.0-8.0-0.10","611cebb780fbae98c5bcc84d","650c16f0f2faf8d7a0d14c09","651c1b00f2caf4c516718fbe","null","null","<p style=""font-size: 60px; font-family: BACS"">krGulLG</p>","","","","","","","","",""
"html-keyboard-response","19","158997","0.0-8.0-0.11","611cebb780fbae98c5bcc84d","650c16f0f2faf8d7a0d14c09","651c1b00f2caf4c516718fbe","null","null","<p style=""font-size: 60px; font-family: BACS"">kcdOtbAMO</p>","","","","","","","","",""
"html-keyboard-response","20","160014","0.0-8.0-0.12","611cebb780fbae98c5bcc84d","650c16f0f2faf8d7a0d14c09","651c1b00f2caf4c516718fbe","null","null","<p style=""font-size: 60px; font-family: BACS"">aYaNGUa</p>","","","","","","","","",""
"html-keyboard-response","21","161022","0.0-8.0-0.13","611cebb780fbae98c5bcc84d","650c16f0f2faf8d7a0d14c09","651c1b00f2caf4c516718fbe","null","null","<p style=""font-size: 60px; font-family: BACS"">hbkdkBD</p>","","","","","","","","",""
"html-keyboard-response","22","162030","0.0-8.0-0.14","611cebb780fbae98c5bcc84d","650c16f0f2faf8d7a0d14c09","651c1b00f2caf4c516718fbe","null","null","<p style=""font-size: 60px; font-family: BACS"">cBROBPMd</p>","","","","","","","","",""
"html-keyboard-response","23","163046","0.0-8.0-0.15","611cebb780fbae98c5bcc84d","650c16f0f2faf8d7a0d14c09","651c1b00f2caf4c516718fbe","null","null","<p style=""font-size: 60px; font-family: BACS"">PcBTkBD</p>","","","","","","","","",""
"html-keyboard-response","24","164048","0.0-8.0-0.16","611cebb780fbae98c5bcc84d","650c16f0f2faf8d7a0d14c09","651c1b00f2caf4c516718fbe","null","null","<p style=""font-size: 60px; font-family: BACS"">TCbDCbAMO</p>","","","","","","","","",""
"html-keyboard-response","25","165064","0.0-8.0-0.17","611cebb780fbae98c5bcc84d","650c16f0f2faf8d7a0d14c09","651c1b00f2caf4c516718fbe","null","null","<p style=""font-size: 60px; font-family: BACS"">aUZAJud</p>","","","","","","","","",""
"html-keyboard-response","26","166080","0.0-8.0-0.18","611cebb780fbae98c5bcc84d","650c16f0f2faf8d7a0d14c09","651c1b00f2caf4c516718fbe","null","null","<p style=""font-size: 60px; font-family: BACS"">cBROBYcM</p>","","","","","","","","",""
"html-keyboard-response","27","167082","0.0-8.0-0.19","611cebb780fbae98c5bcc84d","650c16f0f2faf8d7a0d14c09","651c1b00f2caf4c516718fbe","null","null","<p style=""font-size: 60px; font-family: BACS"">JdGmlLG</p>","","","","","","","","",""
"html-keyboard-response","28","168097","0.0-8.0-0.20","611cebb780fbae98c5bcc84d","650c16f0f2faf8d7a0d14c09","651c1b00f2caf4c516718fbe","null","null","<p style=""font-size: 60px; font-family: BACS"">tmYhYcM</p>","","","","","","","","",""
"html-keyboard-response","29","169113","0.0-8.0-0.21","611cebb780fbae98c5bcc84d","650c16f0f2faf8d7a0d14c09","651c1b00f2caf4c516718fbe","null","null","<p style=""font-size: 60px; font-family: BACS"">aYaNLcO</p>","","","","","","","","",""
"html-keyboard-response","30","170129","0.0-8.0-0.22","611cebb780fbae98c5bcc84d","650c16f0f2faf8d7a0d14c09","651c1b00f2caf4c516718fbe","null","null","<p style=""font-size: 60px; font-family: BACS"">aUZAGUa</p>","","","","","","","","",""
"html-keyboard-response","31","171145","0.0-8.0-0.23","611cebb780fbae98c5bcc84d","650c16f0f2faf8d7a0d14c09","651c1b00f2caf4c516718fbe","null","null","<p style=""font-size: 60px; font-family: BACS"">TCbDCkBD</p>","","","","","","","","",""
"html-keyboard-response","32","172149","0.0-8.0-0.24","611cebb780fbae98c5bcc84d","650c16f0f2faf8d7a0d14c09","651c1b00f2caf4c516718fbe","null","null","<p style=""font-size: 60px; font-family: BACS"">udkmlLG</p>","","","","","","","","",""
"html-keyboard-response","33","173163","0.0-8.0-0.25","611cebb780fbae98c5bcc84d","650c16f0f2faf8d7a0d14c09","651c1b00f2caf4c516718fbe","null","null","<p style=""font-size: 60px; font-family: BACS"">UJmrGUa</p>","","","","","","","","",""
"html-keyboard-response","34","174179","0.0-8.0-0.26","611cebb780fbae98c5bcc84d","650c16f0f2faf8d7a0d14c09","651c1b00f2caf4c516718fbe","null","null","<p style=""font-size: 60px; font-family: BACS"">LGkAJud</p>","","","","","","","","",""
"html-keyboard-response","35","175188","0.0-8.0-0.27","611cebb780fbae98c5bcc84d","650c16f0f2faf8d7a0d14c09","651c1b00f2caf4c516718fbe","null","null","<p style=""font-size: 60px; font-family: BACS"">AbKDbAMO</p>","","","","","","","","",""
"html-keyboard-response","36","176197","0.0-8.0-0.28","611cebb780fbae98c5bcc84d","650c16f0f2faf8d7a0d14c09","651c1b00f2caf4c516718fbe","null","null","<p style=""font-size: 60px; font-family: BACS"">krGuJud</p>","","","","","","","","",""
"html-keyboard-response","37","177205","0.0-8.0-0.29","611cebb780fbae98c5bcc84d","650c16f0f2faf8d7a0d14c09","651c1b00f2caf4c516718fbe","null","null","<p style=""font-size: 60px; font-family: BACS"">kcdOtPMd</p>","","","","","","","","",""
"html-keyboard-response","38","178214","0.0-8.0-0.30","611cebb780fbae98c5bcc84d","650c16f0f2faf8d7a0d14c09","651c1b00f2caf4c516718fbe","null","null","<p style=""font-size: 60px; font-family: BACS"">muYNGUa</p>","","","","","","","","",""
"html-keyboard-response","39","179220","0.0-8.0-0.31","611cebb780fbae98c5bcc84d","650c16f0f2faf8d7a0d14c09","651c1b00f2caf4c516718fbe","null","null","<p style=""font-size: 60px; font-family: BACS"">bRABtPMd</p>","","","","","","","","",""
"html-keyboard-response","40","180229","0.0-8.0-0.32","611cebb780fbae98c5bcc84d","650c16f0f2faf8d7a0d14c09","651c1b00f2caf4c516718fbe","null","null","<p style=""font-size: 60px; font-family: BACS"">hbmAkBD</p>","","","","","","","","",""
"html-keyboard-response","41","181246","0.0-8.0-0.33","611cebb780fbae98c5bcc84d","650c16f0f2faf8d7a0d14c09","651c1b00f2caf4c516718fbe","null","null","<p style=""font-size: 60px; font-family: BACS"">OcYMPMd</p>","","","","","","","","",""
"html-keyboard-response","42","182262","0.0-8.0-0.34","611cebb780fbae98c5bcc84d","650c16f0f2faf8d7a0d14c09","651c1b00f2caf4c516718fbe","null","null","<p style=""font-size: 60px; font-family: BACS"">muYNLcO</p>","","","","","","","","",""
"html-keyboard-response","43","183279","0.0-8.0-0.35","611cebb780fbae98c5bcc84d","650c16f0f2faf8d7a0d14c09","651c1b00f2caf4c516718fbe","null","null","<p style=""font-size: 60px; font-family: BACS"">aYaNJud</p>","","","","","","","","",""
"html-keyboard-response","44","184288","0.0-8.0-0.36","611cebb780fbae98c5bcc84d","650c16f0f2faf8d7a0d14c09","651c1b00f2caf4c516718fbe","null","null","<p style=""font-size: 60px; font-family: BACS"">bRABtlRE</p>","","","","","","","","",""
"html-keyboard-response","45","185296","0.0-8.0-0.37","611cebb780fbae98c5bcc84d","650c16f0f2faf8d7a0d14c09","651c1b00f2caf4c516718fbe","null","null","<p style=""font-size: 60px; font-family: BACS"">tmYhbAMO</p>","","","","","","","","",""
"html-keyboard-response","46","186301","0.0-8.0-0.38","611cebb780fbae98c5bcc84d","650c16f0f2faf8d7a0d14c09","651c1b00f2caf4c516718fbe","null","null","<p style=""font-size: 60px; font-family: BACS"">hbkdPMd</p>","","","","","","","","",""
"html-keyboard-response","47","187313","0.0-8.0-0.39","611cebb780fbae98c5bcc84d","650c16f0f2faf8d7a0d14c09","651c1b00f2caf4c516718fbe","null","null","<p style=""font-size: 60px; font-family: BACS"">aYaNJQA</p>","","","","","","","","",""
"html-keyboard-response","48","188321","0.0-8.0-0.40","611cebb780fbae98c5bcc84d","650c16f0f2faf8d7a0d14c09","651c1b00f2caf4c516718fbe","null","null","<p style=""font-size: 60px; font-family: BACS"">PcBTPMd</p>","","","","","","","","",""
"html-keyboard-response","49","189336","0.0-8.0-0.41","611cebb780fbae98c5bcc84d","650c16f0f2faf8d7a0d14c09","651c1b00f2caf4c516718fbe","null","null","<p style=""font-size: 60px; font-family: BACS"">JdGmJQA</p>","","","","","","","","",""
"html-keyboard-response","50","190339","0.0-8.0-0.42","611cebb780fbae98c5bcc84d","650c16f0f2faf8d7a0d14c09","651c1b00f2caf4c516718fbe","null","null","<p style=""font-size: 60px; font-family: BACS"">kcdOtkBD</p>","","","","","","","","",""
"html-keyboard-response","51","191353","0.0-8.0-0.43","611cebb780fbae98c5bcc84d","650c16f0f2faf8d7a0d14c09","651c1b00f2caf4c516718fbe","null","null","<p style=""font-size: 60px; font-family: BACS"">krGuJQA</p>","","","","","","","","",""
"html-keyboard-response","52","192370","0.0-8.0-0.44","611cebb780fbae98c5bcc84d","650c16f0f2faf8d7a0d14c09","651c1b00f2caf4c516718fbe","null","null","<p style=""font-size: 60px; font-family: BACS"">aUZALcO</p>","","","","","","","","",""
"html-keyboard-response","53","193386","0.0-8.0-0.45","611cebb780fbae98c5bcc84d","650c16f0f2faf8d7a0d14c09","651c1b00f2caf4c516718fbe","null","null","<p style=""font-size: 60px; font-family: BACS"">cBROBbAMO</p>","","","","","","","","",""
"html-keyboard-response","54","194403","0.0-8.0-0.46","611cebb780fbae98c5bcc84d","650c16f0f2faf8d7a0d14c09","651c1b00f2caf4c516718fbe","null","null","<p style=""font-size: 60px; font-family: BACS"">UJmrLcO</p>","","","","","","","","",""
"html-keyboard-response","55","195412","0.0-8.0-0.47","611cebb780fbae98c5bcc84d","650c16f0f2faf8d7a0d14c09","651c1b00f2caf4c516718fbe","null","null","<p style=""font-size: 60px; font-family: BACS"">PcBTlRE</p>","","","","","","","","",""
"html-keyboard-response","56","196421","0.0-8.0-0.48","611cebb780fbae98c5bcc84d","650c16f0f2faf8d7a0d14c09","651c1b00f2caf4c516718fbe","null","null","<p style=""font-size: 60px; font-family: BACS"">TCbDCYcM</p>","","","","","","","","",""
"html-keyboard-response","57","197429","0.0-8.0-0.49","611cebb780fbae98c5bcc84d","650c16f0f2faf8d7a0d14c09","651c1b00f2caf4c516718fbe","null","null","<p style=""font-size: 60px; font-family: BACS"">JdGmJud</p>","","","","","","","","",""
"html-keyboard-response","58","198436","0.0-8.0-0.50","611cebb780fbae98c5bcc84d","650c16f0f2faf8d7a0d14c09","651c1b00f2caf4c516718fbe","null","null","<p style=""font-size: 60px; font-family: BACS"">tmYhkBD</p>","","","","","","","","",""
"html-keyboard-response","59","199445","0.0-8.0-0.51","611cebb780fbae98c5bcc84d","650c16f0f2faf8d7a0d14c09","651c1b00f2caf4c516718fbe","null","null","<p style=""font-size: 60px; font-family: BACS"">hbkdYcM</p>","","","","","","","","",""
"html-keyboard-response","60","200453","0.0-8.0-0.52","611cebb780fbae98c5bcc84d","650c16f0f2faf8d7a0d14c09","651c1b00f2caf4c516718fbe","null","null","<p style=""font-size: 60px; font-family: BACS"">OcYMlRE</p>","","","","","","","","",""
"html-keyboard-response","61","201462","0.0-8.0-0.53","611cebb780fbae98c5bcc84d","650c16f0f2faf8d7a0d14c09","651c1b00f2caf4c516718fbe","null","null","<p style=""font-size: 60px; font-family: BACS"">UJmrJud</p>","","","","","","","","",""
"html-keyboard-response","62","202467","0.0-8.0-0.54","611cebb780fbae98c5bcc84d","650c16f0f2faf8d7a0d14c09","651c1b00f2caf4c516718fbe","null","null","<p style=""font-size: 60px; font-family: BACS"">hbkdbAMO</p>","","","","","","","","",""
"html-keyboard-response","63","203479","0.0-8.0-0.55","611cebb780fbae98c5bcc84d","650c16f0f2faf8d7a0d14c09","651c1b00f2caf4c516718fbe","null","null","<p style=""font-size: 60px; font-family: BACS"">muYNlLG</p>","","","","","","","","",""
"html-keyboard-response","64","204486","0.0-8.0-0.56","611cebb780fbae98c5bcc84d","650c16f0f2faf8d7a0d14c09","651c1b00f2caf4c516718fbe","null","null","<p style=""font-size: 60px; font-family: BACS"">aUZAJQA</p>","","","","","","","","",""
"html-keyboard-response","65","205499","0.0-8.0-0.57","611cebb780fbae98c5bcc84d","650c16f0f2faf8d7a0d14c09","651c1b00f2caf4c516718fbe","null","null","<p style=""font-size: 60px; font-family: BACS"">udkmGUa</p>","","","","","","","","",""
"html-keyboard-response","66","206513","0.0-8.0-0.58","611cebb780fbae98c5bcc84d","650c16f0f2faf8d7a0d14c09","651c1b00f2caf4c516718fbe","null","null","<p style=""font-size: 60px; font-family: BACS"">tmYhlRE</p>","","","","","","","","",""
"html-keyboard-response","67","207528","0.0-8.0-0.59","611cebb780fbae98c5bcc84d","650c16f0f2faf8d7a0d14c09","651c1b00f2caf4c516718fbe","null","null","<p style=""font-size: 60px; font-family: BACS"">UYZlZGUa</p>","","","","","","","","",""
"html-keyboard-response","68","208535","0.0-8.0-0.60","611cebb780fbae98c5bcc84d","650c16f0f2faf8d7a0d14c09","651c1b00f2caf4c516718fbe","null","null","<p style=""font-size: 60px; font-family: BACS"">krGuLcO</p>","","","","","","","","",""
"html-keyboard-response","69","209551","0.0-8.0-0.61","611cebb780fbae98c5bcc84d","650c16f0f2faf8d7a0d14c09","651c1b00f2caf4c516718fbe","null","null","<p style=""font-size: 60px; font-family: BACS"">PcBTYcM</p>","","","","","","","","",""
"html-keyboard-response","70","210552","0.0-8.0-0.62","611cebb780fbae98c5bcc84d","650c16f0f2faf8d7a0d14c09","651c1b00f2caf4c516718fbe","null","null","<p style=""font-size: 60px; font-family: BACS"">bRABtbAMO</p>","","","","","","","","",""
"html-keyboard-response","71","211561","0.0-8.0-0.63","611cebb780fbae98c5bcc84d","650c16f0f2faf8d7a0d14c09","651c1b00f2caf4c516718fbe","null","null","<p style=""font-size: 60px; font-family: BACS"">UYZlZJQA</p>","","","","","","","","",""
"html-keyboard-response","72","212578","0.0-8.0-0.64","611cebb780fbae98c5bcc84d","650c16f0f2faf8d7a0d14c09","651c1b00f2caf4c516718fbe","null","null","<p style=""font-size: 60px; font-family: BACS"">kcdOtlRE</p>","","","","","","","","",""
"html-keyboard-response","73","213595","0.0-8.0-0.65","611cebb780fbae98c5bcc84d","650c16f0f2faf8d7a0d14c09","651c1b00f2caf4c516718fbe","null","null","<p style=""font-size: 60px; font-family: BACS"">UYZlZlLG</p>","","","","","","","","",""
"html-keyboard-response","74","214611","0.0-8.0-0.66","611cebb780fbae98c5bcc84d","650c16f0f2faf8d7a0d14c09","651c1b00f2caf4c516718fbe","null","null","<p style=""font-size: 60px; font-family: BACS"">AbKDlRE</p>","","","","","","","","",""
"html-keyboard-response","75","215613","0.0-8.0-0.67","611cebb780fbae98c5bcc84d","650c16f0f2faf8d7a0d14c09","651c1b00f2caf4c516718fbe","null","null","<p style=""font-size: 60px; font-family: BACS"">cBROBkBD</p>","","","","","","","","",""
"html-keyboard-response","76","216627","0.0-8.0-0.68","611cebb780fbae98c5bcc84d","650c16f0f2faf8d7a0d14c09","651c1b00f2caf4c516718fbe","null","null","<p style=""font-size: 60px; font-family: BACS"">hbmAlRE</p>","","","","","","","","",""
"html-keyboard-response","77","217644","0.0-8.0-0.69","611cebb780fbae98c5bcc84d","650c16f0f2faf8d7a0d14c09","651c1b00f2caf4c516718fbe","null","null","<p style=""font-size: 60px; font-family: BACS"">LGkAlLG</p>","","","","","","","","",""
"html-keyboard-response","78","218649","0.0-8.0-0.70","611cebb780fbae98c5bcc84d","650c16f0f2faf8d7a0d14c09","651c1b00f2caf4c516718fbe","null","null","<p style=""font-size: 60px; font-family: BACS"">ZvalvJQA</p>","","","","","","","","",""
"html-keyboard-response","79","219654","0.0-8.0-0.71","611cebb780fbae98c5bcc84d","650c16f0f2faf8d7a0d14c09","651c1b00f2caf4c516718fbe","null","null","<p style=""font-size: 60px; font-family: BACS"">UYZlZLcO</p>","","","","","","","","",""
"html-keyboard-response","80","220665","0.0-8.0-0.72","611cebb780fbae98c5bcc84d","650c16f0f2faf8d7a0d14c09","651c1b00f2caf4c516718fbe","null","null","<p style=""font-size: 60px; font-family: BACS"">muYNJud</p>","","","","","","","","",""
"html-keyboard-response","81","221667","0.0-8.0-0.73","611cebb780fbae98c5bcc84d","650c16f0f2faf8d7a0d14c09","651c1b00f2caf4c516718fbe","null","null","<p style=""font-size: 60px; font-family: BACS"">bRABtkBD</p>","","","","","","","","",""
"html-keyboard-response","82","222668","0.0-8.0-0.74","611cebb780fbae98c5bcc84d","650c16f0f2faf8d7a0d14c09","651c1b00f2caf4c516718fbe","null","null","<p style=""font-size: 60px; font-family: BACS"">AbKDYcM</p>","","","","","","","","",""
"html-keyboard-response","83","223685","0.0-8.0-0.75","611cebb780fbae98c5bcc84d","650c16f0f2faf8d7a0d14c09","651c1b00f2caf4c516718fbe","null","null","<p style=""font-size: 60px; font-family: BACS"">TCbDClRE</p>","","","","","","","","",""
"html-keyboard-response","84","224693","0.0-8.0-0.76","611cebb780fbae98c5bcc84d","650c16f0f2faf8d7a0d14c09","651c1b00f2caf4c516718fbe","null","null","<p style=""font-size: 60px; font-family: BACS"">UJmrlLG</p>","","","","","","","","",""
"html-keyboard-response","85","225710","0.0-8.0-0.77","611cebb780fbae98c5bcc84d","650c16f0f2faf8d7a0d14c09","651c1b00f2caf4c516718fbe","null","null","<p style=""font-size: 60px; font-family: BACS"">hbmAYcM</p>","","","","","","","","",""
"html-keyboard-response","86","226727","0.0-8.0-0.78","611cebb780fbae98c5bcc84d","650c16f0f2faf8d7a0d14c09","651c1b00f2caf4c516718fbe","null","null","<p style=""font-size: 60px; font-family: BACS"">ZvalvlLG</p>","","","","","","","","",""
"html-keyboard-response","87","227736","0.0-8.0-0.79","611cebb780fbae98c5bcc84d","650c16f0f2faf8d7a0d14c09","651c1b00f2caf4c516718fbe","null","null","<p style=""font-size: 60px; font-family: BACS"">hbmAPMd</p>","","","","","","","","",""
"html-keyboard-response","88","244924","0.0-9.0","611cebb780fbae98c5bcc84d","650c16f0f2faf8d7a0d14c09","651c1b00f2caf4c516718fbe","17187"," ","<p>Great, you've seen the first block of words. You may now take a short break.</p>
      <p>Press the spacebar when you're ready to continue.</p>","","","","","","","","",""
"html-keyboard-response","89","245929","0.0-10.0-0.0","611cebb780fbae98c5bcc84d","650c16f0f2faf8d7a0d14c09","651c1b00f2caf4c516718fbe","null","null","<p style=""font-size: 60px; font-family: BACS"">AbKDPMd</p>","","","","","","","","",""
"html-keyboard-response","90","246943","0.0-10.0-0.1","611cebb780fbae98c5bcc84d","650c16f0f2faf8d7a0d14c09","651c1b00f2caf4c516718fbe","null","null","<p style=""font-size: 60px; font-family: BACS"">aYaNGUa</p>","","","","","","","","",""
"html-keyboard-response","91","247950","0.0-10.0-0.2","611cebb780fbae98c5bcc84d","650c16f0f2faf8d7a0d14c09","651c1b00f2caf4c516718fbe","null","null","<p style=""font-size: 60px; font-family: BACS"">udkmLcO</p>","","","","","","","","",""
"html-keyboard-response","92","248959","0.0-10.0-0.3","611cebb780fbae98c5bcc84d","650c16f0f2faf8d7a0d14c09","651c1b00f2caf4c516718fbe","null","null","<p style=""font-size: 60px; font-family: BACS"">aYaNJud</p>","","","","","","","","",""
"html-keyboard-response","93","249967","0.0-10.0-0.4","611cebb780fbae98c5bcc84d","650c16f0f2faf8d7a0d14c09","651c1b00f2caf4c516718fbe","null","null","<p style=""font-size: 60px; font-family: BACS"">tmYhlRE</p>","","","","","","","","",""
"html-keyboard-response","94","250975","0.0-10.0-0.5","611cebb780fbae98c5bcc84d","650c16f0f2faf8d7a0d14c09","651c1b00f2caf4c516718fbe","null","null","<p style=""font-size: 60px; font-family: BACS"">aUZALcO</p>","","","","","","","","",""
"html-keyboard-response","95","251992","0.0-10.0-0.6","611cebb780fbae98c5bcc84d","650c16f0f2faf8d7a0d14c09","651c1b00f2caf4c516718fbe","null","null","<p style=""font-size: 60px; font-family: BACS"">OcYMlRE</p>","","","","","","","","",""
"html-keyboard-response","96","253008","0.0-10.0-0.7","611cebb780fbae98c5bcc84d","650c16f0f2faf8d7a0d14c09","651c1b00f2caf4c516718fbe","null","null","<p style=""font-size: 60px; font-family: BACS"">muYNJud</p>","","","","","","","","",""
"html-keyboard-response","97","254010","0.0-10.0-0.8","611cebb780fbae98c5bcc84d","650c16f0f2faf8d7a0d14c09","651c1b00f2caf4c516718fbe","null","null","<p style=""font-size: 60px; font-family: BACS"">tmYhbAMO</p>","","","","","","","","",""
"html-keyboard-response","98","255025","0.0-10.0-0.9","611cebb780fbae98c5bcc84d","650c16f0f2faf8d7a0d14c09","651c1b00f2caf4c516718fbe","null","null","<p style=""font-size: 60px; font-family: BACS"">PcBTlRE</p>","","","","","","","","",""
"html-keyboard-response","99","256042","0.0-10.0-0.10","611cebb780fbae98c5bcc84d","650c16f0f2faf8d7a0d14c09","651c1b00f2caf4c516718fbe","null","null","<p style=""font-size: 60px; font-family: BACS"">hbmAPMd</p>","","","","","","","","",""
"html-keyboard-response","100","257051","0.0-10.0-0.11","611cebb780fbae98c5bcc84d","650c16f0f2faf8d7a0d14c09","651c1b00f2caf4c516718fbe","null","null","<p style=""font-size: 60px; font-family: BACS"">JdGmJQA</p>","","","","","","","","",""
"html-keyboard-response","101","258059","0.0-10.0-0.12","611cebb780fbae98c5bcc84d","650c16f0f2faf8d7a0d14c09","651c1b00f2caf4c516718fbe","null","null","<p style=""font-size: 60px; font-family: BACS"">hbmAYcM</p>","","","","","","","","",""
"html-keyboard-response","102","259075","0.0-10.0-0.13","611cebb780fbae98c5bcc84d","650c16f0f2faf8d7a0d14c09","651c1b00f2caf4c516718fbe","null","null","<p style=""font-size: 60px; font-family: BACS"">UJmrLcO</p>","","","","","","","","",""
"html-keyboard-response","103","260092","0.0-10.0-0.14","611cebb780fbae98c5bcc84d","650c16f0f2faf8d7a0d14c09","651c1b00f2caf4c516718fbe","null","null","<p style=""font-size: 60px; font-family: BACS"">udkmJQA</p>","","","","","","","","",""
"html-keyboard-response","104","261100","0.0-10.0-0.15","611cebb780fbae98c5bcc84d","650c16f0f2faf8d7a0d14c09","651c1b00f2caf4c516718fbe","null","null","<p style=""font-size: 60px; font-family: BACS"">muYNLcO</p>","","","","","","","","",""
"html-keyboard-response","105","262108","0.0-10.0-0.16","611cebb780fbae98c5bcc84d","650c16f0f2faf8d7a0d14c09","651c1b00f2caf4c516718fbe","null","null","<p style=""font-size: 60px; font-family: BACS"">PcBTYcM</p>","","","","","","","","",""
"html-keyboard-response","106","263125","0.0-10.0-0.17","611cebb780fbae98c5bcc84d","650c16f0f2faf8d7a0d14c09","651c1b00f2caf4c516718fbe","null","null","<p style=""font-size: 60px; font-family: BACS"">hbmAkBD</p>","","","","","","","","",""
"html-keyboard-response","107","264143","0.0-10.0-0.18","611cebb780fbae98c5bcc84d","650c16f0f2faf8d7a0d14c09","651c1b00f2caf4c516718fbe","null","null","<p style=""font-size: 60px; font-family: BACS"">aUZAJQA</p>","","","","","","","","",""
"html-keyboard-response","108","265158","0.0-10.0-0.19","611cebb780fbae98c5bcc84d","650c16f0f2faf8d7a0d14c09","651c1b00f2caf4c516718fbe","null","null","<p style=""font-size: 60px; font-family: BACS"">hbkdYcM</p>","","","","","","","","",""
"html-keyboard-response","109","266166","0.0-10.0-0.20","611cebb780fbae98c5bcc84d","650c16f0f2faf8d7a0d14c09","651c1b00f2caf4c516718fbe","null","null","<p style=""font-size: 60px; font-family: BACS"">AbKDbAMO</p>","","","","","","","","",""
"html-keyboard-response","110","267175","0.0-10.0-0.21","611cebb780fbae98c5bcc84d","650c16f0f2faf8d7a0d14c09","651c1b00f2caf4c516718fbe","null","null","<p style=""font-size: 60px; font-family: BACS"">OcYMPMd</p>","","","","","","","","",""
"html-keyboard-response","111","268191","0.0-10.0-0.22","611cebb780fbae98c5bcc84d","650c16f0f2faf8d7a0d14c09","651c1b00f2caf4c516718fbe","null","null","<p style=""font-size: 60px; font-family: BACS"">krGuJud</p>","","","","","","","","",""
"html-keyboard-response","112","269208","0.0-10.0-0.23","611cebb780fbae98c5bcc84d","650c16f0f2faf8d7a0d14c09","651c1b00f2caf4c516718fbe","null","null","<p style=""font-size: 60px; font-family: BACS"">bRABtPMd</p>","","","","","","","","",""
"html-keyboard-response","113","270223","0.0-10.0-0.24","611cebb780fbae98c5bcc84d","650c16f0f2faf8d7a0d14c09","651c1b00f2caf4c516718fbe","null","null","<p style=""font-size: 60px; font-family: BACS"">cBROBbAMO</p>","","","","","","","","",""
"html-keyboard-response","114","271241","0.0-10.0-0.25","611cebb780fbae98c5bcc84d","650c16f0f2faf8d7a0d14c09","651c1b00f2caf4c516718fbe","null","null","<p style=""font-size: 60px; font-family: BACS"">UYZlZGUa</p>","","","","","","","","",""
"html-keyboard-response","115","272245","0.0-10.0-0.26","611cebb780fbae98c5bcc84d","650c16f0f2faf8d7a0d14c09","651c1b00f2caf4c516718fbe","null","null","<p style=""font-size: 60px; font-family: BACS"">PcBTPMd</p>","","","","","","","","",""
"html-keyboard-response","116","273258","0.0-10.0-0.27","611cebb780fbae98c5bcc84d","650c16f0f2faf8d7a0d14c09","651c1b00f2caf4c516718fbe","null","null","<p style=""font-size: 60px; font-family: BACS"">AbKDlRE</p>","","","","","","","","",""
"html-keyboard-response","117","274275","0.0-10.0-0.28","611cebb780fbae98c5bcc84d","650c16f0f2faf8d7a0d14c09","651c1b00f2caf4c516718fbe","null","null","<p style=""font-size: 60px; font-family: BACS"">hbkdkBD</p>","","","","","","","","",""
"html-keyboard-response","118","275291","0.0-10.0-0.29","611cebb780fbae98c5bcc84d","650c16f0f2faf8d7a0d14c09","651c1b00f2caf4c516718fbe","null","null","<p style=""font-size: 60px; font-family: BACS"">UYZlZlLG</p>","","","","","","","","",""
"html-keyboard-response","119","276308","0.0-10.0-0.30","611cebb780fbae98c5bcc84d","650c16f0f2faf8d7a0d14c09","651c1b00f2caf4c516718fbe","null","null","<p style=""font-size: 60px; font-family: BACS"">TCbDCbAMO</p>","","","","","","","","",""
"html-keyboard-response","120","277324","0.0-10.0-0.31","611cebb780fbae98c5bcc84d","650c16f0f2faf8d7a0d14c09","651c1b00f2caf4c516718fbe","null","null","<p style=""font-size: 60px; font-family: BACS"">udkmlLG</p>","","","","","","","","",""
"html-keyboard-response","121","278330","0.0-10.0-0.32","611cebb780fbae98c5bcc84d","650c16f0f2faf8d7a0d14c09","651c1b00f2caf4c516718fbe","null","null","<p style=""font-size: 60px; font-family: BACS"">cBROBYcM</p>","","","","","","","","",""
"html-keyboard-response","122","279332","0.0-10.0-0.33","611cebb780fbae98c5bcc84d","650c16f0f2faf8d7a0d14c09","651c1b00f2caf4c516718fbe","null","null","<p style=""font-size: 60px; font-family: BACS"">LGkAlLG</p>","","","","","","","","",""
"html-keyboard-response","123","280349","0.0-10.0-0.34","611cebb780fbae98c5bcc84d","650c16f0f2faf8d7a0d14c09","651c1b00f2caf4c516718fbe","null","null","<p style=""font-size: 60px; font-family: BACS"">UJmrJud</p>","","","","","","","","",""
"html-keyboard-response","124","281365","0.0-10.0-0.35","611cebb780fbae98c5bcc84d","650c16f0f2faf8d7a0d14c09","651c1b00f2caf4c516718fbe","null","null","<p style=""font-size: 60px; font-family: BACS"">kcdOtlRE</p>","","","","","","","","",""
"html-keyboard-response","125","282374","0.0-10.0-0.36","611cebb780fbae98c5bcc84d","650c16f0f2faf8d7a0d14c09","651c1b00f2caf4c516718fbe","null","null","<p style=""font-size: 60px; font-family: BACS"">ZvalvJud</p>","","","","","","","","",""
"html-keyboard-response","126","283391","0.0-10.0-0.37","611cebb780fbae98c5bcc84d","650c16f0f2faf8d7a0d14c09","651c1b00f2caf4c516718fbe","null","null","<p style=""font-size: 60px; font-family: BACS"">tmYhkBD</p>","","","","","","","","",""
"html-keyboard-response","127","284407","0.0-10.0-0.38","611cebb780fbae98c5bcc84d","650c16f0f2faf8d7a0d14c09","651c1b00f2caf4c516718fbe","null","null","<p style=""font-size: 60px; font-family: BACS"">ZvalvJQA</p>","","","","","","","","",""
"html-keyboard-response","128","285423","0.0-10.0-0.39","611cebb780fbae98c5bcc84d","650c16f0f2faf8d7a0d14c09","651c1b00f2caf4c516718fbe","null","null","<p style=""font-size: 60px; font-family: BACS"">tmYhYcM</p>","","","","","","","","",""
"html-keyboard-response","129","286433","0.0-10.0-0.40","611cebb780fbae98c5bcc84d","650c16f0f2faf8d7a0d14c09","651c1b00f2caf4c516718fbe","null","null","<p style=""font-size: 60px; font-family: BACS"">LGkAJud</p>","","","","","","","","",""
"html-keyboard-response","130","287446","0.0-10.0-0.41","611cebb780fbae98c5bcc84d","650c16f0f2faf8d7a0d14c09","651c1b00f2caf4c516718fbe","null","null","<p style=""font-size: 60px; font-family: BACS"">kcdOtkBD</p>","","","","","","","","",""
"html-keyboard-response","131","288450","0.0-10.0-0.42","611cebb780fbae98c5bcc84d","650c16f0f2faf8d7a0d14c09","651c1b00f2caf4c516718fbe","null","null","<p style=""font-size: 60px; font-family: BACS"">ZvalvGUa</p>","","","","","","","","",""
"html-keyboard-response","132","289460","0.0-10.0-0.43","611cebb780fbae98c5bcc84d","650c16f0f2faf8d7a0d14c09","651c1b00f2caf4c516718fbe","null","null","<p style=""font-size: 60px; font-family: BACS"">aUZAJud</p>","","","","","","","","",""
"html-keyboard-response","133","290477","0.0-10.0-0.44","611cebb780fbae98c5bcc84d","650c16f0f2faf8d7a0d14c09","651c1b00f2caf4c516718fbe","null","null","<p style=""font-size: 60px; font-family: BACS"">PcBTkBD</p>","","","","","","","","",""
"html-keyboard-response","134","291491","0.0-10.0-0.45","611cebb780fbae98c5bcc84d","650c16f0f2faf8d7a0d14c09","651c1b00f2caf4c516718fbe","null","null","<p style=""font-size: 60px; font-family: BACS"">OcYMbAMO</p>","","","","","","","","",""
"html-keyboard-response","135","292499","0.0-10.0-0.46","611cebb780fbae98c5bcc84d","650c16f0f2faf8d7a0d14c09","651c1b00f2caf4c516718fbe","null","null","<p style=""font-size: 60px; font-family: BACS"">kcdOtPMd</p>","","","","","","","","",""
"html-keyboard-response","136","293507","0.0-10.0-0.47","611cebb780fbae98c5bcc84d","650c16f0f2faf8d7a0d14c09","651c1b00f2caf4c516718fbe","null","null","<p style=""font-size: 60px; font-family: BACS"">UYZlZLcO</p>","","","","","","","","",""
"html-keyboard-response","137","294508","0.0-10.0-0.48","611cebb780fbae98c5bcc84d","650c16f0f2faf8d7a0d14c09","651c1b00f2caf4c516718fbe","null","null","<p style=""font-size: 60px; font-family: BACS"">cBROBkBD</p>","","","","","","","","",""
"html-keyboard-response","138","295515","0.0-10.0-0.49","611cebb780fbae98c5bcc84d","650c16f0f2faf8d7a0d14c09","651c1b00f2caf4c516718fbe","null","null","<p style=""font-size: 60px; font-family: BACS"">TCbDClRE</p>","","","","","","","","",""
"html-keyboard-response","139","296523","0.0-10.0-0.50","611cebb780fbae98c5bcc84d","650c16f0f2faf8d7a0d14c09","651c1b00f2caf4c516718fbe","null","null","<p style=""font-size: 60px; font-family: BACS"">muYNlLG</p>","","","","","","","","",""
"html-keyboard-response","140","297531","0.0-10.0-0.51","611cebb780fbae98c5bcc84d","650c16f0f2faf8d7a0d14c09","651c1b00f2caf4c516718fbe","null","null","<p style=""font-size: 60px; font-family: BACS"">hbkdPMd</p>","","","","","","","","",""
"html-keyboard-response","141","298547","0.0-10.0-0.52","611cebb780fbae98c5bcc84d","650c16f0f2faf8d7a0d14c09","651c1b00f2caf4c516718fbe","null","null","<p style=""font-size: 60px; font-family: BACS"">udkmGUa</p>","","","","","","","","",""
"html-keyboard-response","142","299563","0.0-10.0-0.53","611cebb780fbae98c5bcc84d","650c16f0f2faf8d7a0d14c09","651c1b00f2caf4c516718fbe","null","null","<p style=""font-size: 60px; font-family: BACS"">cBROBPMd</p>","","","","","","","","",""
"html-keyboard-response","143","300564","0.0-10.0-0.54","611cebb780fbae98c5bcc84d","650c16f0f2faf8d7a0d14c09","651c1b00f2caf4c516718fbe","null","null","<p style=""font-size: 60px; font-family: BACS"">LGkAGUa</p>","","","","","","","","",""
"html-keyboard-response","144","301581","0.0-10.0-0.55","611cebb780fbae98c5bcc84d","650c16f0f2faf8d7a0d14c09","651c1b00f2caf4c516718fbe","null","null","<p style=""font-size: 60px; font-family: BACS"">JdGmlLG</p>","","","","","","","","",""
"html-keyboard-response","145","302590","0.0-10.0-0.56","611cebb780fbae98c5bcc84d","650c16f0f2faf8d7a0d14c09","651c1b00f2caf4c516718fbe","null","null","<p style=""font-size: 60px; font-family: BACS"">bRABtkBD</p>","","","","","","","","",""
"html-keyboard-response","146","303592","0.0-10.0-0.57","611cebb780fbae98c5bcc84d","650c16f0f2faf8d7a0d14c09","651c1b00f2caf4c516718fbe","null","null","<p style=""font-size: 60px; font-family: BACS"">aYaNJQA</p>","","","","","","","","",""
"html-keyboard-response","147","304595","0.0-10.0-0.58","611cebb780fbae98c5bcc84d","650c16f0f2faf8d7a0d14c09","651c1b00f2caf4c516718fbe","null","null","<p style=""font-size: 60px; font-family: BACS"">JdGmLcO</p>","","","","","","","","",""
"html-keyboard-response","148","305598","0.0-10.0-0.59","611cebb780fbae98c5bcc84d","650c16f0f2faf8d7a0d14c09","651c1b00f2caf4c516718fbe","null","null","<p style=""font-size: 60px; font-family: BACS"">TCbDCkBD</p>","","","","","","","","",""
"html-keyboard-response","149","306606","0.0-10.0-0.60","611cebb780fbae98c5bcc84d","650c16f0f2faf8d7a0d14c09","651c1b00f2caf4c516718fbe","null","null","<p style=""font-size: 60px; font-family: BACS"">ZvalvlLG</p>","","","","","","","","",""
"html-keyboard-response","150","307623","0.0-10.0-0.61","611cebb780fbae98c5bcc84d","650c16f0f2faf8d7a0d14c09","651c1b00f2caf4c516718fbe","null","null","<p style=""font-size: 60px; font-family: BACS"">UJmrGUa</p>","","","","","","","","",""
"html-keyboard-response","151","308640","0.0-10.0-0.62","611cebb780fbae98c5bcc84d","650c16f0f2faf8d7a0d14c09","651c1b00f2caf4c516718fbe","null","null","<p style=""font-size: 60px; font-family: BACS"">LGkAJQA</p>","","","","","","","","",""
"html-keyboard-response","152","309647","0.0-10.0-0.63","611cebb780fbae98c5bcc84d","650c16f0f2faf8d7a0d14c09","651c1b00f2caf4c516718fbe","null","null","<p style=""font-size: 60px; font-family: BACS"">JdGmJud</p>","","","","","","","","",""
"html-keyboard-response","153","310656","0.0-10.0-0.64","611cebb780fbae98c5bcc84d","650c16f0f2faf8d7a0d14c09","651c1b00f2caf4c516718fbe","null","null","<p style=""font-size: 60px; font-family: BACS"">UYZlZJQA</p>","","","","","","","","",""
"html-keyboard-response","154","311661","0.0-10.0-0.65","611cebb780fbae98c5bcc84d","650c16f0f2faf8d7a0d14c09","651c1b00f2caf4c516718fbe","null","null","<p style=""font-size: 60px; font-family: BACS"">krGulLG</p>","","","","","","","","",""
"html-keyboard-response","155","312675","0.0-10.0-0.66","611cebb780fbae98c5bcc84d","650c16f0f2faf8d7a0d14c09","651c1b00f2caf4c516718fbe","null","null","<p style=""font-size: 60px; font-family: BACS"">AbKDYcM</p>","","","","","","","","",""
"html-keyboard-response","156","313691","0.0-10.0-0.67","611cebb780fbae98c5bcc84d","650c16f0f2faf8d7a0d14c09","651c1b00f2caf4c516718fbe","null","null","<p style=""font-size: 60px; font-family: BACS"">bRABtlRE</p>","","","","","","","","",""
"html-keyboard-response","157","314707","0.0-10.0-0.68","611cebb780fbae98c5bcc84d","650c16f0f2faf8d7a0d14c09","651c1b00f2caf4c516718fbe","null","null","<p style=""font-size: 60px; font-family: BACS"">krGuLcO</p>","","","","","","","","",""
"html-keyboard-response","158","315715","0.0-10.0-0.69","611cebb780fbae98c5bcc84d","650c16f0f2faf8d7a0d14c09","651c1b00f2caf4c516718fbe","null","null","<p style=""font-size: 60px; font-family: BACS"">TCbDCYcM</p>","","","","","","","","",""
"html-keyboard-response","159","316723","0.0-10.0-0.70","611cebb780fbae98c5bcc84d","650c16f0f2faf8d7a0d14c09","651c1b00f2caf4c516718fbe","null","null","<p style=""font-size: 60px; font-family: BACS"">muYNGUa</p>","","","","","","","","",""
"html-keyboard-response","160","317731","0.0-10.0-0.71","611cebb780fbae98c5bcc84d","650c16f0f2faf8d7a0d14c09","651c1b00f2caf4c516718fbe","null","null","<p style=""font-size: 60px; font-family: BACS"">aYaNLcO</p>","","","","","","","","",""
"html-keyboard-response","161","318746","0.0-10.0-0.72","611cebb780fbae98c5bcc84d","650c16f0f2faf8d7a0d14c09","651c1b00f2caf4c516718fbe","null","null","<p style=""font-size: 60px; font-family: BACS"">krGuJQA</p>","","","","","","","","",""
"html-keyboard-response","162","319761","0.0-10.0-0.73","611cebb780fbae98c5bcc84d","650c16f0f2faf8d7a0d14c09","651c1b00f2caf4c516718fbe","null","null","<p style=""font-size: 60px; font-family: BACS"">kcdOtbAMO</p>","","","","","","","","",""
"html-keyboard-response","163","320772","0.0-10.0-0.74","611cebb780fbae98c5bcc84d","650c16f0f2faf8d7a0d14c09","651c1b00f2caf4c516718fbe","null","null","<p style=""font-size: 60px; font-family: BACS"">UJmrlLG</p>","","","","","","","","",""
"html-keyboard-response","164","321789","0.0-10.0-0.75","611cebb780fbae98c5bcc84d","650c16f0f2faf8d7a0d14c09","651c1b00f2caf4c516718fbe","null","null","<p style=""font-size: 60px; font-family: BACS"">hbmAlRE</p>","","","","","","","","",""
"html-keyboard-response","165","322805","0.0-10.0-0.76","611cebb780fbae98c5bcc84d","650c16f0f2faf8d7a0d14c09","651c1b00f2caf4c516718fbe","null","null","<p style=""font-size: 60px; font-family: BACS"">aUZAGUa</p>","","","","","","","","",""
"html-keyboard-response","166","323822","0.0-10.0-0.77","611cebb780fbae98c5bcc84d","650c16f0f2faf8d7a0d14c09","651c1b00f2caf4c516718fbe","null","null","<p style=""font-size: 60px; font-family: BACS"">bRABtbAMO</p>","","","","","","","","",""
"html-keyboard-response","167","324831","0.0-10.0-0.78","611cebb780fbae98c5bcc84d","650c16f0f2faf8d7a0d14c09","651c1b00f2caf4c516718fbe","null","null","<p style=""font-size: 60px; font-family: BACS"">OcYMYcM</p>","","","","","","","","",""
"html-keyboard-response","168","325839","0.0-10.0-0.79","611cebb780fbae98c5bcc84d","650c16f0f2faf8d7a0d14c09","651c1b00f2caf4c516718fbe","null","null","<p style=""font-size: 60px; font-family: BACS"">hbkdbAMO</p>","","","","","","","","",""
"html-keyboard-response","169","552525","0.0-11.0","611cebb780fbae98c5bcc84d","650c16f0f2faf8d7a0d14c09","651c1b00f2caf4c516718fbe","226691"," ","<p>Great, you've seen the second block of words. You may now take a short break.</p>
      <p>Press the spacebar when you're ready to continue.</p>","","","","","","","","",""
"html-keyboard-response","170","553528","0.0-12.0-0.0","611cebb780fbae98c5bcc84d","650c16f0f2faf8d7a0d14c09","651c1b00f2caf4c516718fbe","null","null","<p style=""font-size: 60px; font-family: BACS"">UJmrlLG</p>","","","","","","","","",""
"html-keyboard-response","171","554536","0.0-12.0-0.1","611cebb780fbae98c5bcc84d","650c16f0f2faf8d7a0d14c09","651c1b00f2caf4c516718fbe","null","null","<p style=""font-size: 60px; font-family: BACS"">tmYhlRE</p>","","","","","","","","",""
"html-keyboard-response","172","555546","0.0-12.0-0.2","611cebb780fbae98c5bcc84d","650c16f0f2faf8d7a0d14c09","651c1b00f2caf4c516718fbe","null","null","<p style=""font-size: 60px; font-family: BACS"">UYZlZLcO</p>","","","","","","","","",""
"html-keyboard-response","173","556553","0.0-12.0-0.3","611cebb780fbae98c5bcc84d","650c16f0f2faf8d7a0d14c09","651c1b00f2caf4c516718fbe","null","null","<p style=""font-size: 60px; font-family: BACS"">JdGmJQA</p>","","","","","","","","",""
"html-keyboard-response","174","557563","0.0-12.0-0.4","611cebb780fbae98c5bcc84d","650c16f0f2faf8d7a0d14c09","651c1b00f2caf4c516718fbe","null","null","<p style=""font-size: 60px; font-family: BACS"">TCbDClRE</p>","","","","","","","","",""
"html-keyboard-response","175","558578","0.0-12.0-0.5","611cebb780fbae98c5bcc84d","650c16f0f2faf8d7a0d14c09","651c1b00f2caf4c516718fbe","null","null","<p style=""font-size: 60px; font-family: BACS"">LGkAJud</p>","","","","","","","","",""
"html-keyboard-response","176","559594","0.0-12.0-0.6","611cebb780fbae98c5bcc84d","650c16f0f2faf8d7a0d14c09","651c1b00f2caf4c516718fbe","null","null","<p style=""font-size: 60px; font-family: BACS"">krGuJQA</p>","","","","","","","","",""
"html-keyboard-response","177","560595","0.0-12.0-0.7","611cebb780fbae98c5bcc84d","650c16f0f2faf8d7a0d14c09","651c1b00f2caf4c516718fbe","null","null","<p style=""font-size: 60px; font-family: BACS"">udkmGUa</p>","","","","","","","","",""
"html-keyboard-response","178","561604","0.0-12.0-0.8","611cebb780fbae98c5bcc84d","650c16f0f2faf8d7a0d14c09","651c1b00f2caf4c516718fbe","null","null","<p style=""font-size: 60px; font-family: BACS"">cBROBPMd</p>","","","","","","","","",""
"html-keyboard-response","179","562620","0.0-12.0-0.9","611cebb780fbae98c5bcc84d","650c16f0f2faf8d7a0d14c09","651c1b00f2caf4c516718fbe","null","null","<p style=""font-size: 60px; font-family: BACS"">UJmrJud</p>","","","","","","","","",""
"html-keyboard-response","180","563628","0.0-12.0-0.10","611cebb780fbae98c5bcc84d","650c16f0f2faf8d7a0d14c09","651c1b00f2caf4c516718fbe","null","null","<p style=""font-size: 60px; font-family: BACS"">bRABtPMd</p>","","","","","","","","",""
"html-keyboard-response","181","564636","0.0-12.0-0.11","611cebb780fbae98c5bcc84d","650c16f0f2faf8d7a0d14c09","651c1b00f2caf4c516718fbe","null","null","<p style=""font-size: 60px; font-family: BACS"">muYNJud</p>","","","","","","","","",""
"html-keyboard-response","182","565645","0.0-12.0-0.12","611cebb780fbae98c5bcc84d","650c16f0f2faf8d7a0d14c09","651c1b00f2caf4c516718fbe","null","null","<p style=""font-size: 60px; font-family: BACS"">PcBTlRE</p>","","","","","","","","",""
"html-keyboard-response","183","566653","0.0-12.0-0.13","611cebb780fbae98c5bcc84d","650c16f0f2faf8d7a0d14c09","651c1b00f2caf4c516718fbe","null","null","<p style=""font-size: 60px; font-family: BACS"">kcdOtPMd</p>","","","","","","","","",""
"html-keyboard-response","184","567669","0.0-12.0-0.14","611cebb780fbae98c5bcc84d","650c16f0f2faf8d7a0d14c09","651c1b00f2caf4c516718fbe","null","null","<p style=""font-size: 60px; font-family: BACS"">tmYhkBD</p>","","","","","","","","",""
"html-keyboard-response","185","568671","0.0-12.0-0.15","611cebb780fbae98c5bcc84d","650c16f0f2faf8d7a0d14c09","651c1b00f2caf4c516718fbe","null","null","<p style=""font-size: 60px; font-family: BACS"">OcYMYcM</p>","","","","","","","","",""
"html-keyboard-response","186","569688","0.0-12.0-0.16","611cebb780fbae98c5bcc84d","650c16f0f2faf8d7a0d14c09","651c1b00f2caf4c516718fbe","null","null","<p style=""font-size: 60px; font-family: BACS"">TCbDCkBD</p>","","","","","","","","",""
"html-keyboard-response","187","570695","0.0-12.0-0.17","611cebb780fbae98c5bcc84d","650c16f0f2faf8d7a0d14c09","651c1b00f2caf4c516718fbe","null","null","<p style=""font-size: 60px; font-family: BACS"">krGulLG</p>","","","","","","","","",""
"html-keyboard-response","188","571707","0.0-12.0-0.18","611cebb780fbae98c5bcc84d","650c16f0f2faf8d7a0d14c09","651c1b00f2caf4c516718fbe","null","null","<p style=""font-size: 60px; font-family: BACS"">UJmrLcO</p>","","","","","","","","",""
"html-keyboard-response","189","572720","0.0-12.0-0.19","611cebb780fbae98c5bcc84d","650c16f0f2faf8d7a0d14c09","651c1b00f2caf4c516718fbe","null","null","<p style=""font-size: 60px; font-family: BACS"">cBROBbAMO</p>","","","","","","","","",""
"html-keyboard-response","190","573727","0.0-12.0-0.20","611cebb780fbae98c5bcc84d","650c16f0f2faf8d7a0d14c09","651c1b00f2caf4c516718fbe","null","null","<p style=""font-size: 60px; font-family: BACS"">hbmAYcM</p>","","","","","","","","",""
"html-keyboard-response","191","574737","0.0-12.0-0.21","611cebb780fbae98c5bcc84d","650c16f0f2faf8d7a0d14c09","651c1b00f2caf4c516718fbe","null","null","<p style=""font-size: 60px; font-family: BACS"">UJmrGUa</p>","","","","","","","","",""
"html-keyboard-response","192","575753","0.0-12.0-0.22","611cebb780fbae98c5bcc84d","650c16f0f2faf8d7a0d14c09","651c1b00f2caf4c516718fbe","null","null","<p style=""font-size: 60px; font-family: BACS"">AbKDYcM</p>","","","","","","","","",""
"html-keyboard-response","193","576769","0.0-12.0-0.23","611cebb780fbae98c5bcc84d","650c16f0f2faf8d7a0d14c09","651c1b00f2caf4c516718fbe","null","null","<p style=""font-size: 60px; font-family: BACS"">LGkAJQA</p>","","","","","","","","",""
"html-keyboard-response","194","577786","0.0-12.0-0.24","611cebb780fbae98c5bcc84d","650c16f0f2faf8d7a0d14c09","651c1b00f2caf4c516718fbe","null","null","<p style=""font-size: 60px; font-family: BACS"">muYNlLG</p>","","","","","","","","",""
"html-keyboard-response","195","578802","0.0-12.0-0.25","611cebb780fbae98c5bcc84d","650c16f0f2faf8d7a0d14c09","651c1b00f2caf4c516718fbe","null","null","<p style=""font-size: 60px; font-family: BACS"">OcYMbAMO</p>","","","","","","","","",""
"html-keyboard-response","196","579819","0.0-12.0-0.26","611cebb780fbae98c5bcc84d","650c16f0f2faf8d7a0d14c09","651c1b00f2caf4c516718fbe","null","null","<p style=""font-size: 60px; font-family: BACS"">udkmLcO</p>","","","","","","","","",""
"html-keyboard-response","197","580835","0.0-12.0-0.27","611cebb780fbae98c5bcc84d","650c16f0f2faf8d7a0d14c09","651c1b00f2caf4c516718fbe","null","null","<p style=""font-size: 60px; font-family: BACS"">bRABtkBD</p>","","","","","","","","",""
"html-keyboard-response","198","581837","0.0-12.0-0.28","611cebb780fbae98c5bcc84d","650c16f0f2faf8d7a0d14c09","651c1b00f2caf4c516718fbe","null","null","<p style=""font-size: 60px; font-family: BACS"">hbkdPMd</p>","","","","","","","","",""
"html-keyboard-response","199","582853","0.0-12.0-0.29","611cebb780fbae98c5bcc84d","650c16f0f2faf8d7a0d14c09","651c1b00f2caf4c516718fbe","null","null","<p style=""font-size: 60px; font-family: BACS"">kcdOtkBD</p>","","","","","","","","",""
"html-keyboard-response","200","583869","0.0-12.0-0.30","611cebb780fbae98c5bcc84d","650c16f0f2faf8d7a0d14c09","651c1b00f2caf4c516718fbe","null","null","<p style=""font-size: 60px; font-family: BACS"">TCbDCYcM</p>","","","","","","","","",""
"html-keyboard-response","201","584870","0.0-12.0-0.31","611cebb780fbae98c5bcc84d","650c16f0f2faf8d7a0d14c09","651c1b00f2caf4c516718fbe","null","null","<p style=""font-size: 60px; font-family: BACS"">tmYhbAMO</p>","","","","","","","","",""
"html-keyboard-response","202","585885","0.0-12.0-0.32","611cebb780fbae98c5bcc84d","650c16f0f2faf8d7a0d14c09","651c1b00f2caf4c516718fbe","null","null","<p style=""font-size: 60px; font-family: BACS"">LGkAlLG</p>","","","","","","","","",""
"html-keyboard-response","203","586902","0.0-12.0-0.33","611cebb780fbae98c5bcc84d","650c16f0f2faf8d7a0d14c09","651c1b00f2caf4c516718fbe","null","null","<p style=""font-size: 60px; font-family: BACS"">aYaNLcO</p>","","","","","","","","",""
"html-keyboard-response","204","587909","0.0-12.0-0.34","611cebb780fbae98c5bcc84d","650c16f0f2faf8d7a0d14c09","651c1b00f2caf4c516718fbe","null","null","<p style=""font-size: 60px; font-family: BACS"">hbkdYcM</p>","","","","","","","","",""
"html-keyboard-response","205","588926","0.0-12.0-0.35","611cebb780fbae98c5bcc84d","650c16f0f2faf8d7a0d14c09","651c1b00f2caf4c516718fbe","null","null","<p style=""font-size: 60px; font-family: BACS"">TCbDCbAMO</p>","","","","","","","","",""
"html-keyboard-response","206","589935","0.0-12.0-0.36","611cebb780fbae98c5bcc84d","650c16f0f2faf8d7a0d14c09","651c1b00f2caf4c516718fbe","null","null","<p style=""font-size: 60px; font-family: BACS"">LGkAGUa</p>","","","","","","","","",""
"html-keyboard-response","207","590952","0.0-12.0-0.37","611cebb780fbae98c5bcc84d","650c16f0f2faf8d7a0d14c09","651c1b00f2caf4c516718fbe","null","null","<p style=""font-size: 60px; font-family: BACS"">PcBTYcM</p>","","","","","","","","",""
"html-keyboard-response","208","591968","0.0-12.0-0.38","611cebb780fbae98c5bcc84d","650c16f0f2faf8d7a0d14c09","651c1b00f2caf4c516718fbe","null","null","<p style=""font-size: 60px; font-family: BACS"">muYNLcO</p>","","","","","","","","",""
"html-keyboard-response","209","592985","0.0-12.0-0.39","611cebb780fbae98c5bcc84d","650c16f0f2faf8d7a0d14c09","651c1b00f2caf4c516718fbe","null","null","<p style=""font-size: 60px; font-family: BACS"">UYZlZJQA</p>","","","","","","","","",""
"html-keyboard-response","210","594001","0.0-12.0-0.40","611cebb780fbae98c5bcc84d","650c16f0f2faf8d7a0d14c09","651c1b00f2caf4c516718fbe","null","null","<p style=""font-size: 60px; font-family: BACS"">PcBTkBD</p>","","","","","","","","",""
"html-keyboard-response","211","595019","0.0-12.0-0.41","611cebb780fbae98c5bcc84d","650c16f0f2faf8d7a0d14c09","651c1b00f2caf4c516718fbe","null","null","<p style=""font-size: 60px; font-family: BACS"">cBROBYcM</p>","","","","","","","","",""
"html-keyboard-response","212","596035","0.0-12.0-0.42","611cebb780fbae98c5bcc84d","650c16f0f2faf8d7a0d14c09","651c1b00f2caf4c516718fbe","null","null","<p style=""font-size: 60px; font-family: BACS"">aUZAGUa</p>","","","","","","","","",""
"html-keyboard-response","213","597038","0.0-12.0-0.43","611cebb780fbae98c5bcc84d","650c16f0f2faf8d7a0d14c09","651c1b00f2caf4c516718fbe","null","null","<p style=""font-size: 60px; font-family: BACS"">OcYMlRE</p>","","","","","","","","",""
"html-keyboard-response","214","598051","0.0-12.0-0.44","611cebb780fbae98c5bcc84d","650c16f0f2faf8d7a0d14c09","651c1b00f2caf4c516718fbe","null","null","<p style=""font-size: 60px; font-family: BACS"">JdGmLcO</p>","","","","","","","","",""
"html-keyboard-response","215","599055","0.0-12.0-0.45","611cebb780fbae98c5bcc84d","650c16f0f2faf8d7a0d14c09","651c1b00f2caf4c516718fbe","null","null","<p style=""font-size: 60px; font-family: BACS"">ZvalvlLG</p>","","","","","","","","",""
"html-keyboard-response","216","600059","0.0-12.0-0.46","611cebb780fbae98c5bcc84d","650c16f0f2faf8d7a0d14c09","651c1b00f2caf4c516718fbe","null","null","<p style=""font-size: 60px; font-family: BACS"">aYaNGUa</p>","","","","","","","","",""
"html-keyboard-response","217","601076","0.0-12.0-0.47","611cebb780fbae98c5bcc84d","650c16f0f2faf8d7a0d14c09","651c1b00f2caf4c516718fbe","null","null","<p style=""font-size: 60px; font-family: BACS"">udkmlLG</p>","","","","","","","","",""
"html-keyboard-response","218","602086","0.0-12.0-0.48","611cebb780fbae98c5bcc84d","650c16f0f2faf8d7a0d14c09","651c1b00f2caf4c516718fbe","null","null","<p style=""font-size: 60px; font-family: BACS"">bRABtbAMO</p>","","","","","","","","",""
"html-keyboard-response","219","603099","0.0-12.0-0.49","611cebb780fbae98c5bcc84d","650c16f0f2faf8d7a0d14c09","651c1b00f2caf4c516718fbe","null","null","<p style=""font-size: 60px; font-family: BACS"">hbmAkBD</p>","","","","","","","","",""
"html-keyboard-response","220","604109","0.0-12.0-0.50","611cebb780fbae98c5bcc84d","650c16f0f2faf8d7a0d14c09","651c1b00f2caf4c516718fbe","null","null","<p style=""font-size: 60px; font-family: BACS"">ZvalvJQA</p>","","","","","","","","",""
"html-keyboard-response","221","605116","0.0-12.0-0.51","611cebb780fbae98c5bcc84d","650c16f0f2faf8d7a0d14c09","651c1b00f2caf4c516718fbe","null","null","<p style=""font-size: 60px; font-family: BACS"">krGuJud</p>","","","","","","","","",""
"html-keyboard-response","222","606118","0.0-12.0-0.52","611cebb780fbae98c5bcc84d","650c16f0f2faf8d7a0d14c09","651c1b00f2caf4c516718fbe","null","null","<p style=""font-size: 60px; font-family: BACS"">UYZlZGUa</p>","","","","","","","","",""
"html-keyboard-response","223","607133","0.0-12.0-0.53","611cebb780fbae98c5bcc84d","650c16f0f2faf8d7a0d14c09","651c1b00f2caf4c516718fbe","null","null","<p style=""font-size: 60px; font-family: BACS"">hbkdkBD</p>","","","","","","","","",""
"html-keyboard-response","224","608141","0.0-12.0-0.54","611cebb780fbae98c5bcc84d","650c16f0f2faf8d7a0d14c09","651c1b00f2caf4c516718fbe","null","null","<p style=""font-size: 60px; font-family: BACS"">udkmJQA</p>","","","","","","","","",""
"html-keyboard-response","225","609158","0.0-12.0-0.55","611cebb780fbae98c5bcc84d","650c16f0f2faf8d7a0d14c09","651c1b00f2caf4c516718fbe","null","null","<p style=""font-size: 60px; font-family: BACS"">JdGmJud</p>","","","","","","","","",""
"html-keyboard-response","226","610162","0.0-12.0-0.56","611cebb780fbae98c5bcc84d","650c16f0f2faf8d7a0d14c09","651c1b00f2caf4c516718fbe","null","null","<p style=""font-size: 60px; font-family: BACS"">krGuLcO</p>","","","","","","","","",""
"html-keyboard-response","227","611175","0.0-12.0-0.57","611cebb780fbae98c5bcc84d","650c16f0f2faf8d7a0d14c09","651c1b00f2caf4c516718fbe","null","null","<p style=""font-size: 60px; font-family: BACS"">PcBTPMd</p>","","","","","","","","",""
"html-keyboard-response","228","612181","0.0-12.0-0.58","611cebb780fbae98c5bcc84d","650c16f0f2faf8d7a0d14c09","651c1b00f2caf4c516718fbe","null","null","<p style=""font-size: 60px; font-family: BACS"">JdGmlLG</p>","","","","","","","","",""
"html-keyboard-response","229","613192","0.0-12.0-0.59","611cebb780fbae98c5bcc84d","650c16f0f2faf8d7a0d14c09","651c1b00f2caf4c516718fbe","null","null","<p style=""font-size: 60px; font-family: BACS"">aUZAJQA</p>","","","","","","","","",""
"html-keyboard-response","230","614194","0.0-12.0-0.60","611cebb780fbae98c5bcc84d","650c16f0f2faf8d7a0d14c09","651c1b00f2caf4c516718fbe","null","null","<p style=""font-size: 60px; font-family: BACS"">OcYMPMd</p>","","","","","","","","",""
"html-keyboard-response","231","615208","0.0-12.0-0.61","611cebb780fbae98c5bcc84d","650c16f0f2faf8d7a0d14c09","651c1b00f2caf4c516718fbe","null","null","<p style=""font-size: 60px; font-family: BACS"">aYaNJud</p>","","","","","","","","",""
"html-keyboard-response","232","616224","0.0-12.0-0.62","611cebb780fbae98c5bcc84d","650c16f0f2faf8d7a0d14c09","651c1b00f2caf4c516718fbe","null","null","<p style=""font-size: 60px; font-family: BACS"">AbKDbAMO</p>","","","","","","","","",""
"html-keyboard-response","233","617232","0.0-12.0-0.63","611cebb780fbae98c5bcc84d","650c16f0f2faf8d7a0d14c09","651c1b00f2caf4c516718fbe","null","null","<p style=""font-size: 60px; font-family: BACS"">kcdOtlRE</p>","","","","","","","","",""
"html-keyboard-response","234","618240","0.0-12.0-0.64","611cebb780fbae98c5bcc84d","650c16f0f2faf8d7a0d14c09","651c1b00f2caf4c516718fbe","null","null","<p style=""font-size: 60px; font-family: BACS"">cBROBkBD</p>","","","","","","","","",""
"html-keyboard-response","235","619249","0.0-12.0-0.65","611cebb780fbae98c5bcc84d","650c16f0f2faf8d7a0d14c09","651c1b00f2caf4c516718fbe","null","null","<p style=""font-size: 60px; font-family: BACS"">bRABtlRE</p>","","","","","","","","",""
"html-keyboard-response","236","620257","0.0-12.0-0.66","611cebb780fbae98c5bcc84d","650c16f0f2faf8d7a0d14c09","651c1b00f2caf4c516718fbe","null","null","<p style=""font-size: 60px; font-family: BACS"">aUZALcO</p>","","","","","","","","",""
"html-keyboard-response","237","621274","0.0-12.0-0.67","611cebb780fbae98c5bcc84d","650c16f0f2faf8d7a0d14c09","651c1b00f2caf4c516718fbe","null","null","<p style=""font-size: 60px; font-family: BACS"">AbKDPMd</p>","","","","","","","","",""
"html-keyboard-response","238","622283","0.0-12.0-0.68","611cebb780fbae98c5bcc84d","650c16f0f2faf8d7a0d14c09","651c1b00f2caf4c516718fbe","null","null","<p style=""font-size: 60px; font-family: BACS"">UYZlZlLG</p>","","","","","","","","",""
"html-keyboard-response","239","623290","0.0-12.0-0.69","611cebb780fbae98c5bcc84d","650c16f0f2faf8d7a0d14c09","651c1b00f2caf4c516718fbe","null","null","<p style=""font-size: 60px; font-family: BACS"">hbmAPMd</p>","","","","","","","","",""
"html-keyboard-response","240","624298","0.0-12.0-0.70","611cebb780fbae98c5bcc84d","650c16f0f2faf8d7a0d14c09","651c1b00f2caf4c516718fbe","null","null","<p style=""font-size: 60px; font-family: BACS"">ZvalvJud</p>","","","","","","","","",""
"html-keyboard-response","241","625307","0.0-12.0-0.71","611cebb780fbae98c5bcc84d","650c16f0f2faf8d7a0d14c09","651c1b00f2caf4c516718fbe","null","null","<p style=""font-size: 60px; font-family: BACS"">kcdOtbAMO</p>","","","","","","","","",""
"html-keyboard-response","242","626323","0.0-12.0-0.72","611cebb780fbae98c5bcc84d","650c16f0f2faf8d7a0d14c09","651c1b00f2caf4c516718fbe","null","null","<p style=""font-size: 60px; font-family: BACS"">ZvalvGUa</p>","","","","","","","","",""
"html-keyboard-response","243","627340","0.0-12.0-0.73","611cebb780fbae98c5bcc84d","650c16f0f2faf8d7a0d14c09","651c1b00f2caf4c516718fbe","null","null","<p style=""font-size: 60px; font-family: BACS"">hbkdbAMO</p>","","","","","","","","",""
"html-keyboard-response","244","628342","0.0-12.0-0.74","611cebb780fbae98c5bcc84d","650c16f0f2faf8d7a0d14c09","651c1b00f2caf4c516718fbe","null","null","<p style=""font-size: 60px; font-family: BACS"">tmYhYcM</p>","","","","","","","","",""
"html-keyboard-response","245","629348","0.0-12.0-0.75","611cebb780fbae98c5bcc84d","650c16f0f2faf8d7a0d14c09","651c1b00f2caf4c516718fbe","null","null","<p style=""font-size: 60px; font-family: BACS"">hbmAlRE</p>","","","","","","","","",""
"html-keyboard-response","246","630357","0.0-12.0-0.76","611cebb780fbae98c5bcc84d","650c16f0f2faf8d7a0d14c09","651c1b00f2caf4c516718fbe","null","null","<p style=""font-size: 60px; font-family: BACS"">aUZAJud</p>","","","","","","","","",""
"html-keyboard-response","247","631374","0.0-12.0-0.77","611cebb780fbae98c5bcc84d","650c16f0f2faf8d7a0d14c09","651c1b00f2caf4c516718fbe","null","null","<p style=""font-size: 60px; font-family: BACS"">muYNGUa</p>","","","","","","","","",""
"html-keyboard-response","248","632390","0.0-12.0-0.78","611cebb780fbae98c5bcc84d","650c16f0f2faf8d7a0d14c09","651c1b00f2caf4c516718fbe","null","null","<p style=""font-size: 60px; font-family: BACS"">AbKDlRE</p>","","","","","","","","",""
"html-keyboard-response","249","633407","0.0-12.0-0.79","611cebb780fbae98c5bcc84d","650c16f0f2faf8d7a0d14c09","651c1b00f2caf4c516718fbe","null","null","<p style=""font-size: 60px; font-family: BACS"">aYaNJQA</p>","","","","","","","","",""
"html-keyboard-response","250","845049","0.0-13.0","611cebb780fbae98c5bcc84d","650c16f0f2faf8d7a0d14c09","651c1b00f2caf4c516718fbe","211641"," ","<p>Great, you've seen the third block of words. You may now take a short break.</p>
      <p>Press the spacebar when you're ready to continue.</p>","","","","","","","","",""
"html-keyboard-response","251","846062","0.0-14.0-0.0","611cebb780fbae98c5bcc84d","650c16f0f2faf8d7a0d14c09","651c1b00f2caf4c516718fbe","null","null","<p style=""font-size: 60px; font-family: BACS"">UYZlZGUa</p>","","","","","","","","",""
"html-keyboard-response","252","847079","0.0-14.0-0.1","611cebb780fbae98c5bcc84d","650c16f0f2faf8d7a0d14c09","651c1b00f2caf4c516718fbe","null","null","<p style=""font-size: 60px; font-family: BACS"">bRABtkBD</p>","","","","","","","","",""
"html-keyboard-response","253","848095","0.0-14.0-0.2","611cebb780fbae98c5bcc84d","650c16f0f2faf8d7a0d14c09","651c1b00f2caf4c516718fbe","null","null","<p style=""font-size: 60px; font-family: BACS"">udkmGUa</p>","","","","","","","","",""
"html-keyboard-response","254","849112","0.0-14.0-0.3","611cebb780fbae98c5bcc84d","650c16f0f2faf8d7a0d14c09","651c1b00f2caf4c516718fbe","null","null","<p style=""font-size: 60px; font-family: BACS"">ZvalvlLG</p>","","","","","","","","",""
"html-keyboard-response","255","850120","0.0-14.0-0.4","611cebb780fbae98c5bcc84d","650c16f0f2faf8d7a0d14c09","651c1b00f2caf4c516718fbe","null","null","<p style=""font-size: 60px; font-family: BACS"">UJmrGUa</p>","","","","","","","","",""
"html-keyboard-response","256","851128","0.0-14.0-0.5","611cebb780fbae98c5bcc84d","650c16f0f2faf8d7a0d14c09","651c1b00f2caf4c516718fbe","null","null","<p style=""font-size: 60px; font-family: BACS"">JdGmJQA</p>","","","","","","","","",""
"html-keyboard-response","257","852135","0.0-14.0-0.6","611cebb780fbae98c5bcc84d","650c16f0f2faf8d7a0d14c09","651c1b00f2caf4c516718fbe","null","null","<p style=""font-size: 60px; font-family: BACS"">bRABtbAMO</p>","","","","","","","","",""
"html-keyboard-response","258","853151","0.0-14.0-0.7","611cebb780fbae98c5bcc84d","650c16f0f2faf8d7a0d14c09","651c1b00f2caf4c516718fbe","null","null","<p style=""font-size: 60px; font-family: BACS"">UJmrlLG</p>","","","","","","","","",""
"html-keyboard-response","259","854161","0.0-14.0-0.8","611cebb780fbae98c5bcc84d","650c16f0f2faf8d7a0d14c09","651c1b00f2caf4c516718fbe","null","null","<p style=""font-size: 60px; font-family: BACS"">hbmAPMd</p>","","","","","","","","",""
"html-keyboard-response","260","855163","0.0-14.0-0.9","611cebb780fbae98c5bcc84d","650c16f0f2faf8d7a0d14c09","651c1b00f2caf4c516718fbe","null","null","<p style=""font-size: 60px; font-family: BACS"">JdGmJud</p>","","","","","","","","",""
"html-keyboard-response","261","856178","0.0-14.0-0.10","611cebb780fbae98c5bcc84d","650c16f0f2faf8d7a0d14c09","651c1b00f2caf4c516718fbe","null","null","<p style=""font-size: 60px; font-family: BACS"">udkmLcO</p>","","","","","","","","",""
"html-keyboard-response","262","857196","0.0-14.0-0.11","611cebb780fbae98c5bcc84d","650c16f0f2faf8d7a0d14c09","651c1b00f2caf4c516718fbe","null","null","<p style=""font-size: 60px; font-family: BACS"">AbKDPMd</p>","","","","","","","","",""
"html-keyboard-response","263","858211","0.0-14.0-0.12","611cebb780fbae98c5bcc84d","650c16f0f2faf8d7a0d14c09","651c1b00f2caf4c516718fbe","null","null","<p style=""font-size: 60px; font-family: BACS"">tmYhbAMO</p>","","","","","","","","",""
"html-keyboard-response","264","859214","0.0-14.0-0.13","611cebb780fbae98c5bcc84d","650c16f0f2faf8d7a0d14c09","651c1b00f2caf4c516718fbe","null","null","<p style=""font-size: 60px; font-family: BACS"">TCbDClRE</p>","","","","","","","","",""
"html-keyboard-response","265","860228","0.0-14.0-0.14","611cebb780fbae98c5bcc84d","650c16f0f2faf8d7a0d14c09","651c1b00f2caf4c516718fbe","null","null","<p style=""font-size: 60px; font-family: BACS"">tmYhYcM</p>","","","","","","","","",""
"html-keyboard-response","266","861237","0.0-14.0-0.15","611cebb780fbae98c5bcc84d","650c16f0f2faf8d7a0d14c09","651c1b00f2caf4c516718fbe","null","null","<p style=""font-size: 60px; font-family: BACS"">udkmlLG</p>","","","","","","","","",""
"html-keyboard-response","267","862252","0.0-14.0-0.16","611cebb780fbae98c5bcc84d","650c16f0f2faf8d7a0d14c09","651c1b00f2caf4c516718fbe","null","null","<p style=""font-size: 60px; font-family: BACS"">ZvalvGUa</p>","","","","","","","","",""
"html-keyboard-response","268","863265","0.0-14.0-0.17","611cebb780fbae98c5bcc84d","650c16f0f2faf8d7a0d14c09","651c1b00f2caf4c516718fbe","null","null","<p style=""font-size: 60px; font-family: BACS"">TCbDCYcM</p>","","","","","","","","",""
"html-keyboard-response","269","864279","0.0-14.0-0.18","611cebb780fbae98c5bcc84d","650c16f0f2faf8d7a0d14c09","651c1b00f2caf4c516718fbe","null","null","<p style=""font-size: 60px; font-family: BACS"">bRABtlRE</p>","","","","","","","","",""
"html-keyboard-response","270","865284","0.0-14.0-0.19","611cebb780fbae98c5bcc84d","650c16f0f2faf8d7a0d14c09","651c1b00f2caf4c516718fbe","null","null","<p style=""font-size: 60px; font-family: BACS"">JdGmlLG</p>","","","","","","","","",""
"html-keyboard-response","271","866293","0.0-14.0-0.20","611cebb780fbae98c5bcc84d","650c16f0f2faf8d7a0d14c09","651c1b00f2caf4c516718fbe","null","null","<p style=""font-size: 60px; font-family: BACS"">tmYhkBD</p>","","","","","","","","",""
"html-keyboard-response","272","867297","0.0-14.0-0.21","611cebb780fbae98c5bcc84d","650c16f0f2faf8d7a0d14c09","651c1b00f2caf4c516718fbe","null","null","<p style=""font-size: 60px; font-family: BACS"">bRABtPMd</p>","","","","","","","","",""
"html-keyboard-response","273","868312","0.0-14.0-0.22","611cebb780fbae98c5bcc84d","650c16f0f2faf8d7a0d14c09","651c1b00f2caf4c516718fbe","null","null","<p style=""font-size: 60px; font-family: BACS"">PcBTkBD</p>","","","","","","","","",""
"html-keyboard-response","274","869320","0.0-14.0-0.23","611cebb780fbae98c5bcc84d","650c16f0f2faf8d7a0d14c09","651c1b00f2caf4c516718fbe","null","null","<p style=""font-size: 60px; font-family: BACS"">aUZAJQA</p>","","","","","","","","",""
"html-keyboard-response","275","870335","0.0-14.0-0.24","611cebb780fbae98c5bcc84d","650c16f0f2faf8d7a0d14c09","651c1b00f2caf4c516718fbe","null","null","<p style=""font-size: 60px; font-family: BACS"">krGuJud</p>","","","","","","","","",""
"html-keyboard-response","276","871351","0.0-14.0-0.25","611cebb780fbae98c5bcc84d","650c16f0f2faf8d7a0d14c09","651c1b00f2caf4c516718fbe","null","null","<p style=""font-size: 60px; font-family: BACS"">AbKDbAMO</p>","","","","","","","","",""
"html-keyboard-response","277","872362","0.0-14.0-0.26","611cebb780fbae98c5bcc84d","650c16f0f2faf8d7a0d14c09","651c1b00f2caf4c516718fbe","null","null","<p style=""font-size: 60px; font-family: BACS"">aYaNJQA</p>","","","","","","","","",""
"html-keyboard-response","278","873378","0.0-14.0-0.27","611cebb780fbae98c5bcc84d","650c16f0f2faf8d7a0d14c09","651c1b00f2caf4c516718fbe","null","null","<p style=""font-size: 60px; font-family: BACS"">muYNGUa</p>","","","","","","","","",""
"html-keyboard-response","279","874386","0.0-14.0-0.28","611cebb780fbae98c5bcc84d","650c16f0f2faf8d7a0d14c09","651c1b00f2caf4c516718fbe","null","null","<p style=""font-size: 60px; font-family: BACS"">PcBTYcM</p>","","","","","","","","",""
"html-keyboard-response","280","875396","0.0-14.0-0.29","611cebb780fbae98c5bcc84d","650c16f0f2faf8d7a0d14c09","651c1b00f2caf4c516718fbe","null","null","<p style=""font-size: 60px; font-family: BACS"">kcdOtbAMO</p>","","","","","","","","",""
"html-keyboard-response","281","876410","0.0-14.0-0.30","611cebb780fbae98c5bcc84d","650c16f0f2faf8d7a0d14c09","651c1b00f2caf4c516718fbe","null","null","<p style=""font-size: 60px; font-family: BACS"">krGuJQA</p>","","","","","","","","",""
"html-keyboard-response","282","877419","0.0-14.0-0.31","611cebb780fbae98c5bcc84d","650c16f0f2faf8d7a0d14c09","651c1b00f2caf4c516718fbe","null","null","<p style=""font-size: 60px; font-family: BACS"">muYNlLG</p>","","","","","","","","",""
"html-keyboard-response","283","878435","0.0-14.0-0.32","611cebb780fbae98c5bcc84d","650c16f0f2faf8d7a0d14c09","651c1b00f2caf4c516718fbe","null","null","<p style=""font-size: 60px; font-family: BACS"">OcYMbAMO</p>","","","","","","","","",""
"html-keyboard-response","284","879444","0.0-14.0-0.33","611cebb780fbae98c5bcc84d","650c16f0f2faf8d7a0d14c09","651c1b00f2caf4c516718fbe","null","null","<p style=""font-size: 60px; font-family: BACS"">aYaNJud</p>","","","","","","","","",""
"html-keyboard-response","285","880448","0.0-14.0-0.34","611cebb780fbae98c5bcc84d","650c16f0f2faf8d7a0d14c09","651c1b00f2caf4c516718fbe","null","null","<p style=""font-size: 60px; font-family: BACS"">hbmAkBD</p>","","","","","","","","",""
"html-keyboard-response","286","881464","0.0-14.0-0.35","611cebb780fbae98c5bcc84d","650c16f0f2faf8d7a0d14c09","651c1b00f2caf4c516718fbe","null","null","<p style=""font-size: 60px; font-family: BACS"">UYZlZlLG</p>","","","","","","","","",""
"html-keyboard-response","287","882467","0.0-14.0-0.36","611cebb780fbae98c5bcc84d","650c16f0f2faf8d7a0d14c09","651c1b00f2caf4c516718fbe","null","null","<p style=""font-size: 60px; font-family: BACS"">udkmJQA</p>","","","","","","","","",""
"html-keyboard-response","288","883483","0.0-14.0-0.37","611cebb780fbae98c5bcc84d","650c16f0f2faf8d7a0d14c09","651c1b00f2caf4c516718fbe","null","null","<p style=""font-size: 60px; font-family: BACS"">aUZAGUa</p>","","","","","","","","",""
"html-keyboard-response","289","884494","0.0-14.0-0.38","611cebb780fbae98c5bcc84d","650c16f0f2faf8d7a0d14c09","651c1b00f2caf4c516718fbe","null","null","<p style=""font-size: 60px; font-family: BACS"">krGuLcO</p>","","","","","","","","",""
"html-keyboard-response","290","885496","0.0-14.0-0.39","611cebb780fbae98c5bcc84d","650c16f0f2faf8d7a0d14c09","651c1b00f2caf4c516718fbe","null","null","<p style=""font-size: 60px; font-family: BACS"">kcdOtlRE</p>","","","","","","","","",""
"html-keyboard-response","291","886502","0.0-14.0-0.40","611cebb780fbae98c5bcc84d","650c16f0f2faf8d7a0d14c09","651c1b00f2caf4c516718fbe","null","null","<p style=""font-size: 60px; font-family: BACS"">aYaNGUa</p>","","","","","","","","",""
"html-keyboard-response","292","887510","0.0-14.0-0.41","611cebb780fbae98c5bcc84d","650c16f0f2faf8d7a0d14c09","651c1b00f2caf4c516718fbe","null","null","<p style=""font-size: 60px; font-family: BACS"">LGkAlLG</p>","","","","","","","","",""
"html-keyboard-response","293","888517","0.0-14.0-0.42","611cebb780fbae98c5bcc84d","650c16f0f2faf8d7a0d14c09","651c1b00f2caf4c516718fbe","null","null","<p style=""font-size: 60px; font-family: BACS"">cBROBPMd</p>","","","","","","","","",""
"html-keyboard-response","294","889528","0.0-14.0-0.43","611cebb780fbae98c5bcc84d","650c16f0f2faf8d7a0d14c09","651c1b00f2caf4c516718fbe","null","null","<p style=""font-size: 60px; font-family: BACS"">AbKDlRE</p>","","","","","","","","",""
"html-keyboard-response","295","890543","0.0-14.0-0.44","611cebb780fbae98c5bcc84d","650c16f0f2faf8d7a0d14c09","651c1b00f2caf4c516718fbe","null","null","<p style=""font-size: 60px; font-family: BACS"">UJmrJud</p>","","","","","","","","",""
"html-keyboard-response","296","891550","0.0-14.0-0.45","611cebb780fbae98c5bcc84d","650c16f0f2faf8d7a0d14c09","651c1b00f2caf4c516718fbe","null","null","<p style=""font-size: 60px; font-family: BACS"">JdGmLcO</p>","","","","","","","","",""
"html-keyboard-response","297","892566","0.0-14.0-0.46","611cebb780fbae98c5bcc84d","650c16f0f2faf8d7a0d14c09","651c1b00f2caf4c516718fbe","null","null","<p style=""font-size: 60px; font-family: BACS"">kcdOtkBD</p>","","","","","","","","",""
"html-keyboard-response","298","893583","0.0-14.0-0.47","611cebb780fbae98c5bcc84d","650c16f0f2faf8d7a0d14c09","651c1b00f2caf4c516718fbe","null","null","<p style=""font-size: 60px; font-family: BACS"">ZvalvJud</p>","","","","","","","","",""
"html-keyboard-response","299","894600","0.0-14.0-0.48","611cebb780fbae98c5bcc84d","650c16f0f2faf8d7a0d14c09","651c1b00f2caf4c516718fbe","null","null","<p style=""font-size: 60px; font-family: BACS"">OcYMlRE</p>","","","","","","","","",""
"html-keyboard-response","300","895616","0.0-14.0-0.49","611cebb780fbae98c5bcc84d","650c16f0f2faf8d7a0d14c09","651c1b00f2caf4c516718fbe","null","null","<p style=""font-size: 60px; font-family: BACS"">aYaNLcO</p>","","","","","","","","",""
"html-keyboard-response","301","896632","0.0-14.0-0.50","611cebb780fbae98c5bcc84d","650c16f0f2faf8d7a0d14c09","651c1b00f2caf4c516718fbe","null","null","<p style=""font-size: 60px; font-family: BACS"">aUZAJud</p>","","","","","","","","",""
"html-keyboard-response","302","897634","0.0-14.0-0.51","611cebb780fbae98c5bcc84d","650c16f0f2faf8d7a0d14c09","651c1b00f2caf4c516718fbe","null","null","<p style=""font-size: 60px; font-family: BACS"">AbKDYcM</p>","","","","","","","","",""
"html-keyboard-response","303","898635","0.0-14.0-0.52","611cebb780fbae98c5bcc84d","650c16f0f2faf8d7a0d14c09","651c1b00f2caf4c516718fbe","null","null","<p style=""font-size: 60px; font-family: BACS"">UYZlZLcO</p>","","","","","","","","",""
"html-keyboard-response","304","899650","0.0-14.0-0.53","611cebb780fbae98c5bcc84d","650c16f0f2faf8d7a0d14c09","651c1b00f2caf4c516718fbe","null","null","<p style=""font-size: 60px; font-family: BACS"">PcBTlRE</p>","","","","","","","","",""
"html-keyboard-response","305","900666","0.0-14.0-0.54","611cebb780fbae98c5bcc84d","650c16f0f2faf8d7a0d14c09","651c1b00f2caf4c516718fbe","null","null","<p style=""font-size: 60px; font-family: BACS"">hbmAYcM</p>","","","","","","","","",""
"html-keyboard-response","306","901682","0.0-14.0-0.55","611cebb780fbae98c5bcc84d","650c16f0f2faf8d7a0d14c09","651c1b00f2caf4c516718fbe","null","null","<p style=""font-size: 60px; font-family: BACS"">LGkAJud</p>","","","","","","","","",""
"html-keyboard-response","307","902683","0.0-14.0-0.56","611cebb780fbae98c5bcc84d","650c16f0f2faf8d7a0d14c09","651c1b00f2caf4c516718fbe","null","null","<p style=""font-size: 60px; font-family: BACS"">cBROBYcM</p>","","","","","","","","",""
"html-keyboard-response","308","903699","0.0-14.0-0.57","611cebb780fbae98c5bcc84d","650c16f0f2faf8d7a0d14c09","651c1b00f2caf4c516718fbe","null","null","<p style=""font-size: 60px; font-family: BACS"">UJmrLcO</p>","","","","","","","","",""
"html-keyboard-response","309","904716","0.0-14.0-0.58","611cebb780fbae98c5bcc84d","650c16f0f2faf8d7a0d14c09","651c1b00f2caf4c516718fbe","null","null","<p style=""font-size: 60px; font-family: BACS"">hbmAlRE</p>","","","","","","","","",""
"html-keyboard-response","310","905732","0.0-14.0-0.59","611cebb780fbae98c5bcc84d","650c16f0f2faf8d7a0d14c09","651c1b00f2caf4c516718fbe","null","null","<p style=""font-size: 60px; font-family: BACS"">muYNJud</p>","","","","","","","","",""
"html-keyboard-response","311","906749","0.0-14.0-0.60","611cebb780fbae98c5bcc84d","650c16f0f2faf8d7a0d14c09","651c1b00f2caf4c516718fbe","null","null","<p style=""font-size: 60px; font-family: BACS"">LGkAGUa</p>","","","","","","","","",""
"html-keyboard-response","312","907765","0.0-14.0-0.61","611cebb780fbae98c5bcc84d","650c16f0f2faf8d7a0d14c09","651c1b00f2caf4c516718fbe","null","null","<p style=""font-size: 60px; font-family: BACS"">ZvalvJQA</p>","","","","","","","","",""
"html-keyboard-response","313","908766","0.0-14.0-0.62","611cebb780fbae98c5bcc84d","650c16f0f2faf8d7a0d14c09","651c1b00f2caf4c516718fbe","null","null","<p style=""font-size: 60px; font-family: BACS"">cBROBbAMO</p>","","","","","","","","",""
"html-keyboard-response","314","909782","0.0-14.0-0.63","611cebb780fbae98c5bcc84d","650c16f0f2faf8d7a0d14c09","651c1b00f2caf4c516718fbe","null","null","<p style=""font-size: 60px; font-family: BACS"">kcdOtPMd</p>","","","","","","","","",""
"html-keyboard-response","315","910783","0.0-14.0-0.64","611cebb780fbae98c5bcc84d","650c16f0f2faf8d7a0d14c09","651c1b00f2caf4c516718fbe","null","null","<p style=""font-size: 60px; font-family: BACS"">hbkdbAMO</p>","","","","","","","","",""
"html-keyboard-response","316","911793","0.0-14.0-0.65","611cebb780fbae98c5bcc84d","650c16f0f2faf8d7a0d14c09","651c1b00f2caf4c516718fbe","null","null","<p style=""font-size: 60px; font-family: BACS"">OcYMYcM</p>","","","","","","","","",""
"html-keyboard-response","317","912799","0.0-14.0-0.66","611cebb780fbae98c5bcc84d","650c16f0f2faf8d7a0d14c09","651c1b00f2caf4c516718fbe","null","null","<p style=""font-size: 60px; font-family: BACS"">LGkAJQA</p>","","","","","","","","",""
"html-keyboard-response","318","913815","0.0-14.0-0.67","611cebb780fbae98c5bcc84d","650c16f0f2faf8d7a0d14c09","651c1b00f2caf4c516718fbe","null","null","<p style=""font-size: 60px; font-family: BACS"">aUZALcO</p>","","","","","","","","",""
"html-keyboard-response","319","914816","0.0-14.0-0.68","611cebb780fbae98c5bcc84d","650c16f0f2faf8d7a0d14c09","651c1b00f2caf4c516718fbe","null","null","<p style=""font-size: 60px; font-family: BACS"">OcYMPMd</p>","","","","","","","","",""
"html-keyboard-response","320","915827","0.0-14.0-0.69","611cebb780fbae98c5bcc84d","650c16f0f2faf8d7a0d14c09","651c1b00f2caf4c516718fbe","null","null","<p style=""font-size: 60px; font-family: BACS"">hbkdYcM</p>","","","","","","","","",""
"html-keyboard-response","321","916833","0.0-14.0-0.70","611cebb780fbae98c5bcc84d","650c16f0f2faf8d7a0d14c09","651c1b00f2caf4c516718fbe","null","null","<p style=""font-size: 60px; font-family: BACS"">krGulLG</p>","","","","","","","","",""
"html-keyboard-response","322","917844","0.0-14.0-0.71","611cebb780fbae98c5bcc84d","650c16f0f2faf8d7a0d14c09","651c1b00f2caf4c516718fbe","null","null","<p style=""font-size: 60px; font-family: BACS"">hbkdkBD</p>","","","","","","","","",""
"html-keyboard-response","323","918859","0.0-14.0-0.72","611cebb780fbae98c5bcc84d","650c16f0f2faf8d7a0d14c09","651c1b00f2caf4c516718fbe","null","null","<p style=""font-size: 60px; font-family: BACS"">TCbDCbAMO</p>","","","","","","","","",""
"html-keyboard-response","324","919874","0.0-14.0-0.73","611cebb780fbae98c5bcc84d","650c16f0f2faf8d7a0d14c09","651c1b00f2caf4c516718fbe","null","null","<p style=""font-size: 60px; font-family: BACS"">tmYhlRE</p>","","","","","","","","",""
"html-keyboard-response","325","920881","0.0-14.0-0.74","611cebb780fbae98c5bcc84d","650c16f0f2faf8d7a0d14c09","651c1b00f2caf4c516718fbe","null","null","<p style=""font-size: 60px; font-family: BACS"">cBROBkBD</p>","","","","","","","","",""
"html-keyboard-response","326","921882","0.0-14.0-0.75","611cebb780fbae98c5bcc84d","650c16f0f2faf8d7a0d14c09","651c1b00f2caf4c516718fbe","null","null","<p style=""font-size: 60px; font-family: BACS"">muYNLcO</p>","","","","","","","","",""
"html-keyboard-response","327","922898","0.0-14.0-0.76","611cebb780fbae98c5bcc84d","650c16f0f2faf8d7a0d14c09","651c1b00f2caf4c516718fbe","null","null","<p style=""font-size: 60px; font-family: BACS"">UYZlZJQA</p>","","","","","","","","",""
"html-keyboard-response","328","923915","0.0-14.0-0.77","611cebb780fbae98c5bcc84d","650c16f0f2faf8d7a0d14c09","651c1b00f2caf4c516718fbe","null","null","<p style=""font-size: 60px; font-family: BACS"">PcBTPMd</p>","","","","","","","","",""
"html-keyboard-response","329","924931","0.0-14.0-0.78","611cebb780fbae98c5bcc84d","650c16f0f2faf8d7a0d14c09","651c1b00f2caf4c516718fbe","null","null","<p style=""font-size: 60px; font-family: BACS"">TCbDCkBD</p>","","","","","","","","",""
"html-keyboard-response","330","925932","0.0-14.0-0.79","611cebb780fbae98c5bcc84d","650c16f0f2faf8d7a0d14c09","651c1b00f2caf4c516718fbe","null","null","<p style=""font-size: 60px; font-family: BACS"">hbkdPMd</p>","","","","","","","","",""
"html-keyboard-response","331","961266","0.0-15.0","611cebb780fbae98c5bcc84d","650c16f0f2faf8d7a0d14c09","651c1b00f2caf4c516718fbe","35333"," ","<p>Great, you've seen the fourth block of words. You may now take a short break.</p>
      <p>Press the spacebar when you're ready to continue.</p>","","","","","","","","",""
"html-keyboard-response","332","962279","0.0-16.0-0.0","611cebb780fbae98c5bcc84d","650c16f0f2faf8d7a0d14c09","651c1b00f2caf4c516718fbe","null","null","<p style=""font-size: 60px; font-family: BACS"">hbmAPMd</p>","","","","","","","","",""
"html-keyboard-response","333","963296","0.0-16.0-0.1","611cebb780fbae98c5bcc84d","650c16f0f2faf8d7a0d14c09","651c1b00f2caf4c516718fbe","null","null","<p style=""font-size: 60px; font-family: BACS"">hbmAPMd</p>","","","","","","","","",""
"html-keyboard-response","334","964313","0.0-16.0-0.2","611cebb780fbae98c5bcc84d","650c16f0f2faf8d7a0d14c09","651c1b00f2caf4c516718fbe","null","null","<p style=""font-size: 60px; font-family: BACS"">hbmAPMd</p>","","","","","","","","",""
"html-keyboard-response","335","965314","0.0-16.0-0.3","611cebb780fbae98c5bcc84d","650c16f0f2faf8d7a0d14c09","651c1b00f2caf4c516718fbe","null","null","<p style=""font-size: 60px; font-family: BACS"">hbmAPMd</p>","","","","","","","","",""
"html-keyboard-response","336","966325","0.0-16.0-0.4","611cebb780fbae98c5bcc84d","650c16f0f2faf8d7a0d14c09","651c1b00f2caf4c516718fbe","null","null","<p style=""font-size: 60px; font-family: BACS"">hbmAPMd</p>","","","","","","","","",""
"html-keyboard-response","337","967340","0.0-16.0-0.5","611cebb780fbae98c5bcc84d","650c16f0f2faf8d7a0d14c09","651c1b00f2caf4c516718fbe","null","null","<p style=""font-size: 60px; font-family: BACS"">hbmAPMd</p>","","","","","","","","",""
"html-keyboard-response","338","968356","0.0-16.0-0.6","611cebb780fbae98c5bcc84d","650c16f0f2faf8d7a0d14c09","651c1b00f2caf4c516718fbe","null","null","<p style=""font-size: 60px; font-family: BACS"">hbmAPMd</p>","","","","","","","","",""
"html-keyboard-response","339","969360","0.0-16.0-0.7","611cebb780fbae98c5bcc84d","650c16f0f2faf8d7a0d14c09","651c1b00f2caf4c516718fbe","null","null","<p style=""font-size: 60px; font-family: BACS"">hbmAPMd</p>","","","","","","","","",""
"html-keyboard-response","340","970365","0.0-16.0-0.8","611cebb780fbae98c5bcc84d","650c16f0f2faf8d7a0d14c09","651c1b00f2caf4c516718fbe","null","null","<p style=""font-size: 60px; font-family: BACS"">hbmAPMd</p>","","","","","","","","",""
"html-keyboard-response","341","971373","0.0-16.0-0.9","611cebb780fbae98c5bcc84d","650c16f0f2faf8d7a0d14c09","651c1b00f2caf4c516718fbe","null","null","<p style=""font-size: 60px; font-family: BACS"">hbmAPMd</p>","","","","","","","","",""
"html-keyboard-response","342","972381","0.0-16.0-0.10","611cebb780fbae98c5bcc84d","650c16f0f2faf8d7a0d14c09","651c1b00f2caf4c516718fbe","null","null","<p style=""font-size: 60px; font-family: BACS"">hbmAPMd</p>","","","","","","","","",""
"html-keyboard-response","343","973390","0.0-16.0-0.11","611cebb780fbae98c5bcc84d","650c16f0f2faf8d7a0d14c09","651c1b00f2caf4c516718fbe","null","null","<p style=""font-size: 60px; font-family: BACS"">hbmAPMd</p>","","","","","","","","",""
"html-keyboard-response","344","974392","0.0-16.0-0.12","611cebb780fbae98c5bcc84d","650c16f0f2faf8d7a0d14c09","651c1b00f2caf4c516718fbe","null","null","<p style=""font-size: 60px; font-family: BACS"">hbmAPMd</p>","","","","","","","","",""
"html-keyboard-response","345","975406","0.0-16.0-0.13","611cebb780fbae98c5bcc84d","650c16f0f2faf8d7a0d14c09","651c1b00f2caf4c516718fbe","null","null","<p style=""font-size: 60px; font-family: BACS"">hbmAPMd</p>","","","","","","","","",""
"html-keyboard-response","346","976409","0.0-16.0-0.14","611cebb780fbae98c5bcc84d","650c16f0f2faf8d7a0d14c09","651c1b00f2caf4c516718fbe","null","null","<p style=""font-size: 60px; font-family: BACS"">hbmAPMd</p>","","","","","","","","",""
"html-keyboard-response","347","977423","0.0-16.0-0.15","611cebb780fbae98c5bcc84d","650c16f0f2faf8d7a0d14c09","651c1b00f2caf4c516718fbe","null","null","<p style=""font-size: 60px; font-family: BACS"">hbmAPMd</p>","","","","","","","","",""
"html-keyboard-response","348","978430","0.0-16.0-0.16","611cebb780fbae98c5bcc84d","650c16f0f2faf8d7a0d14c09","651c1b00f2caf4c516718fbe","null","null","<p style=""font-size: 60px; font-family: BACS"">hbmAPMd</p>","","","","","","","","",""
"html-keyboard-response","349","979441","0.0-16.0-0.17","611cebb780fbae98c5bcc84d","650c16f0f2faf8d7a0d14c09","651c1b00f2caf4c516718fbe","null","null","<p style=""font-size: 60px; font-family: BACS"">hbmAPMd</p>","","","","","","","","",""
"html-keyboard-response","350","980452","0.0-16.0-0.18","611cebb780fbae98c5bcc84d","650c16f0f2faf8d7a0d14c09","651c1b00f2caf4c516718fbe","null","null","<p style=""font-size: 60px; font-family: BACS"">hbmAPMd</p>","","","","","","","","",""
"html-keyboard-response","351","981461","0.0-16.0-0.19","611cebb780fbae98c5bcc84d","650c16f0f2faf8d7a0d14c09","651c1b00f2caf4c516718fbe","null","null","<p style=""font-size: 60px; font-family: BACS"">hbmAPMd</p>","","","","","","","","",""
"html-keyboard-response","352","982465","0.0-16.0-0.20","611cebb780fbae98c5bcc84d","650c16f0f2faf8d7a0d14c09","651c1b00f2caf4c516718fbe","null","null","<p style=""font-size: 60px; font-family: BACS"">hbmAPMd</p>","","","","","","","","",""
"html-keyboard-response","353","983479","0.0-16.0-0.21","611cebb780fbae98c5bcc84d","650c16f0f2faf8d7a0d14c09","651c1b00f2caf4c516718fbe","null","null","<p style=""font-size: 60px; font-family: BACS"">hbmAPMd</p>","","","","","","","","",""
"html-keyboard-response","354","984487","0.0-16.0-0.22","611cebb780fbae98c5bcc84d","650c16f0f2faf8d7a0d14c09","651c1b00f2caf4c516718fbe","null","null","<p style=""font-size: 60px; font-family: BACS"">hbmAPMd</p>","","","","","","","","",""
"html-keyboard-response","355","985494","0.0-16.0-0.23","611cebb780fbae98c5bcc84d","650c16f0f2faf8d7a0d14c09","651c1b00f2caf4c516718fbe","null","null","<p style=""font-size: 60px; font-family: BACS"">hbmAPMd</p>","","","","","","","","",""
"html-keyboard-response","356","986505","0.0-16.0-0.24","611cebb780fbae98c5bcc84d","650c16f0f2faf8d7a0d14c09","651c1b00f2caf4c516718fbe","null","null","<p style=""font-size: 60px; font-family: BACS"">hbmAPMd</p>","","","","","","","","",""
"html-keyboard-response","357","987512","0.0-16.0-0.25","611cebb780fbae98c5bcc84d","650c16f0f2faf8d7a0d14c09","651c1b00f2caf4c516718fbe","null","null","<p style=""font-size: 60px; font-family: BACS"">hbmAPMd</p>","","","","","","","","",""
"html-keyboard-response","358","988530","0.0-16.0-0.26","611cebb780fbae98c5bcc84d","650c16f0f2faf8d7a0d14c09","651c1b00f2caf4c516718fbe","null","null","<p style=""font-size: 60px; font-family: BACS"">hbmAPMd</p>","","","","","","","","",""
"html-keyboard-response","359","989539","0.0-16.0-0.27","611cebb780fbae98c5bcc84d","650c16f0f2faf8d7a0d14c09","651c1b00f2caf4c516718fbe","null","null","<p style=""font-size: 60px; font-family: BACS"">hbmAPMd</p>","","","","","","","","",""
"html-keyboard-response","360","990546","0.0-16.0-0.28","611cebb780fbae98c5bcc84d","650c16f0f2faf8d7a0d14c09","651c1b00f2caf4c516718fbe","null","null","<p style=""font-size: 60px; font-family: BACS"">hbmAPMd</p>","","","","","","","","",""
"html-keyboard-response","361","991563","0.0-16.0-0.29","611cebb780fbae98c5bcc84d","650c16f0f2faf8d7a0d14c09","651c1b00f2caf4c516718fbe","null","null","<p style=""font-size: 60px; font-family: BACS"">hbmAPMd</p>","","","","","","","","",""
"html-keyboard-response","362","992577","0.0-16.0-0.30","611cebb780fbae98c5bcc84d","650c16f0f2faf8d7a0d14c09","651c1b00f2caf4c516718fbe","null","null","<p style=""font-size: 60px; font-family: BACS"">hbmAPMd</p>","","","","","","","","",""
"html-keyboard-response","363","993594","0.0-16.0-0.31","611cebb780fbae98c5bcc84d","650c16f0f2faf8d7a0d14c09","651c1b00f2caf4c516718fbe","null","null","<p style=""font-size: 60px; font-family: BACS"">hbmAPMd</p>","","","","","","","","",""
"html-keyboard-response","364","994611","0.0-16.0-0.32","611cebb780fbae98c5bcc84d","650c16f0f2faf8d7a0d14c09","651c1b00f2caf4c516718fbe","null","null","<p style=""font-size: 60px; font-family: BACS"">hbmAPMd</p>","","","","","","","","",""
"html-keyboard-response","365","995625","0.0-16.0-0.33","611cebb780fbae98c5bcc84d","650c16f0f2faf8d7a0d14c09","651c1b00f2caf4c516718fbe","null","null","<p style=""font-size: 60px; font-family: BACS"">hbmAPMd</p>","","","","","","","","",""
"html-keyboard-response","366","996638","0.0-16.0-0.34","611cebb780fbae98c5bcc84d","650c16f0f2faf8d7a0d14c09","651c1b00f2caf4c516718fbe","null","null","<p style=""font-size: 60px; font-family: BACS"">hbmAPMd</p>","","","","","","","","",""
"html-keyboard-response","367","997655","0.0-16.0-0.35","611cebb780fbae98c5bcc84d","650c16f0f2faf8d7a0d14c09","651c1b00f2caf4c516718fbe","null","null","<p style=""font-size: 60px; font-family: BACS"">hbmAPMd</p>","","","","","","","","",""
"html-keyboard-response","368","998672","0.0-16.0-0.36","611cebb780fbae98c5bcc84d","650c16f0f2faf8d7a0d14c09","651c1b00f2caf4c516718fbe","null","null","<p style=""font-size: 60px; font-family: BACS"">hbmAPMd</p>","","","","","","","","",""
"html-keyboard-response","369","999674","0.0-16.0-0.37","611cebb780fbae98c5bcc84d","650c16f0f2faf8d7a0d14c09","651c1b00f2caf4c516718fbe","null","null","<p style=""font-size: 60px; font-family: BACS"">hbmAPMd</p>","","","","","","","","",""
"html-keyboard-response","370","1000680","0.0-16.0-0.38","611cebb780fbae98c5bcc84d","650c16f0f2faf8d7a0d14c09","651c1b00f2caf4c516718fbe","null","null","<p style=""font-size: 60px; font-family: BACS"">hbmAPMd</p>","","","","","","","","",""
"html-keyboard-response","371","1001696","0.0-16.0-0.39","611cebb780fbae98c5bcc84d","650c16f0f2faf8d7a0d14c09","651c1b00f2caf4c516718fbe","null","null","<p style=""font-size: 60px; font-family: BACS"">hbmAPMd</p>","","","","","","","","",""
"html-keyboard-response","372","1002705","0.0-16.0-0.40","611cebb780fbae98c5bcc84d","650c16f0f2faf8d7a0d14c09","651c1b00f2caf4c516718fbe","null","null","<p style=""font-size: 60px; font-family: BACS"">hbmAPMd</p>","","","","","","","","",""
"html-keyboard-response","373","1003707","0.0-16.0-0.41","611cebb780fbae98c5bcc84d","650c16f0f2faf8d7a0d14c09","651c1b00f2caf4c516718fbe","null","null","<p style=""font-size: 60px; font-family: BACS"">hbmAPMd</p>","","","","","","","","",""
"html-keyboard-response","374","1004720","0.0-16.0-0.42","611cebb780fbae98c5bcc84d","650c16f0f2faf8d7a0d14c09","651c1b00f2caf4c516718fbe","null","null","<p style=""font-size: 60px; font-family: BACS"">hbmAPMd</p>","","","","","","","","",""
"html-keyboard-response","375","1005737","0.0-16.0-0.43","611cebb780fbae98c5bcc84d","650c16f0f2faf8d7a0d14c09","651c1b00f2caf4c516718fbe","null","null","<p style=""font-size: 60px; font-family: BACS"">hbmAPMd</p>","","","","","","","","",""
"html-keyboard-response","376","1006754","0.0-16.0-0.44","611cebb780fbae98c5bcc84d","650c16f0f2faf8d7a0d14c09","651c1b00f2caf4c516718fbe","null","null","<p style=""font-size: 60px; font-family: BACS"">hbmAPMd</p>","","","","","","","","",""
"html-keyboard-response","377","1007763","0.0-16.0-0.45","611cebb780fbae98c5bcc84d","650c16f0f2faf8d7a0d14c09","651c1b00f2caf4c516718fbe","null","null","<p style=""font-size: 60px; font-family: BACS"">hbmAPMd</p>","","","","","","","","",""
"html-keyboard-response","378","1008771","0.0-16.0-0.46","611cebb780fbae98c5bcc84d","650c16f0f2faf8d7a0d14c09","651c1b00f2caf4c516718fbe","null","null","<p style=""font-size: 60px; font-family: BACS"">hbmAPMd</p>","","","","","","","","",""
"html-keyboard-response","379","1009788","0.0-16.0-0.47","611cebb780fbae98c5bcc84d","650c16f0f2faf8d7a0d14c09","651c1b00f2caf4c516718fbe","null","null","<p style=""font-size: 60px; font-family: BACS"">hbmAPMd</p>","","","","","","","","",""
"html-keyboard-response","380","1010790","0.0-16.0-0.48","611cebb780fbae98c5bcc84d","650c16f0f2faf8d7a0d14c09","651c1b00f2caf4c516718fbe","null","null","<p style=""font-size: 60px; font-family: BACS"">hbmAPMd</p>","","","","","","","","",""
"html-keyboard-response","381","1011804","0.0-16.0-0.49","611cebb780fbae98c5bcc84d","650c16f0f2faf8d7a0d14c09","651c1b00f2caf4c516718fbe","null","null","<p style=""font-size: 60px; font-family: BACS"">hbmAPMd</p>","","","","","","","","",""
"html-keyboard-response","382","1012820","0.0-16.0-0.50","611cebb780fbae98c5bcc84d","650c16f0f2faf8d7a0d14c09","651c1b00f2caf4c516718fbe","null","null","<p style=""font-size: 60px; font-family: BACS"">hbmAPMd</p>","","","","","","","","",""
"html-keyboard-response","383","1013838","0.0-16.0-0.51","611cebb780fbae98c5bcc84d","650c16f0f2faf8d7a0d14c09","651c1b00f2caf4c516718fbe","null","null","<p style=""font-size: 60px; font-family: BACS"">hbmAPMd</p>","","","","","","","","",""
"html-keyboard-response","384","1014854","0.0-16.0-0.52","611cebb780fbae98c5bcc84d","650c16f0f2faf8d7a0d14c09","651c1b00f2caf4c516718fbe","null","null","<p style=""font-size: 60px; font-family: BACS"">hbmAPMd</p>","","","","","","","","",""
"html-keyboard-response","385","1015862","0.0-16.0-0.53","611cebb780fbae98c5bcc84d","650c16f0f2faf8d7a0d14c09","651c1b00f2caf4c516718fbe","null","null","<p style=""font-size: 60px; font-family: BACS"">hbmAPMd</p>","","","","","","","","",""
"html-keyboard-response","386","1016871","0.0-16.0-0.54","611cebb780fbae98c5bcc84d","650c16f0f2faf8d7a0d14c09","651c1b00f2caf4c516718fbe","null","null","<p style=""font-size: 60px; font-family: BACS"">hbmAPMd</p>","","","","","","","","",""
"html-keyboard-response","387","1017878","0.0-16.0-0.55","611cebb780fbae98c5bcc84d","650c16f0f2faf8d7a0d14c09","651c1b00f2caf4c516718fbe","null","null","<p style=""font-size: 60px; font-family: BACS"">hbmAPMd</p>","","","","","","","","",""
"html-keyboard-response","388","1018887","0.0-16.0-0.56","611cebb780fbae98c5bcc84d","650c16f0f2faf8d7a0d14c09","651c1b00f2caf4c516718fbe","null","null","<p style=""font-size: 60px; font-family: BACS"">hbmAPMd</p>","","","","","","","","",""
"html-keyboard-response","389","1019904","0.0-16.0-0.57","611cebb780fbae98c5bcc84d","650c16f0f2faf8d7a0d14c09","651c1b00f2caf4c516718fbe","null","null","<p style=""font-size: 60px; font-family: BACS"">hbmAPMd</p>","","","","","","","","",""
"html-keyboard-response","390","1020922","0.0-16.0-0.58","611cebb780fbae98c5bcc84d","650c16f0f2faf8d7a0d14c09","651c1b00f2caf4c516718fbe","null","null","<p style=""font-size: 60px; font-family: BACS"">hbmAPMd</p>","","","","","","","","",""
"html-keyboard-response","391","1021937","0.0-16.0-0.59","611cebb780fbae98c5bcc84d","650c16f0f2faf8d7a0d14c09","651c1b00f2caf4c516718fbe","null","null","<p style=""font-size: 60px; font-family: BACS"">hbmAPMd</p>","","","","","","","","",""
"html-keyboard-response","392","1022954","0.0-16.0-0.60","611cebb780fbae98c5bcc84d","650c16f0f2faf8d7a0d14c09","651c1b00f2caf4c516718fbe","null","null","<p style=""font-size: 60px; font-family: BACS"">hbmAPMd</p>","","","","","","","","",""
"html-keyboard-response","393","1023970","0.0-16.0-0.61","611cebb780fbae98c5bcc84d","650c16f0f2faf8d7a0d14c09","651c1b00f2caf4c516718fbe","null","null","<p style=""font-size: 60px; font-family: BACS"">hbmAPMd</p>","","","","","","","","",""
"html-keyboard-response","394","1024977","0.0-16.0-0.62","611cebb780fbae98c5bcc84d","650c16f0f2faf8d7a0d14c09","651c1b00f2caf4c516718fbe","null","null","<p style=""font-size: 60px; font-family: BACS"">hbmAPMd</p>","","","","","","","","",""
"html-keyboard-response","395","1025987","0.0-16.0-0.63","611cebb780fbae98c5bcc84d","650c16f0f2faf8d7a0d14c09","651c1b00f2caf4c516718fbe","null","null","<p style=""font-size: 60px; font-family: BACS"">hbmAPMd</p>","","","","","","","","",""
"html-keyboard-response","396","1027003","0.0-16.0-0.64","611cebb780fbae98c5bcc84d","650c16f0f2faf8d7a0d14c09","651c1b00f2caf4c516718fbe","null","null","<p style=""font-size: 60px; font-family: BACS"">hbmAPMd</p>","","","","","","","","",""
"html-keyboard-response","397","1028018","0.0-16.0-0.65","611cebb780fbae98c5bcc84d","650c16f0f2faf8d7a0d14c09","651c1b00f2caf4c516718fbe","null","null","<p style=""font-size: 60px; font-family: BACS"">hbmAPMd</p>","","","","","","","","",""
"html-keyboard-response","398","1029027","0.0-16.0-0.66","611cebb780fbae98c5bcc84d","650c16f0f2faf8d7a0d14c09","651c1b00f2caf4c516718fbe","null","null","<p style=""font-size: 60px; font-family: BACS"">hbmAPMd</p>","","","","","","","","",""
"html-keyboard-response","399","1030028","0.0-16.0-0.67","611cebb780fbae98c5bcc84d","650c16f0f2faf8d7a0d14c09","651c1b00f2caf4c516718fbe","null","null","<p style=""font-size: 60px; font-family: BACS"">hbmAPMd</p>","","","","","","","","",""
