"trial_type","trial_index","time_elapsed","internal_node_id","subject_id","study_id","session_id","rt","response","stimulus","success","item","task","correct_response","testing_condition","correct","target","confound","name"
"pavlovia","0","2624","0.0-0.0","613f57084e80f056c78f9b7b","650c16f0f2faf8d7a0d14c09","651c1d5151e108b4dc8ac0d9","","","","","","","","","","","",""
"survey-html-form","1","71321","0.0-1.0","613f57084e80f056c78f9b7b","650c16f0f2faf8d7a0d14c09","651c1d5151e108b4dc8ac0d9","68694","{""ID"":""613f57084e80f056c78f9b7b""}","","","","","","","","","",""
"html-keyboard-response","2","158140","0.0-2.0","613f57084e80f056c78f9b7b","650c16f0f2faf8d7a0d14c09","651c1d5151e108b4dc8ac0d9","86817"," ","<p style=""font-size: 15px;"">Before beginning, we ask that you read the consent information and confirm your agreement to participate in the experiment.</p>
      <p style=""font-size: 15px;""> We ask that you remember that this is a research project and that your participation is entirely voluntary. You can stop your participation at any time, without needing to provide any explanation. The study we're asking you to participate in aims at examining how readers process written words. You will be engaged in a session of apprximately 20 minutes, followed by a brief questionnaire. You will have the opportunity to take a few breaks during the experiment. You will be paid £4 for your participation, corresponding to a rate of £8/hour. While this experiment looks at cognitive faculties, this experiment doesn't constitute clinical proof of eventual pathologies.</p>
      <p style=""font-size: 15px;"">All of the information collected thanks to yours and others' participation will be held in a secure password-protected server, and will not be shared with anyone not authorised to view it. Your personal information will be kept with an arbitrary participant ID. Thanks to this data anonymity process, any researcher analysing the data won't be able to track the information back to a specific participant. Therefore, this process will make identifying you impossibile, even when results from the study will be published in scientific reviews, presented at congresses, or at any other public forum. More generally, the collected data will be treated in accordance with the laws on privacy and conformity to the Legislative Degree n. 196 ""Code regarding the protection of personal data"" of the 30th of June 2003 and to the European Regulation 2016/670 (General Data Protection Regulation - GDPR). The Data Protection Officer is Avv. Valentina Carollo, who can be contacted at the following email addresses: <a href=""mailto:dpo@sissa.it"">dpo@sissa.it</a> or <a href=""mailto:rpd@sissa.it"">rpd@sissa.it</a> - PEC: <a href=""mailto:protocollo@pec.sissa.it"">protocollo@pec.sissa.it</a>.</p>
      <p style=""font-size: 15px;""> Before expressing your consent to participate, we would like to remind you again that in case you need explanations on any aspect of the experimental procedure, the researcher is at your disposition (<a href=""mailto:aliebelt@sissa.it"">aliebelt@sissa.it</a>, <a href=""mailto:davide.crepaldi@sissa.it"">davide.crepaldi@sissa.it</a>).</p>
      <p style=""font-size: 15px;"">If you would like to download the informed consent form, you can do so here: <a href=""BASL-Informed_Consent.pdf"" download>informed consent form</a>.</p>
      <p style=""font-size: 15px;"">We ask that you press the spacebar to proceed to the consent section.</p>","","","","","","","","",""
"survey-html-form","3","180907","0.0-3.0","613f57084e80f056c78f9b7b","650c16f0f2faf8d7a0d14c09","651c1d5151e108b4dc8ac0d9","22766","{""consent1"":""YES"",""consent2"":""YES"",""consent3"":""YES"",""consent4"":""YES"",""consent5"":""YES"",""consent6"":""YES""}","","","","","","","","","",""
"fullscreen","4","189518","0.0-4.0","613f57084e80f056c78f9b7b","650c16f0f2faf8d7a0d14c09","651c1d5151e108b4dc8ac0d9","","","","true","","","","","","","",""
"html-keyboard-response","5","210148","0.0-5.0","613f57084e80f056c78f9b7b","650c16f0f2faf8d7a0d14c09","651c1d5151e108b4dc8ac0d9","20628"," ","<p>Welcome, and thank you very much for your time!</p>
      <p>In this experiment, you'll be a language expert who's been asked to take a look at words that Earth has received in its first communication with aliens. Your task, in this first part of the experiment, is to pay close attention to the words you'll be shown; later, world leaders will ask you questions on what you saw. The words will be shown to you quite quickly; it seems that the aliens were in a hurry :-)</p>
      <p>Press the spacebar to continue.<p>","","","","","","","","",""
"html-keyboard-response","6","210205","0.0-6.0","613f57084e80f056c78f9b7b","650c16f0f2faf8d7a0d14c09","651c1d5151e108b4dc8ac0d9","null","null","<p style=""font-size: 120px; font-family: BACS""> </p>","","","","","","","","",""
"html-keyboard-response","7","225110","0.0-7.0","613f57084e80f056c78f9b7b","650c16f0f2faf8d7a0d14c09","651c1d5151e108b4dc8ac0d9","14905"," ","<p>Here is an example of the words you'll see:</p>
      <img src='esempio.png' height='400px'>
      <p>When you're ready to begin, press the spacebar.</p></div>","","","","","","","","",""
"html-keyboard-response","8","226126","0.0-8.0-0.0","613f57084e80f056c78f9b7b","650c16f0f2faf8d7a0d14c09","651c1d5151e108b4dc8ac0d9","null","null","<p style=""font-size: 60px; font-family: BACS"">CtmbRCdc</p>","","","","","","","","",""
"html-keyboard-response","9","227135","0.0-8.0-0.1","613f57084e80f056c78f9b7b","650c16f0f2faf8d7a0d14c09","651c1d5151e108b4dc8ac0d9","null","null","<p style=""font-size: 60px; font-family: BACS"">tmAKTAm</p>","","","","","","","","",""
"html-keyboard-response","10","228142","0.0-8.0-0.2","613f57084e80f056c78f9b7b","650c16f0f2faf8d7a0d14c09","651c1d5151e108b4dc8ac0d9","null","null","<p style=""font-size: 60px; font-family: BACS"">Qcladravu</p>","","","","","","","","",""
"html-keyboard-response","11","229149","0.0-8.0-0.3","613f57084e80f056c78f9b7b","650c16f0f2faf8d7a0d14c09","651c1d5151e108b4dc8ac0d9","null","null","<p style=""font-size: 60px; font-family: BACS"">DCmhTAm</p>","","","","","","","","",""
"html-keyboard-response","12","230162","0.0-8.0-0.4","613f57084e80f056c78f9b7b","650c16f0f2faf8d7a0d14c09","651c1d5151e108b4dc8ac0d9","null","null","<p style=""font-size: 60px; font-family: BACS"">LuaUravu</p>","","","","","","","","",""
"html-keyboard-response","13","231176","0.0-8.0-0.5","613f57084e80f056c78f9b7b","650c16f0f2faf8d7a0d14c09","651c1d5151e108b4dc8ac0d9","null","null","<p style=""font-size: 60px; font-family: BACS"">BATOcCkbd</p>","","","","","","","","",""
"html-keyboard-response","14","232186","0.0-8.0-0.6","613f57084e80f056c78f9b7b","650c16f0f2faf8d7a0d14c09","651c1d5151e108b4dc8ac0d9","null","null","<p style=""font-size: 60px; font-family: BACS"">UdYUQYUYa</p>","","","","","","","","",""
"html-keyboard-response","15","233195","0.0-8.0-0.7","613f57084e80f056c78f9b7b","650c16f0f2faf8d7a0d14c09","651c1d5151e108b4dc8ac0d9","null","null","<p style=""font-size: 60px; font-family: BACS"">AbKDTAm</p>","","","","","","","","",""
"html-keyboard-response","16","234205","0.0-8.0-0.8","613f57084e80f056c78f9b7b","650c16f0f2faf8d7a0d14c09","651c1d5151e108b4dc8ac0d9","null","null","<p style=""font-size: 60px; font-family: BACS"">tmAKMKmY</p>","","","","","","","","",""
"html-keyboard-response","17","235222","0.0-8.0-0.9","613f57084e80f056c78f9b7b","650c16f0f2faf8d7a0d14c09","651c1d5151e108b4dc8ac0d9","null","null","<p style=""font-size: 60px; font-family: BACS"">UdYUQbadk</p>","","","","","","","","",""
"html-keyboard-response","18","236235","0.0-8.0-0.10","613f57084e80f056c78f9b7b","650c16f0f2faf8d7a0d14c09","651c1d5151e108b4dc8ac0d9","null","null","<p style=""font-size: 60px; font-family: BACS"">DCmhCkbd</p>","","","","","","","","",""
"html-keyboard-response","19","237244","0.0-8.0-0.11","613f57084e80f056c78f9b7b","650c16f0f2faf8d7a0d14c09","651c1d5151e108b4dc8ac0d9","null","null","<p style=""font-size: 60px; font-family: BACS"">KTDTBMKmY</p>","","","","","","","","",""
"html-keyboard-response","20","238253","0.0-8.0-0.12","613f57084e80f056c78f9b7b","650c16f0f2faf8d7a0d14c09","651c1d5151e108b4dc8ac0d9","null","null","<p style=""font-size: 60px; font-family: BACS"">DCmhRCdc</p>","","","","","","","","",""
"html-keyboard-response","21","239260","0.0-8.0-0.13","613f57084e80f056c78f9b7b","650c16f0f2faf8d7a0d14c09","651c1d5151e108b4dc8ac0d9","null","null","<p style=""font-size: 60px; font-family: BACS"">tmAKCPMl</p>","","","","","","","","",""
"html-keyboard-response","22","240273","0.0-8.0-0.14","613f57084e80f056c78f9b7b","650c16f0f2faf8d7a0d14c09","651c1d5151e108b4dc8ac0d9","null","null","<p style=""font-size: 60px; font-family: BACS"">krGuravu</p>","","","","","","","","",""
"html-keyboard-response","23","241281","0.0-8.0-0.15","613f57084e80f056c78f9b7b","650c16f0f2faf8d7a0d14c09","651c1d5151e108b4dc8ac0d9","null","null","<p style=""font-size: 60px; font-family: BACS"">UdYUQmLJ</p>","","","","","","","","",""
"html-keyboard-response","24","242295","0.0-8.0-0.16","613f57084e80f056c78f9b7b","650c16f0f2faf8d7a0d14c09","651c1d5151e108b4dc8ac0d9","null","null","<p style=""font-size: 60px; font-family: BACS"">Qcladbadk</p>","","","","","","","","",""
"html-keyboard-response","25","243303","0.0-8.0-0.17","613f57084e80f056c78f9b7b","650c16f0f2faf8d7a0d14c09","651c1d5151e108b4dc8ac0d9","null","null","<p style=""font-size: 60px; font-family: BACS"">KTDTBCPMl</p>","","","","","","","","",""
"html-keyboard-response","26","244311","0.0-8.0-0.18","613f57084e80f056c78f9b7b","650c16f0f2faf8d7a0d14c09","651c1d5151e108b4dc8ac0d9","null","null","<p style=""font-size: 60px; font-family: BACS"">BATOcRCdc</p>","","","","","","","","",""
"html-keyboard-response","27","245322","0.0-8.0-0.19","613f57084e80f056c78f9b7b","650c16f0f2faf8d7a0d14c09","651c1d5151e108b4dc8ac0d9","null","null","<p style=""font-size: 60px; font-family: BACS"">rcmuvravu</p>","","","","","","","","",""
"html-keyboard-response","28","246335","0.0-8.0-0.20","613f57084e80f056c78f9b7b","650c16f0f2faf8d7a0d14c09","651c1d5151e108b4dc8ac0d9","null","null","<p style=""font-size: 60px; font-family: BACS"">DBPhcCPMl</p>","","","","","","","","",""
"html-keyboard-response","29","247339","0.0-8.0-0.21","613f57084e80f056c78f9b7b","650c16f0f2faf8d7a0d14c09","651c1d5151e108b4dc8ac0d9","null","null","<p style=""font-size: 60px; font-family: BACS"">DRPkYMKmY</p>","","","","","","","","",""
"html-keyboard-response","30","248350","0.0-8.0-0.22","613f57084e80f056c78f9b7b","650c16f0f2faf8d7a0d14c09","651c1d5151e108b4dc8ac0d9","null","null","<p style=""font-size: 60px; font-family: BACS"">LuaUcrdY</p>","","","","","","","","",""
"html-keyboard-response","31","249357","0.0-8.0-0.23","613f57084e80f056c78f9b7b","650c16f0f2faf8d7a0d14c09","651c1d5151e108b4dc8ac0d9","null","null","<p style=""font-size: 60px; font-family: BACS"">AbKDCkbd</p>","","","","","","","","",""
"html-keyboard-response","32","250367","0.0-8.0-0.24","613f57084e80f056c78f9b7b","650c16f0f2faf8d7a0d14c09","651c1d5151e108b4dc8ac0d9","null","null","<p style=""font-size: 60px; font-family: BACS"">bYuQmLJ</p>","","","","","","","","",""
"html-keyboard-response","33","251377","0.0-8.0-0.25","613f57084e80f056c78f9b7b","650c16f0f2faf8d7a0d14c09","651c1d5151e108b4dc8ac0d9","null","null","<p style=""font-size: 60px; font-family: BACS"">UdYUQravu</p>","","","","","","","","",""
"html-keyboard-response","34","252384","0.0-8.0-0.26","613f57084e80f056c78f9b7b","650c16f0f2faf8d7a0d14c09","651c1d5151e108b4dc8ac0d9","null","null","<p style=""font-size: 60px; font-family: BACS"">kCRmRCdc</p>","","","","","","","","",""
"html-keyboard-response","35","253393","0.0-8.0-0.27","613f57084e80f056c78f9b7b","650c16f0f2faf8d7a0d14c09","651c1d5151e108b4dc8ac0d9","null","null","<p style=""font-size: 60px; font-family: BACS"">DRPkYCkbd</p>","","","","","","","","",""
"html-keyboard-response","36","254394","0.0-8.0-0.28","613f57084e80f056c78f9b7b","650c16f0f2faf8d7a0d14c09","651c1d5151e108b4dc8ac0d9","null","null","<p style=""font-size: 60px; font-family: BACS"">bYuQbadk</p>","","","","","","","","",""
"html-keyboard-response","37","255403","0.0-8.0-0.29","613f57084e80f056c78f9b7b","650c16f0f2faf8d7a0d14c09","651c1d5151e108b4dc8ac0d9","null","null","<p style=""font-size: 60px; font-family: BACS"">hlbtbCPMl</p>","","","","","","","","",""
"html-keyboard-response","38","256405","0.0-8.0-0.30","613f57084e80f056c78f9b7b","650c16f0f2faf8d7a0d14c09","651c1d5151e108b4dc8ac0d9","null","null","<p style=""font-size: 60px; font-family: BACS"">KTDTBTAm</p>","","","","","","","","",""
"html-keyboard-response","39","257410","0.0-8.0-0.31","613f57084e80f056c78f9b7b","650c16f0f2faf8d7a0d14c09","651c1d5151e108b4dc8ac0d9","null","null","<p style=""font-size: 60px; font-family: BACS"">hlbtbMKmY</p>","","","","","","","","",""
"html-keyboard-response","40","258420","0.0-8.0-0.32","613f57084e80f056c78f9b7b","650c16f0f2faf8d7a0d14c09","651c1d5151e108b4dc8ac0d9","null","null","<p style=""font-size: 60px; font-family: BACS"">LuaUmLJ</p>","","","","","","","","",""
"html-keyboard-response","41","259434","0.0-8.0-0.33","613f57084e80f056c78f9b7b","650c16f0f2faf8d7a0d14c09","651c1d5151e108b4dc8ac0d9","null","null","<p style=""font-size: 60px; font-family: BACS"">kCRmCkbd</p>","","","","","","","","",""
"html-keyboard-response","42","260448","0.0-8.0-0.34","613f57084e80f056c78f9b7b","650c16f0f2faf8d7a0d14c09","651c1d5151e108b4dc8ac0d9","null","null","<p style=""font-size: 60px; font-family: BACS"">krGuYUYa</p>","","","","","","","","",""
"html-keyboard-response","43","261464","0.0-8.0-0.35","613f57084e80f056c78f9b7b","650c16f0f2faf8d7a0d14c09","651c1d5151e108b4dc8ac0d9","null","null","<p style=""font-size: 60px; font-family: BACS"">lYruaravu</p>","","","","","","","","",""
"html-keyboard-response","44","262474","0.0-8.0-0.36","613f57084e80f056c78f9b7b","650c16f0f2faf8d7a0d14c09","651c1d5151e108b4dc8ac0d9","null","null","<p style=""font-size: 60px; font-family: BACS"">kCRmCPMl</p>","","","","","","","","",""
"html-keyboard-response","45","263485","0.0-8.0-0.37","613f57084e80f056c78f9b7b","650c16f0f2faf8d7a0d14c09","651c1d5151e108b4dc8ac0d9","null","null","<p style=""font-size: 60px; font-family: BACS"">Juamlbadk</p>","","","","","","","","",""
"html-keyboard-response","46","264497","0.0-8.0-0.38","613f57084e80f056c78f9b7b","650c16f0f2faf8d7a0d14c09","651c1d5151e108b4dc8ac0d9","null","null","<p style=""font-size: 60px; font-family: BACS"">DRPkYTAm</p>","","","","","","","","",""
"html-keyboard-response","47","265510","0.0-8.0-0.39","613f57084e80f056c78f9b7b","650c16f0f2faf8d7a0d14c09","651c1d5151e108b4dc8ac0d9","null","null","<p style=""font-size: 60px; font-family: BACS"">AZlLNmLJ</p>","","","","","","","","",""
"html-keyboard-response","48","266517","0.0-8.0-0.40","613f57084e80f056c78f9b7b","650c16f0f2faf8d7a0d14c09","651c1d5151e108b4dc8ac0d9","null","null","<p style=""font-size: 60px; font-family: BACS"">LuaUYUYa</p>","","","","","","","","",""
"html-keyboard-response","49","267532","0.0-8.0-0.41","613f57084e80f056c78f9b7b","650c16f0f2faf8d7a0d14c09","651c1d5151e108b4dc8ac0d9","null","null","<p style=""font-size: 60px; font-family: BACS"">DRPkYRCdc</p>","","","","","","","","",""
"html-keyboard-response","50","268544","0.0-8.0-0.42","613f57084e80f056c78f9b7b","650c16f0f2faf8d7a0d14c09","651c1d5151e108b4dc8ac0d9","null","null","<p style=""font-size: 60px; font-family: BACS"">AZlLNcrdY</p>","","","","","","","","",""
"html-keyboard-response","51","269556","0.0-8.0-0.43","613f57084e80f056c78f9b7b","650c16f0f2faf8d7a0d14c09","651c1d5151e108b4dc8ac0d9","null","null","<p style=""font-size: 60px; font-family: BACS"">CtmbCPMl</p>","","","","","","","","",""
"html-keyboard-response","52","270570","0.0-8.0-0.44","613f57084e80f056c78f9b7b","650c16f0f2faf8d7a0d14c09","651c1d5151e108b4dc8ac0d9","null","null","<p style=""font-size: 60px; font-family: BACS"">rcmuvYUYa</p>","","","","","","","","",""
"html-keyboard-response","53","271576","0.0-8.0-0.45","613f57084e80f056c78f9b7b","650c16f0f2faf8d7a0d14c09","651c1d5151e108b4dc8ac0d9","null","null","<p style=""font-size: 60px; font-family: BACS"">BATOcCPMl</p>","","","","","","","","",""
"html-keyboard-response","54","272593","0.0-8.0-0.46","613f57084e80f056c78f9b7b","650c16f0f2faf8d7a0d14c09","651c1d5151e108b4dc8ac0d9","null","null","<p style=""font-size: 60px; font-family: BACS"">DBPhcMKmY</p>","","","","","","","","",""
"html-keyboard-response","55","273607","0.0-8.0-0.47","613f57084e80f056c78f9b7b","650c16f0f2faf8d7a0d14c09","651c1d5151e108b4dc8ac0d9","null","null","<p style=""font-size: 60px; font-family: BACS"">JuamlYUYa</p>","","","","","","","","",""
"html-keyboard-response","56","274622","0.0-8.0-0.48","613f57084e80f056c78f9b7b","650c16f0f2faf8d7a0d14c09","651c1d5151e108b4dc8ac0d9","null","null","<p style=""font-size: 60px; font-family: BACS"">AZlLNbadk</p>","","","","","","","","",""
"html-keyboard-response","57","275633","0.0-8.0-0.49","613f57084e80f056c78f9b7b","650c16f0f2faf8d7a0d14c09","651c1d5151e108b4dc8ac0d9","null","null","<p style=""font-size: 60px; font-family: BACS"">JuamlcrdY</p>","","","","","","","","",""
"html-keyboard-response","58","276645","0.0-8.0-0.50","613f57084e80f056c78f9b7b","650c16f0f2faf8d7a0d14c09","651c1d5151e108b4dc8ac0d9","null","null","<p style=""font-size: 60px; font-family: BACS"">bYuQYUYa</p>","","","","","","","","",""
"html-keyboard-response","59","277658","0.0-8.0-0.51","613f57084e80f056c78f9b7b","650c16f0f2faf8d7a0d14c09","651c1d5151e108b4dc8ac0d9","null","null","<p style=""font-size: 60px; font-family: BACS"">CtmbTAm</p>","","","","","","","","",""
"html-keyboard-response","60","278660","0.0-8.0-0.52","613f57084e80f056c78f9b7b","650c16f0f2faf8d7a0d14c09","651c1d5151e108b4dc8ac0d9","null","null","<p style=""font-size: 60px; font-family: BACS"">rcmuvcrdY</p>","","","","","","","","",""
"html-keyboard-response","61","279662","0.0-8.0-0.53","613f57084e80f056c78f9b7b","650c16f0f2faf8d7a0d14c09","651c1d5151e108b4dc8ac0d9","null","null","<p style=""font-size: 60px; font-family: BACS"">tmAKCkbd</p>","","","","","","","","",""
"html-keyboard-response","62","280672","0.0-8.0-0.54","613f57084e80f056c78f9b7b","650c16f0f2faf8d7a0d14c09","651c1d5151e108b4dc8ac0d9","null","null","<p style=""font-size: 60px; font-family: BACS"">krGubadk</p>","","","","","","","","",""
"html-keyboard-response","63","281682","0.0-8.0-0.55","613f57084e80f056c78f9b7b","650c16f0f2faf8d7a0d14c09","651c1d5151e108b4dc8ac0d9","null","null","<p style=""font-size: 60px; font-family: BACS"">DBPhcRCdc</p>","","","","","","","","",""
"html-keyboard-response","64","282695","0.0-8.0-0.56","613f57084e80f056c78f9b7b","650c16f0f2faf8d7a0d14c09","651c1d5151e108b4dc8ac0d9","null","null","<p style=""font-size: 60px; font-family: BACS"">kGamNYUYa</p>","","","","","","","","",""
"html-keyboard-response","65","283701","0.0-8.0-0.57","613f57084e80f056c78f9b7b","650c16f0f2faf8d7a0d14c09","651c1d5151e108b4dc8ac0d9","null","null","<p style=""font-size: 60px; font-family: BACS"">lYruacrdY</p>","","","","","","","","",""
"html-keyboard-response","66","284711","0.0-8.0-0.58","613f57084e80f056c78f9b7b","650c16f0f2faf8d7a0d14c09","651c1d5151e108b4dc8ac0d9","null","null","<p style=""font-size: 60px; font-family: BACS"">kGamNravu</p>","","","","","","","","",""
"html-keyboard-response","67","285726","0.0-8.0-0.59","613f57084e80f056c78f9b7b","650c16f0f2faf8d7a0d14c09","651c1d5151e108b4dc8ac0d9","null","null","<p style=""font-size: 60px; font-family: BACS"">JuamlmLJ</p>","","","","","","","","",""
"html-keyboard-response","68","286738","0.0-8.0-0.60","613f57084e80f056c78f9b7b","650c16f0f2faf8d7a0d14c09","651c1d5151e108b4dc8ac0d9","null","null","<p style=""font-size: 60px; font-family: BACS"">QcladYUYa</p>","","","","","","","","",""
"html-keyboard-response","69","287743","0.0-8.0-0.61","613f57084e80f056c78f9b7b","650c16f0f2faf8d7a0d14c09","651c1d5151e108b4dc8ac0d9","null","null","<p style=""font-size: 60px; font-family: BACS"">AbKDCPMl</p>","","","","","","","","",""
"html-keyboard-response","70","288753","0.0-8.0-0.62","613f57084e80f056c78f9b7b","650c16f0f2faf8d7a0d14c09","651c1d5151e108b4dc8ac0d9","null","null","<p style=""font-size: 60px; font-family: BACS"">lYruabadk</p>","","","","","","","","",""
"html-keyboard-response","71","289768","0.0-8.0-0.63","613f57084e80f056c78f9b7b","650c16f0f2faf8d7a0d14c09","651c1d5151e108b4dc8ac0d9","null","null","<p style=""font-size: 60px; font-family: BACS"">kCRmMKmY</p>","","","","","","","","",""
"html-keyboard-response","72","290779","0.0-8.0-0.64","613f57084e80f056c78f9b7b","650c16f0f2faf8d7a0d14c09","651c1d5151e108b4dc8ac0d9","null","null","<p style=""font-size: 60px; font-family: BACS"">bYuQcrdY</p>","","","","","","","","",""
"html-keyboard-response","73","291787","0.0-8.0-0.65","613f57084e80f056c78f9b7b","650c16f0f2faf8d7a0d14c09","651c1d5151e108b4dc8ac0d9","null","null","<p style=""font-size: 60px; font-family: BACS"">AbKDRCdc</p>","","","","","","","","",""
"html-keyboard-response","74","292796","0.0-8.0-0.66","613f57084e80f056c78f9b7b","650c16f0f2faf8d7a0d14c09","651c1d5151e108b4dc8ac0d9","null","null","<p style=""font-size: 60px; font-family: BACS"">DBPhcTAm</p>","","","","","","","","",""
"html-keyboard-response","75","293807","0.0-8.0-0.67","613f57084e80f056c78f9b7b","650c16f0f2faf8d7a0d14c09","651c1d5151e108b4dc8ac0d9","null","null","<p style=""font-size: 60px; font-family: BACS"">kGamNmLJ</p>","","","","","","","","",""
"html-keyboard-response","76","294820","0.0-8.0-0.68","613f57084e80f056c78f9b7b","650c16f0f2faf8d7a0d14c09","651c1d5151e108b4dc8ac0d9","null","null","<p style=""font-size: 60px; font-family: BACS"">hlbtbTAm</p>","","","","","","","","",""
"html-keyboard-response","77","295833","0.0-8.0-0.69","613f57084e80f056c78f9b7b","650c16f0f2faf8d7a0d14c09","651c1d5151e108b4dc8ac0d9","null","null","<p style=""font-size: 60px; font-family: BACS"">krGucrdY</p>","","","","","","","","",""
"html-keyboard-response","78","296842","0.0-8.0-0.70","613f57084e80f056c78f9b7b","650c16f0f2faf8d7a0d14c09","651c1d5151e108b4dc8ac0d9","null","null","<p style=""font-size: 60px; font-family: BACS"">QcladmLJ</p>","","","","","","","","",""
"html-keyboard-response","79","297849","0.0-8.0-0.71","613f57084e80f056c78f9b7b","650c16f0f2faf8d7a0d14c09","651c1d5151e108b4dc8ac0d9","null","null","<p style=""font-size: 60px; font-family: BACS"">DCmhMKmY</p>","","","","","","","","",""
"html-keyboard-response","80","298858","0.0-8.0-0.72","613f57084e80f056c78f9b7b","650c16f0f2faf8d7a0d14c09","651c1d5151e108b4dc8ac0d9","null","null","<p style=""font-size: 60px; font-family: BACS"">AZlLNravu</p>","","","","","","","","",""
"html-keyboard-response","81","299862","0.0-8.0-0.73","613f57084e80f056c78f9b7b","650c16f0f2faf8d7a0d14c09","651c1d5151e108b4dc8ac0d9","null","null","<p style=""font-size: 60px; font-family: BACS"">hlbtbRCdc</p>","","","","","","","","",""
"html-keyboard-response","82","300873","0.0-8.0-0.74","613f57084e80f056c78f9b7b","650c16f0f2faf8d7a0d14c09","651c1d5151e108b4dc8ac0d9","null","null","<p style=""font-size: 60px; font-family: BACS"">KTDTBCkbd</p>","","","","","","","","",""
"html-keyboard-response","83","301884","0.0-8.0-0.75","613f57084e80f056c78f9b7b","650c16f0f2faf8d7a0d14c09","651c1d5151e108b4dc8ac0d9","null","null","<p style=""font-size: 60px; font-family: BACS"">BATOcMKmY</p>","","","","","","","","",""
"html-keyboard-response","84","302889","0.0-8.0-0.76","613f57084e80f056c78f9b7b","650c16f0f2faf8d7a0d14c09","651c1d5151e108b4dc8ac0d9","null","null","<p style=""font-size: 60px; font-family: BACS"">CtmbCkbd</p>","","","","","","","","",""
"html-keyboard-response","85","303903","0.0-8.0-0.77","613f57084e80f056c78f9b7b","650c16f0f2faf8d7a0d14c09","651c1d5151e108b4dc8ac0d9","null","null","<p style=""font-size: 60px; font-family: BACS"">rcmuvbadk</p>","","","","","","","","",""
"html-keyboard-response","86","304911","0.0-8.0-0.78","613f57084e80f056c78f9b7b","650c16f0f2faf8d7a0d14c09","651c1d5151e108b4dc8ac0d9","null","null","<p style=""font-size: 60px; font-family: BACS"">lYruamLJ</p>","","","","","","","","",""
"html-keyboard-response","87","305916","0.0-8.0-0.79","613f57084e80f056c78f9b7b","650c16f0f2faf8d7a0d14c09","651c1d5151e108b4dc8ac0d9","null","null","<p style=""font-size: 60px; font-family: BACS"">kGamNcrdY</p>","","","","","","","","",""
"html-keyboard-response","88","329623","0.0-9.0","613f57084e80f056c78f9b7b","650c16f0f2faf8d7a0d14c09","651c1d5151e108b4dc8ac0d9","23706"," ","<p>Great, you've seen the first block of words. You may now take a short break.</p>
      <p>Press the spacebar when you're ready to continue.</p>","","","","","","","","",""
"html-keyboard-response","89","330626","0.0-10.0-0.0","613f57084e80f056c78f9b7b","650c16f0f2faf8d7a0d14c09","651c1d5151e108b4dc8ac0d9","null","null","<p style=""font-size: 60px; font-family: BACS"">kCRmCkbd</p>","","","","","","","","",""
"html-keyboard-response","90","331628","0.0-10.0-0.1","613f57084e80f056c78f9b7b","650c16f0f2faf8d7a0d14c09","651c1d5151e108b4dc8ac0d9","null","null","<p style=""font-size: 60px; font-family: BACS"">kGamNmLJ</p>","","","","","","","","",""
"html-keyboard-response","91","332637","0.0-10.0-0.2","613f57084e80f056c78f9b7b","650c16f0f2faf8d7a0d14c09","651c1d5151e108b4dc8ac0d9","null","null","<p style=""font-size: 60px; font-family: BACS"">CtmbCPMl</p>","","","","","","","","",""
"html-keyboard-response","92","333639","0.0-10.0-0.3","613f57084e80f056c78f9b7b","650c16f0f2faf8d7a0d14c09","651c1d5151e108b4dc8ac0d9","null","null","<p style=""font-size: 60px; font-family: BACS"">JuamlmLJ</p>","","","","","","","","",""
"html-keyboard-response","93","334645","0.0-10.0-0.4","613f57084e80f056c78f9b7b","650c16f0f2faf8d7a0d14c09","651c1d5151e108b4dc8ac0d9","null","null","<p style=""font-size: 60px; font-family: BACS"">BATOcRCdc</p>","","","","","","","","",""
"html-keyboard-response","94","335655","0.0-10.0-0.5","613f57084e80f056c78f9b7b","650c16f0f2faf8d7a0d14c09","651c1d5151e108b4dc8ac0d9","null","null","<p style=""font-size: 60px; font-family: BACS"">CtmbCkbd</p>","","","","","","","","",""
"html-keyboard-response","95","336657","0.0-10.0-0.6","613f57084e80f056c78f9b7b","650c16f0f2faf8d7a0d14c09","651c1d5151e108b4dc8ac0d9","null","null","<p style=""font-size: 60px; font-family: BACS"">AbKDCPMl</p>","","","","","","","","",""
"html-keyboard-response","96","337661","0.0-10.0-0.7","613f57084e80f056c78f9b7b","650c16f0f2faf8d7a0d14c09","651c1d5151e108b4dc8ac0d9","null","null","<p style=""font-size: 60px; font-family: BACS"">DRPkYCkbd</p>","","","","","","","","",""
"html-keyboard-response","97","338670","0.0-10.0-0.8","613f57084e80f056c78f9b7b","650c16f0f2faf8d7a0d14c09","651c1d5151e108b4dc8ac0d9","null","null","<p style=""font-size: 60px; font-family: BACS"">rcmuvcrdY</p>","","","","","","","","",""
"html-keyboard-response","98","339673","0.0-10.0-0.9","613f57084e80f056c78f9b7b","650c16f0f2faf8d7a0d14c09","651c1d5151e108b4dc8ac0d9","null","null","<p style=""font-size: 60px; font-family: BACS"">tmAKCPMl</p>","","","","","","","","",""
"html-keyboard-response","99","340680","0.0-10.0-0.10","613f57084e80f056c78f9b7b","650c16f0f2faf8d7a0d14c09","651c1d5151e108b4dc8ac0d9","null","null","<p style=""font-size: 60px; font-family: BACS"">QcladmLJ</p>","","","","","","","","",""
"html-keyboard-response","100","341693","0.0-10.0-0.11","613f57084e80f056c78f9b7b","650c16f0f2faf8d7a0d14c09","651c1d5151e108b4dc8ac0d9","null","null","<p style=""font-size: 60px; font-family: BACS"">Juamlbadk</p>","","","","","","","","",""
"html-keyboard-response","101","342709","0.0-10.0-0.12","613f57084e80f056c78f9b7b","650c16f0f2faf8d7a0d14c09","651c1d5151e108b4dc8ac0d9","null","null","<p style=""font-size: 60px; font-family: BACS"">QcladYUYa</p>","","","","","","","","",""
"html-keyboard-response","102","343717","0.0-10.0-0.13","613f57084e80f056c78f9b7b","650c16f0f2faf8d7a0d14c09","651c1d5151e108b4dc8ac0d9","null","null","<p style=""font-size: 60px; font-family: BACS"">kGamNcrdY</p>","","","","","","","","",""
"html-keyboard-response","103","344730","0.0-10.0-0.14","613f57084e80f056c78f9b7b","650c16f0f2faf8d7a0d14c09","651c1d5151e108b4dc8ac0d9","null","null","<p style=""font-size: 60px; font-family: BACS"">DCmhCkbd</p>","","","","","","","","",""
"html-keyboard-response","104","345738","0.0-10.0-0.15","613f57084e80f056c78f9b7b","650c16f0f2faf8d7a0d14c09","651c1d5151e108b4dc8ac0d9","null","null","<p style=""font-size: 60px; font-family: BACS"">hlbtbMKmY</p>","","","","","","","","",""
"html-keyboard-response","105","346739","0.0-10.0-0.16","613f57084e80f056c78f9b7b","650c16f0f2faf8d7a0d14c09","651c1d5151e108b4dc8ac0d9","null","null","<p style=""font-size: 60px; font-family: BACS"">bYuQbadk</p>","","","","","","","","",""
"html-keyboard-response","106","347750","0.0-10.0-0.17","613f57084e80f056c78f9b7b","650c16f0f2faf8d7a0d14c09","651c1d5151e108b4dc8ac0d9","null","null","<p style=""font-size: 60px; font-family: BACS"">BATOcCPMl</p>","","","","","","","","",""
"html-keyboard-response","107","348760","0.0-10.0-0.18","613f57084e80f056c78f9b7b","650c16f0f2faf8d7a0d14c09","651c1d5151e108b4dc8ac0d9","null","null","<p style=""font-size: 60px; font-family: BACS"">LuaUmLJ</p>","","","","","","","","",""
"html-keyboard-response","108","349763","0.0-10.0-0.19","613f57084e80f056c78f9b7b","650c16f0f2faf8d7a0d14c09","651c1d5151e108b4dc8ac0d9","null","null","<p style=""font-size: 60px; font-family: BACS"">UdYUQravu</p>","","","","","","","","",""
"html-keyboard-response","109","350769","0.0-10.0-0.20","613f57084e80f056c78f9b7b","650c16f0f2faf8d7a0d14c09","651c1d5151e108b4dc8ac0d9","null","null","<p style=""font-size: 60px; font-family: BACS"">kCRmRCdc</p>","","","","","","","","",""
"html-keyboard-response","110","351771","0.0-10.0-0.21","613f57084e80f056c78f9b7b","650c16f0f2faf8d7a0d14c09","651c1d5151e108b4dc8ac0d9","null","null","<p style=""font-size: 60px; font-family: BACS"">BATOcMKmY</p>","","","","","","","","",""
"html-keyboard-response","111","352772","0.0-10.0-0.22","613f57084e80f056c78f9b7b","650c16f0f2faf8d7a0d14c09","651c1d5151e108b4dc8ac0d9","null","null","<p style=""font-size: 60px; font-family: BACS"">krGuravu</p>","","","","","","","","",""
"html-keyboard-response","112","353786","0.0-10.0-0.23","613f57084e80f056c78f9b7b","650c16f0f2faf8d7a0d14c09","651c1d5151e108b4dc8ac0d9","null","null","<p style=""font-size: 60px; font-family: BACS"">DBPhcMKmY</p>","","","","","","","","",""
"html-keyboard-response","113","354797","0.0-10.0-0.24","613f57084e80f056c78f9b7b","650c16f0f2faf8d7a0d14c09","651c1d5151e108b4dc8ac0d9","null","null","<p style=""font-size: 60px; font-family: BACS"">lYruaravu</p>","","","","","","","","",""
"html-keyboard-response","114","355807","0.0-10.0-0.25","613f57084e80f056c78f9b7b","650c16f0f2faf8d7a0d14c09","651c1d5151e108b4dc8ac0d9","null","null","<p style=""font-size: 60px; font-family: BACS"">hlbtbCPMl</p>","","","","","","","","",""
"html-keyboard-response","115","356818","0.0-10.0-0.26","613f57084e80f056c78f9b7b","650c16f0f2faf8d7a0d14c09","651c1d5151e108b4dc8ac0d9","null","null","<p style=""font-size: 60px; font-family: BACS"">DBPhcRCdc</p>","","","","","","","","",""
"html-keyboard-response","116","357826","0.0-10.0-0.27","613f57084e80f056c78f9b7b","650c16f0f2faf8d7a0d14c09","651c1d5151e108b4dc8ac0d9","null","null","<p style=""font-size: 60px; font-family: BACS"">bYuQYUYa</p>","","","","","","","","",""
"html-keyboard-response","117","358832","0.0-10.0-0.28","613f57084e80f056c78f9b7b","650c16f0f2faf8d7a0d14c09","651c1d5151e108b4dc8ac0d9","null","null","<p style=""font-size: 60px; font-family: BACS"">AZlLNcrdY</p>","","","","","","","","",""
"html-keyboard-response","118","359846","0.0-10.0-0.29","613f57084e80f056c78f9b7b","650c16f0f2faf8d7a0d14c09","651c1d5151e108b4dc8ac0d9","null","null","<p style=""font-size: 60px; font-family: BACS"">hlbtbRCdc</p>","","","","","","","","",""
"html-keyboard-response","119","360848","0.0-10.0-0.30","613f57084e80f056c78f9b7b","650c16f0f2faf8d7a0d14c09","651c1d5151e108b4dc8ac0d9","null","null","<p style=""font-size: 60px; font-family: BACS"">AbKDTAm</p>","","","","","","","","",""
"html-keyboard-response","120","361859","0.0-10.0-0.31","613f57084e80f056c78f9b7b","650c16f0f2faf8d7a0d14c09","651c1d5151e108b4dc8ac0d9","null","null","<p style=""font-size: 60px; font-family: BACS"">krGucrdY</p>","","","","","","","","",""
"html-keyboard-response","121","362869","0.0-10.0-0.32","613f57084e80f056c78f9b7b","650c16f0f2faf8d7a0d14c09","651c1d5151e108b4dc8ac0d9","null","null","<p style=""font-size: 60px; font-family: BACS"">tmAKTAm</p>","","","","","","","","",""
"html-keyboard-response","122","363879","0.0-10.0-0.33","613f57084e80f056c78f9b7b","650c16f0f2faf8d7a0d14c09","651c1d5151e108b4dc8ac0d9","null","null","<p style=""font-size: 60px; font-family: BACS"">AbKDCkbd</p>","","","","","","","","",""
"html-keyboard-response","123","364890","0.0-10.0-0.34","613f57084e80f056c78f9b7b","650c16f0f2faf8d7a0d14c09","651c1d5151e108b4dc8ac0d9","null","null","<p style=""font-size: 60px; font-family: BACS"">rcmuvYUYa</p>","","","","","","","","",""
"html-keyboard-response","124","365904","0.0-10.0-0.35","613f57084e80f056c78f9b7b","650c16f0f2faf8d7a0d14c09","651c1d5151e108b4dc8ac0d9","null","null","<p style=""font-size: 60px; font-family: BACS"">lYruabadk</p>","","","","","","","","",""
"html-keyboard-response","125","366905","0.0-10.0-0.36","613f57084e80f056c78f9b7b","650c16f0f2faf8d7a0d14c09","651c1d5151e108b4dc8ac0d9","null","null","<p style=""font-size: 60px; font-family: BACS"">CtmbRCdc</p>","","","","","","","","",""
"html-keyboard-response","126","367921","0.0-10.0-0.37","613f57084e80f056c78f9b7b","650c16f0f2faf8d7a0d14c09","651c1d5151e108b4dc8ac0d9","null","null","<p style=""font-size: 60px; font-family: BACS"">tmAKMKmY</p>","","","","","","","","",""
"html-keyboard-response","127","368930","0.0-10.0-0.38","613f57084e80f056c78f9b7b","650c16f0f2faf8d7a0d14c09","651c1d5151e108b4dc8ac0d9","null","null","<p style=""font-size: 60px; font-family: BACS"">JuamlYUYa</p>","","","","","","","","",""
"html-keyboard-response","128","369943","0.0-10.0-0.39","613f57084e80f056c78f9b7b","650c16f0f2faf8d7a0d14c09","651c1d5151e108b4dc8ac0d9","null","null","<p style=""font-size: 60px; font-family: BACS"">kCRmMKmY</p>","","","","","","","","",""
"html-keyboard-response","129","370955","0.0-10.0-0.40","613f57084e80f056c78f9b7b","650c16f0f2faf8d7a0d14c09","651c1d5151e108b4dc8ac0d9","null","null","<p style=""font-size: 60px; font-family: BACS"">CtmbTAm</p>","","","","","","","","",""
"html-keyboard-response","130","371969","0.0-10.0-0.41","613f57084e80f056c78f9b7b","650c16f0f2faf8d7a0d14c09","651c1d5151e108b4dc8ac0d9","null","null","<p style=""font-size: 60px; font-family: BACS"">UdYUQYUYa</p>","","","","","","","","",""
"html-keyboard-response","131","372970","0.0-10.0-0.42","613f57084e80f056c78f9b7b","650c16f0f2faf8d7a0d14c09","651c1d5151e108b4dc8ac0d9","null","null","<p style=""font-size: 60px; font-family: BACS"">AbKDRCdc</p>","","","","","","","","",""
"html-keyboard-response","132","373972","0.0-10.0-0.43","613f57084e80f056c78f9b7b","650c16f0f2faf8d7a0d14c09","651c1d5151e108b4dc8ac0d9","null","null","<p style=""font-size: 60px; font-family: BACS"">hlbtbTAm</p>","","","","","","","","",""
"html-keyboard-response","133","374982","0.0-10.0-0.44","613f57084e80f056c78f9b7b","650c16f0f2faf8d7a0d14c09","651c1d5151e108b4dc8ac0d9","null","null","<p style=""font-size: 60px; font-family: BACS"">tmAKCkbd</p>","","","","","","","","",""
"html-keyboard-response","134","375994","0.0-10.0-0.45","613f57084e80f056c78f9b7b","650c16f0f2faf8d7a0d14c09","651c1d5151e108b4dc8ac0d9","null","null","<p style=""font-size: 60px; font-family: BACS"">KTDTBCPMl</p>","","","","","","","","",""
"html-keyboard-response","135","376997","0.0-10.0-0.46","613f57084e80f056c78f9b7b","650c16f0f2faf8d7a0d14c09","651c1d5151e108b4dc8ac0d9","null","null","<p style=""font-size: 60px; font-family: BACS"">krGuYUYa</p>","","","","","","","","",""
"html-keyboard-response","136","378012","0.0-10.0-0.47","613f57084e80f056c78f9b7b","650c16f0f2faf8d7a0d14c09","651c1d5151e108b4dc8ac0d9","null","null","<p style=""font-size: 60px; font-family: BACS"">LuaUravu</p>","","","","","","","","",""
"html-keyboard-response","137","379025","0.0-10.0-0.48","613f57084e80f056c78f9b7b","650c16f0f2faf8d7a0d14c09","651c1d5151e108b4dc8ac0d9","null","null","<p style=""font-size: 60px; font-family: BACS"">kGamNYUYa</p>","","","","","","","","",""
"html-keyboard-response","138","380040","0.0-10.0-0.49","613f57084e80f056c78f9b7b","650c16f0f2faf8d7a0d14c09","651c1d5151e108b4dc8ac0d9","null","null","<p style=""font-size: 60px; font-family: BACS"">lYruamLJ</p>","","","","","","","","",""
"html-keyboard-response","139","381052","0.0-10.0-0.50","613f57084e80f056c78f9b7b","650c16f0f2faf8d7a0d14c09","651c1d5151e108b4dc8ac0d9","null","null","<p style=""font-size: 60px; font-family: BACS"">AZlLNbadk</p>","","","","","","","","",""
"html-keyboard-response","140","382062","0.0-10.0-0.51","613f57084e80f056c78f9b7b","650c16f0f2faf8d7a0d14c09","651c1d5151e108b4dc8ac0d9","null","null","<p style=""font-size: 60px; font-family: BACS"">KTDTBMKmY</p>","","","","","","","","",""
"html-keyboard-response","141","383072","0.0-10.0-0.52","613f57084e80f056c78f9b7b","650c16f0f2faf8d7a0d14c09","651c1d5151e108b4dc8ac0d9","null","null","<p style=""font-size: 60px; font-family: BACS"">DCmhTAm</p>","","","","","","","","",""
"html-keyboard-response","142","384087","0.0-10.0-0.53","613f57084e80f056c78f9b7b","650c16f0f2faf8d7a0d14c09","651c1d5151e108b4dc8ac0d9","null","null","<p style=""font-size: 60px; font-family: BACS"">kCRmCPMl</p>","","","","","","","","",""
"html-keyboard-response","143","385097","0.0-10.0-0.54","613f57084e80f056c78f9b7b","650c16f0f2faf8d7a0d14c09","651c1d5151e108b4dc8ac0d9","null","null","<p style=""font-size: 60px; font-family: BACS"">rcmuvbadk</p>","","","","","","","","",""
"html-keyboard-response","144","386112","0.0-10.0-0.55","613f57084e80f056c78f9b7b","650c16f0f2faf8d7a0d14c09","651c1d5151e108b4dc8ac0d9","null","null","<p style=""font-size: 60px; font-family: BACS"">AZlLNmLJ</p>","","","","","","","","",""
"html-keyboard-response","145","387125","0.0-10.0-0.56","613f57084e80f056c78f9b7b","650c16f0f2faf8d7a0d14c09","651c1d5151e108b4dc8ac0d9","null","null","<p style=""font-size: 60px; font-family: BACS"">DBPhcCPMl</p>","","","","","","","","",""
"html-keyboard-response","146","388138","0.0-10.0-0.57","613f57084e80f056c78f9b7b","650c16f0f2faf8d7a0d14c09","651c1d5151e108b4dc8ac0d9","null","null","<p style=""font-size: 60px; font-family: BACS"">Qcladbadk</p>","","","","","","","","",""
"html-keyboard-response","147","389147","0.0-10.0-0.58","613f57084e80f056c78f9b7b","650c16f0f2faf8d7a0d14c09","651c1d5151e108b4dc8ac0d9","null","null","<p style=""font-size: 60px; font-family: BACS"">LuaUcrdY</p>","","","","","","","","",""
"html-keyboard-response","148","390152","0.0-10.0-0.59","613f57084e80f056c78f9b7b","650c16f0f2faf8d7a0d14c09","651c1d5151e108b4dc8ac0d9","null","null","<p style=""font-size: 60px; font-family: BACS"">bYuQmLJ</p>","","","","","","","","",""
"html-keyboard-response","149","391155","0.0-10.0-0.60","613f57084e80f056c78f9b7b","650c16f0f2faf8d7a0d14c09","651c1d5151e108b4dc8ac0d9","null","null","<p style=""font-size: 60px; font-family: BACS"">DBPhcTAm</p>","","","","","","","","",""
"html-keyboard-response","150","392170","0.0-10.0-0.61","613f57084e80f056c78f9b7b","650c16f0f2faf8d7a0d14c09","651c1d5151e108b4dc8ac0d9","null","null","<p style=""font-size: 60px; font-family: BACS"">AZlLNravu</p>","","","","","","","","",""
"html-keyboard-response","151","393182","0.0-10.0-0.62","613f57084e80f056c78f9b7b","650c16f0f2faf8d7a0d14c09","651c1d5151e108b4dc8ac0d9","null","null","<p style=""font-size: 60px; font-family: BACS"">bYuQcrdY</p>","","","","","","","","",""
"html-keyboard-response","152","394196","0.0-10.0-0.63","613f57084e80f056c78f9b7b","650c16f0f2faf8d7a0d14c09","651c1d5151e108b4dc8ac0d9","null","null","<p style=""font-size: 60px; font-family: BACS"">KTDTBCkbd</p>","","","","","","","","",""
"html-keyboard-response","153","395206","0.0-10.0-0.64","613f57084e80f056c78f9b7b","650c16f0f2faf8d7a0d14c09","651c1d5151e108b4dc8ac0d9","null","null","<p style=""font-size: 60px; font-family: BACS"">DRPkYMKmY</p>","","","","","","","","",""
"html-keyboard-response","154","396218","0.0-10.0-0.65","613f57084e80f056c78f9b7b","650c16f0f2faf8d7a0d14c09","651c1d5151e108b4dc8ac0d9","null","null","<p style=""font-size: 60px; font-family: BACS"">UdYUQmLJ</p>","","","","","","","","",""
"html-keyboard-response","155","397230","0.0-10.0-0.66","613f57084e80f056c78f9b7b","650c16f0f2faf8d7a0d14c09","651c1d5151e108b4dc8ac0d9","null","null","<p style=""font-size: 60px; font-family: BACS"">DRPkYRCdc</p>","","","","","","","","",""
"html-keyboard-response","156","398246","0.0-10.0-0.67","613f57084e80f056c78f9b7b","650c16f0f2faf8d7a0d14c09","651c1d5151e108b4dc8ac0d9","null","null","<p style=""font-size: 60px; font-family: BACS"">KTDTBTAm</p>","","","","","","","","",""
"html-keyboard-response","157","399254","0.0-10.0-0.68","613f57084e80f056c78f9b7b","650c16f0f2faf8d7a0d14c09","651c1d5151e108b4dc8ac0d9","null","null","<p style=""font-size: 60px; font-family: BACS"">lYruacrdY</p>","","","","","","","","",""
"html-keyboard-response","158","400266","0.0-10.0-0.69","613f57084e80f056c78f9b7b","650c16f0f2faf8d7a0d14c09","651c1d5151e108b4dc8ac0d9","null","null","<p style=""font-size: 60px; font-family: BACS"">Qcladravu</p>","","","","","","","","",""
"html-keyboard-response","159","401277","0.0-10.0-0.70","613f57084e80f056c78f9b7b","650c16f0f2faf8d7a0d14c09","651c1d5151e108b4dc8ac0d9","null","null","<p style=""font-size: 60px; font-family: BACS"">LuaUYUYa</p>","","","","","","","","",""
"html-keyboard-response","160","402287","0.0-10.0-0.71","613f57084e80f056c78f9b7b","650c16f0f2faf8d7a0d14c09","651c1d5151e108b4dc8ac0d9","null","null","<p style=""font-size: 60px; font-family: BACS"">UdYUQbadk</p>","","","","","","","","",""
"html-keyboard-response","161","403299","0.0-10.0-0.72","613f57084e80f056c78f9b7b","650c16f0f2faf8d7a0d14c09","651c1d5151e108b4dc8ac0d9","null","null","<p style=""font-size: 60px; font-family: BACS"">DCmhRCdc</p>","","","","","","","","",""
"html-keyboard-response","162","404314","0.0-10.0-0.73","613f57084e80f056c78f9b7b","650c16f0f2faf8d7a0d14c09","651c1d5151e108b4dc8ac0d9","null","null","<p style=""font-size: 60px; font-family: BACS"">rcmuvravu</p>","","","","","","","","",""
"html-keyboard-response","163","405328","0.0-10.0-0.74","613f57084e80f056c78f9b7b","650c16f0f2faf8d7a0d14c09","651c1d5151e108b4dc8ac0d9","null","null","<p style=""font-size: 60px; font-family: BACS"">DCmhMKmY</p>","","","","","","","","",""
"html-keyboard-response","164","406338","0.0-10.0-0.75","613f57084e80f056c78f9b7b","650c16f0f2faf8d7a0d14c09","651c1d5151e108b4dc8ac0d9","null","null","<p style=""font-size: 60px; font-family: BACS"">krGubadk</p>","","","","","","","","",""
"html-keyboard-response","165","407346","0.0-10.0-0.76","613f57084e80f056c78f9b7b","650c16f0f2faf8d7a0d14c09","651c1d5151e108b4dc8ac0d9","null","null","<p style=""font-size: 60px; font-family: BACS"">BATOcCkbd</p>","","","","","","","","",""
"html-keyboard-response","166","408354","0.0-10.0-0.77","613f57084e80f056c78f9b7b","650c16f0f2faf8d7a0d14c09","651c1d5151e108b4dc8ac0d9","null","null","<p style=""font-size: 60px; font-family: BACS"">DRPkYTAm</p>","","","","","","","","",""
"html-keyboard-response","167","409363","0.0-10.0-0.78","613f57084e80f056c78f9b7b","650c16f0f2faf8d7a0d14c09","651c1d5151e108b4dc8ac0d9","null","null","<p style=""font-size: 60px; font-family: BACS"">JuamlcrdY</p>","","","","","","","","",""
"html-keyboard-response","168","410374","0.0-10.0-0.79","613f57084e80f056c78f9b7b","650c16f0f2faf8d7a0d14c09","651c1d5151e108b4dc8ac0d9","null","null","<p style=""font-size: 60px; font-family: BACS"">kGamNravu</p>","","","","","","","","",""
"html-keyboard-response","169","427499","0.0-11.0","613f57084e80f056c78f9b7b","650c16f0f2faf8d7a0d14c09","651c1d5151e108b4dc8ac0d9","17123"," ","<p>Great, you've seen the second block of words. You may now take a short break.</p>
      <p>Press the spacebar when you're ready to continue.</p>","","","","","","","","",""
"html-keyboard-response","170","428503","0.0-12.0-0.0","613f57084e80f056c78f9b7b","650c16f0f2faf8d7a0d14c09","651c1d5151e108b4dc8ac0d9","null","null","<p style=""font-size: 60px; font-family: BACS"">QcladYUYa</p>","","","","","","","","",""
"html-keyboard-response","171","429513","0.0-12.0-0.1","613f57084e80f056c78f9b7b","650c16f0f2faf8d7a0d14c09","651c1d5151e108b4dc8ac0d9","null","null","<p style=""font-size: 60px; font-family: BACS"">AZlLNmLJ</p>","","","","","","","","",""
"html-keyboard-response","172","430515","0.0-12.0-0.2","613f57084e80f056c78f9b7b","650c16f0f2faf8d7a0d14c09","651c1d5151e108b4dc8ac0d9","null","null","<p style=""font-size: 60px; font-family: BACS"">krGuravu</p>","","","","","","","","",""
"html-keyboard-response","173","431521","0.0-12.0-0.3","613f57084e80f056c78f9b7b","650c16f0f2faf8d7a0d14c09","651c1d5151e108b4dc8ac0d9","null","null","<p style=""font-size: 60px; font-family: BACS"">hlbtbTAm</p>","","","","","","","","",""
"html-keyboard-response","174","432536","0.0-12.0-0.4","613f57084e80f056c78f9b7b","650c16f0f2faf8d7a0d14c09","651c1d5151e108b4dc8ac0d9","null","null","<p style=""font-size: 60px; font-family: BACS"">bYuQcrdY</p>","","","","","","","","",""
"html-keyboard-response","175","433551","0.0-12.0-0.5","613f57084e80f056c78f9b7b","650c16f0f2faf8d7a0d14c09","651c1d5151e108b4dc8ac0d9","null","null","<p style=""font-size: 60px; font-family: BACS"">DBPhcCPMl</p>","","","","","","","","",""
"html-keyboard-response","176","434564","0.0-12.0-0.6","613f57084e80f056c78f9b7b","650c16f0f2faf8d7a0d14c09","651c1d5151e108b4dc8ac0d9","null","null","<p style=""font-size: 60px; font-family: BACS"">tmAKTAm</p>","","","","","","","","",""
"html-keyboard-response","177","435577","0.0-12.0-0.7","613f57084e80f056c78f9b7b","650c16f0f2faf8d7a0d14c09","651c1d5151e108b4dc8ac0d9","null","null","<p style=""font-size: 60px; font-family: BACS"">rcmuvravu</p>","","","","","","","","",""
"html-keyboard-response","178","436588","0.0-12.0-0.8","613f57084e80f056c78f9b7b","650c16f0f2faf8d7a0d14c09","651c1d5151e108b4dc8ac0d9","null","null","<p style=""font-size: 60px; font-family: BACS"">QcladmLJ</p>","","","","","","","","",""
"html-keyboard-response","179","437600","0.0-12.0-0.9","613f57084e80f056c78f9b7b","650c16f0f2faf8d7a0d14c09","651c1d5151e108b4dc8ac0d9","null","null","<p style=""font-size: 60px; font-family: BACS"">DCmhTAm</p>","","","","","","","","",""
"html-keyboard-response","180","438602","0.0-12.0-0.10","613f57084e80f056c78f9b7b","650c16f0f2faf8d7a0d14c09","651c1d5151e108b4dc8ac0d9","null","null","<p style=""font-size: 60px; font-family: BACS"">KTDTBCPMl</p>","","","","","","","","",""
"html-keyboard-response","181","439614","0.0-12.0-0.11","613f57084e80f056c78f9b7b","650c16f0f2faf8d7a0d14c09","651c1d5151e108b4dc8ac0d9","null","null","<p style=""font-size: 60px; font-family: BACS"">UdYUQYUYa</p>","","","","","","","","",""
"html-keyboard-response","182","440628","0.0-12.0-0.12","613f57084e80f056c78f9b7b","650c16f0f2faf8d7a0d14c09","651c1d5151e108b4dc8ac0d9","null","null","<p style=""font-size: 60px; font-family: BACS"">CtmbTAm</p>","","","","","","","","",""
"html-keyboard-response","183","441639","0.0-12.0-0.13","613f57084e80f056c78f9b7b","650c16f0f2faf8d7a0d14c09","651c1d5151e108b4dc8ac0d9","null","null","<p style=""font-size: 60px; font-family: BACS"">JuamlYUYa</p>","","","","","","","","",""
"html-keyboard-response","184","442646","0.0-12.0-0.14","613f57084e80f056c78f9b7b","650c16f0f2faf8d7a0d14c09","651c1d5151e108b4dc8ac0d9","null","null","<p style=""font-size: 60px; font-family: BACS"">tmAKCPMl</p>","","","","","","","","",""
"html-keyboard-response","185","443647","0.0-12.0-0.15","613f57084e80f056c78f9b7b","650c16f0f2faf8d7a0d14c09","651c1d5151e108b4dc8ac0d9","null","null","<p style=""font-size: 60px; font-family: BACS"">krGucrdY</p>","","","","","","","","",""
"html-keyboard-response","186","444658","0.0-12.0-0.16","613f57084e80f056c78f9b7b","650c16f0f2faf8d7a0d14c09","651c1d5151e108b4dc8ac0d9","null","null","<p style=""font-size: 60px; font-family: BACS"">DRPkYRCdc</p>","","","","","","","","",""
"html-keyboard-response","187","445668","0.0-12.0-0.17","613f57084e80f056c78f9b7b","650c16f0f2faf8d7a0d14c09","651c1d5151e108b4dc8ac0d9","null","null","<p style=""font-size: 60px; font-family: BACS"">kCRmCPMl</p>","","","","","","","","",""
"html-keyboard-response","188","446677","0.0-12.0-0.18","613f57084e80f056c78f9b7b","650c16f0f2faf8d7a0d14c09","651c1d5151e108b4dc8ac0d9","null","null","<p style=""font-size: 60px; font-family: BACS"">rcmuvYUYa</p>","","","","","","","","",""
"html-keyboard-response","189","447691","0.0-12.0-0.19","613f57084e80f056c78f9b7b","650c16f0f2faf8d7a0d14c09","651c1d5151e108b4dc8ac0d9","null","null","<p style=""font-size: 60px; font-family: BACS"">hlbtbRCdc</p>","","","","","","","","",""
"html-keyboard-response","190","448703","0.0-12.0-0.20","613f57084e80f056c78f9b7b","650c16f0f2faf8d7a0d14c09","651c1d5151e108b4dc8ac0d9","null","null","<p style=""font-size: 60px; font-family: BACS"">LuaUravu</p>","","","","","","","","",""
"html-keyboard-response","191","449704","0.0-12.0-0.21","613f57084e80f056c78f9b7b","650c16f0f2faf8d7a0d14c09","651c1d5151e108b4dc8ac0d9","null","null","<p style=""font-size: 60px; font-family: BACS"">lYruamLJ</p>","","","","","","","","",""
"html-keyboard-response","192","450710","0.0-12.0-0.22","613f57084e80f056c78f9b7b","650c16f0f2faf8d7a0d14c09","651c1d5151e108b4dc8ac0d9","null","null","<p style=""font-size: 60px; font-family: BACS"">hlbtbMKmY</p>","","","","","","","","",""
"html-keyboard-response","193","451720","0.0-12.0-0.23","613f57084e80f056c78f9b7b","650c16f0f2faf8d7a0d14c09","651c1d5151e108b4dc8ac0d9","null","null","<p style=""font-size: 60px; font-family: BACS"">kGamNravu</p>","","","","","","","","",""
"html-keyboard-response","194","452734","0.0-12.0-0.24","613f57084e80f056c78f9b7b","650c16f0f2faf8d7a0d14c09","651c1d5151e108b4dc8ac0d9","null","null","<p style=""font-size: 60px; font-family: BACS"">lYruacrdY</p>","","","","","","","","",""
"html-keyboard-response","195","453745","0.0-12.0-0.25","613f57084e80f056c78f9b7b","650c16f0f2faf8d7a0d14c09","651c1d5151e108b4dc8ac0d9","null","null","<p style=""font-size: 60px; font-family: BACS"">KTDTBCkbd</p>","","","","","","","","",""
"html-keyboard-response","196","454755","0.0-12.0-0.26","613f57084e80f056c78f9b7b","650c16f0f2faf8d7a0d14c09","651c1d5151e108b4dc8ac0d9","null","null","<p style=""font-size: 60px; font-family: BACS"">DBPhcMKmY</p>","","","","","","","","",""
"html-keyboard-response","197","455766","0.0-12.0-0.27","613f57084e80f056c78f9b7b","650c16f0f2faf8d7a0d14c09","651c1d5151e108b4dc8ac0d9","null","null","<p style=""font-size: 60px; font-family: BACS"">lYruaravu</p>","","","","","","","","",""
"html-keyboard-response","198","456780","0.0-12.0-0.28","613f57084e80f056c78f9b7b","650c16f0f2faf8d7a0d14c09","651c1d5151e108b4dc8ac0d9","null","null","<p style=""font-size: 60px; font-family: BACS"">JuamlmLJ</p>","","","","","","","","",""
"html-keyboard-response","199","457786","0.0-12.0-0.29","613f57084e80f056c78f9b7b","650c16f0f2faf8d7a0d14c09","651c1d5151e108b4dc8ac0d9","null","null","<p style=""font-size: 60px; font-family: BACS"">Qcladbadk</p>","","","","","","","","",""
"html-keyboard-response","200","458794","0.0-12.0-0.30","613f57084e80f056c78f9b7b","650c16f0f2faf8d7a0d14c09","651c1d5151e108b4dc8ac0d9","null","null","<p style=""font-size: 60px; font-family: BACS"">CtmbCkbd</p>","","","","","","","","",""
"html-keyboard-response","201","459808","0.0-12.0-0.31","613f57084e80f056c78f9b7b","650c16f0f2faf8d7a0d14c09","651c1d5151e108b4dc8ac0d9","null","null","<p style=""font-size: 60px; font-family: BACS"">lYruabadk</p>","","","","","","","","",""
"html-keyboard-response","202","460811","0.0-12.0-0.32","613f57084e80f056c78f9b7b","650c16f0f2faf8d7a0d14c09","651c1d5151e108b4dc8ac0d9","null","null","<p style=""font-size: 60px; font-family: BACS"">AbKDRCdc</p>","","","","","","","","",""
"html-keyboard-response","203","461825","0.0-12.0-0.33","613f57084e80f056c78f9b7b","650c16f0f2faf8d7a0d14c09","651c1d5151e108b4dc8ac0d9","null","null","<p style=""font-size: 60px; font-family: BACS"">AZlLNbadk</p>","","","","","","","","",""
"html-keyboard-response","204","462836","0.0-12.0-0.34","613f57084e80f056c78f9b7b","650c16f0f2faf8d7a0d14c09","651c1d5151e108b4dc8ac0d9","null","null","<p style=""font-size: 60px; font-family: BACS"">DCmhRCdc</p>","","","","","","","","",""
"html-keyboard-response","205","463845","0.0-12.0-0.35","613f57084e80f056c78f9b7b","650c16f0f2faf8d7a0d14c09","651c1d5151e108b4dc8ac0d9","null","null","<p style=""font-size: 60px; font-family: BACS"">bYuQbadk</p>","","","","","","","","",""
"html-keyboard-response","206","464859","0.0-12.0-0.36","613f57084e80f056c78f9b7b","650c16f0f2faf8d7a0d14c09","651c1d5151e108b4dc8ac0d9","null","null","<p style=""font-size: 60px; font-family: BACS"">Qcladravu</p>","","","","","","","","",""
"html-keyboard-response","207","465860","0.0-12.0-0.37","613f57084e80f056c78f9b7b","650c16f0f2faf8d7a0d14c09","651c1d5151e108b4dc8ac0d9","null","null","<p style=""font-size: 60px; font-family: BACS"">UdYUQmLJ</p>","","","","","","","","",""
"html-keyboard-response","208","466875","0.0-12.0-0.38","613f57084e80f056c78f9b7b","650c16f0f2faf8d7a0d14c09","651c1d5151e108b4dc8ac0d9","null","null","<p style=""font-size: 60px; font-family: BACS"">krGuYUYa</p>","","","","","","","","",""
"html-keyboard-response","209","467881","0.0-12.0-0.39","613f57084e80f056c78f9b7b","650c16f0f2faf8d7a0d14c09","651c1d5151e108b4dc8ac0d9","null","null","<p style=""font-size: 60px; font-family: BACS"">DBPhcRCdc</p>","","","","","","","","",""
"html-keyboard-response","210","468884","0.0-12.0-0.40","613f57084e80f056c78f9b7b","650c16f0f2faf8d7a0d14c09","651c1d5151e108b4dc8ac0d9","null","null","<p style=""font-size: 60px; font-family: BACS"">bYuQYUYa</p>","","","","","","","","",""
"html-keyboard-response","211","469893","0.0-12.0-0.41","613f57084e80f056c78f9b7b","650c16f0f2faf8d7a0d14c09","651c1d5151e108b4dc8ac0d9","null","null","<p style=""font-size: 60px; font-family: BACS"">DCmhMKmY</p>","","","","","","","","",""
"html-keyboard-response","212","470910","0.0-12.0-0.42","613f57084e80f056c78f9b7b","650c16f0f2faf8d7a0d14c09","651c1d5151e108b4dc8ac0d9","null","null","<p style=""font-size: 60px; font-family: BACS"">tmAKCkbd</p>","","","","","","","","",""
"html-keyboard-response","213","471919","0.0-12.0-0.43","613f57084e80f056c78f9b7b","650c16f0f2faf8d7a0d14c09","651c1d5151e108b4dc8ac0d9","null","null","<p style=""font-size: 60px; font-family: BACS"">LuaUcrdY</p>","","","","","","","","",""
"html-keyboard-response","214","472929","0.0-12.0-0.44","613f57084e80f056c78f9b7b","650c16f0f2faf8d7a0d14c09","651c1d5151e108b4dc8ac0d9","null","null","<p style=""font-size: 60px; font-family: BACS"">Juamlbadk</p>","","","","","","","","",""
"html-keyboard-response","215","473937","0.0-12.0-0.45","613f57084e80f056c78f9b7b","650c16f0f2faf8d7a0d14c09","651c1d5151e108b4dc8ac0d9","null","null","<p style=""font-size: 60px; font-family: BACS"">AZlLNcrdY</p>","","","","","","","","",""
"html-keyboard-response","216","474940","0.0-12.0-0.46","613f57084e80f056c78f9b7b","650c16f0f2faf8d7a0d14c09","651c1d5151e108b4dc8ac0d9","null","null","<p style=""font-size: 60px; font-family: BACS"">LuaUmLJ</p>","","","","","","","","",""
"html-keyboard-response","217","475941","0.0-12.0-0.47","613f57084e80f056c78f9b7b","650c16f0f2faf8d7a0d14c09","651c1d5151e108b4dc8ac0d9","null","null","<p style=""font-size: 60px; font-family: BACS"">hlbtbCPMl</p>","","","","","","","","",""
"html-keyboard-response","218","476946","0.0-12.0-0.48","613f57084e80f056c78f9b7b","650c16f0f2faf8d7a0d14c09","651c1d5151e108b4dc8ac0d9","null","null","<p style=""font-size: 60px; font-family: BACS"">kCRmRCdc</p>","","","","","","","","",""
"html-keyboard-response","219","477953","0.0-12.0-0.49","613f57084e80f056c78f9b7b","650c16f0f2faf8d7a0d14c09","651c1d5151e108b4dc8ac0d9","null","null","<p style=""font-size: 60px; font-family: BACS"">KTDTBMKmY</p>","","","","","","","","",""
"html-keyboard-response","220","478967","0.0-12.0-0.50","613f57084e80f056c78f9b7b","650c16f0f2faf8d7a0d14c09","651c1d5151e108b4dc8ac0d9","null","null","<p style=""font-size: 60px; font-family: BACS"">krGubadk</p>","","","","","","","","",""
"html-keyboard-response","221","479975","0.0-12.0-0.51","613f57084e80f056c78f9b7b","650c16f0f2faf8d7a0d14c09","651c1d5151e108b4dc8ac0d9","null","null","<p style=""font-size: 60px; font-family: BACS"">BATOcCkbd</p>","","","","","","","","",""
"html-keyboard-response","222","480988","0.0-12.0-0.52","613f57084e80f056c78f9b7b","650c16f0f2faf8d7a0d14c09","651c1d5151e108b4dc8ac0d9","null","null","<p style=""font-size: 60px; font-family: BACS"">kCRmMKmY</p>","","","","","","","","",""
"html-keyboard-response","223","481991","0.0-12.0-0.53","613f57084e80f056c78f9b7b","650c16f0f2faf8d7a0d14c09","651c1d5151e108b4dc8ac0d9","null","null","<p style=""font-size: 60px; font-family: BACS"">bYuQmLJ</p>","","","","","","","","",""
"html-keyboard-response","224","482993","0.0-12.0-0.54","613f57084e80f056c78f9b7b","650c16f0f2faf8d7a0d14c09","651c1d5151e108b4dc8ac0d9","null","null","<p style=""font-size: 60px; font-family: BACS"">CtmbRCdc</p>","","","","","","","","",""
"html-keyboard-response","225","484009","0.0-12.0-0.55","613f57084e80f056c78f9b7b","650c16f0f2faf8d7a0d14c09","651c1d5151e108b4dc8ac0d9","null","null","<p style=""font-size: 60px; font-family: BACS"">kGamNYUYa</p>","","","","","","","","",""
"html-keyboard-response","226","485024","0.0-12.0-0.56","613f57084e80f056c78f9b7b","650c16f0f2faf8d7a0d14c09","651c1d5151e108b4dc8ac0d9","null","null","<p style=""font-size: 60px; font-family: BACS"">DRPkYCkbd</p>","","","","","","","","",""
"html-keyboard-response","227","486031","0.0-12.0-0.57","613f57084e80f056c78f9b7b","650c16f0f2faf8d7a0d14c09","651c1d5151e108b4dc8ac0d9","null","null","<p style=""font-size: 60px; font-family: BACS"">BATOcRCdc</p>","","","","","","","","",""
"html-keyboard-response","228","487040","0.0-12.0-0.58","613f57084e80f056c78f9b7b","650c16f0f2faf8d7a0d14c09","651c1d5151e108b4dc8ac0d9","null","null","<p style=""font-size: 60px; font-family: BACS"">kGamNmLJ</p>","","","","","","","","",""
"html-keyboard-response","229","488045","0.0-12.0-0.59","613f57084e80f056c78f9b7b","650c16f0f2faf8d7a0d14c09","651c1d5151e108b4dc8ac0d9","null","null","<p style=""font-size: 60px; font-family: BACS"">AbKDCPMl</p>","","","","","","","","",""
"html-keyboard-response","230","489058","0.0-12.0-0.60","613f57084e80f056c78f9b7b","650c16f0f2faf8d7a0d14c09","651c1d5151e108b4dc8ac0d9","null","null","<p style=""font-size: 60px; font-family: BACS"">KTDTBTAm</p>","","","","","","","","",""
"html-keyboard-response","231","490072","0.0-12.0-0.61","613f57084e80f056c78f9b7b","650c16f0f2faf8d7a0d14c09","651c1d5151e108b4dc8ac0d9","null","null","<p style=""font-size: 60px; font-family: BACS"">BATOcCPMl</p>","","","","","","","","",""
"html-keyboard-response","232","491076","0.0-12.0-0.62","613f57084e80f056c78f9b7b","650c16f0f2faf8d7a0d14c09","651c1d5151e108b4dc8ac0d9","null","null","<p style=""font-size: 60px; font-family: BACS"">DRPkYTAm</p>","","","","","","","","",""
"html-keyboard-response","233","492089","0.0-12.0-0.63","613f57084e80f056c78f9b7b","650c16f0f2faf8d7a0d14c09","651c1d5151e108b4dc8ac0d9","null","null","<p style=""font-size: 60px; font-family: BACS"">CtmbCPMl</p>","","","","","","","","",""
"html-keyboard-response","234","493100","0.0-12.0-0.64","613f57084e80f056c78f9b7b","650c16f0f2faf8d7a0d14c09","651c1d5151e108b4dc8ac0d9","null","null","<p style=""font-size: 60px; font-family: BACS"">DCmhCkbd</p>","","","","","","","","",""
"html-keyboard-response","235","494112","0.0-12.0-0.65","613f57084e80f056c78f9b7b","650c16f0f2faf8d7a0d14c09","651c1d5151e108b4dc8ac0d9","null","null","<p style=""font-size: 60px; font-family: BACS"">rcmuvbadk</p>","","","","","","","","",""
"html-keyboard-response","236","495119","0.0-12.0-0.66","613f57084e80f056c78f9b7b","650c16f0f2faf8d7a0d14c09","651c1d5151e108b4dc8ac0d9","null","null","<p style=""font-size: 60px; font-family: BACS"">LuaUYUYa</p>","","","","","","","","",""
"html-keyboard-response","237","496123","0.0-12.0-0.67","613f57084e80f056c78f9b7b","650c16f0f2faf8d7a0d14c09","651c1d5151e108b4dc8ac0d9","null","null","<p style=""font-size: 60px; font-family: BACS"">DBPhcTAm</p>","","","","","","","","",""
"html-keyboard-response","238","497132","0.0-12.0-0.68","613f57084e80f056c78f9b7b","650c16f0f2faf8d7a0d14c09","651c1d5151e108b4dc8ac0d9","null","null","<p style=""font-size: 60px; font-family: BACS"">kGamNcrdY</p>","","","","","","","","",""
"html-keyboard-response","239","498141","0.0-12.0-0.69","613f57084e80f056c78f9b7b","650c16f0f2faf8d7a0d14c09","651c1d5151e108b4dc8ac0d9","null","null","<p style=""font-size: 60px; font-family: BACS"">DRPkYMKmY</p>","","","","","","","","",""
"html-keyboard-response","240","499142","0.0-12.0-0.70","613f57084e80f056c78f9b7b","650c16f0f2faf8d7a0d14c09","651c1d5151e108b4dc8ac0d9","null","null","<p style=""font-size: 60px; font-family: BACS"">UdYUQravu</p>","","","","","","","","",""
"html-keyboard-response","241","500149","0.0-12.0-0.71","613f57084e80f056c78f9b7b","650c16f0f2faf8d7a0d14c09","651c1d5151e108b4dc8ac0d9","null","null","<p style=""font-size: 60px; font-family: BACS"">JuamlcrdY</p>","","","","","","","","",""
"html-keyboard-response","242","501163","0.0-12.0-0.72","613f57084e80f056c78f9b7b","650c16f0f2faf8d7a0d14c09","651c1d5151e108b4dc8ac0d9","null","null","<p style=""font-size: 60px; font-family: BACS"">BATOcMKmY</p>","","","","","","","","",""
"html-keyboard-response","243","502165","0.0-12.0-0.73","613f57084e80f056c78f9b7b","650c16f0f2faf8d7a0d14c09","651c1d5151e108b4dc8ac0d9","null","null","<p style=""font-size: 60px; font-family: BACS"">rcmuvcrdY</p>","","","","","","","","",""
"html-keyboard-response","244","503176","0.0-12.0-0.74","613f57084e80f056c78f9b7b","650c16f0f2faf8d7a0d14c09","651c1d5151e108b4dc8ac0d9","null","null","<p style=""font-size: 60px; font-family: BACS"">UdYUQbadk</p>","","","","","","","","",""
"html-keyboard-response","245","504177","0.0-12.0-0.75","613f57084e80f056c78f9b7b","650c16f0f2faf8d7a0d14c09","651c1d5151e108b4dc8ac0d9","null","null","<p style=""font-size: 60px; font-family: BACS"">kCRmCkbd</p>","","","","","","","","",""
"html-keyboard-response","246","505186","0.0-12.0-0.76","613f57084e80f056c78f9b7b","650c16f0f2faf8d7a0d14c09","651c1d5151e108b4dc8ac0d9","null","null","<p style=""font-size: 60px; font-family: BACS"">AbKDTAm</p>","","","","","","","","",""
"html-keyboard-response","247","506199","0.0-12.0-0.77","613f57084e80f056c78f9b7b","650c16f0f2faf8d7a0d14c09","651c1d5151e108b4dc8ac0d9","null","null","<p style=""font-size: 60px; font-family: BACS"">tmAKMKmY</p>","","","","","","","","",""
"html-keyboard-response","248","507214","0.0-12.0-0.78","613f57084e80f056c78f9b7b","650c16f0f2faf8d7a0d14c09","651c1d5151e108b4dc8ac0d9","null","null","<p style=""font-size: 60px; font-family: BACS"">AbKDCkbd</p>","","","","","","","","",""
"html-keyboard-response","249","508224","0.0-12.0-0.79","613f57084e80f056c78f9b7b","650c16f0f2faf8d7a0d14c09","651c1d5151e108b4dc8ac0d9","null","null","<p style=""font-size: 60px; font-family: BACS"">AZlLNravu</p>","","","","","","","","",""
"html-keyboard-response","250","522147","0.0-13.0","613f57084e80f056c78f9b7b","650c16f0f2faf8d7a0d14c09","651c1d5151e108b4dc8ac0d9","13921"," ","<p>Great, you've seen the third block of words. You may now take a short break.</p>
      <p>Press the spacebar when you're ready to continue.</p>","","","","","","","","",""
"html-keyboard-response","251","523153","0.0-14.0-0.0","613f57084e80f056c78f9b7b","650c16f0f2faf8d7a0d14c09","651c1d5151e108b4dc8ac0d9","null","null","<p style=""font-size: 60px; font-family: BACS"">tmAKCkbd</p>","","","","","","","","",""
"html-keyboard-response","252","524169","0.0-14.0-0.1","613f57084e80f056c78f9b7b","650c16f0f2faf8d7a0d14c09","651c1d5151e108b4dc8ac0d9","null","null","<p style=""font-size: 60px; font-family: BACS"">AZlLNcrdY</p>","","","","","","","","",""
"html-keyboard-response","253","525180","0.0-14.0-0.2","613f57084e80f056c78f9b7b","650c16f0f2faf8d7a0d14c09","651c1d5151e108b4dc8ac0d9","null","null","<p style=""font-size: 60px; font-family: BACS"">kGamNravu</p>","","","","","","","","",""
"html-keyboard-response","254","526186","0.0-14.0-0.3","613f57084e80f056c78f9b7b","650c16f0f2faf8d7a0d14c09","651c1d5151e108b4dc8ac0d9","null","null","<p style=""font-size: 60px; font-family: BACS"">bYuQmLJ</p>","","","","","","","","",""
"html-keyboard-response","255","527188","0.0-14.0-0.4","613f57084e80f056c78f9b7b","650c16f0f2faf8d7a0d14c09","651c1d5151e108b4dc8ac0d9","null","null","<p style=""font-size: 60px; font-family: BACS"">hlbtbTAm</p>","","","","","","","","",""
"html-keyboard-response","256","528191","0.0-14.0-0.5","613f57084e80f056c78f9b7b","650c16f0f2faf8d7a0d14c09","651c1d5151e108b4dc8ac0d9","null","null","<p style=""font-size: 60px; font-family: BACS"">AbKDCkbd</p>","","","","","","","","",""
"html-keyboard-response","257","529200","0.0-14.0-0.6","613f57084e80f056c78f9b7b","650c16f0f2faf8d7a0d14c09","651c1d5151e108b4dc8ac0d9","null","null","<p style=""font-size: 60px; font-family: BACS"">DBPhcTAm</p>","","","","","","","","",""
"html-keyboard-response","258","530204","0.0-14.0-0.7","613f57084e80f056c78f9b7b","650c16f0f2faf8d7a0d14c09","651c1d5151e108b4dc8ac0d9","null","null","<p style=""font-size: 60px; font-family: BACS"">krGucrdY</p>","","","","","","","","",""
"html-keyboard-response","259","531212","0.0-14.0-0.8","613f57084e80f056c78f9b7b","650c16f0f2faf8d7a0d14c09","651c1d5151e108b4dc8ac0d9","null","null","<p style=""font-size: 60px; font-family: BACS"">DRPkYMKmY</p>","","","","","","","","",""
"html-keyboard-response","260","532225","0.0-14.0-0.9","613f57084e80f056c78f9b7b","650c16f0f2faf8d7a0d14c09","651c1d5151e108b4dc8ac0d9","null","null","<p style=""font-size: 60px; font-family: BACS"">rcmuvcrdY</p>","","","","","","","","",""
"html-keyboard-response","261","533240","0.0-14.0-0.10","613f57084e80f056c78f9b7b","650c16f0f2faf8d7a0d14c09","651c1d5151e108b4dc8ac0d9","null","null","<p style=""font-size: 60px; font-family: BACS"">KTDTBCkbd</p>","","","","","","","","",""
"html-keyboard-response","262","534253","0.0-14.0-0.11","613f57084e80f056c78f9b7b","650c16f0f2faf8d7a0d14c09","651c1d5151e108b4dc8ac0d9","null","null","<p style=""font-size: 60px; font-family: BACS"">DRPkYTAm</p>","","","","","","","","",""
"html-keyboard-response","263","535265","0.0-14.0-0.12","613f57084e80f056c78f9b7b","650c16f0f2faf8d7a0d14c09","651c1d5151e108b4dc8ac0d9","null","null","<p style=""font-size: 60px; font-family: BACS"">lYruamLJ</p>","","","","","","","","",""
"html-keyboard-response","264","536281","0.0-14.0-0.13","613f57084e80f056c78f9b7b","650c16f0f2faf8d7a0d14c09","651c1d5151e108b4dc8ac0d9","null","null","<p style=""font-size: 60px; font-family: BACS"">krGuravu</p>","","","","","","","","",""
"html-keyboard-response","265","537291","0.0-14.0-0.14","613f57084e80f056c78f9b7b","650c16f0f2faf8d7a0d14c09","651c1d5151e108b4dc8ac0d9","null","null","<p style=""font-size: 60px; font-family: BACS"">DBPhcMKmY</p>","","","","","","","","",""
"html-keyboard-response","266","538302","0.0-14.0-0.15","613f57084e80f056c78f9b7b","650c16f0f2faf8d7a0d14c09","651c1d5151e108b4dc8ac0d9","null","null","<p style=""font-size: 60px; font-family: BACS"">UdYUQravu</p>","","","","","","","","",""
"html-keyboard-response","267","539312","0.0-14.0-0.16","613f57084e80f056c78f9b7b","650c16f0f2faf8d7a0d14c09","651c1d5151e108b4dc8ac0d9","null","null","<p style=""font-size: 60px; font-family: BACS"">AbKDRCdc</p>","","","","","","","","",""
"html-keyboard-response","268","540325","0.0-14.0-0.17","613f57084e80f056c78f9b7b","650c16f0f2faf8d7a0d14c09","651c1d5151e108b4dc8ac0d9","null","null","<p style=""font-size: 60px; font-family: BACS"">DCmhTAm</p>","","","","","","","","",""
"html-keyboard-response","269","541327","0.0-14.0-0.18","613f57084e80f056c78f9b7b","650c16f0f2faf8d7a0d14c09","651c1d5151e108b4dc8ac0d9","null","null","<p style=""font-size: 60px; font-family: BACS"">kGamNYUYa</p>","","","","","","","","",""
"html-keyboard-response","270","542329","0.0-14.0-0.19","613f57084e80f056c78f9b7b","650c16f0f2faf8d7a0d14c09","651c1d5151e108b4dc8ac0d9","null","null","<p style=""font-size: 60px; font-family: BACS"">kCRmCkbd</p>","","","","","","","","",""
"html-keyboard-response","271","543337","0.0-14.0-0.20","613f57084e80f056c78f9b7b","650c16f0f2faf8d7a0d14c09","651c1d5151e108b4dc8ac0d9","null","null","<p style=""font-size: 60px; font-family: BACS"">kGamNcrdY</p>","","","","","","","","",""
"html-keyboard-response","272","544351","0.0-14.0-0.21","613f57084e80f056c78f9b7b","650c16f0f2faf8d7a0d14c09","651c1d5151e108b4dc8ac0d9","null","null","<p style=""font-size: 60px; font-family: BACS"">CtmbTAm</p>","","","","","","","","",""
"html-keyboard-response","273","545368","0.0-14.0-0.22","613f57084e80f056c78f9b7b","650c16f0f2faf8d7a0d14c09","651c1d5151e108b4dc8ac0d9","null","null","<p style=""font-size: 60px; font-family: BACS"">tmAKMKmY</p>","","","","","","","","",""
"html-keyboard-response","274","546378","0.0-14.0-0.23","613f57084e80f056c78f9b7b","650c16f0f2faf8d7a0d14c09","651c1d5151e108b4dc8ac0d9","null","null","<p style=""font-size: 60px; font-family: BACS"">rcmuvYUYa</p>","","","","","","","","",""
"html-keyboard-response","275","547390","0.0-14.0-0.24","613f57084e80f056c78f9b7b","650c16f0f2faf8d7a0d14c09","651c1d5151e108b4dc8ac0d9","null","null","<p style=""font-size: 60px; font-family: BACS"">DBPhcCPMl</p>","","","","","","","","",""
"html-keyboard-response","276","548397","0.0-14.0-0.25","613f57084e80f056c78f9b7b","650c16f0f2faf8d7a0d14c09","651c1d5151e108b4dc8ac0d9","null","null","<p style=""font-size: 60px; font-family: BACS"">BATOcCkbd</p>","","","","","","","","",""
"html-keyboard-response","277","549407","0.0-14.0-0.26","613f57084e80f056c78f9b7b","650c16f0f2faf8d7a0d14c09","651c1d5151e108b4dc8ac0d9","null","null","<p style=""font-size: 60px; font-family: BACS"">bYuQbadk</p>","","","","","","","","",""
"html-keyboard-response","278","550410","0.0-14.0-0.27","613f57084e80f056c78f9b7b","650c16f0f2faf8d7a0d14c09","651c1d5151e108b4dc8ac0d9","null","null","<p style=""font-size: 60px; font-family: BACS"">hlbtbCPMl</p>","","","","","","","","",""
"html-keyboard-response","279","551422","0.0-14.0-0.28","613f57084e80f056c78f9b7b","650c16f0f2faf8d7a0d14c09","651c1d5151e108b4dc8ac0d9","null","null","<p style=""font-size: 60px; font-family: BACS"">DRPkYCkbd</p>","","","","","","","","",""
"html-keyboard-response","280","552432","0.0-14.0-0.29","613f57084e80f056c78f9b7b","650c16f0f2faf8d7a0d14c09","651c1d5151e108b4dc8ac0d9","null","null","<p style=""font-size: 60px; font-family: BACS"">kCRmRCdc</p>","","","","","","","","",""
"html-keyboard-response","281","553446","0.0-14.0-0.30","613f57084e80f056c78f9b7b","650c16f0f2faf8d7a0d14c09","651c1d5151e108b4dc8ac0d9","null","null","<p style=""font-size: 60px; font-family: BACS"">Qcladravu</p>","","","","","","","","",""
"html-keyboard-response","282","554458","0.0-14.0-0.31","613f57084e80f056c78f9b7b","650c16f0f2faf8d7a0d14c09","651c1d5151e108b4dc8ac0d9","null","null","<p style=""font-size: 60px; font-family: BACS"">AZlLNmLJ</p>","","","","","","","","",""
"html-keyboard-response","283","555471","0.0-14.0-0.32","613f57084e80f056c78f9b7b","650c16f0f2faf8d7a0d14c09","651c1d5151e108b4dc8ac0d9","null","null","<p style=""font-size: 60px; font-family: BACS"">bYuQcrdY</p>","","","","","","","","",""
"html-keyboard-response","284","556484","0.0-14.0-0.33","613f57084e80f056c78f9b7b","650c16f0f2faf8d7a0d14c09","651c1d5151e108b4dc8ac0d9","null","null","<p style=""font-size: 60px; font-family: BACS"">AbKDCPMl</p>","","","","","","","","",""
"html-keyboard-response","285","557499","0.0-14.0-0.34","613f57084e80f056c78f9b7b","650c16f0f2faf8d7a0d14c09","651c1d5151e108b4dc8ac0d9","null","null","<p style=""font-size: 60px; font-family: BACS"">lYruaravu</p>","","","","","","","","",""
"html-keyboard-response","286","558504","0.0-14.0-0.35","613f57084e80f056c78f9b7b","650c16f0f2faf8d7a0d14c09","651c1d5151e108b4dc8ac0d9","null","null","<p style=""font-size: 60px; font-family: BACS"">krGubadk</p>","","","","","","","","",""
"html-keyboard-response","287","559511","0.0-14.0-0.36","613f57084e80f056c78f9b7b","650c16f0f2faf8d7a0d14c09","651c1d5151e108b4dc8ac0d9","null","null","<p style=""font-size: 60px; font-family: BACS"">lYruacrdY</p>","","","","","","","","",""
"html-keyboard-response","288","560519","0.0-14.0-0.37","613f57084e80f056c78f9b7b","650c16f0f2faf8d7a0d14c09","651c1d5151e108b4dc8ac0d9","null","null","<p style=""font-size: 60px; font-family: BACS"">DCmhRCdc</p>","","","","","","","","",""
"html-keyboard-response","289","561533","0.0-14.0-0.38","613f57084e80f056c78f9b7b","650c16f0f2faf8d7a0d14c09","651c1d5151e108b4dc8ac0d9","null","null","<p style=""font-size: 60px; font-family: BACS"">AZlLNravu</p>","","","","","","","","",""
"html-keyboard-response","290","562545","0.0-14.0-0.39","613f57084e80f056c78f9b7b","650c16f0f2faf8d7a0d14c09","651c1d5151e108b4dc8ac0d9","null","null","<p style=""font-size: 60px; font-family: BACS"">CtmbCPMl</p>","","","","","","","","",""
"html-keyboard-response","291","563560","0.0-14.0-0.40","613f57084e80f056c78f9b7b","650c16f0f2faf8d7a0d14c09","651c1d5151e108b4dc8ac0d9","null","null","<p style=""font-size: 60px; font-family: BACS"">DCmhMKmY</p>","","","","","","","","",""
"html-keyboard-response","292","564562","0.0-14.0-0.41","613f57084e80f056c78f9b7b","650c16f0f2faf8d7a0d14c09","651c1d5151e108b4dc8ac0d9","null","null","<p style=""font-size: 60px; font-family: BACS"">UdYUQmLJ</p>","","","","","","","","",""
"html-keyboard-response","293","565566","0.0-14.0-0.42","613f57084e80f056c78f9b7b","650c16f0f2faf8d7a0d14c09","651c1d5151e108b4dc8ac0d9","null","null","<p style=""font-size: 60px; font-family: BACS"">CtmbRCdc</p>","","","","","","","","",""
"html-keyboard-response","294","566577","0.0-14.0-0.43","613f57084e80f056c78f9b7b","650c16f0f2faf8d7a0d14c09","651c1d5151e108b4dc8ac0d9","null","null","<p style=""font-size: 60px; font-family: BACS"">AbKDTAm</p>","","","","","","","","",""
"html-keyboard-response","295","567587","0.0-14.0-0.44","613f57084e80f056c78f9b7b","650c16f0f2faf8d7a0d14c09","651c1d5151e108b4dc8ac0d9","null","null","<p style=""font-size: 60px; font-family: BACS"">DRPkYRCdc</p>","","","","","","","","",""
"html-keyboard-response","296","568590","0.0-14.0-0.45","613f57084e80f056c78f9b7b","650c16f0f2faf8d7a0d14c09","651c1d5151e108b4dc8ac0d9","null","null","<p style=""font-size: 60px; font-family: BACS"">QcladYUYa</p>","","","","","","","","",""
"html-keyboard-response","297","569595","0.0-14.0-0.46","613f57084e80f056c78f9b7b","650c16f0f2faf8d7a0d14c09","651c1d5151e108b4dc8ac0d9","null","null","<p style=""font-size: 60px; font-family: BACS"">DBPhcRCdc</p>","","","","","","","","",""
"html-keyboard-response","298","570612","0.0-14.0-0.47","613f57084e80f056c78f9b7b","650c16f0f2faf8d7a0d14c09","651c1d5151e108b4dc8ac0d9","null","null","<p style=""font-size: 60px; font-family: BACS"">DCmhCkbd</p>","","","","","","","","",""
"html-keyboard-response","299","571622","0.0-14.0-0.48","613f57084e80f056c78f9b7b","650c16f0f2faf8d7a0d14c09","651c1d5151e108b4dc8ac0d9","null","null","<p style=""font-size: 60px; font-family: BACS"">tmAKCPMl</p>","","","","","","","","",""
"html-keyboard-response","300","572628","0.0-14.0-0.49","613f57084e80f056c78f9b7b","650c16f0f2faf8d7a0d14c09","651c1d5151e108b4dc8ac0d9","null","null","<p style=""font-size: 60px; font-family: BACS"">kCRmMKmY</p>","","","","","","","","",""
"html-keyboard-response","301","573639","0.0-14.0-0.50","613f57084e80f056c78f9b7b","650c16f0f2faf8d7a0d14c09","651c1d5151e108b4dc8ac0d9","null","null","<p style=""font-size: 60px; font-family: BACS"">KTDTBCPMl</p>","","","","","","","","",""
"html-keyboard-response","302","574654","0.0-14.0-0.51","613f57084e80f056c78f9b7b","650c16f0f2faf8d7a0d14c09","651c1d5151e108b4dc8ac0d9","null","null","<p style=""font-size: 60px; font-family: BACS"">tmAKTAm</p>","","","","","","","","",""
"html-keyboard-response","303","575668","0.0-14.0-0.52","613f57084e80f056c78f9b7b","650c16f0f2faf8d7a0d14c09","651c1d5151e108b4dc8ac0d9","null","null","<p style=""font-size: 60px; font-family: BACS"">QcladmLJ</p>","","","","","","","","",""
"html-keyboard-response","304","576676","0.0-14.0-0.53","613f57084e80f056c78f9b7b","650c16f0f2faf8d7a0d14c09","651c1d5151e108b4dc8ac0d9","null","null","<p style=""font-size: 60px; font-family: BACS"">bYuQYUYa</p>","","","","","","","","",""
"html-keyboard-response","305","577681","0.0-14.0-0.54","613f57084e80f056c78f9b7b","650c16f0f2faf8d7a0d14c09","651c1d5151e108b4dc8ac0d9","null","null","<p style=""font-size: 60px; font-family: BACS"">hlbtbMKmY</p>","","","","","","","","",""
"html-keyboard-response","306","578689","0.0-14.0-0.55","613f57084e80f056c78f9b7b","650c16f0f2faf8d7a0d14c09","651c1d5151e108b4dc8ac0d9","null","null","<p style=""font-size: 60px; font-family: BACS"">BATOcCPMl</p>","","","","","","","","",""
"html-keyboard-response","307","579697","0.0-14.0-0.56","613f57084e80f056c78f9b7b","650c16f0f2faf8d7a0d14c09","651c1d5151e108b4dc8ac0d9","null","null","<p style=""font-size: 60px; font-family: BACS"">LuaUcrdY</p>","","","","","","","","",""
"html-keyboard-response","308","580711","0.0-14.0-0.57","613f57084e80f056c78f9b7b","650c16f0f2faf8d7a0d14c09","651c1d5151e108b4dc8ac0d9","null","null","<p style=""font-size: 60px; font-family: BACS"">BATOcMKmY</p>","","","","","","","","",""
"html-keyboard-response","309","581724","0.0-14.0-0.58","613f57084e80f056c78f9b7b","650c16f0f2faf8d7a0d14c09","651c1d5151e108b4dc8ac0d9","null","null","<p style=""font-size: 60px; font-family: BACS"">UdYUQbadk</p>","","","","","","","","",""
"html-keyboard-response","310","582732","0.0-14.0-0.59","613f57084e80f056c78f9b7b","650c16f0f2faf8d7a0d14c09","651c1d5151e108b4dc8ac0d9","null","null","<p style=""font-size: 60px; font-family: BACS"">rcmuvravu</p>","","","","","","","","",""
"html-keyboard-response","311","583743","0.0-14.0-0.60","613f57084e80f056c78f9b7b","650c16f0f2faf8d7a0d14c09","651c1d5151e108b4dc8ac0d9","null","null","<p style=""font-size: 60px; font-family: BACS"">LuaUmLJ</p>","","","","","","","","",""
"html-keyboard-response","312","584755","0.0-14.0-0.61","613f57084e80f056c78f9b7b","650c16f0f2faf8d7a0d14c09","651c1d5151e108b4dc8ac0d9","null","null","<p style=""font-size: 60px; font-family: BACS"">Qcladbadk</p>","","","","","","","","",""
"html-keyboard-response","313","585766","0.0-14.0-0.62","613f57084e80f056c78f9b7b","650c16f0f2faf8d7a0d14c09","651c1d5151e108b4dc8ac0d9","null","null","<p style=""font-size: 60px; font-family: BACS"">JuamlcrdY</p>","","","","","","","","",""
"html-keyboard-response","314","586778","0.0-14.0-0.63","613f57084e80f056c78f9b7b","650c16f0f2faf8d7a0d14c09","651c1d5151e108b4dc8ac0d9","null","null","<p style=""font-size: 60px; font-family: BACS"">rcmuvbadk</p>","","","","","","","","",""
"html-keyboard-response","315","587788","0.0-14.0-0.64","613f57084e80f056c78f9b7b","650c16f0f2faf8d7a0d14c09","651c1d5151e108b4dc8ac0d9","null","null","<p style=""font-size: 60px; font-family: BACS"">BATOcRCdc</p>","","","","","","","","",""
"html-keyboard-response","316","588790","0.0-14.0-0.65","613f57084e80f056c78f9b7b","650c16f0f2faf8d7a0d14c09","651c1d5151e108b4dc8ac0d9","null","null","<p style=""font-size: 60px; font-family: BACS"">kCRmCPMl</p>","","","","","","","","",""
"html-keyboard-response","317","589798","0.0-14.0-0.66","613f57084e80f056c78f9b7b","650c16f0f2faf8d7a0d14c09","651c1d5151e108b4dc8ac0d9","null","null","<p style=""font-size: 60px; font-family: BACS"">kGamNmLJ</p>","","","","","","","","",""
"html-keyboard-response","318","590809","0.0-14.0-0.67","613f57084e80f056c78f9b7b","650c16f0f2faf8d7a0d14c09","651c1d5151e108b4dc8ac0d9","null","null","<p style=""font-size: 60px; font-family: BACS"">KTDTBMKmY</p>","","","","","","","","",""
"html-keyboard-response","319","591821","0.0-14.0-0.68","613f57084e80f056c78f9b7b","650c16f0f2faf8d7a0d14c09","651c1d5151e108b4dc8ac0d9","null","null","<p style=""font-size: 60px; font-family: BACS"">lYruabadk</p>","","","","","","","","",""
"html-keyboard-response","320","592832","0.0-14.0-0.69","613f57084e80f056c78f9b7b","650c16f0f2faf8d7a0d14c09","651c1d5151e108b4dc8ac0d9","null","null","<p style=""font-size: 60px; font-family: BACS"">LuaUravu</p>","","","","","","","","",""
"html-keyboard-response","321","593846","0.0-14.0-0.70","613f57084e80f056c78f9b7b","650c16f0f2faf8d7a0d14c09","651c1d5151e108b4dc8ac0d9","null","null","<p style=""font-size: 60px; font-family: BACS"">UdYUQYUYa</p>","","","","","","","","",""
"html-keyboard-response","322","594862","0.0-14.0-0.71","613f57084e80f056c78f9b7b","650c16f0f2faf8d7a0d14c09","651c1d5151e108b4dc8ac0d9","null","null","<p style=""font-size: 60px; font-family: BACS"">Juamlbadk</p>","","","","","","","","",""
"html-keyboard-response","323","595864","0.0-14.0-0.72","613f57084e80f056c78f9b7b","650c16f0f2faf8d7a0d14c09","651c1d5151e108b4dc8ac0d9","null","null","<p style=""font-size: 60px; font-family: BACS"">CtmbCkbd</p>","","","","","","","","",""
"html-keyboard-response","324","596874","0.0-14.0-0.73","613f57084e80f056c78f9b7b","650c16f0f2faf8d7a0d14c09","651c1d5151e108b4dc8ac0d9","null","null","<p style=""font-size: 60px; font-family: BACS"">JuamlmLJ</p>","","","","","","","","",""
"html-keyboard-response","325","597891","0.0-14.0-0.74","613f57084e80f056c78f9b7b","650c16f0f2faf8d7a0d14c09","651c1d5151e108b4dc8ac0d9","null","null","<p style=""font-size: 60px; font-family: BACS"">krGuYUYa</p>","","","","","","","","",""
"html-keyboard-response","326","598902","0.0-14.0-0.75","613f57084e80f056c78f9b7b","650c16f0f2faf8d7a0d14c09","651c1d5151e108b4dc8ac0d9","null","null","<p style=""font-size: 60px; font-family: BACS"">AZlLNbadk</p>","","","","","","","","",""
"html-keyboard-response","327","599914","0.0-14.0-0.76","613f57084e80f056c78f9b7b","650c16f0f2faf8d7a0d14c09","651c1d5151e108b4dc8ac0d9","null","null","<p style=""font-size: 60px; font-family: BACS"">JuamlYUYa</p>","","","","","","","","",""
"html-keyboard-response","328","600929","0.0-14.0-0.77","613f57084e80f056c78f9b7b","650c16f0f2faf8d7a0d14c09","651c1d5151e108b4dc8ac0d9","null","null","<p style=""font-size: 60px; font-family: BACS"">KTDTBTAm</p>","","","","","","","","",""
"html-keyboard-response","329","601937","0.0-14.0-0.78","613f57084e80f056c78f9b7b","650c16f0f2faf8d7a0d14c09","651c1d5151e108b4dc8ac0d9","null","null","<p style=""font-size: 60px; font-family: BACS"">LuaUYUYa</p>","","","","","","","","",""
"html-keyboard-response","330","602948","0.0-14.0-0.79","613f57084e80f056c78f9b7b","650c16f0f2faf8d7a0d14c09","651c1d5151e108b4dc8ac0d9","null","null","<p style=""font-size: 60px; font-family: BACS"">hlbtbRCdc</p>","","","","","","","","",""
"html-keyboard-response","331","616138","0.0-15.0","613f57084e80f056c78f9b7b","650c16f0f2faf8d7a0d14c09","651c1d5151e108b4dc8ac0d9","13189"," ","<p>Great, you've seen the fourth block of words. You may now take a short break.</p>
      <p>Press the spacebar when you're ready to continue.</p>","","","","","","","","",""
"html-keyboard-response","332","617150","0.0-16.0-0.0","613f57084e80f056c78f9b7b","650c16f0f2faf8d7a0d14c09","651c1d5151e108b4dc8ac0d9","null","null","<p style=""font-size: 60px; font-family: BACS"">kGamNcrdY</p>","","","","","","","","",""
"html-keyboard-response","333","618162","0.0-16.0-0.1","613f57084e80f056c78f9b7b","650c16f0f2faf8d7a0d14c09","651c1d5151e108b4dc8ac0d9","null","null","<p style=""font-size: 60px; font-family: BACS"">kGamNcrdY</p>","","","","","","","","",""
"html-keyboard-response","334","619165","0.0-16.0-0.2","613f57084e80f056c78f9b7b","650c16f0f2faf8d7a0d14c09","651c1d5151e108b4dc8ac0d9","null","null","<p style=""font-size: 60px; font-family: BACS"">kGamNcrdY</p>","","","","","","","","",""
"html-keyboard-response","335","620169","0.0-16.0-0.3","613f57084e80f056c78f9b7b","650c16f0f2faf8d7a0d14c09","651c1d5151e108b4dc8ac0d9","null","null","<p style=""font-size: 60px; font-family: BACS"">kGamNcrdY</p>","","","","","","","","",""
"html-keyboard-response","336","621183","0.0-16.0-0.4","613f57084e80f056c78f9b7b","650c16f0f2faf8d7a0d14c09","651c1d5151e108b4dc8ac0d9","null","null","<p style=""font-size: 60px; font-family: BACS"">kGamNcrdY</p>","","","","","","","","",""
"html-keyboard-response","337","622198","0.0-16.0-0.5","613f57084e80f056c78f9b7b","650c16f0f2faf8d7a0d14c09","651c1d5151e108b4dc8ac0d9","null","null","<p style=""font-size: 60px; font-family: BACS"">kGamNcrdY</p>","","","","","","","","",""
"html-keyboard-response","338","623211","0.0-16.0-0.6","613f57084e80f056c78f9b7b","650c16f0f2faf8d7a0d14c09","651c1d5151e108b4dc8ac0d9","null","null","<p style=""font-size: 60px; font-family: BACS"">kGamNcrdY</p>","","","","","","","","",""
"html-keyboard-response","339","624219","0.0-16.0-0.7","613f57084e80f056c78f9b7b","650c16f0f2faf8d7a0d14c09","651c1d5151e108b4dc8ac0d9","null","null","<p style=""font-size: 60px; font-family: BACS"">kGamNcrdY</p>","","","","","","","","",""
"html-keyboard-response","340","625229","0.0-16.0-0.8","613f57084e80f056c78f9b7b","650c16f0f2faf8d7a0d14c09","651c1d5151e108b4dc8ac0d9","null","null","<p style=""font-size: 60px; font-family: BACS"">kGamNcrdY</p>","","","","","","","","",""
"html-keyboard-response","341","626234","0.0-16.0-0.9","613f57084e80f056c78f9b7b","650c16f0f2faf8d7a0d14c09","651c1d5151e108b4dc8ac0d9","null","null","<p style=""font-size: 60px; font-family: BACS"">kGamNcrdY</p>","","","","","","","","",""
"html-keyboard-response","342","627240","0.0-16.0-0.10","613f57084e80f056c78f9b7b","650c16f0f2faf8d7a0d14c09","651c1d5151e108b4dc8ac0d9","null","null","<p style=""font-size: 60px; font-family: BACS"">kGamNcrdY</p>","","","","","","","","",""
"html-keyboard-response","343","628242","0.0-16.0-0.11","613f57084e80f056c78f9b7b","650c16f0f2faf8d7a0d14c09","651c1d5151e108b4dc8ac0d9","null","null","<p style=""font-size: 60px; font-family: BACS"">kGamNcrdY</p>","","","","","","","","",""
"html-keyboard-response","344","629243","0.0-16.0-0.12","613f57084e80f056c78f9b7b","650c16f0f2faf8d7a0d14c09","651c1d5151e108b4dc8ac0d9","null","null","<p style=""font-size: 60px; font-family: BACS"">kGamNcrdY</p>","","","","","","","","",""
"html-keyboard-response","345","630247","0.0-16.0-0.13","613f57084e80f056c78f9b7b","650c16f0f2faf8d7a0d14c09","651c1d5151e108b4dc8ac0d9","null","null","<p style=""font-size: 60px; font-family: BACS"">kGamNcrdY</p>","","","","","","","","",""
"html-keyboard-response","346","631261","0.0-16.0-0.14","613f57084e80f056c78f9b7b","650c16f0f2faf8d7a0d14c09","651c1d5151e108b4dc8ac0d9","null","null","<p style=""font-size: 60px; font-family: BACS"">kGamNcrdY</p>","","","","","","","","",""
"html-keyboard-response","347","632272","0.0-16.0-0.15","613f57084e80f056c78f9b7b","650c16f0f2faf8d7a0d14c09","651c1d5151e108b4dc8ac0d9","null","null","<p style=""font-size: 60px; font-family: BACS"">kGamNcrdY</p>","","","","","","","","",""
"html-keyboard-response","348","633273","0.0-16.0-0.16","613f57084e80f056c78f9b7b","650c16f0f2faf8d7a0d14c09","651c1d5151e108b4dc8ac0d9","null","null","<p style=""font-size: 60px; font-family: BACS"">kGamNcrdY</p>","","","","","","","","",""
"html-keyboard-response","349","634289","0.0-16.0-0.17","613f57084e80f056c78f9b7b","650c16f0f2faf8d7a0d14c09","651c1d5151e108b4dc8ac0d9","null","null","<p style=""font-size: 60px; font-family: BACS"">kGamNcrdY</p>","","","","","","","","",""
"html-keyboard-response","350","635291","0.0-16.0-0.18","613f57084e80f056c78f9b7b","650c16f0f2faf8d7a0d14c09","651c1d5151e108b4dc8ac0d9","null","null","<p style=""font-size: 60px; font-family: BACS"">kGamNcrdY</p>","","","","","","","","",""
"html-keyboard-response","351","636297","0.0-16.0-0.19","613f57084e80f056c78f9b7b","650c16f0f2faf8d7a0d14c09","651c1d5151e108b4dc8ac0d9","null","null","<p style=""font-size: 60px; font-family: BACS"">kGamNcrdY</p>","","","","","","","","",""
"html-keyboard-response","352","637314","0.0-16.0-0.20","613f57084e80f056c78f9b7b","650c16f0f2faf8d7a0d14c09","651c1d5151e108b4dc8ac0d9","null","null","<p style=""font-size: 60px; font-family: BACS"">kGamNcrdY</p>","","","","","","","","",""
"html-keyboard-response","353","638328","0.0-16.0-0.21","613f57084e80f056c78f9b7b","650c16f0f2faf8d7a0d14c09","651c1d5151e108b4dc8ac0d9","null","null","<p style=""font-size: 60px; font-family: BACS"">kGamNcrdY</p>","","","","","","","","",""
"html-keyboard-response","354","639338","0.0-16.0-0.22","613f57084e80f056c78f9b7b","650c16f0f2faf8d7a0d14c09","651c1d5151e108b4dc8ac0d9","null","null","<p style=""font-size: 60px; font-family: BACS"">kGamNcrdY</p>","","","","","","","","",""
"html-keyboard-response","355","640353","0.0-16.0-0.23","613f57084e80f056c78f9b7b","650c16f0f2faf8d7a0d14c09","651c1d5151e108b4dc8ac0d9","null","null","<p style=""font-size: 60px; font-family: BACS"">kGamNcrdY</p>","","","","","","","","",""
"html-keyboard-response","356","641366","0.0-16.0-0.24","613f57084e80f056c78f9b7b","650c16f0f2faf8d7a0d14c09","651c1d5151e108b4dc8ac0d9","null","null","<p style=""font-size: 60px; font-family: BACS"">kGamNcrdY</p>","","","","","","","","",""
"html-keyboard-response","357","642382","0.0-16.0-0.25","613f57084e80f056c78f9b7b","650c16f0f2faf8d7a0d14c09","651c1d5151e108b4dc8ac0d9","null","null","<p style=""font-size: 60px; font-family: BACS"">kGamNcrdY</p>","","","","","","","","",""
"html-keyboard-response","358","643391","0.0-16.0-0.26","613f57084e80f056c78f9b7b","650c16f0f2faf8d7a0d14c09","651c1d5151e108b4dc8ac0d9","null","null","<p style=""font-size: 60px; font-family: BACS"">kGamNcrdY</p>","","","","","","","","",""
"html-keyboard-response","359","644406","0.0-16.0-0.27","613f57084e80f056c78f9b7b","650c16f0f2faf8d7a0d14c09","651c1d5151e108b4dc8ac0d9","null","null","<p style=""font-size: 60px; font-family: BACS"">kGamNcrdY</p>","","","","","","","","",""
"html-keyboard-response","360","645417","0.0-16.0-0.28","613f57084e80f056c78f9b7b","650c16f0f2faf8d7a0d14c09","651c1d5151e108b4dc8ac0d9","null","null","<p style=""font-size: 60px; font-family: BACS"">kGamNcrdY</p>","","","","","","","","",""
"html-keyboard-response","361","646428","0.0-16.0-0.29","613f57084e80f056c78f9b7b","650c16f0f2faf8d7a0d14c09","651c1d5151e108b4dc8ac0d9","null","null","<p style=""font-size: 60px; font-family: BACS"">kGamNcrdY</p>","","","","","","","","",""
"html-keyboard-response","362","647440","0.0-16.0-0.30","613f57084e80f056c78f9b7b","650c16f0f2faf8d7a0d14c09","651c1d5151e108b4dc8ac0d9","null","null","<p style=""font-size: 60px; font-family: BACS"">kGamNcrdY</p>","","","","","","","","",""
"html-keyboard-response","363","648453","0.0-16.0-0.31","613f57084e80f056c78f9b7b","650c16f0f2faf8d7a0d14c09","651c1d5151e108b4dc8ac0d9","null","null","<p style=""font-size: 60px; font-family: BACS"">kGamNcrdY</p>","","","","","","","","",""
"html-keyboard-response","364","649461","0.0-16.0-0.32","613f57084e80f056c78f9b7b","650c16f0f2faf8d7a0d14c09","651c1d5151e108b4dc8ac0d9","null","null","<p style=""font-size: 60px; font-family: BACS"">kGamNcrdY</p>","","","","","","","","",""
"html-keyboard-response","365","650470","0.0-16.0-0.33","613f57084e80f056c78f9b7b","650c16f0f2faf8d7a0d14c09","651c1d5151e108b4dc8ac0d9","null","null","<p style=""font-size: 60px; font-family: BACS"">kGamNcrdY</p>","","","","","","","","",""
"html-keyboard-response","366","651480","0.0-16.0-0.34","613f57084e80f056c78f9b7b","650c16f0f2faf8d7a0d14c09","651c1d5151e108b4dc8ac0d9","null","null","<p style=""font-size: 60px; font-family: BACS"">kGamNcrdY</p>","","","","","","","","",""
"html-keyboard-response","367","652492","0.0-16.0-0.35","613f57084e80f056c78f9b7b","650c16f0f2faf8d7a0d14c09","651c1d5151e108b4dc8ac0d9","null","null","<p style=""font-size: 60px; font-family: BACS"">kGamNcrdY</p>","","","","","","","","",""
"html-keyboard-response","368","653503","0.0-16.0-0.36","613f57084e80f056c78f9b7b","650c16f0f2faf8d7a0d14c09","651c1d5151e108b4dc8ac0d9","null","null","<p style=""font-size: 60px; font-family: BACS"">kGamNcrdY</p>","","","","","","","","",""
"html-keyboard-response","369","654515","0.0-16.0-0.37","613f57084e80f056c78f9b7b","650c16f0f2faf8d7a0d14c09","651c1d5151e108b4dc8ac0d9","null","null","<p style=""font-size: 60px; font-family: BACS"">kGamNcrdY</p>","","","","","","","","",""
"html-keyboard-response","370","655524","0.0-16.0-0.38","613f57084e80f056c78f9b7b","650c16f0f2faf8d7a0d14c09","651c1d5151e108b4dc8ac0d9","null","null","<p style=""font-size: 60px; font-family: BACS"">kGamNcrdY</p>","","","","","","","","",""
"html-keyboard-response","371","656533","0.0-16.0-0.39","613f57084e80f056c78f9b7b","650c16f0f2faf8d7a0d14c09","651c1d5151e108b4dc8ac0d9","null","null","<p style=""font-size: 60px; font-family: BACS"">kGamNcrdY</p>","","","","","","","","",""
"html-keyboard-response","372","657544","0.0-16.0-0.40","613f57084e80f056c78f9b7b","650c16f0f2faf8d7a0d14c09","651c1d5151e108b4dc8ac0d9","null","null","<p style=""font-size: 60px; font-family: BACS"">kGamNcrdY</p>","","","","","","","","",""
"html-keyboard-response","373","658559","0.0-16.0-0.41","613f57084e80f056c78f9b7b","650c16f0f2faf8d7a0d14c09","651c1d5151e108b4dc8ac0d9","null","null","<p style=""font-size: 60px; font-family: BACS"">kGamNcrdY</p>","","","","","","","","",""
"html-keyboard-response","374","659569","0.0-16.0-0.42","613f57084e80f056c78f9b7b","650c16f0f2faf8d7a0d14c09","651c1d5151e108b4dc8ac0d9","null","null","<p style=""font-size: 60px; font-family: BACS"">kGamNcrdY</p>","","","","","","","","",""
"html-keyboard-response","375","660581","0.0-16.0-0.43","613f57084e80f056c78f9b7b","650c16f0f2faf8d7a0d14c09","651c1d5151e108b4dc8ac0d9","null","null","<p style=""font-size: 60px; font-family: BACS"">kGamNcrdY</p>","","","","","","","","",""
"html-keyboard-response","376","661596","0.0-16.0-0.44","613f57084e80f056c78f9b7b","650c16f0f2faf8d7a0d14c09","651c1d5151e108b4dc8ac0d9","null","null","<p style=""font-size: 60px; font-family: BACS"">kGamNcrdY</p>","","","","","","","","",""
"html-keyboard-response","377","662612","0.0-16.0-0.45","613f57084e80f056c78f9b7b","650c16f0f2faf8d7a0d14c09","651c1d5151e108b4dc8ac0d9","null","null","<p style=""font-size: 60px; font-family: BACS"">kGamNcrdY</p>","","","","","","","","",""
"html-keyboard-response","378","663621","0.0-16.0-0.46","613f57084e80f056c78f9b7b","650c16f0f2faf8d7a0d14c09","651c1d5151e108b4dc8ac0d9","null","null","<p style=""font-size: 60px; font-family: BACS"">kGamNcrdY</p>","","","","","","","","",""
"html-keyboard-response","379","664632","0.0-16.0-0.47","613f57084e80f056c78f9b7b","650c16f0f2faf8d7a0d14c09","651c1d5151e108b4dc8ac0d9","null","null","<p style=""font-size: 60px; font-family: BACS"">kGamNcrdY</p>","","","","","","","","",""
"html-keyboard-response","380","665642","0.0-16.0-0.48","613f57084e80f056c78f9b7b","650c16f0f2faf8d7a0d14c09","651c1d5151e108b4dc8ac0d9","null","null","<p style=""font-size: 60px; font-family: BACS"">kGamNcrdY</p>","","","","","","","","",""
"html-keyboard-response","381","666649","0.0-16.0-0.49","613f57084e80f056c78f9b7b","650c16f0f2faf8d7a0d14c09","651c1d5151e108b4dc8ac0d9","null","null","<p style=""font-size: 60px; font-family: BACS"">kGamNcrdY</p>","","","","","","","","",""
"html-keyboard-response","382","667659","0.0-16.0-0.50","613f57084e80f056c78f9b7b","650c16f0f2faf8d7a0d14c09","651c1d5151e108b4dc8ac0d9","null","null","<p style=""font-size: 60px; font-family: BACS"">kGamNcrdY</p>","","","","","","","","",""
"html-keyboard-response","383","668676","0.0-16.0-0.51","613f57084e80f056c78f9b7b","650c16f0f2faf8d7a0d14c09","651c1d5151e108b4dc8ac0d9","null","null","<p style=""font-size: 60px; font-family: BACS"">kGamNcrdY</p>","","","","","","","","",""
"html-keyboard-response","384","669678","0.0-16.0-0.52","613f57084e80f056c78f9b7b","650c16f0f2faf8d7a0d14c09","651c1d5151e108b4dc8ac0d9","null","null","<p style=""font-size: 60px; font-family: BACS"">kGamNcrdY</p>","","","","","","","","",""
"html-keyboard-response","385","670688","0.0-16.0-0.53","613f57084e80f056c78f9b7b","650c16f0f2faf8d7a0d14c09","651c1d5151e108b4dc8ac0d9","null","null","<p style=""font-size: 60px; font-family: BACS"">kGamNcrdY</p>","","","","","","","","",""
"html-keyboard-response","386","671700","0.0-16.0-0.54","613f57084e80f056c78f9b7b","650c16f0f2faf8d7a0d14c09","651c1d5151e108b4dc8ac0d9","null","null","<p style=""font-size: 60px; font-family: BACS"">kGamNcrdY</p>","","","","","","","","",""
"html-keyboard-response","387","672714","0.0-16.0-0.55","613f57084e80f056c78f9b7b","650c16f0f2faf8d7a0d14c09","651c1d5151e108b4dc8ac0d9","null","null","<p style=""font-size: 60px; font-family: BACS"">kGamNcrdY</p>","","","","","","","","",""
"html-keyboard-response","388","673725","0.0-16.0-0.56","613f57084e80f056c78f9b7b","650c16f0f2faf8d7a0d14c09","651c1d5151e108b4dc8ac0d9","null","null","<p style=""font-size: 60px; font-family: BACS"">kGamNcrdY</p>","","","","","","","","",""
"html-keyboard-response","389","674734","0.0-16.0-0.57","613f57084e80f056c78f9b7b","650c16f0f2faf8d7a0d14c09","651c1d5151e108b4dc8ac0d9","null","null","<p style=""font-size: 60px; font-family: BACS"">kGamNcrdY</p>","","","","","","","","",""
"html-keyboard-response","390","675745","0.0-16.0-0.58","613f57084e80f056c78f9b7b","650c16f0f2faf8d7a0d14c09","651c1d5151e108b4dc8ac0d9","null","null","<p style=""font-size: 60px; font-family: BACS"">kGamNcrdY</p>","","","","","","","","",""
"html-keyboard-response","391","676758","0.0-16.0-0.59","613f57084e80f056c78f9b7b","650c16f0f2faf8d7a0d14c09","651c1d5151e108b4dc8ac0d9","null","null","<p style=""font-size: 60px; font-family: BACS"">kGamNcrdY</p>","","","","","","","","",""
"html-keyboard-response","392","677769","0.0-16.0-0.60","613f57084e80f056c78f9b7b","650c16f0f2faf8d7a0d14c09","651c1d5151e108b4dc8ac0d9","null","null","<p style=""font-size: 60px; font-family: BACS"">kGamNcrdY</p>","","","","","","","","",""
"html-keyboard-response","393","678780","0.0-16.0-0.61","613f57084e80f056c78f9b7b","650c16f0f2faf8d7a0d14c09","651c1d5151e108b4dc8ac0d9","null","null","<p style=""font-size: 60px; font-family: BACS"">kGamNcrdY</p>","","","","","","","","",""
"html-keyboard-response","394","679789","0.0-16.0-0.62","613f57084e80f056c78f9b7b","650c16f0f2faf8d7a0d14c09","651c1d5151e108b4dc8ac0d9","null","null","<p style=""font-size: 60px; font-family: BACS"">kGamNcrdY</p>","","","","","","","","",""
"html-keyboard-response","395","680803","0.0-16.0-0.63","613f57084e80f056c78f9b7b","650c16f0f2faf8d7a0d14c09","651c1d5151e108b4dc8ac0d9","null","null","<p style=""font-size: 60px; font-family: BACS"">kGamNcrdY</p>","","","","","","","","",""
"html-keyboard-response","396","681806","0.0-16.0-0.64","613f57084e80f056c78f9b7b","650c16f0f2faf8d7a0d14c09","651c1d5151e108b4dc8ac0d9","null","null","<p style=""font-size: 60px; font-family: BACS"">kGamNcrdY</p>","","","","","","","","",""
"html-keyboard-response","397","682809","0.0-16.0-0.65","613f57084e80f056c78f9b7b","650c16f0f2faf8d7a0d14c09","651c1d5151e108b4dc8ac0d9","null","null","<p style=""font-size: 60px; font-family: BACS"">kGamNcrdY</p>","","","","","","","","",""
