"trial_type","trial_index","time_elapsed","internal_node_id","subject_id","study_id","session_id","rt","response","stimulus","success","item","task","correct_response","testing_condition","correct","target","confound","name"
"pavlovia","0","3838","0.0-0.0","5cbe02ab39447e0001745a5e","650c16f0f2faf8d7a0d14c09","651c1d57634883898e7a8415","","","","","","","","","","","",""
"survey-html-form","1","11383","0.0-1.0","5cbe02ab39447e0001745a5e","650c16f0f2faf8d7a0d14c09","651c1d57634883898e7a8415","7544","{""ID"":""5cbe02ab39447e0001745a5e""}","","","","","","","","","",""
"html-keyboard-response","2","25622","0.0-2.0","5cbe02ab39447e0001745a5e","650c16f0f2faf8d7a0d14c09","651c1d57634883898e7a8415","14238"," ","<p style=""font-size: 15px;"">Before beginning, we ask that you read the consent information and confirm your agreement to participate in the experiment.</p>
      <p style=""font-size: 15px;""> We ask that you remember that this is a research project and that your participation is entirely voluntary. You can stop your participation at any time, without needing to provide any explanation. The study we're asking you to participate in aims at examining how readers process written words. You will be engaged in a session of apprximately 20 minutes, followed by a brief questionnaire. You will have the opportunity to take a few breaks during the experiment. You will be paid £4 for your participation, corresponding to a rate of £8/hour. While this experiment looks at cognitive faculties, this experiment doesn't constitute clinical proof of eventual pathologies.</p>
      <p style=""font-size: 15px;"">All of the information collected thanks to yours and others' participation will be held in a secure password-protected server, and will not be shared with anyone not authorised to view it. Your personal information will be kept with an arbitrary participant ID. Thanks to this data anonymity process, any researcher analysing the data won't be able to track the information back to a specific participant. Therefore, this process will make identifying you impossibile, even when results from the study will be published in scientific reviews, presented at congresses, or at any other public forum. More generally, the collected data will be treated in accordance with the laws on privacy and conformity to the Legislative Degree n. 196 ""Code regarding the protection of personal data"" of the 30th of June 2003 and to the European Regulation 2016/670 (General Data Protection Regulation - GDPR). The Data Protection Officer is Avv. Valentina Carollo, who can be contacted at the following email addresses: <a href=""mailto:dpo@sissa.it"">dpo@sissa.it</a> or <a href=""mailto:rpd@sissa.it"">rpd@sissa.it</a> - PEC: <a href=""mailto:protocollo@pec.sissa.it"">protocollo@pec.sissa.it</a>.</p>
      <p style=""font-size: 15px;""> Before expressing your consent to participate, we would like to remind you again that in case you need explanations on any aspect of the experimental procedure, the researcher is at your disposition (<a href=""mailto:aliebelt@sissa.it"">aliebelt@sissa.it</a>, <a href=""mailto:davide.crepaldi@sissa.it"">davide.crepaldi@sissa.it</a>).</p>
      <p style=""font-size: 15px;"">If you would like to download the informed consent form, you can do so here: <a href=""BASL-Informed_Consent.pdf"" download>informed consent form</a>.</p>
      <p style=""font-size: 15px;"">We ask that you press the spacebar to proceed to the consent section.</p>","","","","","","","","",""
"survey-html-form","3","45133","0.0-3.0","5cbe02ab39447e0001745a5e","650c16f0f2faf8d7a0d14c09","651c1d57634883898e7a8415","19504","{""consent1"":""YES"",""consent2"":""YES"",""consent3"":""YES"",""consent4"":""YES"",""consent5"":""YES"",""consent6"":""YES""}","","","","","","","","","",""
"fullscreen","4","52895","0.0-4.0","5cbe02ab39447e0001745a5e","650c16f0f2faf8d7a0d14c09","651c1d57634883898e7a8415","","","","true","","","","","","","",""
"html-keyboard-response","5","77171","0.0-5.0","5cbe02ab39447e0001745a5e","650c16f0f2faf8d7a0d14c09","651c1d57634883898e7a8415","24275"," ","<p>Welcome, and thank you very much for your time!</p>
      <p>In this experiment, you'll be a language expert who's been asked to take a look at words that Earth has received in its first communication with aliens. Your task, in this first part of the experiment, is to pay close attention to the words you'll be shown; later, world leaders will ask you questions on what you saw. The words will be shown to you quite quickly; it seems that the aliens were in a hurry :-)</p>
      <p>Press the spacebar to continue.<p>","","","","","","","","",""
"html-keyboard-response","6","77233","0.0-6.0","5cbe02ab39447e0001745a5e","650c16f0f2faf8d7a0d14c09","651c1d57634883898e7a8415","null","null","<p style=""font-size: 120px; font-family: BACS""> </p>","","","","","","","","",""
"html-keyboard-response","7","85607","0.0-7.0","5cbe02ab39447e0001745a5e","650c16f0f2faf8d7a0d14c09","651c1d57634883898e7a8415","8374"," ","<p>Here is an example of the words you'll see:</p>
      <img src='esempio.png' height='400px'>
      <p>When you're ready to begin, press the spacebar.</p></div>","","","","","","","","",""
"html-keyboard-response","8","86610","0.0-8.0-0.0","5cbe02ab39447e0001745a5e","650c16f0f2faf8d7a0d14c09","651c1d57634883898e7a8415","null","null","<p style=""font-size: 60px; font-family: BACS"">dmZvmOcZJ</p>","","","","","","","","",""
"html-keyboard-response","9","87610","0.0-8.0-0.1","5cbe02ab39447e0001745a5e","650c16f0f2faf8d7a0d14c09","651c1d57634883898e7a8415","null","null","<p style=""font-size: 60px; font-family: BACS"">LdrbvOJNk</p>","","","","","","","","",""
"html-keyboard-response","10","88612","0.0-8.0-0.2","5cbe02ab39447e0001745a5e","650c16f0f2faf8d7a0d14c09","651c1d57634883898e7a8415","null","null","<p style=""font-size: 60px; font-family: BACS"">QcladOJlN</p>","","","","","","","","",""
"html-keyboard-response","11","89614","0.0-8.0-0.3","5cbe02ab39447e0001745a5e","650c16f0f2faf8d7a0d14c09","651c1d57634883898e7a8415","null","null","<p style=""font-size: 60px; font-family: BACS"">TCbDCBYhT</p>","","","","","","","","",""
"html-keyboard-response","12","90616","0.0-8.0-0.4","5cbe02ab39447e0001745a5e","650c16f0f2faf8d7a0d14c09","651c1d57634883898e7a8415","null","null","<p style=""font-size: 60px; font-family: BACS"">lYruaYNu</p>","","","","","","","","",""
"html-keyboard-response","13","91618","0.0-8.0-0.5","5cbe02ab39447e0001745a5e","650c16f0f2faf8d7a0d14c09","651c1d57634883898e7a8415","null","null","<p style=""font-size: 60px; font-family: BACS"">mhtcBYhT</p>","","","","","","","","",""
"html-keyboard-response","14","92619","0.0-8.0-0.6","5cbe02ab39447e0001745a5e","650c16f0f2faf8d7a0d14c09","651c1d57634883898e7a8415","null","null","<p style=""font-size: 60px; font-family: BACS"">lAOKMmKcD</p>","","","","","","","","",""
"html-keyboard-response","15","93621","0.0-8.0-0.7","5cbe02ab39447e0001745a5e","650c16f0f2faf8d7a0d14c09","651c1d57634883898e7a8415","null","null","<p style=""font-size: 60px; font-family: BACS"">MhKdBCD</p>","","","","","","","","",""
"html-keyboard-response","16","94623","0.0-8.0-0.8","5cbe02ab39447e0001745a5e","650c16f0f2faf8d7a0d14c09","651c1d57634883898e7a8415","null","null","<p style=""font-size: 60px; font-family: BACS"">lYruaOJlN</p>","","","","","","","","",""
"html-keyboard-response","17","95625","0.0-8.0-0.9","5cbe02ab39447e0001745a5e","650c16f0f2faf8d7a0d14c09","651c1d57634883898e7a8415","null","null","<p style=""font-size: 60px; font-family: BACS"">ZcGdNUdvY</p>","","","","","","","","",""
"html-keyboard-response","18","96627","0.0-8.0-0.10","5cbe02ab39447e0001745a5e","650c16f0f2faf8d7a0d14c09","651c1d57634883898e7a8415","null","null","<p style=""font-size: 60px; font-family: BACS"">cRElDOdOP</p>","","","","","","","","",""
"html-keyboard-response","19","97629","0.0-8.0-0.11","5cbe02ab39447e0001745a5e","650c16f0f2faf8d7a0d14c09","651c1d57634883898e7a8415","null","null","<p style=""font-size: 60px; font-family: BACS"">dmZvmUdvY</p>","","","","","","","","",""
"html-keyboard-response","20","98630","0.0-8.0-0.12","5cbe02ab39447e0001745a5e","650c16f0f2faf8d7a0d14c09","651c1d57634883898e7a8415","null","null","<p style=""font-size: 60px; font-family: BACS"">mhtcBCD</p>","","","","","","","","",""
"html-keyboard-response","21","99632","0.0-8.0-0.13","5cbe02ab39447e0001745a5e","650c16f0f2faf8d7a0d14c09","651c1d57634883898e7a8415","null","null","<p style=""font-size: 60px; font-family: BACS"">GabkUdvY</p>","","","","","","","","",""
"html-keyboard-response","22","100634","0.0-8.0-0.14","5cbe02ab39447e0001745a5e","650c16f0f2faf8d7a0d14c09","651c1d57634883898e7a8415","null","null","<p style=""font-size: 60px; font-family: BACS"">LcNUJOJlN</p>","","","","","","","","",""
"html-keyboard-response","23","101636","0.0-8.0-0.15","5cbe02ab39447e0001745a5e","650c16f0f2faf8d7a0d14c09","651c1d57634883898e7a8415","null","null","<p style=""font-size: 60px; font-family: BACS"">lAOKMBCAd</p>","","","","","","","","",""
"html-keyboard-response","24","102638","0.0-8.0-0.16","5cbe02ab39447e0001745a5e","650c16f0f2faf8d7a0d14c09","651c1d57634883898e7a8415","null","null","<p style=""font-size: 60px; font-family: BACS"">LdrbvYNu</p>","","","","","","","","",""
"html-keyboard-response","25","103639","0.0-8.0-0.17","5cbe02ab39447e0001745a5e","650c16f0f2faf8d7a0d14c09","651c1d57634883898e7a8415","null","null","<p style=""font-size: 60px; font-family: BACS"">MhKdBYhT</p>","","","","","","","","",""
"html-keyboard-response","26","104641","0.0-8.0-0.18","5cbe02ab39447e0001745a5e","650c16f0f2faf8d7a0d14c09","651c1d57634883898e7a8415","null","null","<p style=""font-size: 60px; font-family: BACS"">QcladUdvY</p>","","","","","","","","",""
"html-keyboard-response","27","105643","0.0-8.0-0.19","5cbe02ab39447e0001745a5e","650c16f0f2faf8d7a0d14c09","651c1d57634883898e7a8415","null","null","<p style=""font-size: 60px; font-family: BACS"">TCbDCBCAd</p>","","","","","","","","",""
"html-keyboard-response","28","106645","0.0-8.0-0.20","5cbe02ab39447e0001745a5e","650c16f0f2faf8d7a0d14c09","651c1d57634883898e7a8415","null","null","<p style=""font-size: 60px; font-family: BACS"">GabkOJlN</p>","","","","","","","","",""
"html-keyboard-response","29","107647","0.0-8.0-0.21","5cbe02ab39447e0001745a5e","650c16f0f2faf8d7a0d14c09","651c1d57634883898e7a8415","null","null","<p style=""font-size: 60px; font-family: BACS"">LcNUJOJNk</p>","","","","","","","","",""
"html-keyboard-response","30","108648","0.0-8.0-0.22","5cbe02ab39447e0001745a5e","650c16f0f2faf8d7a0d14c09","651c1d57634883898e7a8415","null","null","<p style=""font-size: 60px; font-family: BACS"">ZcGdNYNu</p>","","","","","","","","",""
"html-keyboard-response","31","109650","0.0-8.0-0.23","5cbe02ab39447e0001745a5e","650c16f0f2faf8d7a0d14c09","651c1d57634883898e7a8415","null","null","<p style=""font-size: 60px; font-family: BACS"">YOaAbOJlN</p>","","","","","","","","",""
"html-keyboard-response","32","110652","0.0-8.0-0.24","5cbe02ab39447e0001745a5e","650c16f0f2faf8d7a0d14c09","651c1d57634883898e7a8415","null","null","<p style=""font-size: 60px; font-family: BACS"">kcCRtBCAd</p>","","","","","","","","",""
"html-keyboard-response","33","111654","0.0-8.0-0.25","5cbe02ab39447e0001745a5e","650c16f0f2faf8d7a0d14c09","651c1d57634883898e7a8415","null","null","<p style=""font-size: 60px; font-family: BACS"">ZcGdNOJlN</p>","","","","","","","","",""
"html-keyboard-response","34","112656","0.0-8.0-0.26","5cbe02ab39447e0001745a5e","650c16f0f2faf8d7a0d14c09","651c1d57634883898e7a8415","null","null","<p style=""font-size: 60px; font-family: BACS"">TCbDCOdOP</p>","","","","","","","","",""
"html-keyboard-response","35","113657","0.0-8.0-0.27","5cbe02ab39447e0001745a5e","650c16f0f2faf8d7a0d14c09","651c1d57634883898e7a8415","null","null","<p style=""font-size: 60px; font-family: BACS"">LcNUJOcZJ</p>","","","","","","","","",""
"html-keyboard-response","36","114660","0.0-8.0-0.28","5cbe02ab39447e0001745a5e","650c16f0f2faf8d7a0d14c09","651c1d57634883898e7a8415","null","null","<p style=""font-size: 60px; font-family: BACS"">MhKdmKcD</p>","","","","","","","","",""
"html-keyboard-response","37","115661","0.0-8.0-0.29","5cbe02ab39447e0001745a5e","650c16f0f2faf8d7a0d14c09","651c1d57634883898e7a8415","null","null","<p style=""font-size: 60px; font-family: BACS"">BATOcBCAd</p>","","","","","","","","",""
"html-keyboard-response","38","116663","0.0-8.0-0.30","5cbe02ab39447e0001745a5e","650c16f0f2faf8d7a0d14c09","651c1d57634883898e7a8415","null","null","<p style=""font-size: 60px; font-family: BACS"">mBbKBYhT</p>","","","","","","","","",""
"html-keyboard-response","39","117665","0.0-8.0-0.31","5cbe02ab39447e0001745a5e","650c16f0f2faf8d7a0d14c09","651c1d57634883898e7a8415","null","null","<p style=""font-size: 60px; font-family: BACS"">YOaAbOcZJ</p>","","","","","","","","",""
"html-keyboard-response","40","118667","0.0-8.0-0.32","5cbe02ab39447e0001745a5e","650c16f0f2faf8d7a0d14c09","651c1d57634883898e7a8415","null","null","<p style=""font-size: 60px; font-family: BACS"">LdrbvOJlN</p>","","","","","","","","",""
"html-keyboard-response","41","119668","0.0-8.0-0.33","5cbe02ab39447e0001745a5e","650c16f0f2faf8d7a0d14c09","651c1d57634883898e7a8415","null","null","<p style=""font-size: 60px; font-family: BACS"">kPkRAmKcD</p>","","","","","","","","",""
"html-keyboard-response","42","120670","0.0-8.0-0.34","5cbe02ab39447e0001745a5e","650c16f0f2faf8d7a0d14c09","651c1d57634883898e7a8415","null","null","<p style=""font-size: 60px; font-family: BACS"">mhtcOdOP</p>","","","","","","","","",""
"html-keyboard-response","43","121672","0.0-8.0-0.35","5cbe02ab39447e0001745a5e","650c16f0f2faf8d7a0d14c09","651c1d57634883898e7a8415","null","null","<p style=""font-size: 60px; font-family: BACS"">kcCRtBYhT</p>","","","","","","","","",""
"html-keyboard-response","44","122674","0.0-8.0-0.36","5cbe02ab39447e0001745a5e","650c16f0f2faf8d7a0d14c09","651c1d57634883898e7a8415","null","null","<p style=""font-size: 60px; font-family: BACS"">JuamlOcZJ</p>","","","","","","","","",""
"html-keyboard-response","45","123676","0.0-8.0-0.37","5cbe02ab39447e0001745a5e","650c16f0f2faf8d7a0d14c09","651c1d57634883898e7a8415","null","null","<p style=""font-size: 60px; font-family: BACS"">kcCRtOdOP</p>","","","","","","","","",""
"html-keyboard-response","46","124677","0.0-8.0-0.38","5cbe02ab39447e0001745a5e","650c16f0f2faf8d7a0d14c09","651c1d57634883898e7a8415","null","null","<p style=""font-size: 60px; font-family: BACS"">BATOcmKcD</p>","","","","","","","","",""
"html-keyboard-response","47","125679","0.0-8.0-0.39","5cbe02ab39447e0001745a5e","650c16f0f2faf8d7a0d14c09","651c1d57634883898e7a8415","null","null","<p style=""font-size: 60px; font-family: BACS"">YQbcUdvY</p>","","","","","","","","",""
"html-keyboard-response","48","126681","0.0-8.0-0.40","5cbe02ab39447e0001745a5e","650c16f0f2faf8d7a0d14c09","651c1d57634883898e7a8415","null","null","<p style=""font-size: 60px; font-family: BACS"">mhtcBCAd</p>","","","","","","","","",""
"html-keyboard-response","49","127683","0.0-8.0-0.41","5cbe02ab39447e0001745a5e","650c16f0f2faf8d7a0d14c09","651c1d57634883898e7a8415","null","null","<p style=""font-size: 60px; font-family: BACS"">McMDBCD</p>","","","","","","","","",""
"html-keyboard-response","50","128685","0.0-8.0-0.42","5cbe02ab39447e0001745a5e","650c16f0f2faf8d7a0d14c09","651c1d57634883898e7a8415","null","null","<p style=""font-size: 60px; font-family: BACS"">JuamlYNu</p>","","","","","","","","",""
"html-keyboard-response","51","129687","0.0-8.0-0.43","5cbe02ab39447e0001745a5e","650c16f0f2faf8d7a0d14c09","651c1d57634883898e7a8415","null","null","<p style=""font-size: 60px; font-family: BACS"">LdrbvOcZJ</p>","","","","","","","","",""
"html-keyboard-response","52","130688","0.0-8.0-0.44","5cbe02ab39447e0001745a5e","650c16f0f2faf8d7a0d14c09","651c1d57634883898e7a8415","null","null","<p style=""font-size: 60px; font-family: BACS"">lYruaUdvY</p>","","","","","","","","",""
"html-keyboard-response","53","131690","0.0-8.0-0.45","5cbe02ab39447e0001745a5e","650c16f0f2faf8d7a0d14c09","651c1d57634883898e7a8415","null","null","<p style=""font-size: 60px; font-family: BACS"">McMDBCAd</p>","","","","","","","","",""
"html-keyboard-response","54","132692","0.0-8.0-0.46","5cbe02ab39447e0001745a5e","650c16f0f2faf8d7a0d14c09","651c1d57634883898e7a8415","null","null","<p style=""font-size: 60px; font-family: BACS"">kPkRAOdOP</p>","","","","","","","","",""
"html-keyboard-response","55","133694","0.0-8.0-0.47","5cbe02ab39447e0001745a5e","650c16f0f2faf8d7a0d14c09","651c1d57634883898e7a8415","null","null","<p style=""font-size: 60px; font-family: BACS"">YQbcYNu</p>","","","","","","","","",""
"html-keyboard-response","56","134696","0.0-8.0-0.48","5cbe02ab39447e0001745a5e","650c16f0f2faf8d7a0d14c09","651c1d57634883898e7a8415","null","null","<p style=""font-size: 60px; font-family: BACS"">dmZvmOJlN</p>","","","","","","","","",""
"html-keyboard-response","57","135713","0.0-8.0-0.49","5cbe02ab39447e0001745a5e","650c16f0f2faf8d7a0d14c09","651c1d57634883898e7a8415","null","null","<p style=""font-size: 60px; font-family: BACS"">mBbKBCAd</p>","","","","","","","","",""
"html-keyboard-response","58","136717","0.0-8.0-0.50","5cbe02ab39447e0001745a5e","650c16f0f2faf8d7a0d14c09","651c1d57634883898e7a8415","null","null","<p style=""font-size: 60px; font-family: BACS"">TCbDCBCD</p>","","","","","","","","",""
"html-keyboard-response","59","137718","0.0-8.0-0.51","5cbe02ab39447e0001745a5e","650c16f0f2faf8d7a0d14c09","651c1d57634883898e7a8415","null","null","<p style=""font-size: 60px; font-family: BACS"">GabkYNu</p>","","","","","","","","",""
"html-keyboard-response","60","138720","0.0-8.0-0.52","5cbe02ab39447e0001745a5e","650c16f0f2faf8d7a0d14c09","651c1d57634883898e7a8415","null","null","<p style=""font-size: 60px; font-family: BACS"">cRElDmKcD</p>","","","","","","","","",""
"html-keyboard-response","61","139721","0.0-8.0-0.53","5cbe02ab39447e0001745a5e","650c16f0f2faf8d7a0d14c09","651c1d57634883898e7a8415","null","null","<p style=""font-size: 60px; font-family: BACS"">ZcGdNOcZJ</p>","","","","","","","","",""
"html-keyboard-response","62","140723","0.0-8.0-0.54","5cbe02ab39447e0001745a5e","650c16f0f2faf8d7a0d14c09","651c1d57634883898e7a8415","null","null","<p style=""font-size: 60px; font-family: BACS"">lAOKMBCD</p>","","","","","","","","",""
"html-keyboard-response","63","141726","0.0-8.0-0.55","5cbe02ab39447e0001745a5e","650c16f0f2faf8d7a0d14c09","651c1d57634883898e7a8415","null","null","<p style=""font-size: 60px; font-family: BACS"">GabkOJNk</p>","","","","","","","","",""
"html-keyboard-response","64","142742","0.0-8.0-0.56","5cbe02ab39447e0001745a5e","650c16f0f2faf8d7a0d14c09","651c1d57634883898e7a8415","null","null","<p style=""font-size: 60px; font-family: BACS"">QcladYNu</p>","","","","","","","","",""
"html-keyboard-response","65","143746","0.0-8.0-0.57","5cbe02ab39447e0001745a5e","650c16f0f2faf8d7a0d14c09","651c1d57634883898e7a8415","null","null","<p style=""font-size: 60px; font-family: BACS"">JuamlUdvY</p>","","","","","","","","",""
"html-keyboard-response","66","144763","0.0-8.0-0.58","5cbe02ab39447e0001745a5e","650c16f0f2faf8d7a0d14c09","651c1d57634883898e7a8415","null","null","<p style=""font-size: 60px; font-family: BACS"">lAOKMOdOP</p>","","","","","","","","",""
"html-keyboard-response","67","145766","0.0-8.0-0.59","5cbe02ab39447e0001745a5e","650c16f0f2faf8d7a0d14c09","651c1d57634883898e7a8415","null","null","<p style=""font-size: 60px; font-family: BACS"">McMDBYhT</p>","","","","","","","","",""
"html-keyboard-response","68","146768","0.0-8.0-0.60","5cbe02ab39447e0001745a5e","650c16f0f2faf8d7a0d14c09","651c1d57634883898e7a8415","null","null","<p style=""font-size: 60px; font-family: BACS"">YOaAbOJNk</p>","","","","","","","","",""
"html-keyboard-response","69","147769","0.0-8.0-0.61","5cbe02ab39447e0001745a5e","650c16f0f2faf8d7a0d14c09","651c1d57634883898e7a8415","null","null","<p style=""font-size: 60px; font-family: BACS"">cRElDBCD</p>","","","","","","","","",""
"html-keyboard-response","70","148771","0.0-8.0-0.62","5cbe02ab39447e0001745a5e","650c16f0f2faf8d7a0d14c09","651c1d57634883898e7a8415","null","null","<p style=""font-size: 60px; font-family: BACS"">QcladOJNk</p>","","","","","","","","",""
"html-keyboard-response","71","149773","0.0-8.0-0.63","5cbe02ab39447e0001745a5e","650c16f0f2faf8d7a0d14c09","651c1d57634883898e7a8415","null","null","<p style=""font-size: 60px; font-family: BACS"">kcCRtmKcD</p>","","","","","","","","",""
"html-keyboard-response","72","150775","0.0-8.0-0.64","5cbe02ab39447e0001745a5e","650c16f0f2faf8d7a0d14c09","651c1d57634883898e7a8415","null","null","<p style=""font-size: 60px; font-family: BACS"">dmZvmOJNk</p>","","","","","","","","",""
"html-keyboard-response","73","151777","0.0-8.0-0.65","5cbe02ab39447e0001745a5e","650c16f0f2faf8d7a0d14c09","651c1d57634883898e7a8415","null","null","<p style=""font-size: 60px; font-family: BACS"">kPkRABCD</p>","","","","","","","","",""
"html-keyboard-response","74","152778","0.0-8.0-0.66","5cbe02ab39447e0001745a5e","650c16f0f2faf8d7a0d14c09","651c1d57634883898e7a8415","null","null","<p style=""font-size: 60px; font-family: BACS"">lYruaOcZJ</p>","","","","","","","","",""
"html-keyboard-response","75","153780","0.0-8.0-0.67","5cbe02ab39447e0001745a5e","650c16f0f2faf8d7a0d14c09","651c1d57634883898e7a8415","null","null","<p style=""font-size: 60px; font-family: BACS"">YOaAbYNu</p>","","","","","","","","",""
"html-keyboard-response","76","154782","0.0-8.0-0.68","5cbe02ab39447e0001745a5e","650c16f0f2faf8d7a0d14c09","651c1d57634883898e7a8415","null","null","<p style=""font-size: 60px; font-family: BACS"">BATOcBYhT</p>","","","","","","","","",""
"html-keyboard-response","77","155784","0.0-8.0-0.69","5cbe02ab39447e0001745a5e","650c16f0f2faf8d7a0d14c09","651c1d57634883898e7a8415","null","null","<p style=""font-size: 60px; font-family: BACS"">McMDmKcD</p>","","","","","","","","",""
"html-keyboard-response","78","156786","0.0-8.0-0.70","5cbe02ab39447e0001745a5e","650c16f0f2faf8d7a0d14c09","651c1d57634883898e7a8415","null","null","<p style=""font-size: 60px; font-family: BACS"">cRElDBCAd</p>","","","","","","","","",""
"html-keyboard-response","79","157787","0.0-8.0-0.71","5cbe02ab39447e0001745a5e","650c16f0f2faf8d7a0d14c09","651c1d57634883898e7a8415","null","null","<p style=""font-size: 60px; font-family: BACS"">kPkRABYhT</p>","","","","","","","","",""
"html-keyboard-response","80","158796","0.0-8.0-0.72","5cbe02ab39447e0001745a5e","650c16f0f2faf8d7a0d14c09","651c1d57634883898e7a8415","null","null","<p style=""font-size: 60px; font-family: BACS"">mBbKmKcD</p>","","","","","","","","",""
"html-keyboard-response","81","159807","0.0-8.0-0.73","5cbe02ab39447e0001745a5e","650c16f0f2faf8d7a0d14c09","651c1d57634883898e7a8415","null","null","<p style=""font-size: 60px; font-family: BACS"">JuamlOJNk</p>","","","","","","","","",""
"html-keyboard-response","82","160810","0.0-8.0-0.74","5cbe02ab39447e0001745a5e","650c16f0f2faf8d7a0d14c09","651c1d57634883898e7a8415","null","null","<p style=""font-size: 60px; font-family: BACS"">LcNUJUdvY</p>","","","","","","","","",""
"html-keyboard-response","83","161811","0.0-8.0-0.75","5cbe02ab39447e0001745a5e","650c16f0f2faf8d7a0d14c09","651c1d57634883898e7a8415","null","null","<p style=""font-size: 60px; font-family: BACS"">mBbKBCD</p>","","","","","","","","",""
"html-keyboard-response","84","162813","0.0-8.0-0.76","5cbe02ab39447e0001745a5e","650c16f0f2faf8d7a0d14c09","651c1d57634883898e7a8415","null","null","<p style=""font-size: 60px; font-family: BACS"">BATOcOdOP</p>","","","","","","","","",""
"html-keyboard-response","85","163815","0.0-8.0-0.77","5cbe02ab39447e0001745a5e","650c16f0f2faf8d7a0d14c09","651c1d57634883898e7a8415","null","null","<p style=""font-size: 60px; font-family: BACS"">YQbcOJNk</p>","","","","","","","","",""
"html-keyboard-response","86","164817","0.0-8.0-0.78","5cbe02ab39447e0001745a5e","650c16f0f2faf8d7a0d14c09","651c1d57634883898e7a8415","null","null","<p style=""font-size: 60px; font-family: BACS"">MhKdOdOP</p>","","","","","","","","",""
"html-keyboard-response","87","165819","0.0-8.0-0.79","5cbe02ab39447e0001745a5e","650c16f0f2faf8d7a0d14c09","651c1d57634883898e7a8415","null","null","<p style=""font-size: 60px; font-family: BACS"">YQbcOcZJ</p>","","","","","","","","",""
"html-keyboard-response","88","172167","0.0-9.0","5cbe02ab39447e0001745a5e","650c16f0f2faf8d7a0d14c09","651c1d57634883898e7a8415","6347"," ","<p>Great, you've seen the first block of words. You may now take a short break.</p>
      <p>Press the spacebar when you're ready to continue.</p>","","","","","","","","",""
"html-keyboard-response","89","173181","0.0-10.0-0.0","5cbe02ab39447e0001745a5e","650c16f0f2faf8d7a0d14c09","651c1d57634883898e7a8415","null","null","<p style=""font-size: 60px; font-family: BACS"">LcNUJOJNk</p>","","","","","","","","",""
"html-keyboard-response","90","174184","0.0-10.0-0.1","5cbe02ab39447e0001745a5e","650c16f0f2faf8d7a0d14c09","651c1d57634883898e7a8415","null","null","<p style=""font-size: 60px; font-family: BACS"">mBbKBCAd</p>","","","","","","","","",""
"html-keyboard-response","91","175186","0.0-10.0-0.2","5cbe02ab39447e0001745a5e","650c16f0f2faf8d7a0d14c09","651c1d57634883898e7a8415","null","null","<p style=""font-size: 60px; font-family: BACS"">BATOcmKcD</p>","","","","","","","","",""
"html-keyboard-response","92","176187","0.0-10.0-0.3","5cbe02ab39447e0001745a5e","650c16f0f2faf8d7a0d14c09","651c1d57634883898e7a8415","null","null","<p style=""font-size: 60px; font-family: BACS"">lYruaOcZJ</p>","","","","","","","","",""
"html-keyboard-response","93","177189","0.0-10.0-0.4","5cbe02ab39447e0001745a5e","650c16f0f2faf8d7a0d14c09","651c1d57634883898e7a8415","null","null","<p style=""font-size: 60px; font-family: BACS"">mhtcOdOP</p>","","","","","","","","",""
"html-keyboard-response","94","178191","0.0-10.0-0.5","5cbe02ab39447e0001745a5e","650c16f0f2faf8d7a0d14c09","651c1d57634883898e7a8415","null","null","<p style=""font-size: 60px; font-family: BACS"">LdrbvYNu</p>","","","","","","","","",""
"html-keyboard-response","95","179193","0.0-10.0-0.6","5cbe02ab39447e0001745a5e","650c16f0f2faf8d7a0d14c09","651c1d57634883898e7a8415","null","null","<p style=""font-size: 60px; font-family: BACS"">YQbcOcZJ</p>","","","","","","","","",""
"html-keyboard-response","96","180195","0.0-10.0-0.7","5cbe02ab39447e0001745a5e","650c16f0f2faf8d7a0d14c09","651c1d57634883898e7a8415","null","null","<p style=""font-size: 60px; font-family: BACS"">ZcGdNOJlN</p>","","","","","","","","",""
"html-keyboard-response","97","181197","0.0-10.0-0.8","5cbe02ab39447e0001745a5e","650c16f0f2faf8d7a0d14c09","651c1d57634883898e7a8415","null","null","<p style=""font-size: 60px; font-family: BACS"">kcCRtBCAd</p>","","","","","","","","",""
"html-keyboard-response","98","182198","0.0-10.0-0.9","5cbe02ab39447e0001745a5e","650c16f0f2faf8d7a0d14c09","651c1d57634883898e7a8415","null","null","<p style=""font-size: 60px; font-family: BACS"">YQbcUdvY</p>","","","","","","","","",""
"html-keyboard-response","99","183200","0.0-10.0-0.10","5cbe02ab39447e0001745a5e","650c16f0f2faf8d7a0d14c09","651c1d57634883898e7a8415","null","null","<p style=""font-size: 60px; font-family: BACS"">QcladYNu</p>","","","","","","","","",""
"html-keyboard-response","100","184202","0.0-10.0-0.11","5cbe02ab39447e0001745a5e","650c16f0f2faf8d7a0d14c09","651c1d57634883898e7a8415","null","null","<p style=""font-size: 60px; font-family: BACS"">lAOKMBCD</p>","","","","","","","","",""
"html-keyboard-response","101","185204","0.0-10.0-0.12","5cbe02ab39447e0001745a5e","650c16f0f2faf8d7a0d14c09","651c1d57634883898e7a8415","null","null","<p style=""font-size: 60px; font-family: BACS"">lYruaYNu</p>","","","","","","","","",""
"html-keyboard-response","102","186206","0.0-10.0-0.13","5cbe02ab39447e0001745a5e","650c16f0f2faf8d7a0d14c09","651c1d57634883898e7a8415","null","null","<p style=""font-size: 60px; font-family: BACS"">YOaAbOJNk</p>","","","","","","","","",""
"html-keyboard-response","103","187208","0.0-10.0-0.14","5cbe02ab39447e0001745a5e","650c16f0f2faf8d7a0d14c09","651c1d57634883898e7a8415","null","null","<p style=""font-size: 60px; font-family: BACS"">mhtcBCD</p>","","","","","","","","",""
"html-keyboard-response","104","188209","0.0-10.0-0.15","5cbe02ab39447e0001745a5e","650c16f0f2faf8d7a0d14c09","651c1d57634883898e7a8415","null","null","<p style=""font-size: 60px; font-family: BACS"">dmZvmOJlN</p>","","","","","","","","",""
"html-keyboard-response","105","189211","0.0-10.0-0.16","5cbe02ab39447e0001745a5e","650c16f0f2faf8d7a0d14c09","651c1d57634883898e7a8415","null","null","<p style=""font-size: 60px; font-family: BACS"">kPkRABCD</p>","","","","","","","","",""
"html-keyboard-response","106","190213","0.0-10.0-0.17","5cbe02ab39447e0001745a5e","650c16f0f2faf8d7a0d14c09","651c1d57634883898e7a8415","null","null","<p style=""font-size: 60px; font-family: BACS"">JuamlOJNk</p>","","","","","","","","",""
"html-keyboard-response","107","191215","0.0-10.0-0.18","5cbe02ab39447e0001745a5e","650c16f0f2faf8d7a0d14c09","651c1d57634883898e7a8415","null","null","<p style=""font-size: 60px; font-family: BACS"">LcNUJOJlN</p>","","","","","","","","",""
"html-keyboard-response","108","192217","0.0-10.0-0.19","5cbe02ab39447e0001745a5e","650c16f0f2faf8d7a0d14c09","651c1d57634883898e7a8415","null","null","<p style=""font-size: 60px; font-family: BACS"">cRElDBCAd</p>","","","","","","","","",""
"html-keyboard-response","109","193219","0.0-10.0-0.20","5cbe02ab39447e0001745a5e","650c16f0f2faf8d7a0d14c09","651c1d57634883898e7a8415","null","null","<p style=""font-size: 60px; font-family: BACS"">BATOcOdOP</p>","","","","","","","","",""
"html-keyboard-response","110","194220","0.0-10.0-0.21","5cbe02ab39447e0001745a5e","650c16f0f2faf8d7a0d14c09","651c1d57634883898e7a8415","null","null","<p style=""font-size: 60px; font-family: BACS"">LdrbvOJNk</p>","","","","","","","","",""
"html-keyboard-response","111","195223","0.0-10.0-0.22","5cbe02ab39447e0001745a5e","650c16f0f2faf8d7a0d14c09","651c1d57634883898e7a8415","null","null","<p style=""font-size: 60px; font-family: BACS"">BATOcBYhT</p>","","","","","","","","",""
"html-keyboard-response","112","196224","0.0-10.0-0.23","5cbe02ab39447e0001745a5e","650c16f0f2faf8d7a0d14c09","651c1d57634883898e7a8415","null","null","<p style=""font-size: 60px; font-family: BACS"">LdrbvOcZJ</p>","","","","","","","","",""
"html-keyboard-response","113","197226","0.0-10.0-0.24","5cbe02ab39447e0001745a5e","650c16f0f2faf8d7a0d14c09","651c1d57634883898e7a8415","null","null","<p style=""font-size: 60px; font-family: BACS"">dmZvmUdvY</p>","","","","","","","","",""
"html-keyboard-response","114","198227","0.0-10.0-0.25","5cbe02ab39447e0001745a5e","650c16f0f2faf8d7a0d14c09","651c1d57634883898e7a8415","null","null","<p style=""font-size: 60px; font-family: BACS"">cRElDmKcD</p>","","","","","","","","",""
"html-keyboard-response","115","199229","0.0-10.0-0.26","5cbe02ab39447e0001745a5e","650c16f0f2faf8d7a0d14c09","651c1d57634883898e7a8415","null","null","<p style=""font-size: 60px; font-family: BACS"">TCbDCOdOP</p>","","","","","","","","",""
"html-keyboard-response","116","200231","0.0-10.0-0.27","5cbe02ab39447e0001745a5e","650c16f0f2faf8d7a0d14c09","651c1d57634883898e7a8415","null","null","<p style=""font-size: 60px; font-family: BACS"">JuamlYNu</p>","","","","","","","","",""
"html-keyboard-response","117","201234","0.0-10.0-0.28","5cbe02ab39447e0001745a5e","650c16f0f2faf8d7a0d14c09","651c1d57634883898e7a8415","null","null","<p style=""font-size: 60px; font-family: BACS"">cRElDOdOP</p>","","","","","","","","",""
"html-keyboard-response","118","202235","0.0-10.0-0.29","5cbe02ab39447e0001745a5e","650c16f0f2faf8d7a0d14c09","651c1d57634883898e7a8415","null","null","<p style=""font-size: 60px; font-family: BACS"">McMDmKcD</p>","","","","","","","","",""
"html-keyboard-response","119","203237","0.0-10.0-0.30","5cbe02ab39447e0001745a5e","650c16f0f2faf8d7a0d14c09","651c1d57634883898e7a8415","null","null","<p style=""font-size: 60px; font-family: BACS"">JuamlUdvY</p>","","","","","","","","",""
"html-keyboard-response","120","204238","0.0-10.0-0.31","5cbe02ab39447e0001745a5e","650c16f0f2faf8d7a0d14c09","651c1d57634883898e7a8415","null","null","<p style=""font-size: 60px; font-family: BACS"">QcladOJlN</p>","","","","","","","","",""
"html-keyboard-response","121","205240","0.0-10.0-0.32","5cbe02ab39447e0001745a5e","650c16f0f2faf8d7a0d14c09","651c1d57634883898e7a8415","null","null","<p style=""font-size: 60px; font-family: BACS"">lYruaUdvY</p>","","","","","","","","",""
"html-keyboard-response","122","206242","0.0-10.0-0.33","5cbe02ab39447e0001745a5e","650c16f0f2faf8d7a0d14c09","651c1d57634883898e7a8415","null","null","<p style=""font-size: 60px; font-family: BACS"">kPkRAmKcD</p>","","","","","","","","",""
"html-keyboard-response","123","207245","0.0-10.0-0.34","5cbe02ab39447e0001745a5e","650c16f0f2faf8d7a0d14c09","651c1d57634883898e7a8415","null","null","<p style=""font-size: 60px; font-family: BACS"">MhKdOdOP</p>","","","","","","","","",""
"html-keyboard-response","124","208245","0.0-10.0-0.35","5cbe02ab39447e0001745a5e","650c16f0f2faf8d7a0d14c09","651c1d57634883898e7a8415","null","null","<p style=""font-size: 60px; font-family: BACS"">lAOKMBCAd</p>","","","","","","","","",""
"html-keyboard-response","125","209247","0.0-10.0-0.36","5cbe02ab39447e0001745a5e","650c16f0f2faf8d7a0d14c09","651c1d57634883898e7a8415","null","null","<p style=""font-size: 60px; font-family: BACS"">McMDBCD</p>","","","","","","","","",""
"html-keyboard-response","126","210249","0.0-10.0-0.37","5cbe02ab39447e0001745a5e","650c16f0f2faf8d7a0d14c09","651c1d57634883898e7a8415","null","null","<p style=""font-size: 60px; font-family: BACS"">GabkOJlN</p>","","","","","","","","",""
"html-keyboard-response","127","211251","0.0-10.0-0.38","5cbe02ab39447e0001745a5e","650c16f0f2faf8d7a0d14c09","651c1d57634883898e7a8415","null","null","<p style=""font-size: 60px; font-family: BACS"">YOaAbYNu</p>","","","","","","","","",""
"html-keyboard-response","128","212253","0.0-10.0-0.39","5cbe02ab39447e0001745a5e","650c16f0f2faf8d7a0d14c09","651c1d57634883898e7a8415","null","null","<p style=""font-size: 60px; font-family: BACS"">QcladOJNk</p>","","","","","","","","",""
"html-keyboard-response","129","213255","0.0-10.0-0.40","5cbe02ab39447e0001745a5e","650c16f0f2faf8d7a0d14c09","651c1d57634883898e7a8415","null","null","<p style=""font-size: 60px; font-family: BACS"">LcNUJOcZJ</p>","","","","","","","","",""
"html-keyboard-response","130","214258","0.0-10.0-0.41","5cbe02ab39447e0001745a5e","650c16f0f2faf8d7a0d14c09","651c1d57634883898e7a8415","null","null","<p style=""font-size: 60px; font-family: BACS"">YOaAbOJlN</p>","","","","","","","","",""
"html-keyboard-response","131","215258","0.0-10.0-0.42","5cbe02ab39447e0001745a5e","650c16f0f2faf8d7a0d14c09","651c1d57634883898e7a8415","null","null","<p style=""font-size: 60px; font-family: BACS"">kPkRABYhT</p>","","","","","","","","",""
"html-keyboard-response","132","216260","0.0-10.0-0.43","5cbe02ab39447e0001745a5e","650c16f0f2faf8d7a0d14c09","651c1d57634883898e7a8415","null","null","<p style=""font-size: 60px; font-family: BACS"">TCbDCBCAd</p>","","","","","","","","",""
"html-keyboard-response","133","217262","0.0-10.0-0.44","5cbe02ab39447e0001745a5e","650c16f0f2faf8d7a0d14c09","651c1d57634883898e7a8415","null","null","<p style=""font-size: 60px; font-family: BACS"">JuamlOcZJ</p>","","","","","","","","",""
"html-keyboard-response","134","218264","0.0-10.0-0.45","5cbe02ab39447e0001745a5e","650c16f0f2faf8d7a0d14c09","651c1d57634883898e7a8415","null","null","<p style=""font-size: 60px; font-family: BACS"">McMDBYhT</p>","","","","","","","","",""
"html-keyboard-response","135","219266","0.0-10.0-0.46","5cbe02ab39447e0001745a5e","650c16f0f2faf8d7a0d14c09","651c1d57634883898e7a8415","null","null","<p style=""font-size: 60px; font-family: BACS"">MhKdBCD</p>","","","","","","","","",""
"html-keyboard-response","136","220267","0.0-10.0-0.47","5cbe02ab39447e0001745a5e","650c16f0f2faf8d7a0d14c09","651c1d57634883898e7a8415","null","null","<p style=""font-size: 60px; font-family: BACS"">LdrbvOJlN</p>","","","","","","","","",""
"html-keyboard-response","137","221269","0.0-10.0-0.48","5cbe02ab39447e0001745a5e","650c16f0f2faf8d7a0d14c09","651c1d57634883898e7a8415","null","null","<p style=""font-size: 60px; font-family: BACS"">YQbcOJNk</p>","","","","","","","","",""
"html-keyboard-response","138","222271","0.0-10.0-0.49","5cbe02ab39447e0001745a5e","650c16f0f2faf8d7a0d14c09","651c1d57634883898e7a8415","null","null","<p style=""font-size: 60px; font-family: BACS"">mhtcBYhT</p>","","","","","","","","",""
"html-keyboard-response","139","223273","0.0-10.0-0.50","5cbe02ab39447e0001745a5e","650c16f0f2faf8d7a0d14c09","651c1d57634883898e7a8415","null","null","<p style=""font-size: 60px; font-family: BACS"">lAOKMmKcD</p>","","","","","","","","",""
"html-keyboard-response","140","224276","0.0-10.0-0.51","5cbe02ab39447e0001745a5e","650c16f0f2faf8d7a0d14c09","651c1d57634883898e7a8415","null","null","<p style=""font-size: 60px; font-family: BACS"">mBbKBYhT</p>","","","","","","","","",""
"html-keyboard-response","141","225277","0.0-10.0-0.52","5cbe02ab39447e0001745a5e","650c16f0f2faf8d7a0d14c09","651c1d57634883898e7a8415","null","null","<p style=""font-size: 60px; font-family: BACS"">kPkRAOdOP</p>","","","","","","","","",""
"html-keyboard-response","142","226278","0.0-10.0-0.53","5cbe02ab39447e0001745a5e","650c16f0f2faf8d7a0d14c09","651c1d57634883898e7a8415","null","null","<p style=""font-size: 60px; font-family: BACS"">TCbDCBYhT</p>","","","","","","","","",""
"html-keyboard-response","143","227280","0.0-10.0-0.54","5cbe02ab39447e0001745a5e","650c16f0f2faf8d7a0d14c09","651c1d57634883898e7a8415","null","null","<p style=""font-size: 60px; font-family: BACS"">lAOKMOdOP</p>","","","","","","","","",""
"html-keyboard-response","144","228282","0.0-10.0-0.55","5cbe02ab39447e0001745a5e","650c16f0f2faf8d7a0d14c09","651c1d57634883898e7a8415","null","null","<p style=""font-size: 60px; font-family: BACS"">dmZvmOJNk</p>","","","","","","","","",""
"html-keyboard-response","145","229284","0.0-10.0-0.56","5cbe02ab39447e0001745a5e","650c16f0f2faf8d7a0d14c09","651c1d57634883898e7a8415","null","null","<p style=""font-size: 60px; font-family: BACS"">MhKdBYhT</p>","","","","","","","","",""
"html-keyboard-response","146","230286","0.0-10.0-0.57","5cbe02ab39447e0001745a5e","650c16f0f2faf8d7a0d14c09","651c1d57634883898e7a8415","null","null","<p style=""font-size: 60px; font-family: BACS"">ZcGdNUdvY</p>","","","","","","","","",""
"html-keyboard-response","147","231287","0.0-10.0-0.58","5cbe02ab39447e0001745a5e","650c16f0f2faf8d7a0d14c09","651c1d57634883898e7a8415","null","null","<p style=""font-size: 60px; font-family: BACS"">mBbKmKcD</p>","","","","","","","","",""
"html-keyboard-response","148","232289","0.0-10.0-0.59","5cbe02ab39447e0001745a5e","650c16f0f2faf8d7a0d14c09","651c1d57634883898e7a8415","null","null","<p style=""font-size: 60px; font-family: BACS"">kcCRtBYhT</p>","","","","","","","","",""
"html-keyboard-response","149","233291","0.0-10.0-0.60","5cbe02ab39447e0001745a5e","650c16f0f2faf8d7a0d14c09","651c1d57634883898e7a8415","null","null","<p style=""font-size: 60px; font-family: BACS"">BATOcBCAd</p>","","","","","","","","",""
"html-keyboard-response","150","234293","0.0-10.0-0.61","5cbe02ab39447e0001745a5e","650c16f0f2faf8d7a0d14c09","651c1d57634883898e7a8415","null","null","<p style=""font-size: 60px; font-family: BACS"">QcladUdvY</p>","","","","","","","","",""
"html-keyboard-response","151","235295","0.0-10.0-0.62","5cbe02ab39447e0001745a5e","650c16f0f2faf8d7a0d14c09","651c1d57634883898e7a8415","null","null","<p style=""font-size: 60px; font-family: BACS"">GabkOJNk</p>","","","","","","","","",""
"html-keyboard-response","152","236297","0.0-10.0-0.63","5cbe02ab39447e0001745a5e","650c16f0f2faf8d7a0d14c09","651c1d57634883898e7a8415","null","null","<p style=""font-size: 60px; font-family: BACS"">lYruaOJlN</p>","","","","","","","","",""
"html-keyboard-response","153","237299","0.0-10.0-0.64","5cbe02ab39447e0001745a5e","650c16f0f2faf8d7a0d14c09","651c1d57634883898e7a8415","null","null","<p style=""font-size: 60px; font-family: BACS"">mhtcBCAd</p>","","","","","","","","",""
"html-keyboard-response","154","238300","0.0-10.0-0.65","5cbe02ab39447e0001745a5e","650c16f0f2faf8d7a0d14c09","651c1d57634883898e7a8415","null","null","<p style=""font-size: 60px; font-family: BACS"">GabkYNu</p>","","","","","","","","",""
"html-keyboard-response","155","239302","0.0-10.0-0.66","5cbe02ab39447e0001745a5e","650c16f0f2faf8d7a0d14c09","651c1d57634883898e7a8415","null","null","<p style=""font-size: 60px; font-family: BACS"">LcNUJUdvY</p>","","","","","","","","",""
"html-keyboard-response","156","240304","0.0-10.0-0.67","5cbe02ab39447e0001745a5e","650c16f0f2faf8d7a0d14c09","651c1d57634883898e7a8415","null","null","<p style=""font-size: 60px; font-family: BACS"">cRElDBCD</p>","","","","","","","","",""
"html-keyboard-response","157","241306","0.0-10.0-0.68","5cbe02ab39447e0001745a5e","650c16f0f2faf8d7a0d14c09","651c1d57634883898e7a8415","null","null","<p style=""font-size: 60px; font-family: BACS"">MhKdmKcD</p>","","","","","","","","",""
"html-keyboard-response","158","242308","0.0-10.0-0.69","5cbe02ab39447e0001745a5e","650c16f0f2faf8d7a0d14c09","651c1d57634883898e7a8415","null","null","<p style=""font-size: 60px; font-family: BACS"">ZcGdNOcZJ</p>","","","","","","","","",""
"html-keyboard-response","159","243309","0.0-10.0-0.70","5cbe02ab39447e0001745a5e","650c16f0f2faf8d7a0d14c09","651c1d57634883898e7a8415","null","null","<p style=""font-size: 60px; font-family: BACS"">mBbKBCD</p>","","","","","","","","",""
"html-keyboard-response","160","244311","0.0-10.0-0.71","5cbe02ab39447e0001745a5e","650c16f0f2faf8d7a0d14c09","651c1d57634883898e7a8415","null","null","<p style=""font-size: 60px; font-family: BACS"">YQbcYNu</p>","","","","","","","","",""
"html-keyboard-response","161","245313","0.0-10.0-0.72","5cbe02ab39447e0001745a5e","650c16f0f2faf8d7a0d14c09","651c1d57634883898e7a8415","null","null","<p style=""font-size: 60px; font-family: BACS"">kcCRtOdOP</p>","","","","","","","","",""
"html-keyboard-response","162","246315","0.0-10.0-0.73","5cbe02ab39447e0001745a5e","650c16f0f2faf8d7a0d14c09","651c1d57634883898e7a8415","null","null","<p style=""font-size: 60px; font-family: BACS"">GabkUdvY</p>","","","","","","","","",""
"html-keyboard-response","163","247316","0.0-10.0-0.74","5cbe02ab39447e0001745a5e","650c16f0f2faf8d7a0d14c09","651c1d57634883898e7a8415","null","null","<p style=""font-size: 60px; font-family: BACS"">kcCRtmKcD</p>","","","","","","","","",""
"html-keyboard-response","164","248318","0.0-10.0-0.75","5cbe02ab39447e0001745a5e","650c16f0f2faf8d7a0d14c09","651c1d57634883898e7a8415","null","null","<p style=""font-size: 60px; font-family: BACS"">YOaAbOcZJ</p>","","","","","","","","",""
"html-keyboard-response","165","249320","0.0-10.0-0.76","5cbe02ab39447e0001745a5e","650c16f0f2faf8d7a0d14c09","651c1d57634883898e7a8415","null","null","<p style=""font-size: 60px; font-family: BACS"">ZcGdNYNu</p>","","","","","","","","",""
"html-keyboard-response","166","250322","0.0-10.0-0.77","5cbe02ab39447e0001745a5e","650c16f0f2faf8d7a0d14c09","651c1d57634883898e7a8415","null","null","<p style=""font-size: 60px; font-family: BACS"">McMDBCAd</p>","","","","","","","","",""
"html-keyboard-response","167","251324","0.0-10.0-0.78","5cbe02ab39447e0001745a5e","650c16f0f2faf8d7a0d14c09","651c1d57634883898e7a8415","null","null","<p style=""font-size: 60px; font-family: BACS"">dmZvmOcZJ</p>","","","","","","","","",""
"html-keyboard-response","168","252326","0.0-10.0-0.79","5cbe02ab39447e0001745a5e","650c16f0f2faf8d7a0d14c09","651c1d57634883898e7a8415","null","null","<p style=""font-size: 60px; font-family: BACS"">TCbDCBCD</p>","","","","","","","","",""
"html-keyboard-response","169","267169","0.0-11.0","5cbe02ab39447e0001745a5e","650c16f0f2faf8d7a0d14c09","651c1d57634883898e7a8415","14843"," ","<p>Great, you've seen the second block of words. You may now take a short break.</p>
      <p>Press the spacebar when you're ready to continue.</p>","","","","","","","","",""
"html-keyboard-response","170","268171","0.0-12.0-0.0","5cbe02ab39447e0001745a5e","650c16f0f2faf8d7a0d14c09","651c1d57634883898e7a8415","null","null","<p style=""font-size: 60px; font-family: BACS"">YOaAbOJlN</p>","","","","","","","","",""
"html-keyboard-response","171","269173","0.0-12.0-0.1","5cbe02ab39447e0001745a5e","650c16f0f2faf8d7a0d14c09","651c1d57634883898e7a8415","null","null","<p style=""font-size: 60px; font-family: BACS"">lAOKMBCD</p>","","","","","","","","",""
"html-keyboard-response","172","270175","0.0-12.0-0.2","5cbe02ab39447e0001745a5e","650c16f0f2faf8d7a0d14c09","651c1d57634883898e7a8415","null","null","<p style=""font-size: 60px; font-family: BACS"">MhKdBYhT</p>","","","","","","","","",""
"html-keyboard-response","173","271176","0.0-12.0-0.3","5cbe02ab39447e0001745a5e","650c16f0f2faf8d7a0d14c09","651c1d57634883898e7a8415","null","null","<p style=""font-size: 60px; font-family: BACS"">QcladYNu</p>","","","","","","","","",""
"html-keyboard-response","174","272178","0.0-12.0-0.4","5cbe02ab39447e0001745a5e","650c16f0f2faf8d7a0d14c09","651c1d57634883898e7a8415","null","null","<p style=""font-size: 60px; font-family: BACS"">TCbDCBCD</p>","","","","","","","","",""
"html-keyboard-response","175","273180","0.0-12.0-0.5","5cbe02ab39447e0001745a5e","650c16f0f2faf8d7a0d14c09","651c1d57634883898e7a8415","null","null","<p style=""font-size: 60px; font-family: BACS"">kcCRtOdOP</p>","","","","","","","","",""
"html-keyboard-response","176","274182","0.0-12.0-0.6","5cbe02ab39447e0001745a5e","650c16f0f2faf8d7a0d14c09","651c1d57634883898e7a8415","null","null","<p style=""font-size: 60px; font-family: BACS"">ZcGdNOJlN</p>","","","","","","","","",""
"html-keyboard-response","177","275184","0.0-12.0-0.7","5cbe02ab39447e0001745a5e","650c16f0f2faf8d7a0d14c09","651c1d57634883898e7a8415","null","null","<p style=""font-size: 60px; font-family: BACS"">kPkRAmKcD</p>","","","","","","","","",""
"html-keyboard-response","178","276185","0.0-12.0-0.8","5cbe02ab39447e0001745a5e","650c16f0f2faf8d7a0d14c09","651c1d57634883898e7a8415","null","null","<p style=""font-size: 60px; font-family: BACS"">mBbKBYhT</p>","","","","","","","","",""
"html-keyboard-response","179","277187","0.0-12.0-0.9","5cbe02ab39447e0001745a5e","650c16f0f2faf8d7a0d14c09","651c1d57634883898e7a8415","null","null","<p style=""font-size: 60px; font-family: BACS"">MhKdBCD</p>","","","","","","","","",""
"html-keyboard-response","180","278189","0.0-12.0-0.10","5cbe02ab39447e0001745a5e","650c16f0f2faf8d7a0d14c09","651c1d57634883898e7a8415","null","null","<p style=""font-size: 60px; font-family: BACS"">YQbcUdvY</p>","","","","","","","","",""
"html-keyboard-response","181","279191","0.0-12.0-0.11","5cbe02ab39447e0001745a5e","650c16f0f2faf8d7a0d14c09","651c1d57634883898e7a8415","null","null","<p style=""font-size: 60px; font-family: BACS"">YOaAbOcZJ</p>","","","","","","","","",""
"html-keyboard-response","182","280193","0.0-12.0-0.12","5cbe02ab39447e0001745a5e","650c16f0f2faf8d7a0d14c09","651c1d57634883898e7a8415","null","null","<p style=""font-size: 60px; font-family: BACS"">cRElDOdOP</p>","","","","","","","","",""
"html-keyboard-response","183","281194","0.0-12.0-0.13","5cbe02ab39447e0001745a5e","650c16f0f2faf8d7a0d14c09","651c1d57634883898e7a8415","null","null","<p style=""font-size: 60px; font-family: BACS"">kcCRtBCAd</p>","","","","","","","","",""
"html-keyboard-response","184","282196","0.0-12.0-0.14","5cbe02ab39447e0001745a5e","650c16f0f2faf8d7a0d14c09","651c1d57634883898e7a8415","null","null","<p style=""font-size: 60px; font-family: BACS"">LdrbvOcZJ</p>","","","","","","","","",""
"html-keyboard-response","185","283198","0.0-12.0-0.15","5cbe02ab39447e0001745a5e","650c16f0f2faf8d7a0d14c09","651c1d57634883898e7a8415","null","null","<p style=""font-size: 60px; font-family: BACS"">LcNUJUdvY</p>","","","","","","","","",""
"html-keyboard-response","186","284201","0.0-12.0-0.16","5cbe02ab39447e0001745a5e","650c16f0f2faf8d7a0d14c09","651c1d57634883898e7a8415","null","null","<p style=""font-size: 60px; font-family: BACS"">mhtcBCD</p>","","","","","","","","",""
"html-keyboard-response","187","285202","0.0-12.0-0.17","5cbe02ab39447e0001745a5e","650c16f0f2faf8d7a0d14c09","651c1d57634883898e7a8415","null","null","<p style=""font-size: 60px; font-family: BACS"">lAOKMmKcD</p>","","","","","","","","",""
"html-keyboard-response","188","286204","0.0-12.0-0.18","5cbe02ab39447e0001745a5e","650c16f0f2faf8d7a0d14c09","651c1d57634883898e7a8415","null","null","<p style=""font-size: 60px; font-family: BACS"">LcNUJOJlN</p>","","","","","","","","",""
"html-keyboard-response","189","287205","0.0-12.0-0.19","5cbe02ab39447e0001745a5e","650c16f0f2faf8d7a0d14c09","651c1d57634883898e7a8415","null","null","<p style=""font-size: 60px; font-family: BACS"">kcCRtBYhT</p>","","","","","","","","",""
"html-keyboard-response","190","288207","0.0-12.0-0.20","5cbe02ab39447e0001745a5e","650c16f0f2faf8d7a0d14c09","651c1d57634883898e7a8415","null","null","<p style=""font-size: 60px; font-family: BACS"">McMDmKcD</p>","","","","","","","","",""
"html-keyboard-response","191","289209","0.0-12.0-0.21","5cbe02ab39447e0001745a5e","650c16f0f2faf8d7a0d14c09","651c1d57634883898e7a8415","null","null","<p style=""font-size: 60px; font-family: BACS"">ZcGdNYNu</p>","","","","","","","","",""
"html-keyboard-response","192","290212","0.0-12.0-0.22","5cbe02ab39447e0001745a5e","650c16f0f2faf8d7a0d14c09","651c1d57634883898e7a8415","null","null","<p style=""font-size: 60px; font-family: BACS"">dmZvmOcZJ</p>","","","","","","","","",""
"html-keyboard-response","193","291228","0.0-12.0-0.23","5cbe02ab39447e0001745a5e","650c16f0f2faf8d7a0d14c09","651c1d57634883898e7a8415","null","null","<p style=""font-size: 60px; font-family: BACS"">lYruaYNu</p>","","","","","","","","",""
"html-keyboard-response","194","292231","0.0-12.0-0.24","5cbe02ab39447e0001745a5e","650c16f0f2faf8d7a0d14c09","651c1d57634883898e7a8415","null","null","<p style=""font-size: 60px; font-family: BACS"">McMDBYhT</p>","","","","","","","","",""
"html-keyboard-response","195","293233","0.0-12.0-0.25","5cbe02ab39447e0001745a5e","650c16f0f2faf8d7a0d14c09","651c1d57634883898e7a8415","null","null","<p style=""font-size: 60px; font-family: BACS"">LdrbvOJNk</p>","","","","","","","","",""
"html-keyboard-response","196","294235","0.0-12.0-0.26","5cbe02ab39447e0001745a5e","650c16f0f2faf8d7a0d14c09","651c1d57634883898e7a8415","null","null","<p style=""font-size: 60px; font-family: BACS"">mBbKmKcD</p>","","","","","","","","",""
"html-keyboard-response","197","295237","0.0-12.0-0.27","5cbe02ab39447e0001745a5e","650c16f0f2faf8d7a0d14c09","651c1d57634883898e7a8415","null","null","<p style=""font-size: 60px; font-family: BACS"">GabkOJlN</p>","","","","","","","","",""
"html-keyboard-response","198","296238","0.0-12.0-0.28","5cbe02ab39447e0001745a5e","650c16f0f2faf8d7a0d14c09","651c1d57634883898e7a8415","null","null","<p style=""font-size: 60px; font-family: BACS"">BATOcBCAd</p>","","","","","","","","",""
"html-keyboard-response","199","297240","0.0-12.0-0.29","5cbe02ab39447e0001745a5e","650c16f0f2faf8d7a0d14c09","651c1d57634883898e7a8415","null","null","<p style=""font-size: 60px; font-family: BACS"">LdrbvOJlN</p>","","","","","","","","",""
"html-keyboard-response","200","298242","0.0-12.0-0.30","5cbe02ab39447e0001745a5e","650c16f0f2faf8d7a0d14c09","651c1d57634883898e7a8415","null","null","<p style=""font-size: 60px; font-family: BACS"">YOaAbYNu</p>","","","","","","","","",""
"html-keyboard-response","201","299244","0.0-12.0-0.31","5cbe02ab39447e0001745a5e","650c16f0f2faf8d7a0d14c09","651c1d57634883898e7a8415","null","null","<p style=""font-size: 60px; font-family: BACS"">mhtcBYhT</p>","","","","","","","","",""
"html-keyboard-response","202","300246","0.0-12.0-0.32","5cbe02ab39447e0001745a5e","650c16f0f2faf8d7a0d14c09","651c1d57634883898e7a8415","null","null","<p style=""font-size: 60px; font-family: BACS"">JuamlOJNk</p>","","","","","","","","",""
"html-keyboard-response","203","301247","0.0-12.0-0.33","5cbe02ab39447e0001745a5e","650c16f0f2faf8d7a0d14c09","651c1d57634883898e7a8415","null","null","<p style=""font-size: 60px; font-family: BACS"">MhKdOdOP</p>","","","","","","","","",""
"html-keyboard-response","204","302249","0.0-12.0-0.34","5cbe02ab39447e0001745a5e","650c16f0f2faf8d7a0d14c09","651c1d57634883898e7a8415","null","null","<p style=""font-size: 60px; font-family: BACS"">JuamlYNu</p>","","","","","","","","",""
"html-keyboard-response","205","303251","0.0-12.0-0.35","5cbe02ab39447e0001745a5e","650c16f0f2faf8d7a0d14c09","651c1d57634883898e7a8415","null","null","<p style=""font-size: 60px; font-family: BACS"">McMDBCD</p>","","","","","","","","",""
"html-keyboard-response","206","304253","0.0-12.0-0.36","5cbe02ab39447e0001745a5e","650c16f0f2faf8d7a0d14c09","651c1d57634883898e7a8415","null","null","<p style=""font-size: 60px; font-family: BACS"">BATOcmKcD</p>","","","","","","","","",""
"html-keyboard-response","207","305255","0.0-12.0-0.37","5cbe02ab39447e0001745a5e","650c16f0f2faf8d7a0d14c09","651c1d57634883898e7a8415","null","null","<p style=""font-size: 60px; font-family: BACS"">LdrbvYNu</p>","","","","","","","","",""
"html-keyboard-response","208","306257","0.0-12.0-0.38","5cbe02ab39447e0001745a5e","650c16f0f2faf8d7a0d14c09","651c1d57634883898e7a8415","null","null","<p style=""font-size: 60px; font-family: BACS"">lAOKMOdOP</p>","","","","","","","","",""
"html-keyboard-response","209","307258","0.0-12.0-0.39","5cbe02ab39447e0001745a5e","650c16f0f2faf8d7a0d14c09","651c1d57634883898e7a8415","null","null","<p style=""font-size: 60px; font-family: BACS"">ZcGdNOcZJ</p>","","","","","","","","",""
"html-keyboard-response","210","308260","0.0-12.0-0.40","5cbe02ab39447e0001745a5e","650c16f0f2faf8d7a0d14c09","651c1d57634883898e7a8415","null","null","<p style=""font-size: 60px; font-family: BACS"">QcladOJNk</p>","","","","","","","","",""
"html-keyboard-response","211","309262","0.0-12.0-0.41","5cbe02ab39447e0001745a5e","650c16f0f2faf8d7a0d14c09","651c1d57634883898e7a8415","null","null","<p style=""font-size: 60px; font-family: BACS"">lYruaOcZJ</p>","","","","","","","","",""
"html-keyboard-response","212","310265","0.0-12.0-0.42","5cbe02ab39447e0001745a5e","650c16f0f2faf8d7a0d14c09","651c1d57634883898e7a8415","null","null","<p style=""font-size: 60px; font-family: BACS"">MhKdmKcD</p>","","","","","","","","",""
"html-keyboard-response","213","311266","0.0-12.0-0.43","5cbe02ab39447e0001745a5e","650c16f0f2faf8d7a0d14c09","651c1d57634883898e7a8415","null","null","<p style=""font-size: 60px; font-family: BACS"">McMDBCAd</p>","","","","","","","","",""
"html-keyboard-response","214","312267","0.0-12.0-0.44","5cbe02ab39447e0001745a5e","650c16f0f2faf8d7a0d14c09","651c1d57634883898e7a8415","null","null","<p style=""font-size: 60px; font-family: BACS"">QcladUdvY</p>","","","","","","","","",""
"html-keyboard-response","215","313269","0.0-12.0-0.45","5cbe02ab39447e0001745a5e","650c16f0f2faf8d7a0d14c09","651c1d57634883898e7a8415","null","null","<p style=""font-size: 60px; font-family: BACS"">GabkOJNk</p>","","","","","","","","",""
"html-keyboard-response","216","314271","0.0-12.0-0.46","5cbe02ab39447e0001745a5e","650c16f0f2faf8d7a0d14c09","651c1d57634883898e7a8415","null","null","<p style=""font-size: 60px; font-family: BACS"">BATOcBYhT</p>","","","","","","","","",""
"html-keyboard-response","217","315273","0.0-12.0-0.47","5cbe02ab39447e0001745a5e","650c16f0f2faf8d7a0d14c09","651c1d57634883898e7a8415","null","null","<p style=""font-size: 60px; font-family: BACS"">dmZvmUdvY</p>","","","","","","","","",""
"html-keyboard-response","218","316276","0.0-12.0-0.48","5cbe02ab39447e0001745a5e","650c16f0f2faf8d7a0d14c09","651c1d57634883898e7a8415","null","null","<p style=""font-size: 60px; font-family: BACS"">kPkRAOdOP</p>","","","","","","","","",""
"html-keyboard-response","219","317277","0.0-12.0-0.49","5cbe02ab39447e0001745a5e","650c16f0f2faf8d7a0d14c09","651c1d57634883898e7a8415","null","null","<p style=""font-size: 60px; font-family: BACS"">mBbKBCD</p>","","","","","","","","",""
"html-keyboard-response","220","318278","0.0-12.0-0.50","5cbe02ab39447e0001745a5e","650c16f0f2faf8d7a0d14c09","651c1d57634883898e7a8415","null","null","<p style=""font-size: 60px; font-family: BACS"">GabkUdvY</p>","","","","","","","","",""
"html-keyboard-response","221","319280","0.0-12.0-0.51","5cbe02ab39447e0001745a5e","650c16f0f2faf8d7a0d14c09","651c1d57634883898e7a8415","null","null","<p style=""font-size: 60px; font-family: BACS"">BATOcOdOP</p>","","","","","","","","",""
"html-keyboard-response","222","320282","0.0-12.0-0.52","5cbe02ab39447e0001745a5e","650c16f0f2faf8d7a0d14c09","651c1d57634883898e7a8415","null","null","<p style=""font-size: 60px; font-family: BACS"">JuamlOcZJ</p>","","","","","","","","",""
"html-keyboard-response","223","321284","0.0-12.0-0.53","5cbe02ab39447e0001745a5e","650c16f0f2faf8d7a0d14c09","651c1d57634883898e7a8415","null","null","<p style=""font-size: 60px; font-family: BACS"">kPkRABCD</p>","","","","","","","","",""
"html-keyboard-response","224","322286","0.0-12.0-0.54","5cbe02ab39447e0001745a5e","650c16f0f2faf8d7a0d14c09","651c1d57634883898e7a8415","null","null","<p style=""font-size: 60px; font-family: BACS"">kcCRtmKcD</p>","","","","","","","","",""
"html-keyboard-response","225","323288","0.0-12.0-0.55","5cbe02ab39447e0001745a5e","650c16f0f2faf8d7a0d14c09","651c1d57634883898e7a8415","null","null","<p style=""font-size: 60px; font-family: BACS"">TCbDCBCAd</p>","","","","","","","","",""
"html-keyboard-response","226","324289","0.0-12.0-0.56","5cbe02ab39447e0001745a5e","650c16f0f2faf8d7a0d14c09","651c1d57634883898e7a8415","null","null","<p style=""font-size: 60px; font-family: BACS"">YQbcYNu</p>","","","","","","","","",""
"html-keyboard-response","227","325292","0.0-12.0-0.57","5cbe02ab39447e0001745a5e","650c16f0f2faf8d7a0d14c09","651c1d57634883898e7a8415","null","null","<p style=""font-size: 60px; font-family: BACS"">mBbKBCAd</p>","","","","","","","","",""
"html-keyboard-response","228","326293","0.0-12.0-0.58","5cbe02ab39447e0001745a5e","650c16f0f2faf8d7a0d14c09","651c1d57634883898e7a8415","null","null","<p style=""font-size: 60px; font-family: BACS"">YQbcOJNk</p>","","","","","","","","",""
"html-keyboard-response","229","327295","0.0-12.0-0.59","5cbe02ab39447e0001745a5e","650c16f0f2faf8d7a0d14c09","651c1d57634883898e7a8415","null","null","<p style=""font-size: 60px; font-family: BACS"">lYruaOJlN</p>","","","","","","","","",""
"html-keyboard-response","230","328297","0.0-12.0-0.60","5cbe02ab39447e0001745a5e","650c16f0f2faf8d7a0d14c09","651c1d57634883898e7a8415","null","null","<p style=""font-size: 60px; font-family: BACS"">JuamlUdvY</p>","","","","","","","","",""
"html-keyboard-response","231","329298","0.0-12.0-0.61","5cbe02ab39447e0001745a5e","650c16f0f2faf8d7a0d14c09","651c1d57634883898e7a8415","null","null","<p style=""font-size: 60px; font-family: BACS"">dmZvmOJNk</p>","","","","","","","","",""
"html-keyboard-response","232","330300","0.0-12.0-0.62","5cbe02ab39447e0001745a5e","650c16f0f2faf8d7a0d14c09","651c1d57634883898e7a8415","null","null","<p style=""font-size: 60px; font-family: BACS"">YQbcOcZJ</p>","","","","","","","","",""
"html-keyboard-response","233","331302","0.0-12.0-0.63","5cbe02ab39447e0001745a5e","650c16f0f2faf8d7a0d14c09","651c1d57634883898e7a8415","null","null","<p style=""font-size: 60px; font-family: BACS"">YOaAbOJNk</p>","","","","","","","","",""
"html-keyboard-response","234","332304","0.0-12.0-0.64","5cbe02ab39447e0001745a5e","650c16f0f2faf8d7a0d14c09","651c1d57634883898e7a8415","null","null","<p style=""font-size: 60px; font-family: BACS"">kPkRABYhT</p>","","","","","","","","",""
"html-keyboard-response","235","333306","0.0-12.0-0.65","5cbe02ab39447e0001745a5e","650c16f0f2faf8d7a0d14c09","651c1d57634883898e7a8415","null","null","<p style=""font-size: 60px; font-family: BACS"">cRElDBCD</p>","","","","","","","","",""
"html-keyboard-response","236","334307","0.0-12.0-0.66","5cbe02ab39447e0001745a5e","650c16f0f2faf8d7a0d14c09","651c1d57634883898e7a8415","null","null","<p style=""font-size: 60px; font-family: BACS"">GabkYNu</p>","","","","","","","","",""
"html-keyboard-response","237","335310","0.0-12.0-0.67","5cbe02ab39447e0001745a5e","650c16f0f2faf8d7a0d14c09","651c1d57634883898e7a8415","null","null","<p style=""font-size: 60px; font-family: BACS"">lAOKMBCAd</p>","","","","","","","","",""
"html-keyboard-response","238","336311","0.0-12.0-0.68","5cbe02ab39447e0001745a5e","650c16f0f2faf8d7a0d14c09","651c1d57634883898e7a8415","null","null","<p style=""font-size: 60px; font-family: BACS"">lYruaUdvY</p>","","","","","","","","",""
"html-keyboard-response","239","337313","0.0-12.0-0.69","5cbe02ab39447e0001745a5e","650c16f0f2faf8d7a0d14c09","651c1d57634883898e7a8415","null","null","<p style=""font-size: 60px; font-family: BACS"">QcladOJlN</p>","","","","","","","","",""
"html-keyboard-response","240","338315","0.0-12.0-0.70","5cbe02ab39447e0001745a5e","650c16f0f2faf8d7a0d14c09","651c1d57634883898e7a8415","null","null","<p style=""font-size: 60px; font-family: BACS"">TCbDCBYhT</p>","","","","","","","","",""
"html-keyboard-response","241","339317","0.0-12.0-0.71","5cbe02ab39447e0001745a5e","650c16f0f2faf8d7a0d14c09","651c1d57634883898e7a8415","null","null","<p style=""font-size: 60px; font-family: BACS"">cRElDmKcD</p>","","","","","","","","",""
"html-keyboard-response","242","340319","0.0-12.0-0.72","5cbe02ab39447e0001745a5e","650c16f0f2faf8d7a0d14c09","651c1d57634883898e7a8415","null","null","<p style=""font-size: 60px; font-family: BACS"">ZcGdNUdvY</p>","","","","","","","","",""
"html-keyboard-response","243","341320","0.0-12.0-0.73","5cbe02ab39447e0001745a5e","650c16f0f2faf8d7a0d14c09","651c1d57634883898e7a8415","null","null","<p style=""font-size: 60px; font-family: BACS"">mhtcBCAd</p>","","","","","","","","",""
"html-keyboard-response","244","342322","0.0-12.0-0.74","5cbe02ab39447e0001745a5e","650c16f0f2faf8d7a0d14c09","651c1d57634883898e7a8415","null","null","<p style=""font-size: 60px; font-family: BACS"">LcNUJOJNk</p>","","","","","","","","",""
"html-keyboard-response","245","343324","0.0-12.0-0.75","5cbe02ab39447e0001745a5e","650c16f0f2faf8d7a0d14c09","651c1d57634883898e7a8415","null","null","<p style=""font-size: 60px; font-family: BACS"">cRElDBCAd</p>","","","","","","","","",""
"html-keyboard-response","246","344326","0.0-12.0-0.76","5cbe02ab39447e0001745a5e","650c16f0f2faf8d7a0d14c09","651c1d57634883898e7a8415","null","null","<p style=""font-size: 60px; font-family: BACS"">TCbDCOdOP</p>","","","","","","","","",""
"html-keyboard-response","247","345327","0.0-12.0-0.77","5cbe02ab39447e0001745a5e","650c16f0f2faf8d7a0d14c09","651c1d57634883898e7a8415","null","null","<p style=""font-size: 60px; font-family: BACS"">dmZvmOJlN</p>","","","","","","","","",""
"html-keyboard-response","248","346329","0.0-12.0-0.78","5cbe02ab39447e0001745a5e","650c16f0f2faf8d7a0d14c09","651c1d57634883898e7a8415","null","null","<p style=""font-size: 60px; font-family: BACS"">mhtcOdOP</p>","","","","","","","","",""
"html-keyboard-response","249","347331","0.0-12.0-0.79","5cbe02ab39447e0001745a5e","650c16f0f2faf8d7a0d14c09","651c1d57634883898e7a8415","null","null","<p style=""font-size: 60px; font-family: BACS"">LcNUJOcZJ</p>","","","","","","","","",""
"html-keyboard-response","250","371036","0.0-13.0","5cbe02ab39447e0001745a5e","650c16f0f2faf8d7a0d14c09","651c1d57634883898e7a8415","23704"," ","<p>Great, you've seen the third block of words. You may now take a short break.</p>
      <p>Press the spacebar when you're ready to continue.</p>","","","","","","","","",""
"html-keyboard-response","251","372041","0.0-14.0-0.0","5cbe02ab39447e0001745a5e","650c16f0f2faf8d7a0d14c09","651c1d57634883898e7a8415","null","null","<p style=""font-size: 60px; font-family: BACS"">cRElDOdOP</p>","","","","","","","","",""
"html-keyboard-response","252","373045","0.0-14.0-0.1","5cbe02ab39447e0001745a5e","650c16f0f2faf8d7a0d14c09","651c1d57634883898e7a8415","null","null","<p style=""font-size: 60px; font-family: BACS"">dmZvmOcZJ</p>","","","","","","","","",""
"html-keyboard-response","253","374046","0.0-14.0-0.2","5cbe02ab39447e0001745a5e","650c16f0f2faf8d7a0d14c09","651c1d57634883898e7a8415","null","null","<p style=""font-size: 60px; font-family: BACS"">mhtcOdOP</p>","","","","","","","","",""
"html-keyboard-response","254","375048","0.0-14.0-0.3","5cbe02ab39447e0001745a5e","650c16f0f2faf8d7a0d14c09","651c1d57634883898e7a8415","null","null","<p style=""font-size: 60px; font-family: BACS"">kPkRAmKcD</p>","","","","","","","","",""
"html-keyboard-response","255","376050","0.0-14.0-0.4","5cbe02ab39447e0001745a5e","650c16f0f2faf8d7a0d14c09","651c1d57634883898e7a8415","null","null","<p style=""font-size: 60px; font-family: BACS"">MhKdBCD</p>","","","","","","","","",""
"html-keyboard-response","256","377052","0.0-14.0-0.5","5cbe02ab39447e0001745a5e","650c16f0f2faf8d7a0d14c09","651c1d57634883898e7a8415","null","null","<p style=""font-size: 60px; font-family: BACS"">McMDBYhT</p>","","","","","","","","",""
"html-keyboard-response","257","378053","0.0-14.0-0.6","5cbe02ab39447e0001745a5e","650c16f0f2faf8d7a0d14c09","651c1d57634883898e7a8415","null","null","<p style=""font-size: 60px; font-family: BACS"">lYruaYNu</p>","","","","","","","","",""
"html-keyboard-response","258","379055","0.0-14.0-0.7","5cbe02ab39447e0001745a5e","650c16f0f2faf8d7a0d14c09","651c1d57634883898e7a8415","null","null","<p style=""font-size: 60px; font-family: BACS"">QcladUdvY</p>","","","","","","","","",""
"html-keyboard-response","259","380057","0.0-14.0-0.8","5cbe02ab39447e0001745a5e","650c16f0f2faf8d7a0d14c09","651c1d57634883898e7a8415","null","null","<p style=""font-size: 60px; font-family: BACS"">lYruaOcZJ</p>","","","","","","","","",""
"html-keyboard-response","260","381059","0.0-14.0-0.9","5cbe02ab39447e0001745a5e","650c16f0f2faf8d7a0d14c09","651c1d57634883898e7a8415","null","null","<p style=""font-size: 60px; font-family: BACS"">GabkOJlN</p>","","","","","","","","",""
"html-keyboard-response","261","382061","0.0-14.0-0.10","5cbe02ab39447e0001745a5e","650c16f0f2faf8d7a0d14c09","651c1d57634883898e7a8415","null","null","<p style=""font-size: 60px; font-family: BACS"">lAOKMBCAd</p>","","","","","","","","",""
"html-keyboard-response","262","383062","0.0-14.0-0.11","5cbe02ab39447e0001745a5e","650c16f0f2faf8d7a0d14c09","651c1d57634883898e7a8415","null","null","<p style=""font-size: 60px; font-family: BACS"">GabkOJNk</p>","","","","","","","","",""
"html-keyboard-response","263","384064","0.0-14.0-0.12","5cbe02ab39447e0001745a5e","650c16f0f2faf8d7a0d14c09","651c1d57634883898e7a8415","null","null","<p style=""font-size: 60px; font-family: BACS"">BATOcmKcD</p>","","","","","","","","",""
"html-keyboard-response","264","385066","0.0-14.0-0.13","5cbe02ab39447e0001745a5e","650c16f0f2faf8d7a0d14c09","651c1d57634883898e7a8415","null","null","<p style=""font-size: 60px; font-family: BACS"">ZcGdNOJlN</p>","","","","","","","","",""
"html-keyboard-response","265","386068","0.0-14.0-0.14","5cbe02ab39447e0001745a5e","650c16f0f2faf8d7a0d14c09","651c1d57634883898e7a8415","null","null","<p style=""font-size: 60px; font-family: BACS"">YQbcOJNk</p>","","","","","","","","",""
"html-keyboard-response","266","387070","0.0-14.0-0.15","5cbe02ab39447e0001745a5e","650c16f0f2faf8d7a0d14c09","651c1d57634883898e7a8415","null","null","<p style=""font-size: 60px; font-family: BACS"">mhtcBCD</p>","","","","","","","","",""
"html-keyboard-response","267","388072","0.0-14.0-0.16","5cbe02ab39447e0001745a5e","650c16f0f2faf8d7a0d14c09","651c1d57634883898e7a8415","null","null","<p style=""font-size: 60px; font-family: BACS"">lYruaOJlN</p>","","","","","","","","",""
"html-keyboard-response","268","389073","0.0-14.0-0.17","5cbe02ab39447e0001745a5e","650c16f0f2faf8d7a0d14c09","651c1d57634883898e7a8415","null","null","<p style=""font-size: 60px; font-family: BACS"">JuamlUdvY</p>","","","","","","","","",""
"html-keyboard-response","269","390075","0.0-14.0-0.18","5cbe02ab39447e0001745a5e","650c16f0f2faf8d7a0d14c09","651c1d57634883898e7a8415","null","null","<p style=""font-size: 60px; font-family: BACS"">LdrbvYNu</p>","","","","","","","","",""
"html-keyboard-response","270","391090","0.0-14.0-0.19","5cbe02ab39447e0001745a5e","650c16f0f2faf8d7a0d14c09","651c1d57634883898e7a8415","null","null","<p style=""font-size: 60px; font-family: BACS"">lAOKMmKcD</p>","","","","","","","","",""
"html-keyboard-response","271","392095","0.0-14.0-0.20","5cbe02ab39447e0001745a5e","650c16f0f2faf8d7a0d14c09","651c1d57634883898e7a8415","null","null","<p style=""font-size: 60px; font-family: BACS"">ZcGdNOcZJ</p>","","","","","","","","",""
"html-keyboard-response","272","393097","0.0-14.0-0.21","5cbe02ab39447e0001745a5e","650c16f0f2faf8d7a0d14c09","651c1d57634883898e7a8415","null","null","<p style=""font-size: 60px; font-family: BACS"">MhKdBYhT</p>","","","","","","","","",""
"html-keyboard-response","273","394099","0.0-14.0-0.22","5cbe02ab39447e0001745a5e","650c16f0f2faf8d7a0d14c09","651c1d57634883898e7a8415","null","null","<p style=""font-size: 60px; font-family: BACS"">BATOcBCAd</p>","","","","","","","","",""
"html-keyboard-response","274","395101","0.0-14.0-0.23","5cbe02ab39447e0001745a5e","650c16f0f2faf8d7a0d14c09","651c1d57634883898e7a8415","null","null","<p style=""font-size: 60px; font-family: BACS"">kcCRtBYhT</p>","","","","","","","","",""
"html-keyboard-response","275","396103","0.0-14.0-0.24","5cbe02ab39447e0001745a5e","650c16f0f2faf8d7a0d14c09","651c1d57634883898e7a8415","null","null","<p style=""font-size: 60px; font-family: BACS"">cRElDBCD</p>","","","","","","","","",""
"html-keyboard-response","276","397105","0.0-14.0-0.25","5cbe02ab39447e0001745a5e","650c16f0f2faf8d7a0d14c09","651c1d57634883898e7a8415","null","null","<p style=""font-size: 60px; font-family: BACS"">YOaAbYNu</p>","","","","","","","","",""
"html-keyboard-response","277","398106","0.0-14.0-0.26","5cbe02ab39447e0001745a5e","650c16f0f2faf8d7a0d14c09","651c1d57634883898e7a8415","null","null","<p style=""font-size: 60px; font-family: BACS"">mBbKmKcD</p>","","","","","","","","",""
"html-keyboard-response","278","399108","0.0-14.0-0.27","5cbe02ab39447e0001745a5e","650c16f0f2faf8d7a0d14c09","651c1d57634883898e7a8415","null","null","<p style=""font-size: 60px; font-family: BACS"">QcladYNu</p>","","","","","","","","",""
"html-keyboard-response","279","400110","0.0-14.0-0.28","5cbe02ab39447e0001745a5e","650c16f0f2faf8d7a0d14c09","651c1d57634883898e7a8415","null","null","<p style=""font-size: 60px; font-family: BACS"">mhtcBCAd</p>","","","","","","","","",""
"html-keyboard-response","280","401112","0.0-14.0-0.29","5cbe02ab39447e0001745a5e","650c16f0f2faf8d7a0d14c09","651c1d57634883898e7a8415","null","null","<p style=""font-size: 60px; font-family: BACS"">McMDBCD</p>","","","","","","","","",""
"html-keyboard-response","281","402114","0.0-14.0-0.30","5cbe02ab39447e0001745a5e","650c16f0f2faf8d7a0d14c09","651c1d57634883898e7a8415","null","null","<p style=""font-size: 60px; font-family: BACS"">QcladOJNk</p>","","","","","","","","",""
"html-keyboard-response","282","403115","0.0-14.0-0.31","5cbe02ab39447e0001745a5e","650c16f0f2faf8d7a0d14c09","651c1d57634883898e7a8415","null","null","<p style=""font-size: 60px; font-family: BACS"">LcNUJOJlN</p>","","","","","","","","",""
"html-keyboard-response","283","404117","0.0-14.0-0.32","5cbe02ab39447e0001745a5e","650c16f0f2faf8d7a0d14c09","651c1d57634883898e7a8415","null","null","<p style=""font-size: 60px; font-family: BACS"">JuamlYNu</p>","","","","","","","","",""
"html-keyboard-response","284","405119","0.0-14.0-0.33","5cbe02ab39447e0001745a5e","650c16f0f2faf8d7a0d14c09","651c1d57634883898e7a8415","null","null","<p style=""font-size: 60px; font-family: BACS"">TCbDCBCAd</p>","","","","","","","","",""
"html-keyboard-response","285","406121","0.0-14.0-0.34","5cbe02ab39447e0001745a5e","650c16f0f2faf8d7a0d14c09","651c1d57634883898e7a8415","null","null","<p style=""font-size: 60px; font-family: BACS"">GabkUdvY</p>","","","","","","","","",""
"html-keyboard-response","286","407123","0.0-14.0-0.35","5cbe02ab39447e0001745a5e","650c16f0f2faf8d7a0d14c09","651c1d57634883898e7a8415","null","null","<p style=""font-size: 60px; font-family: BACS"">MhKdOdOP</p>","","","","","","","","",""
"html-keyboard-response","287","408124","0.0-14.0-0.36","5cbe02ab39447e0001745a5e","650c16f0f2faf8d7a0d14c09","651c1d57634883898e7a8415","null","null","<p style=""font-size: 60px; font-family: BACS"">mhtcBYhT</p>","","","","","","","","",""
"html-keyboard-response","288","409126","0.0-14.0-0.37","5cbe02ab39447e0001745a5e","650c16f0f2faf8d7a0d14c09","651c1d57634883898e7a8415","null","null","<p style=""font-size: 60px; font-family: BACS"">lAOKMBCD</p>","","","","","","","","",""
"html-keyboard-response","289","410128","0.0-14.0-0.38","5cbe02ab39447e0001745a5e","650c16f0f2faf8d7a0d14c09","651c1d57634883898e7a8415","null","null","<p style=""font-size: 60px; font-family: BACS"">QcladOJlN</p>","","","","","","","","",""
"html-keyboard-response","290","411131","0.0-14.0-0.39","5cbe02ab39447e0001745a5e","650c16f0f2faf8d7a0d14c09","651c1d57634883898e7a8415","null","null","<p style=""font-size: 60px; font-family: BACS"">kPkRAOdOP</p>","","","","","","","","",""
"html-keyboard-response","291","412132","0.0-14.0-0.40","5cbe02ab39447e0001745a5e","650c16f0f2faf8d7a0d14c09","651c1d57634883898e7a8415","null","null","<p style=""font-size: 60px; font-family: BACS"">kcCRtBCAd</p>","","","","","","","","",""
"html-keyboard-response","292","413134","0.0-14.0-0.41","5cbe02ab39447e0001745a5e","650c16f0f2faf8d7a0d14c09","651c1d57634883898e7a8415","null","null","<p style=""font-size: 60px; font-family: BACS"">TCbDCBYhT</p>","","","","","","","","",""
"html-keyboard-response","293","414135","0.0-14.0-0.42","5cbe02ab39447e0001745a5e","650c16f0f2faf8d7a0d14c09","651c1d57634883898e7a8415","null","null","<p style=""font-size: 60px; font-family: BACS"">ZcGdNYNu</p>","","","","","","","","",""
"html-keyboard-response","294","415137","0.0-14.0-0.43","5cbe02ab39447e0001745a5e","650c16f0f2faf8d7a0d14c09","651c1d57634883898e7a8415","null","null","<p style=""font-size: 60px; font-family: BACS"">lYruaUdvY</p>","","","","","","","","",""
"html-keyboard-response","295","416139","0.0-14.0-0.44","5cbe02ab39447e0001745a5e","650c16f0f2faf8d7a0d14c09","651c1d57634883898e7a8415","null","null","<p style=""font-size: 60px; font-family: BACS"">dmZvmOJlN</p>","","","","","","","","",""
"html-keyboard-response","296","417141","0.0-14.0-0.45","5cbe02ab39447e0001745a5e","650c16f0f2faf8d7a0d14c09","651c1d57634883898e7a8415","null","null","<p style=""font-size: 60px; font-family: BACS"">cRElDBCAd</p>","","","","","","","","",""
"html-keyboard-response","297","418143","0.0-14.0-0.46","5cbe02ab39447e0001745a5e","650c16f0f2faf8d7a0d14c09","651c1d57634883898e7a8415","null","null","<p style=""font-size: 60px; font-family: BACS"">kPkRABCD</p>","","","","","","","","",""
"html-keyboard-response","298","419145","0.0-14.0-0.47","5cbe02ab39447e0001745a5e","650c16f0f2faf8d7a0d14c09","651c1d57634883898e7a8415","null","null","<p style=""font-size: 60px; font-family: BACS"">kcCRtmKcD</p>","","","","","","","","",""
"html-keyboard-response","299","420146","0.0-14.0-0.48","5cbe02ab39447e0001745a5e","650c16f0f2faf8d7a0d14c09","651c1d57634883898e7a8415","null","null","<p style=""font-size: 60px; font-family: BACS"">LcNUJOcZJ</p>","","","","","","","","",""
"html-keyboard-response","300","421149","0.0-14.0-0.49","5cbe02ab39447e0001745a5e","650c16f0f2faf8d7a0d14c09","651c1d57634883898e7a8415","null","null","<p style=""font-size: 60px; font-family: BACS"">YOaAbOJlN</p>","","","","","","","","",""
"html-keyboard-response","301","422150","0.0-14.0-0.50","5cbe02ab39447e0001745a5e","650c16f0f2faf8d7a0d14c09","651c1d57634883898e7a8415","null","null","<p style=""font-size: 60px; font-family: BACS"">JuamlOJNk</p>","","","","","","","","",""
"html-keyboard-response","302","423152","0.0-14.0-0.51","5cbe02ab39447e0001745a5e","650c16f0f2faf8d7a0d14c09","651c1d57634883898e7a8415","null","null","<p style=""font-size: 60px; font-family: BACS"">mBbKBYhT</p>","","","","","","","","",""
"html-keyboard-response","303","424154","0.0-14.0-0.52","5cbe02ab39447e0001745a5e","650c16f0f2faf8d7a0d14c09","651c1d57634883898e7a8415","null","null","<p style=""font-size: 60px; font-family: BACS"">LcNUJUdvY</p>","","","","","","","","",""
"html-keyboard-response","304","425155","0.0-14.0-0.53","5cbe02ab39447e0001745a5e","650c16f0f2faf8d7a0d14c09","651c1d57634883898e7a8415","null","null","<p style=""font-size: 60px; font-family: BACS"">mBbKBCD</p>","","","","","","","","",""
"html-keyboard-response","305","426158","0.0-14.0-0.54","5cbe02ab39447e0001745a5e","650c16f0f2faf8d7a0d14c09","651c1d57634883898e7a8415","null","null","<p style=""font-size: 60px; font-family: BACS"">McMDBCAd</p>","","","","","","","","",""
"html-keyboard-response","306","427159","0.0-14.0-0.55","5cbe02ab39447e0001745a5e","650c16f0f2faf8d7a0d14c09","651c1d57634883898e7a8415","null","null","<p style=""font-size: 60px; font-family: BACS"">TCbDCOdOP</p>","","","","","","","","",""
"html-keyboard-response","307","428161","0.0-14.0-0.56","5cbe02ab39447e0001745a5e","650c16f0f2faf8d7a0d14c09","651c1d57634883898e7a8415","null","null","<p style=""font-size: 60px; font-family: BACS"">dmZvmOJNk</p>","","","","","","","","",""
"html-keyboard-response","308","429163","0.0-14.0-0.57","5cbe02ab39447e0001745a5e","650c16f0f2faf8d7a0d14c09","651c1d57634883898e7a8415","null","null","<p style=""font-size: 60px; font-family: BACS"">ZcGdNUdvY</p>","","","","","","","","",""
"html-keyboard-response","309","430165","0.0-14.0-0.58","5cbe02ab39447e0001745a5e","650c16f0f2faf8d7a0d14c09","651c1d57634883898e7a8415","null","null","<p style=""font-size: 60px; font-family: BACS"">YOaAbOcZJ</p>","","","","","","","","",""
"html-keyboard-response","310","431167","0.0-14.0-0.59","5cbe02ab39447e0001745a5e","650c16f0f2faf8d7a0d14c09","651c1d57634883898e7a8415","null","null","<p style=""font-size: 60px; font-family: BACS"">dmZvmUdvY</p>","","","","","","","","",""
"html-keyboard-response","311","432169","0.0-14.0-0.60","5cbe02ab39447e0001745a5e","650c16f0f2faf8d7a0d14c09","651c1d57634883898e7a8415","null","null","<p style=""font-size: 60px; font-family: BACS"">McMDmKcD</p>","","","","","","","","",""
"html-keyboard-response","312","433170","0.0-14.0-0.61","5cbe02ab39447e0001745a5e","650c16f0f2faf8d7a0d14c09","651c1d57634883898e7a8415","null","null","<p style=""font-size: 60px; font-family: BACS"">BATOcOdOP</p>","","","","","","","","",""
"html-keyboard-response","313","434172","0.0-14.0-0.62","5cbe02ab39447e0001745a5e","650c16f0f2faf8d7a0d14c09","651c1d57634883898e7a8415","null","null","<p style=""font-size: 60px; font-family: BACS"">GabkYNu</p>","","","","","","","","",""
"html-keyboard-response","314","435174","0.0-14.0-0.63","5cbe02ab39447e0001745a5e","650c16f0f2faf8d7a0d14c09","651c1d57634883898e7a8415","null","null","<p style=""font-size: 60px; font-family: BACS"">TCbDCBCD</p>","","","","","","","","",""
"html-keyboard-response","315","436175","0.0-14.0-0.64","5cbe02ab39447e0001745a5e","650c16f0f2faf8d7a0d14c09","651c1d57634883898e7a8415","null","null","<p style=""font-size: 60px; font-family: BACS"">YQbcYNu</p>","","","","","","","","",""
"html-keyboard-response","316","437177","0.0-14.0-0.65","5cbe02ab39447e0001745a5e","650c16f0f2faf8d7a0d14c09","651c1d57634883898e7a8415","null","null","<p style=""font-size: 60px; font-family: BACS"">LdrbvOcZJ</p>","","","","","","","","",""
"html-keyboard-response","317","438179","0.0-14.0-0.66","5cbe02ab39447e0001745a5e","650c16f0f2faf8d7a0d14c09","651c1d57634883898e7a8415","null","null","<p style=""font-size: 60px; font-family: BACS"">BATOcBYhT</p>","","","","","","","","",""
"html-keyboard-response","318","439181","0.0-14.0-0.67","5cbe02ab39447e0001745a5e","650c16f0f2faf8d7a0d14c09","651c1d57634883898e7a8415","null","null","<p style=""font-size: 60px; font-family: BACS"">LdrbvOJNk</p>","","","","","","","","",""
"html-keyboard-response","319","440183","0.0-14.0-0.68","5cbe02ab39447e0001745a5e","650c16f0f2faf8d7a0d14c09","651c1d57634883898e7a8415","null","null","<p style=""font-size: 60px; font-family: BACS"">lAOKMOdOP</p>","","","","","","","","",""
"html-keyboard-response","320","441186","0.0-14.0-0.69","5cbe02ab39447e0001745a5e","650c16f0f2faf8d7a0d14c09","651c1d57634883898e7a8415","null","null","<p style=""font-size: 60px; font-family: BACS"">YQbcOcZJ</p>","","","","","","","","",""
"html-keyboard-response","321","442186","0.0-14.0-0.70","5cbe02ab39447e0001745a5e","650c16f0f2faf8d7a0d14c09","651c1d57634883898e7a8415","null","null","<p style=""font-size: 60px; font-family: BACS"">MhKdmKcD</p>","","","","","","","","",""
"html-keyboard-response","322","443188","0.0-14.0-0.71","5cbe02ab39447e0001745a5e","650c16f0f2faf8d7a0d14c09","651c1d57634883898e7a8415","null","null","<p style=""font-size: 60px; font-family: BACS"">YQbcUdvY</p>","","","","","","","","",""
"html-keyboard-response","323","444190","0.0-14.0-0.72","5cbe02ab39447e0001745a5e","650c16f0f2faf8d7a0d14c09","651c1d57634883898e7a8415","null","null","<p style=""font-size: 60px; font-family: BACS"">LcNUJOJNk</p>","","","","","","","","",""
"html-keyboard-response","324","445192","0.0-14.0-0.73","5cbe02ab39447e0001745a5e","650c16f0f2faf8d7a0d14c09","651c1d57634883898e7a8415","null","null","<p style=""font-size: 60px; font-family: BACS"">kcCRtOdOP</p>","","","","","","","","",""
"html-keyboard-response","325","446193","0.0-14.0-0.74","5cbe02ab39447e0001745a5e","650c16f0f2faf8d7a0d14c09","651c1d57634883898e7a8415","null","null","<p style=""font-size: 60px; font-family: BACS"">LdrbvOJlN</p>","","","","","","","","",""
"html-keyboard-response","326","447195","0.0-14.0-0.75","5cbe02ab39447e0001745a5e","650c16f0f2faf8d7a0d14c09","651c1d57634883898e7a8415","null","null","<p style=""font-size: 60px; font-family: BACS"">kPkRABYhT</p>","","","","","","","","",""
"html-keyboard-response","327","448197","0.0-14.0-0.76","5cbe02ab39447e0001745a5e","650c16f0f2faf8d7a0d14c09","651c1d57634883898e7a8415","null","null","<p style=""font-size: 60px; font-family: BACS"">cRElDmKcD</p>","","","","","","","","",""
"html-keyboard-response","328","449199","0.0-14.0-0.77","5cbe02ab39447e0001745a5e","650c16f0f2faf8d7a0d14c09","651c1d57634883898e7a8415","null","null","<p style=""font-size: 60px; font-family: BACS"">mBbKBCAd</p>","","","","","","","","",""
"html-keyboard-response","329","450201","0.0-14.0-0.78","5cbe02ab39447e0001745a5e","650c16f0f2faf8d7a0d14c09","651c1d57634883898e7a8415","null","null","<p style=""font-size: 60px; font-family: BACS"">JuamlOcZJ</p>","","","","","","","","",""
"html-keyboard-response","330","451203","0.0-14.0-0.79","5cbe02ab39447e0001745a5e","650c16f0f2faf8d7a0d14c09","651c1d57634883898e7a8415","null","null","<p style=""font-size: 60px; font-family: BACS"">YOaAbOJNk</p>","","","","","","","","",""
"html-keyboard-response","331","459511","0.0-15.0","5cbe02ab39447e0001745a5e","650c16f0f2faf8d7a0d14c09","651c1d57634883898e7a8415","8308"," ","<p>Great, you've seen the fourth block of words. You may now take a short break.</p>
      <p>Press the spacebar when you're ready to continue.</p>","","","","","","","","",""
"html-keyboard-response","332","460518","0.0-16.0-0.0","5cbe02ab39447e0001745a5e","650c16f0f2faf8d7a0d14c09","651c1d57634883898e7a8415","null","null","<p style=""font-size: 60px; font-family: BACS"">YQbcOcZJ</p>","","","","","","","","",""
"html-keyboard-response","333","461522","0.0-16.0-0.1","5cbe02ab39447e0001745a5e","650c16f0f2faf8d7a0d14c09","651c1d57634883898e7a8415","null","null","<p style=""font-size: 60px; font-family: BACS"">YQbcOcZJ</p>","","","","","","","","",""
"html-keyboard-response","334","462523","0.0-16.0-0.2","5cbe02ab39447e0001745a5e","650c16f0f2faf8d7a0d14c09","651c1d57634883898e7a8415","null","null","<p style=""font-size: 60px; font-family: BACS"">YQbcOcZJ</p>","","","","","","","","",""
"html-keyboard-response","335","463525","0.0-16.0-0.3","5cbe02ab39447e0001745a5e","650c16f0f2faf8d7a0d14c09","651c1d57634883898e7a8415","null","null","<p style=""font-size: 60px; font-family: BACS"">YQbcOcZJ</p>","","","","","","","","",""
"html-keyboard-response","336","464528","0.0-16.0-0.4","5cbe02ab39447e0001745a5e","650c16f0f2faf8d7a0d14c09","651c1d57634883898e7a8415","null","null","<p style=""font-size: 60px; font-family: BACS"">YQbcOcZJ</p>","","","","","","","","",""
"html-keyboard-response","337","465528","0.0-16.0-0.5","5cbe02ab39447e0001745a5e","650c16f0f2faf8d7a0d14c09","651c1d57634883898e7a8415","null","null","<p style=""font-size: 60px; font-family: BACS"">YQbcOcZJ</p>","","","","","","","","",""
"html-keyboard-response","338","466530","0.0-16.0-0.6","5cbe02ab39447e0001745a5e","650c16f0f2faf8d7a0d14c09","651c1d57634883898e7a8415","null","null","<p style=""font-size: 60px; font-family: BACS"">YQbcOcZJ</p>","","","","","","","","",""
"html-keyboard-response","339","467533","0.0-16.0-0.7","5cbe02ab39447e0001745a5e","650c16f0f2faf8d7a0d14c09","651c1d57634883898e7a8415","null","null","<p style=""font-size: 60px; font-family: BACS"">YQbcOcZJ</p>","","","","","","","","",""
"html-keyboard-response","340","468534","0.0-16.0-0.8","5cbe02ab39447e0001745a5e","650c16f0f2faf8d7a0d14c09","651c1d57634883898e7a8415","null","null","<p style=""font-size: 60px; font-family: BACS"">YQbcOcZJ</p>","","","","","","","","",""
"html-keyboard-response","341","469536","0.0-16.0-0.9","5cbe02ab39447e0001745a5e","650c16f0f2faf8d7a0d14c09","651c1d57634883898e7a8415","null","null","<p style=""font-size: 60px; font-family: BACS"">YQbcOcZJ</p>","","","","","","","","",""
"html-keyboard-response","342","470538","0.0-16.0-0.10","5cbe02ab39447e0001745a5e","650c16f0f2faf8d7a0d14c09","651c1d57634883898e7a8415","null","null","<p style=""font-size: 60px; font-family: BACS"">YQbcOcZJ</p>","","","","","","","","",""
"html-keyboard-response","343","471541","0.0-16.0-0.11","5cbe02ab39447e0001745a5e","650c16f0f2faf8d7a0d14c09","651c1d57634883898e7a8415","null","null","<p style=""font-size: 60px; font-family: BACS"">YQbcOcZJ</p>","","","","","","","","",""
"html-keyboard-response","344","472542","0.0-16.0-0.12","5cbe02ab39447e0001745a5e","650c16f0f2faf8d7a0d14c09","651c1d57634883898e7a8415","null","null","<p style=""font-size: 60px; font-family: BACS"">YQbcOcZJ</p>","","","","","","","","",""
"html-keyboard-response","345","473543","0.0-16.0-0.13","5cbe02ab39447e0001745a5e","650c16f0f2faf8d7a0d14c09","651c1d57634883898e7a8415","null","null","<p style=""font-size: 60px; font-family: BACS"">YQbcOcZJ</p>","","","","","","","","",""
"html-keyboard-response","346","474545","0.0-16.0-0.14","5cbe02ab39447e0001745a5e","650c16f0f2faf8d7a0d14c09","651c1d57634883898e7a8415","null","null","<p style=""font-size: 60px; font-family: BACS"">YQbcOcZJ</p>","","","","","","","","",""
"html-keyboard-response","347","475547","0.0-16.0-0.15","5cbe02ab39447e0001745a5e","650c16f0f2faf8d7a0d14c09","651c1d57634883898e7a8415","null","null","<p style=""font-size: 60px; font-family: BACS"">YQbcOcZJ</p>","","","","","","","","",""
"html-keyboard-response","348","476549","0.0-16.0-0.16","5cbe02ab39447e0001745a5e","650c16f0f2faf8d7a0d14c09","651c1d57634883898e7a8415","null","null","<p style=""font-size: 60px; font-family: BACS"">YQbcOcZJ</p>","","","","","","","","",""
"html-keyboard-response","349","477550","0.0-16.0-0.17","5cbe02ab39447e0001745a5e","650c16f0f2faf8d7a0d14c09","651c1d57634883898e7a8415","null","null","<p style=""font-size: 60px; font-family: BACS"">YQbcOcZJ</p>","","","","","","","","",""
"html-keyboard-response","350","478552","0.0-16.0-0.18","5cbe02ab39447e0001745a5e","650c16f0f2faf8d7a0d14c09","651c1d57634883898e7a8415","null","null","<p style=""font-size: 60px; font-family: BACS"">YQbcOcZJ</p>","","","","","","","","",""
"html-keyboard-response","351","479554","0.0-16.0-0.19","5cbe02ab39447e0001745a5e","650c16f0f2faf8d7a0d14c09","651c1d57634883898e7a8415","null","null","<p style=""font-size: 60px; font-family: BACS"">YQbcOcZJ</p>","","","","","","","","",""
"html-keyboard-response","352","480556","0.0-16.0-0.20","5cbe02ab39447e0001745a5e","650c16f0f2faf8d7a0d14c09","651c1d57634883898e7a8415","null","null","<p style=""font-size: 60px; font-family: BACS"">YQbcOcZJ</p>","","","","","","","","",""
"html-keyboard-response","353","481558","0.0-16.0-0.21","5cbe02ab39447e0001745a5e","650c16f0f2faf8d7a0d14c09","651c1d57634883898e7a8415","null","null","<p style=""font-size: 60px; font-family: BACS"">YQbcOcZJ</p>","","","","","","","","",""
"html-keyboard-response","354","482559","0.0-16.0-0.22","5cbe02ab39447e0001745a5e","650c16f0f2faf8d7a0d14c09","651c1d57634883898e7a8415","null","null","<p style=""font-size: 60px; font-family: BACS"">YQbcOcZJ</p>","","","","","","","","",""
"html-keyboard-response","355","483561","0.0-16.0-0.23","5cbe02ab39447e0001745a5e","650c16f0f2faf8d7a0d14c09","651c1d57634883898e7a8415","null","null","<p style=""font-size: 60px; font-family: BACS"">YQbcOcZJ</p>","","","","","","","","",""
"html-keyboard-response","356","484563","0.0-16.0-0.24","5cbe02ab39447e0001745a5e","650c16f0f2faf8d7a0d14c09","651c1d57634883898e7a8415","null","null","<p style=""font-size: 60px; font-family: BACS"">YQbcOcZJ</p>","","","","","","","","",""
"html-keyboard-response","357","485565","0.0-16.0-0.25","5cbe02ab39447e0001745a5e","650c16f0f2faf8d7a0d14c09","651c1d57634883898e7a8415","null","null","<p style=""font-size: 60px; font-family: BACS"">YQbcOcZJ</p>","","","","","","","","",""
"html-keyboard-response","358","486567","0.0-16.0-0.26","5cbe02ab39447e0001745a5e","650c16f0f2faf8d7a0d14c09","651c1d57634883898e7a8415","null","null","<p style=""font-size: 60px; font-family: BACS"">YQbcOcZJ</p>","","","","","","","","",""
"html-keyboard-response","359","487569","0.0-16.0-0.27","5cbe02ab39447e0001745a5e","650c16f0f2faf8d7a0d14c09","651c1d57634883898e7a8415","null","null","<p style=""font-size: 60px; font-family: BACS"">YQbcOcZJ</p>","","","","","","","","",""
"html-keyboard-response","360","488571","0.0-16.0-0.28","5cbe02ab39447e0001745a5e","650c16f0f2faf8d7a0d14c09","651c1d57634883898e7a8415","null","null","<p style=""font-size: 60px; font-family: BACS"">YQbcOcZJ</p>","","","","","","","","",""
"html-keyboard-response","361","489572","0.0-16.0-0.29","5cbe02ab39447e0001745a5e","650c16f0f2faf8d7a0d14c09","651c1d57634883898e7a8415","null","null","<p style=""font-size: 60px; font-family: BACS"">YQbcOcZJ</p>","","","","","","","","",""
"html-keyboard-response","362","490574","0.0-16.0-0.30","5cbe02ab39447e0001745a5e","650c16f0f2faf8d7a0d14c09","651c1d57634883898e7a8415","null","null","<p style=""font-size: 60px; font-family: BACS"">YQbcOcZJ</p>","","","","","","","","",""
"html-keyboard-response","363","491576","0.0-16.0-0.31","5cbe02ab39447e0001745a5e","650c16f0f2faf8d7a0d14c09","651c1d57634883898e7a8415","null","null","<p style=""font-size: 60px; font-family: BACS"">YQbcOcZJ</p>","","","","","","","","",""
"html-keyboard-response","364","492578","0.0-16.0-0.32","5cbe02ab39447e0001745a5e","650c16f0f2faf8d7a0d14c09","651c1d57634883898e7a8415","null","null","<p style=""font-size: 60px; font-family: BACS"">YQbcOcZJ</p>","","","","","","","","",""
"html-keyboard-response","365","493579","0.0-16.0-0.33","5cbe02ab39447e0001745a5e","650c16f0f2faf8d7a0d14c09","651c1d57634883898e7a8415","null","null","<p style=""font-size: 60px; font-family: BACS"">YQbcOcZJ</p>","","","","","","","","",""
"html-keyboard-response","366","494581","0.0-16.0-0.34","5cbe02ab39447e0001745a5e","650c16f0f2faf8d7a0d14c09","651c1d57634883898e7a8415","null","null","<p style=""font-size: 60px; font-family: BACS"">YQbcOcZJ</p>","","","","","","","","",""
"html-keyboard-response","367","495583","0.0-16.0-0.35","5cbe02ab39447e0001745a5e","650c16f0f2faf8d7a0d14c09","651c1d57634883898e7a8415","null","null","<p style=""font-size: 60px; font-family: BACS"">YQbcOcZJ</p>","","","","","","","","",""
"html-keyboard-response","368","496585","0.0-16.0-0.36","5cbe02ab39447e0001745a5e","650c16f0f2faf8d7a0d14c09","651c1d57634883898e7a8415","null","null","<p style=""font-size: 60px; font-family: BACS"">YQbcOcZJ</p>","","","","","","","","",""
"html-keyboard-response","369","497587","0.0-16.0-0.37","5cbe02ab39447e0001745a5e","650c16f0f2faf8d7a0d14c09","651c1d57634883898e7a8415","null","null","<p style=""font-size: 60px; font-family: BACS"">YQbcOcZJ</p>","","","","","","","","",""
"html-keyboard-response","370","498589","0.0-16.0-0.38","5cbe02ab39447e0001745a5e","650c16f0f2faf8d7a0d14c09","651c1d57634883898e7a8415","null","null","<p style=""font-size: 60px; font-family: BACS"">YQbcOcZJ</p>","","","","","","","","",""
"html-keyboard-response","371","499590","0.0-16.0-0.39","5cbe02ab39447e0001745a5e","650c16f0f2faf8d7a0d14c09","651c1d57634883898e7a8415","null","null","<p style=""font-size: 60px; font-family: BACS"">YQbcOcZJ</p>","","","","","","","","",""
"html-keyboard-response","372","500592","0.0-16.0-0.40","5cbe02ab39447e0001745a5e","650c16f0f2faf8d7a0d14c09","651c1d57634883898e7a8415","null","null","<p style=""font-size: 60px; font-family: BACS"">YQbcOcZJ</p>","","","","","","","","",""
"html-keyboard-response","373","501594","0.0-16.0-0.41","5cbe02ab39447e0001745a5e","650c16f0f2faf8d7a0d14c09","651c1d57634883898e7a8415","null","null","<p style=""font-size: 60px; font-family: BACS"">YQbcOcZJ</p>","","","","","","","","",""
"html-keyboard-response","374","502596","0.0-16.0-0.42","5cbe02ab39447e0001745a5e","650c16f0f2faf8d7a0d14c09","651c1d57634883898e7a8415","null","null","<p style=""font-size: 60px; font-family: BACS"">YQbcOcZJ</p>","","","","","","","","",""
"html-keyboard-response","375","503599","0.0-16.0-0.43","5cbe02ab39447e0001745a5e","650c16f0f2faf8d7a0d14c09","651c1d57634883898e7a8415","null","null","<p style=""font-size: 60px; font-family: BACS"">YQbcOcZJ</p>","","","","","","","","",""
"html-keyboard-response","376","504600","0.0-16.0-0.44","5cbe02ab39447e0001745a5e","650c16f0f2faf8d7a0d14c09","651c1d57634883898e7a8415","null","null","<p style=""font-size: 60px; font-family: BACS"">YQbcOcZJ</p>","","","","","","","","",""
"html-keyboard-response","377","505601","0.0-16.0-0.45","5cbe02ab39447e0001745a5e","650c16f0f2faf8d7a0d14c09","651c1d57634883898e7a8415","null","null","<p style=""font-size: 60px; font-family: BACS"">YQbcOcZJ</p>","","","","","","","","",""
"html-keyboard-response","378","506603","0.0-16.0-0.46","5cbe02ab39447e0001745a5e","650c16f0f2faf8d7a0d14c09","651c1d57634883898e7a8415","null","null","<p style=""font-size: 60px; font-family: BACS"">YQbcOcZJ</p>","","","","","","","","",""
"html-keyboard-response","379","507605","0.0-16.0-0.47","5cbe02ab39447e0001745a5e","650c16f0f2faf8d7a0d14c09","651c1d57634883898e7a8415","null","null","<p style=""font-size: 60px; font-family: BACS"">YQbcOcZJ</p>","","","","","","","","",""
"html-keyboard-response","380","508607","0.0-16.0-0.48","5cbe02ab39447e0001745a5e","650c16f0f2faf8d7a0d14c09","651c1d57634883898e7a8415","null","null","<p style=""font-size: 60px; font-family: BACS"">YQbcOcZJ</p>","","","","","","","","",""
"html-keyboard-response","381","509609","0.0-16.0-0.49","5cbe02ab39447e0001745a5e","650c16f0f2faf8d7a0d14c09","651c1d57634883898e7a8415","null","null","<p style=""font-size: 60px; font-family: BACS"">YQbcOcZJ</p>","","","","","","","","",""
"html-keyboard-response","382","510610","0.0-16.0-0.50","5cbe02ab39447e0001745a5e","650c16f0f2faf8d7a0d14c09","651c1d57634883898e7a8415","null","null","<p style=""font-size: 60px; font-family: BACS"">YQbcOcZJ</p>","","","","","","","","",""
"html-keyboard-response","383","511612","0.0-16.0-0.51","5cbe02ab39447e0001745a5e","650c16f0f2faf8d7a0d14c09","651c1d57634883898e7a8415","null","null","<p style=""font-size: 60px; font-family: BACS"">YQbcOcZJ</p>","","","","","","","","",""
"html-keyboard-response","384","512614","0.0-16.0-0.52","5cbe02ab39447e0001745a5e","650c16f0f2faf8d7a0d14c09","651c1d57634883898e7a8415","null","null","<p style=""font-size: 60px; font-family: BACS"">YQbcOcZJ</p>","","","","","","","","",""
"html-keyboard-response","385","513616","0.0-16.0-0.53","5cbe02ab39447e0001745a5e","650c16f0f2faf8d7a0d14c09","651c1d57634883898e7a8415","null","null","<p style=""font-size: 60px; font-family: BACS"">YQbcOcZJ</p>","","","","","","","","",""
"html-keyboard-response","386","514618","0.0-16.0-0.54","5cbe02ab39447e0001745a5e","650c16f0f2faf8d7a0d14c09","651c1d57634883898e7a8415","null","null","<p style=""font-size: 60px; font-family: BACS"">YQbcOcZJ</p>","","","","","","","","",""
"html-keyboard-response","387","515619","0.0-16.0-0.55","5cbe02ab39447e0001745a5e","650c16f0f2faf8d7a0d14c09","651c1d57634883898e7a8415","null","null","<p style=""font-size: 60px; font-family: BACS"">YQbcOcZJ</p>","","","","","","","","",""
"html-keyboard-response","388","516621","0.0-16.0-0.56","5cbe02ab39447e0001745a5e","650c16f0f2faf8d7a0d14c09","651c1d57634883898e7a8415","null","null","<p style=""font-size: 60px; font-family: BACS"">YQbcOcZJ</p>","","","","","","","","",""
"html-keyboard-response","389","517623","0.0-16.0-0.57","5cbe02ab39447e0001745a5e","650c16f0f2faf8d7a0d14c09","651c1d57634883898e7a8415","null","null","<p style=""font-size: 60px; font-family: BACS"">YQbcOcZJ</p>","","","","","","","","",""
"html-keyboard-response","390","518625","0.0-16.0-0.58","5cbe02ab39447e0001745a5e","650c16f0f2faf8d7a0d14c09","651c1d57634883898e7a8415","null","null","<p style=""font-size: 60px; font-family: BACS"">YQbcOcZJ</p>","","","","","","","","",""
"html-keyboard-response","391","519627","0.0-16.0-0.59","5cbe02ab39447e0001745a5e","650c16f0f2faf8d7a0d14c09","651c1d57634883898e7a8415","null","null","<p style=""font-size: 60px; font-family: BACS"">YQbcOcZJ</p>","","","","","","","","",""
"html-keyboard-response","392","520629","0.0-16.0-0.60","5cbe02ab39447e0001745a5e","650c16f0f2faf8d7a0d14c09","651c1d57634883898e7a8415","null","null","<p style=""font-size: 60px; font-family: BACS"">YQbcOcZJ</p>","","","","","","","","",""
"html-keyboard-response","393","521631","0.0-16.0-0.61","5cbe02ab39447e0001745a5e","650c16f0f2faf8d7a0d14c09","651c1d57634883898e7a8415","null","null","<p style=""font-size: 60px; font-family: BACS"">YQbcOcZJ</p>","","","","","","","","",""
"html-keyboard-response","394","522633","0.0-16.0-0.62","5cbe02ab39447e0001745a5e","650c16f0f2faf8d7a0d14c09","651c1d57634883898e7a8415","null","null","<p style=""font-size: 60px; font-family: BACS"">YQbcOcZJ</p>","","","","","","","","",""
"html-keyboard-response","395","523634","0.0-16.0-0.63","5cbe02ab39447e0001745a5e","650c16f0f2faf8d7a0d14c09","651c1d57634883898e7a8415","null","null","<p style=""font-size: 60px; font-family: BACS"">YQbcOcZJ</p>","","","","","","","","",""
"html-keyboard-response","396","524636","0.0-16.0-0.64","5cbe02ab39447e0001745a5e","650c16f0f2faf8d7a0d14c09","651c1d57634883898e7a8415","null","null","<p style=""font-size: 60px; font-family: BACS"">YQbcOcZJ</p>","","","","","","","","",""
"html-keyboard-response","397","525638","0.0-16.0-0.65","5cbe02ab39447e0001745a5e","650c16f0f2faf8d7a0d14c09","651c1d57634883898e7a8415","null","null","<p style=""font-size: 60px; font-family: BACS"">YQbcOcZJ</p>","","","","","","","","",""
