"trial_type","trial_index","time_elapsed","internal_node_id","subject_id","study_id","session_id","rt","response","stimulus","success","item","task","correct_response","testing_condition","correct","target","confound","name"
"pavlovia","0","793","0.0-0.0","5f99cee5a2a7d109a1624e10","650c16f0f2faf8d7a0d14c09","651c1c26dc17185c0d747440","","","","","","","","","","","",""
"survey-html-form","1","19370","0.0-1.0","5f99cee5a2a7d109a1624e10","650c16f0f2faf8d7a0d14c09","651c1c26dc17185c0d747440","18573","{""ID"":""5f99cee5a2a7d109a1624e10""}","","","","","","","","","",""
"html-keyboard-response","2","40324","0.0-2.0","5f99cee5a2a7d109a1624e10","650c16f0f2faf8d7a0d14c09","651c1c26dc17185c0d747440","20950"," ","<p style=""font-size: 15px;"">Before beginning, we ask that you read the consent information and confirm your agreement to participate in the experiment.</p>
      <p style=""font-size: 15px;""> We ask that you remember that this is a research project and that your participation is entirely voluntary. You can stop your participation at any time, without needing to provide any explanation. The study we're asking you to participate in aims at examining how readers process written words. You will be engaged in a session of apprximately 20 minutes, followed by a brief questionnaire. You will have the opportunity to take a few breaks during the experiment. You will be paid £4 for your participation, corresponding to a rate of £8/hour. While this experiment looks at cognitive faculties, this experiment doesn't constitute clinical proof of eventual pathologies.</p>
      <p style=""font-size: 15px;"">All of the information collected thanks to yours and others' participation will be held in a secure password-protected server, and will not be shared with anyone not authorised to view it. Your personal information will be kept with an arbitrary participant ID. Thanks to this data anonymity process, any researcher analysing the data won't be able to track the information back to a specific participant. Therefore, this process will make identifying you impossibile, even when results from the study will be published in scientific reviews, presented at congresses, or at any other public forum. More generally, the collected data will be treated in accordance with the laws on privacy and conformity to the Legislative Degree n. 196 ""Code regarding the protection of personal data"" of the 30th of June 2003 and to the European Regulation 2016/670 (General Data Protection Regulation - GDPR). The Data Protection Officer is Avv. Valentina Carollo, who can be contacted at the following email addresses: <a href=""mailto:dpo@sissa.it"">dpo@sissa.it</a> or <a href=""mailto:rpd@sissa.it"">rpd@sissa.it</a> - PEC: <a href=""mailto:protocollo@pec.sissa.it"">protocollo@pec.sissa.it</a>.</p>
      <p style=""font-size: 15px;""> Before expressing your consent to participate, we would like to remind you again that in case you need explanations on any aspect of the experimental procedure, the researcher is at your disposition (<a href=""mailto:aliebelt@sissa.it"">aliebelt@sissa.it</a>, <a href=""mailto:davide.crepaldi@sissa.it"">davide.crepaldi@sissa.it</a>).</p>
      <p style=""font-size: 15px;"">If you would like to download the informed consent form, you can do so here: <a href=""BASL-Informed_Consent.pdf"" download>informed consent form</a>.</p>
      <p style=""font-size: 15px;"">We ask that you press the spacebar to proceed to the consent section.</p>","","","","","","","","",""
"survey-html-form","3","50909","0.0-3.0","5f99cee5a2a7d109a1624e10","650c16f0f2faf8d7a0d14c09","651c1c26dc17185c0d747440","10583","{""consent1"":""YES"",""consent2"":""YES"",""consent3"":""YES"",""consent4"":""YES"",""consent5"":""YES"",""consent6"":""YES""}","","","","","","","","","",""
"fullscreen","4","55928","0.0-4.0","5f99cee5a2a7d109a1624e10","650c16f0f2faf8d7a0d14c09","651c1c26dc17185c0d747440","","","","true","","","","","","","",""
"html-keyboard-response","5","81001","0.0-5.0","5f99cee5a2a7d109a1624e10","650c16f0f2faf8d7a0d14c09","651c1c26dc17185c0d747440","25072"," ","<p>Welcome, and thank you very much for your time!</p>
      <p>In this experiment, you'll be a language expert who's been asked to take a look at words that Earth has received in its first communication with aliens. Your task, in this first part of the experiment, is to pay close attention to the words you'll be shown; later, world leaders will ask you questions on what you saw. The words will be shown to you quite quickly; it seems that the aliens were in a hurry :-)</p>
      <p>Press the spacebar to continue.<p>","","","","","","","","",""
"html-keyboard-response","6","81064","0.0-6.0","5f99cee5a2a7d109a1624e10","650c16f0f2faf8d7a0d14c09","651c1c26dc17185c0d747440","null","null","<p style=""font-size: 120px; font-family: BACS""> </p>","","","","","","","","",""
"html-keyboard-response","7","89358","0.0-7.0","5f99cee5a2a7d109a1624e10","650c16f0f2faf8d7a0d14c09","651c1c26dc17185c0d747440","8293"," ","<p>Here is an example of the words you'll see:</p>
      <img src='esempio.png' height='400px'>
      <p>When you're ready to begin, press the spacebar.</p></div>","","","","","","","","",""
"html-keyboard-response","8","90375","0.0-8.0-0.0","5f99cee5a2a7d109a1624e10","650c16f0f2faf8d7a0d14c09","651c1c26dc17185c0d747440","null","null","<p style=""font-size: 60px; font-family: BACS"">TklDTmTm</p>","","","","","","","","",""
"html-keyboard-response","9","91391","0.0-8.0-0.1","5f99cee5a2a7d109a1624e10","650c16f0f2faf8d7a0d14c09","651c1c26dc17185c0d747440","null","null","<p style=""font-size: 60px; font-family: BACS"">QcladrULv</p>","","","","","","","","",""
"html-keyboard-response","10","92408","0.0-8.0-0.2","5f99cee5a2a7d109a1624e10","650c16f0f2faf8d7a0d14c09","651c1c26dc17185c0d747440","null","null","<p style=""font-size: 60px; font-family: BACS"">bRABtTmTm</p>","","","","","","","","",""
"html-keyboard-response","11","93412","0.0-8.0-0.3","5f99cee5a2a7d109a1624e10","650c16f0f2faf8d7a0d14c09","651c1c26dc17185c0d747440","null","null","<p style=""font-size: 60px; font-family: BACS"">ECtbDBRDh</p>","","","","","","","","",""
"html-keyboard-response","12","94426","0.0-8.0-0.4","5f99cee5a2a7d109a1624e10","650c16f0f2faf8d7a0d14c09","651c1c26dc17185c0d747440","null","null","<p style=""font-size: 60px; font-family: BACS"">OQarQrGl</p>","","","","","","","","",""
"html-keyboard-response","13","95442","0.0-8.0-0.5","5f99cee5a2a7d109a1624e10","650c16f0f2faf8d7a0d14c09","651c1c26dc17185c0d747440","null","null","<p style=""font-size: 60px; font-family: BACS"">dvNvArab</p>","","","","","","","","",""
"html-keyboard-response","14","96458","0.0-8.0-0.6","5f99cee5a2a7d109a1624e10","650c16f0f2faf8d7a0d14c09","651c1c26dc17185c0d747440","null","null","<p style=""font-size: 60px; font-family: BACS"">ECtbDOdOP</p>","","","","","","","","",""
"html-keyboard-response","15","97474","0.0-8.0-0.7","5f99cee5a2a7d109a1624e10","650c16f0f2faf8d7a0d14c09","651c1c26dc17185c0d747440","null","null","<p style=""font-size: 60px; font-family: BACS"">CYPcBRDh</p>","","","","","","","","",""
"html-keyboard-response","16","98475","0.0-8.0-0.8","5f99cee5a2a7d109a1624e10","650c16f0f2faf8d7a0d14c09","651c1c26dc17185c0d747440","null","null","<p style=""font-size: 60px; font-family: BACS"">YcdONmAG</p>","","","","","","","","",""
"html-keyboard-response","17","99492","0.0-8.0-0.9","5f99cee5a2a7d109a1624e10","650c16f0f2faf8d7a0d14c09","651c1c26dc17185c0d747440","null","null","<p style=""font-size: 60px; font-family: BACS"">kcdOtTmTm</p>","","","","","","","","",""
"html-keyboard-response","18","100507","0.0-8.0-0.10","5f99cee5a2a7d109a1624e10","650c16f0f2faf8d7a0d14c09","651c1c26dc17185c0d747440","null","null","<p style=""font-size: 60px; font-family: BACS"">QcladNmAG</p>","","","","","","","","",""
"html-keyboard-response","19","101524","0.0-8.0-0.11","5f99cee5a2a7d109a1624e10","650c16f0f2faf8d7a0d14c09","651c1c26dc17185c0d747440","null","null","<p style=""font-size: 60px; font-family: BACS"">kcOYBRDh</p>","","","","","","","","",""
"html-keyboard-response","20","102526","0.0-8.0-0.12","5f99cee5a2a7d109a1624e10","650c16f0f2faf8d7a0d14c09","651c1c26dc17185c0d747440","null","null","<p style=""font-size: 60px; font-family: BACS"">YNrAmrULv</p>","","","","","","","","",""
"html-keyboard-response","21","103542","0.0-8.0-0.13","5f99cee5a2a7d109a1624e10","650c16f0f2faf8d7a0d14c09","651c1c26dc17185c0d747440","null","null","<p style=""font-size: 60px; font-family: BACS"">PCPDhOdOP</p>","","","","","","","","",""
"html-keyboard-response","22","104559","0.0-8.0-0.14","5f99cee5a2a7d109a1624e10","650c16f0f2faf8d7a0d14c09","651c1c26dc17185c0d747440","null","null","<p style=""font-size: 60px; font-family: BACS"">aNYmbrab</p>","","","","","","","","",""
"html-keyboard-response","23","105561","0.0-8.0-0.15","5f99cee5a2a7d109a1624e10","650c16f0f2faf8d7a0d14c09","651c1c26dc17185c0d747440","null","null","<p style=""font-size: 60px; font-family: BACS"">mUOcOrGl</p>","","","","","","","","",""
"html-keyboard-response","24","106576","0.0-8.0-0.16","5f99cee5a2a7d109a1624e10","650c16f0f2faf8d7a0d14c09","651c1c26dc17185c0d747440","null","null","<p style=""font-size: 60px; font-family: BACS"">cdKBYAdYl</p>","","","","","","","","",""
"html-keyboard-response","25","107577","0.0-8.0-0.17","5f99cee5a2a7d109a1624e10","650c16f0f2faf8d7a0d14c09","651c1c26dc17185c0d747440","null","null","<p style=""font-size: 60px; font-family: BACS"">aNYmbNmAG</p>","","","","","","","","",""
"html-keyboard-response","26","108593","0.0-8.0-0.18","5f99cee5a2a7d109a1624e10","650c16f0f2faf8d7a0d14c09","651c1c26dc17185c0d747440","null","null","<p style=""font-size: 60px; font-family: BACS"">YcdOLcO</p>","","","","","","","","",""
"html-keyboard-response","27","109609","0.0-8.0-0.19","5f99cee5a2a7d109a1624e10","650c16f0f2faf8d7a0d14c09","651c1c26dc17185c0d747440","null","null","<p style=""font-size: 60px; font-family: BACS"">PCPDhAdYl</p>","","","","","","","","",""
"html-keyboard-response","28","110610","0.0-8.0-0.20","5f99cee5a2a7d109a1624e10","650c16f0f2faf8d7a0d14c09","651c1c26dc17185c0d747440","null","null","<p style=""font-size: 60px; font-family: BACS"">OQarQNmAG</p>","","","","","","","","",""
"html-keyboard-response","29","111625","0.0-8.0-0.21","5f99cee5a2a7d109a1624e10","650c16f0f2faf8d7a0d14c09","651c1c26dc17185c0d747440","null","null","<p style=""font-size: 60px; font-family: BACS"">kcdOtBRDh</p>","","","","","","","","",""
"html-keyboard-response","30","112641","0.0-8.0-0.22","5f99cee5a2a7d109a1624e10","650c16f0f2faf8d7a0d14c09","651c1c26dc17185c0d747440","null","null","<p style=""font-size: 60px; font-family: BACS"">cdKBYOdOP</p>","","","","","","","","",""
"html-keyboard-response","31","113643","0.0-8.0-0.23","5f99cee5a2a7d109a1624e10","650c16f0f2faf8d7a0d14c09","651c1c26dc17185c0d747440","null","null","<p style=""font-size: 60px; font-family: BACS"">dvNvArULv</p>","","","","","","","","",""
"html-keyboard-response","32","114657","0.0-8.0-0.24","5f99cee5a2a7d109a1624e10","650c16f0f2faf8d7a0d14c09","651c1c26dc17185c0d747440","null","null","<p style=""font-size: 60px; font-family: BACS"">TklDAdYl</p>","","","","","","","","",""
"html-keyboard-response","33","115660","0.0-8.0-0.25","5f99cee5a2a7d109a1624e10","650c16f0f2faf8d7a0d14c09","651c1c26dc17185c0d747440","null","null","<p style=""font-size: 60px; font-family: BACS"">cdKBYBRDh</p>","","","","","","","","",""
"html-keyboard-response","34","116675","0.0-8.0-0.26","5f99cee5a2a7d109a1624e10","650c16f0f2faf8d7a0d14c09","651c1c26dc17185c0d747440","null","null","<p style=""font-size: 60px; font-family: BACS"">PCPDhAlKD</p>","","","","","","","","",""
"html-keyboard-response","35","117690","0.0-8.0-0.27","5f99cee5a2a7d109a1624e10","650c16f0f2faf8d7a0d14c09","651c1c26dc17185c0d747440","null","null","<p style=""font-size: 60px; font-family: BACS"">lGZvrULv</p>","","","","","","","","",""
"html-keyboard-response","36","118693","0.0-8.0-0.28","5f99cee5a2a7d109a1624e10","650c16f0f2faf8d7a0d14c09","651c1c26dc17185c0d747440","null","null","<p style=""font-size: 60px; font-family: BACS"">kcOYAlKD</p>","","","","","","","","",""
"html-keyboard-response","37","119707","0.0-8.0-0.29","5f99cee5a2a7d109a1624e10","650c16f0f2faf8d7a0d14c09","651c1c26dc17185c0d747440","null","null","<p style=""font-size: 60px; font-family: BACS"">dRbDbBRDh</p>","","","","","","","","",""
"html-keyboard-response","38","120710","0.0-8.0-0.30","5f99cee5a2a7d109a1624e10","650c16f0f2faf8d7a0d14c09","651c1c26dc17185c0d747440","null","null","<p style=""font-size: 60px; font-family: BACS"">mUOcOrab</p>","","","","","","","","",""
"html-keyboard-response","39","121728","0.0-8.0-0.31","5f99cee5a2a7d109a1624e10","650c16f0f2faf8d7a0d14c09","651c1c26dc17185c0d747440","null","null","<p style=""font-size: 60px; font-family: BACS"">kcdOtAlKD</p>","","","","","","","","",""
"html-keyboard-response","40","122743","0.0-8.0-0.32","5f99cee5a2a7d109a1624e10","650c16f0f2faf8d7a0d14c09","651c1c26dc17185c0d747440","null","null","<p style=""font-size: 60px; font-family: BACS"">YcdOrULv</p>","","","","","","","","",""
"html-keyboard-response","41","123761","0.0-8.0-0.33","5f99cee5a2a7d109a1624e10","650c16f0f2faf8d7a0d14c09","651c1c26dc17185c0d747440","null","null","<p style=""font-size: 60px; font-family: BACS"">NaJbrGl</p>","","","","","","","","",""
"html-keyboard-response","42","124775","0.0-8.0-0.34","5f99cee5a2a7d109a1624e10","650c16f0f2faf8d7a0d14c09","651c1c26dc17185c0d747440","null","null","<p style=""font-size: 60px; font-family: BACS"">CYPcAlKD</p>","","","","","","","","",""
"html-keyboard-response","43","125777","0.0-8.0-0.35","5f99cee5a2a7d109a1624e10","650c16f0f2faf8d7a0d14c09","651c1c26dc17185c0d747440","null","null","<p style=""font-size: 60px; font-family: BACS"">LdrbvrULv</p>","","","","","","","","",""
"html-keyboard-response","44","126794","0.0-8.0-0.36","5f99cee5a2a7d109a1624e10","650c16f0f2faf8d7a0d14c09","651c1c26dc17185c0d747440","null","null","<p style=""font-size: 60px; font-family: BACS"">dvNvALcO</p>","","","","","","","","",""
"html-keyboard-response","45","127809","0.0-8.0-0.37","5f99cee5a2a7d109a1624e10","650c16f0f2faf8d7a0d14c09","651c1c26dc17185c0d747440","null","null","<p style=""font-size: 60px; font-family: BACS"">LdrbvNmAG</p>","","","","","","","","",""
"html-keyboard-response","46","128824","0.0-8.0-0.38","5f99cee5a2a7d109a1624e10","650c16f0f2faf8d7a0d14c09","651c1c26dc17185c0d747440","null","null","<p style=""font-size: 60px; font-family: BACS"">YNrAmrGl</p>","","","","","","","","",""
"html-keyboard-response","47","129825","0.0-8.0-0.39","5f99cee5a2a7d109a1624e10","650c16f0f2faf8d7a0d14c09","651c1c26dc17185c0d747440","null","null","<p style=""font-size: 60px; font-family: BACS"">OQarQLcO</p>","","","","","","","","",""
"html-keyboard-response","48","130827","0.0-8.0-0.40","5f99cee5a2a7d109a1624e10","650c16f0f2faf8d7a0d14c09","651c1c26dc17185c0d747440","null","null","<p style=""font-size: 60px; font-family: BACS"">dRbDbTmTm</p>","","","","","","","","",""
"html-keyboard-response","49","131843","0.0-8.0-0.41","5f99cee5a2a7d109a1624e10","650c16f0f2faf8d7a0d14c09","651c1c26dc17185c0d747440","null","null","<p style=""font-size: 60px; font-family: BACS"">Qcladrab</p>","","","","","","","","",""
"html-keyboard-response","50","132859","0.0-8.0-0.42","5f99cee5a2a7d109a1624e10","650c16f0f2faf8d7a0d14c09","651c1c26dc17185c0d747440","null","null","<p style=""font-size: 60px; font-family: BACS"">kcdOtAdYl</p>","","","","","","","","",""
"html-keyboard-response","51","133874","0.0-8.0-0.43","5f99cee5a2a7d109a1624e10","650c16f0f2faf8d7a0d14c09","651c1c26dc17185c0d747440","null","null","<p style=""font-size: 60px; font-family: BACS"">BbODTmTm</p>","","","","","","","","",""
"html-keyboard-response","52","134877","0.0-8.0-0.44","5f99cee5a2a7d109a1624e10","650c16f0f2faf8d7a0d14c09","651c1c26dc17185c0d747440","null","null","<p style=""font-size: 60px; font-family: BACS"">lGZvrGl</p>","","","","","","","","",""
"html-keyboard-response","53","135893","0.0-8.0-0.45","5f99cee5a2a7d109a1624e10","650c16f0f2faf8d7a0d14c09","651c1c26dc17185c0d747440","null","null","<p style=""font-size: 60px; font-family: BACS"">NaJbNmAG</p>","","","","","","","","",""
"html-keyboard-response","54","136896","0.0-8.0-0.46","5f99cee5a2a7d109a1624e10","650c16f0f2faf8d7a0d14c09","651c1c26dc17185c0d747440","null","null","<p style=""font-size: 60px; font-family: BACS"">Ldrbvrab</p>","","","","","","","","",""
"html-keyboard-response","55","137911","0.0-8.0-0.47","5f99cee5a2a7d109a1624e10","650c16f0f2faf8d7a0d14c09","651c1c26dc17185c0d747440","null","null","<p style=""font-size: 60px; font-family: BACS"">cdKBYTmTm</p>","","","","","","","","",""
"html-keyboard-response","56","138927","0.0-8.0-0.48","5f99cee5a2a7d109a1624e10","650c16f0f2faf8d7a0d14c09","651c1c26dc17185c0d747440","null","null","<p style=""font-size: 60px; font-family: BACS"">YNrAmLcO</p>","","","","","","","","",""
"html-keyboard-response","57","139929","0.0-8.0-0.49","5f99cee5a2a7d109a1624e10","650c16f0f2faf8d7a0d14c09","651c1c26dc17185c0d747440","null","null","<p style=""font-size: 60px; font-family: BACS"">dRbDbAlKD</p>","","","","","","","","",""
"html-keyboard-response","58","140945","0.0-8.0-0.50","5f99cee5a2a7d109a1624e10","650c16f0f2faf8d7a0d14c09","651c1c26dc17185c0d747440","null","null","<p style=""font-size: 60px; font-family: BACS"">lGZvLcO</p>","","","","","","","","",""
"html-keyboard-response","59","141961","0.0-8.0-0.51","5f99cee5a2a7d109a1624e10","650c16f0f2faf8d7a0d14c09","651c1c26dc17185c0d747440","null","null","<p style=""font-size: 60px; font-family: BACS"">NaJbrab</p>","","","","","","","","",""
"html-keyboard-response","60","142976","0.0-8.0-0.52","5f99cee5a2a7d109a1624e10","650c16f0f2faf8d7a0d14c09","651c1c26dc17185c0d747440","null","null","<p style=""font-size: 60px; font-family: BACS"">lGZvNmAG</p>","","","","","","","","",""
"html-keyboard-response","61","143978","0.0-8.0-0.53","5f99cee5a2a7d109a1624e10","650c16f0f2faf8d7a0d14c09","651c1c26dc17185c0d747440","null","null","<p style=""font-size: 60px; font-family: BACS"">bRABtBRDh</p>","","","","","","","","",""
"html-keyboard-response","62","144995","0.0-8.0-0.54","5f99cee5a2a7d109a1624e10","650c16f0f2faf8d7a0d14c09","651c1c26dc17185c0d747440","null","null","<p style=""font-size: 60px; font-family: BACS"">YcdOrab</p>","","","","","","","","",""
"html-keyboard-response","63","146009","0.0-8.0-0.55","5f99cee5a2a7d109a1624e10","650c16f0f2faf8d7a0d14c09","651c1c26dc17185c0d747440","null","null","<p style=""font-size: 60px; font-family: BACS"">CYPcAdYl</p>","","","","","","","","",""
"html-keyboard-response","64","147011","0.0-8.0-0.56","5f99cee5a2a7d109a1624e10","650c16f0f2faf8d7a0d14c09","651c1c26dc17185c0d747440","null","null","<p style=""font-size: 60px; font-family: BACS"">aNYmbrGl</p>","","","","","","","","",""
"html-keyboard-response","65","148028","0.0-8.0-0.57","5f99cee5a2a7d109a1624e10","650c16f0f2faf8d7a0d14c09","651c1c26dc17185c0d747440","null","null","<p style=""font-size: 60px; font-family: BACS"">NaJbrULv</p>","","","","","","","","",""
"html-keyboard-response","66","149044","0.0-8.0-0.58","5f99cee5a2a7d109a1624e10","650c16f0f2faf8d7a0d14c09","651c1c26dc17185c0d747440","null","null","<p style=""font-size: 60px; font-family: BACS"">YNrAmNmAG</p>","","","","","","","","",""
"html-keyboard-response","67","150060","0.0-8.0-0.59","5f99cee5a2a7d109a1624e10","650c16f0f2faf8d7a0d14c09","651c1c26dc17185c0d747440","null","null","<p style=""font-size: 60px; font-family: BACS"">dvNvArGl</p>","","","","","","","","",""
"html-keyboard-response","68","151063","0.0-8.0-0.60","5f99cee5a2a7d109a1624e10","650c16f0f2faf8d7a0d14c09","651c1c26dc17185c0d747440","null","null","<p style=""font-size: 60px; font-family: BACS"">OQarQrab</p>","","","","","","","","",""
"html-keyboard-response","69","152078","0.0-8.0-0.61","5f99cee5a2a7d109a1624e10","650c16f0f2faf8d7a0d14c09","651c1c26dc17185c0d747440","null","null","<p style=""font-size: 60px; font-family: BACS"">BbODAlKD</p>","","","","","","","","",""
"html-keyboard-response","70","153079","0.0-8.0-0.62","5f99cee5a2a7d109a1624e10","650c16f0f2faf8d7a0d14c09","651c1c26dc17185c0d747440","null","null","<p style=""font-size: 60px; font-family: BACS"">PCPDhTmTm</p>","","","","","","","","",""
"html-keyboard-response","71","154080","0.0-8.0-0.63","5f99cee5a2a7d109a1624e10","650c16f0f2faf8d7a0d14c09","651c1c26dc17185c0d747440","null","null","<p style=""font-size: 60px; font-family: BACS"">bRABtAdYl</p>","","","","","","","","",""
"html-keyboard-response","72","155096","0.0-8.0-0.64","5f99cee5a2a7d109a1624e10","650c16f0f2faf8d7a0d14c09","651c1c26dc17185c0d747440","null","null","<p style=""font-size: 60px; font-family: BACS"">BbODOdOP</p>","","","","","","","","",""
"html-keyboard-response","73","156111","0.0-8.0-0.65","5f99cee5a2a7d109a1624e10","650c16f0f2faf8d7a0d14c09","651c1c26dc17185c0d747440","null","null","<p style=""font-size: 60px; font-family: BACS"">ECtbDAdYl</p>","","","","","","","","",""
"html-keyboard-response","74","157113","0.0-8.0-0.66","5f99cee5a2a7d109a1624e10","650c16f0f2faf8d7a0d14c09","651c1c26dc17185c0d747440","null","null","<p style=""font-size: 60px; font-family: BACS"">kcOYTmTm</p>","","","","","","","","",""
"html-keyboard-response","75","158115","0.0-8.0-0.67","5f99cee5a2a7d109a1624e10","650c16f0f2faf8d7a0d14c09","651c1c26dc17185c0d747440","null","null","<p style=""font-size: 60px; font-family: BACS"">QcladrGl</p>","","","","","","","","",""
"html-keyboard-response","76","159130","0.0-8.0-0.68","5f99cee5a2a7d109a1624e10","650c16f0f2faf8d7a0d14c09","651c1c26dc17185c0d747440","null","null","<p style=""font-size: 60px; font-family: BACS"">TklDOdOP</p>","","","","","","","","",""
"html-keyboard-response","77","160144","0.0-8.0-0.69","5f99cee5a2a7d109a1624e10","650c16f0f2faf8d7a0d14c09","651c1c26dc17185c0d747440","null","null","<p style=""font-size: 60px; font-family: BACS"">mUOcOLcO</p>","","","","","","","","",""
"html-keyboard-response","78","161146","0.0-8.0-0.70","5f99cee5a2a7d109a1624e10","650c16f0f2faf8d7a0d14c09","651c1c26dc17185c0d747440","null","null","<p style=""font-size: 60px; font-family: BACS"">BbODAdYl</p>","","","","","","","","",""
"html-keyboard-response","79","162161","0.0-8.0-0.71","5f99cee5a2a7d109a1624e10","650c16f0f2faf8d7a0d14c09","651c1c26dc17185c0d747440","null","null","<p style=""font-size: 60px; font-family: BACS"">TklDBRDh</p>","","","","","","","","",""
"html-keyboard-response","80","163176","0.0-8.0-0.72","5f99cee5a2a7d109a1624e10","650c16f0f2faf8d7a0d14c09","651c1c26dc17185c0d747440","null","null","<p style=""font-size: 60px; font-family: BACS"">CYPcOdOP</p>","","","","","","","","",""
"html-keyboard-response","81","164179","0.0-8.0-0.73","5f99cee5a2a7d109a1624e10","650c16f0f2faf8d7a0d14c09","651c1c26dc17185c0d747440","null","null","<p style=""font-size: 60px; font-family: BACS"">ECtbDAlKD</p>","","","","","","","","",""
"html-keyboard-response","82","165196","0.0-8.0-0.74","5f99cee5a2a7d109a1624e10","650c16f0f2faf8d7a0d14c09","651c1c26dc17185c0d747440","null","null","<p style=""font-size: 60px; font-family: BACS"">LdrbvLcO</p>","","","","","","","","",""
"html-keyboard-response","83","166212","0.0-8.0-0.75","5f99cee5a2a7d109a1624e10","650c16f0f2faf8d7a0d14c09","651c1c26dc17185c0d747440","null","null","<p style=""font-size: 60px; font-family: BACS"">kcOYOdOP</p>","","","","","","","","",""
"html-keyboard-response","84","167228","0.0-8.0-0.76","5f99cee5a2a7d109a1624e10","650c16f0f2faf8d7a0d14c09","651c1c26dc17185c0d747440","null","null","<p style=""font-size: 60px; font-family: BACS"">mUOcOrULv</p>","","","","","","","","",""
"html-keyboard-response","85","168230","0.0-8.0-0.77","5f99cee5a2a7d109a1624e10","650c16f0f2faf8d7a0d14c09","651c1c26dc17185c0d747440","null","null","<p style=""font-size: 60px; font-family: BACS"">dRbDbOdOP</p>","","","","","","","","",""
"html-keyboard-response","86","169246","0.0-8.0-0.78","5f99cee5a2a7d109a1624e10","650c16f0f2faf8d7a0d14c09","651c1c26dc17185c0d747440","null","null","<p style=""font-size: 60px; font-family: BACS"">aNYmbLcO</p>","","","","","","","","",""
"html-keyboard-response","87","170264","0.0-8.0-0.79","5f99cee5a2a7d109a1624e10","650c16f0f2faf8d7a0d14c09","651c1c26dc17185c0d747440","null","null","<p style=""font-size: 60px; font-family: BACS"">bRABtAlKD</p>","","","","","","","","",""
"html-keyboard-response","88","175533","0.0-9.0","5f99cee5a2a7d109a1624e10","650c16f0f2faf8d7a0d14c09","651c1c26dc17185c0d747440","5268"," ","<p>Great, you've seen the first block of words. You may now take a short break.</p>
      <p>Press the spacebar when you're ready to continue.</p>","","","","","","","","",""
"html-keyboard-response","89","176546","0.0-10.0-0.0","5f99cee5a2a7d109a1624e10","650c16f0f2faf8d7a0d14c09","651c1c26dc17185c0d747440","null","null","<p style=""font-size: 60px; font-family: BACS"">cdKBYAdYl</p>","","","","","","","","",""
"html-keyboard-response","90","177561","0.0-10.0-0.1","5f99cee5a2a7d109a1624e10","650c16f0f2faf8d7a0d14c09","651c1c26dc17185c0d747440","null","null","<p style=""font-size: 60px; font-family: BACS"">TklDTmTm</p>","","","","","","","","",""
"html-keyboard-response","91","178563","0.0-10.0-0.2","5f99cee5a2a7d109a1624e10","650c16f0f2faf8d7a0d14c09","651c1c26dc17185c0d747440","null","null","<p style=""font-size: 60px; font-family: BACS"">LdrbvrULv</p>","","","","","","","","",""
"html-keyboard-response","92","179564","0.0-10.0-0.3","5f99cee5a2a7d109a1624e10","650c16f0f2faf8d7a0d14c09","651c1c26dc17185c0d747440","null","null","<p style=""font-size: 60px; font-family: BACS"">dRbDbBRDh</p>","","","","","","","","",""
"html-keyboard-response","93","180579","0.0-10.0-0.4","5f99cee5a2a7d109a1624e10","650c16f0f2faf8d7a0d14c09","651c1c26dc17185c0d747440","null","null","<p style=""font-size: 60px; font-family: BACS"">dvNvALcO</p>","","","","","","","","",""
"html-keyboard-response","94","181581","0.0-10.0-0.5","5f99cee5a2a7d109a1624e10","650c16f0f2faf8d7a0d14c09","651c1c26dc17185c0d747440","null","null","<p style=""font-size: 60px; font-family: BACS"">CYPcOdOP</p>","","","","","","","","",""
"html-keyboard-response","95","182597","0.0-10.0-0.6","5f99cee5a2a7d109a1624e10","650c16f0f2faf8d7a0d14c09","651c1c26dc17185c0d747440","null","null","<p style=""font-size: 60px; font-family: BACS"">bRABtBRDh</p>","","","","","","","","",""
"html-keyboard-response","96","183611","0.0-10.0-0.7","5f99cee5a2a7d109a1624e10","650c16f0f2faf8d7a0d14c09","651c1c26dc17185c0d747440","null","null","<p style=""font-size: 60px; font-family: BACS"">OQarQNmAG</p>","","","","","","","","",""
"html-keyboard-response","97","184616","0.0-10.0-0.8","5f99cee5a2a7d109a1624e10","650c16f0f2faf8d7a0d14c09","651c1c26dc17185c0d747440","null","null","<p style=""font-size: 60px; font-family: BACS"">lGZvLcO</p>","","","","","","","","",""
"html-keyboard-response","98","185631","0.0-10.0-0.9","5f99cee5a2a7d109a1624e10","650c16f0f2faf8d7a0d14c09","651c1c26dc17185c0d747440","null","null","<p style=""font-size: 60px; font-family: BACS"">QcladrGl</p>","","","","","","","","",""
"html-keyboard-response","99","186648","0.0-10.0-0.10","5f99cee5a2a7d109a1624e10","650c16f0f2faf8d7a0d14c09","651c1c26dc17185c0d747440","null","null","<p style=""font-size: 60px; font-family: BACS"">mUOcOrULv</p>","","","","","","","","",""
"html-keyboard-response","100","187664","0.0-10.0-0.11","5f99cee5a2a7d109a1624e10","650c16f0f2faf8d7a0d14c09","651c1c26dc17185c0d747440","null","null","<p style=""font-size: 60px; font-family: BACS"">ECtbDOdOP</p>","","","","","","","","",""
"html-keyboard-response","101","188680","0.0-10.0-0.12","5f99cee5a2a7d109a1624e10","650c16f0f2faf8d7a0d14c09","651c1c26dc17185c0d747440","null","null","<p style=""font-size: 60px; font-family: BACS"">YcdONmAG</p>","","","","","","","","",""
"html-keyboard-response","102","189697","0.0-10.0-0.13","5f99cee5a2a7d109a1624e10","650c16f0f2faf8d7a0d14c09","651c1c26dc17185c0d747440","null","null","<p style=""font-size: 60px; font-family: BACS"">BbODOdOP</p>","","","","","","","","",""
"html-keyboard-response","103","190712","0.0-10.0-0.14","5f99cee5a2a7d109a1624e10","650c16f0f2faf8d7a0d14c09","651c1c26dc17185c0d747440","null","null","<p style=""font-size: 60px; font-family: BACS"">PCPDhAlKD</p>","","","","","","","","",""
"html-keyboard-response","104","191729","0.0-10.0-0.15","5f99cee5a2a7d109a1624e10","650c16f0f2faf8d7a0d14c09","651c1c26dc17185c0d747440","null","null","<p style=""font-size: 60px; font-family: BACS"">mUOcOrGl</p>","","","","","","","","",""
"html-keyboard-response","105","192731","0.0-10.0-0.16","5f99cee5a2a7d109a1624e10","650c16f0f2faf8d7a0d14c09","651c1c26dc17185c0d747440","null","null","<p style=""font-size: 60px; font-family: BACS"">Qcladrab</p>","","","","","","","","",""
"html-keyboard-response","106","193732","0.0-10.0-0.17","5f99cee5a2a7d109a1624e10","650c16f0f2faf8d7a0d14c09","651c1c26dc17185c0d747440","null","null","<p style=""font-size: 60px; font-family: BACS"">aNYmbrGl</p>","","","","","","","","",""
"html-keyboard-response","107","194745","0.0-10.0-0.18","5f99cee5a2a7d109a1624e10","650c16f0f2faf8d7a0d14c09","651c1c26dc17185c0d747440","null","null","<p style=""font-size: 60px; font-family: BACS"">QcladrULv</p>","","","","","","","","",""
"html-keyboard-response","108","195748","0.0-10.0-0.19","5f99cee5a2a7d109a1624e10","650c16f0f2faf8d7a0d14c09","651c1c26dc17185c0d747440","null","null","<p style=""font-size: 60px; font-family: BACS"">aNYmbrab</p>","","","","","","","","",""
"html-keyboard-response","109","196763","0.0-10.0-0.20","5f99cee5a2a7d109a1624e10","650c16f0f2faf8d7a0d14c09","651c1c26dc17185c0d747440","null","null","<p style=""font-size: 60px; font-family: BACS"">LdrbvNmAG</p>","","","","","","","","",""
"html-keyboard-response","110","197780","0.0-10.0-0.21","5f99cee5a2a7d109a1624e10","650c16f0f2faf8d7a0d14c09","651c1c26dc17185c0d747440","null","null","<p style=""font-size: 60px; font-family: BACS"">TklDAdYl</p>","","","","","","","","",""
"html-keyboard-response","111","198782","0.0-10.0-0.22","5f99cee5a2a7d109a1624e10","650c16f0f2faf8d7a0d14c09","651c1c26dc17185c0d747440","null","null","<p style=""font-size: 60px; font-family: BACS"">aNYmbNmAG</p>","","","","","","","","",""
"html-keyboard-response","112","199797","0.0-10.0-0.23","5f99cee5a2a7d109a1624e10","650c16f0f2faf8d7a0d14c09","651c1c26dc17185c0d747440","null","null","<p style=""font-size: 60px; font-family: BACS"">bRABtTmTm</p>","","","","","","","","",""
"html-keyboard-response","113","200800","0.0-10.0-0.24","5f99cee5a2a7d109a1624e10","650c16f0f2faf8d7a0d14c09","651c1c26dc17185c0d747440","null","null","<p style=""font-size: 60px; font-family: BACS"">kcdOtAlKD</p>","","","","","","","","",""
"html-keyboard-response","114","201817","0.0-10.0-0.25","5f99cee5a2a7d109a1624e10","650c16f0f2faf8d7a0d14c09","651c1c26dc17185c0d747440","null","null","<p style=""font-size: 60px; font-family: BACS"">YcdOrULv</p>","","","","","","","","",""
"html-keyboard-response","115","202832","0.0-10.0-0.26","5f99cee5a2a7d109a1624e10","650c16f0f2faf8d7a0d14c09","651c1c26dc17185c0d747440","null","null","<p style=""font-size: 60px; font-family: BACS"">ECtbDBRDh</p>","","","","","","","","",""
"html-keyboard-response","116","203833","0.0-10.0-0.27","5f99cee5a2a7d109a1624e10","650c16f0f2faf8d7a0d14c09","651c1c26dc17185c0d747440","null","null","<p style=""font-size: 60px; font-family: BACS"">Ldrbvrab</p>","","","","","","","","",""
"html-keyboard-response","117","204849","0.0-10.0-0.28","5f99cee5a2a7d109a1624e10","650c16f0f2faf8d7a0d14c09","651c1c26dc17185c0d747440","null","null","<p style=""font-size: 60px; font-family: BACS"">dRbDbOdOP</p>","","","","","","","","",""
"html-keyboard-response","118","205866","0.0-10.0-0.29","5f99cee5a2a7d109a1624e10","650c16f0f2faf8d7a0d14c09","651c1c26dc17185c0d747440","null","null","<p style=""font-size: 60px; font-family: BACS"">mUOcOLcO</p>","","","","","","","","",""
"html-keyboard-response","119","206867","0.0-10.0-0.30","5f99cee5a2a7d109a1624e10","650c16f0f2faf8d7a0d14c09","651c1c26dc17185c0d747440","null","null","<p style=""font-size: 60px; font-family: BACS"">NaJbrGl</p>","","","","","","","","",""
"html-keyboard-response","120","207880","0.0-10.0-0.31","5f99cee5a2a7d109a1624e10","650c16f0f2faf8d7a0d14c09","651c1c26dc17185c0d747440","null","null","<p style=""font-size: 60px; font-family: BACS"">kcOYBRDh</p>","","","","","","","","",""
"html-keyboard-response","121","208896","0.0-10.0-0.32","5f99cee5a2a7d109a1624e10","650c16f0f2faf8d7a0d14c09","651c1c26dc17185c0d747440","null","null","<p style=""font-size: 60px; font-family: BACS"">aNYmbLcO</p>","","","","","","","","",""
"html-keyboard-response","122","209912","0.0-10.0-0.33","5f99cee5a2a7d109a1624e10","650c16f0f2faf8d7a0d14c09","651c1c26dc17185c0d747440","null","null","<p style=""font-size: 60px; font-family: BACS"">ECtbDAlKD</p>","","","","","","","","",""
"html-keyboard-response","123","210915","0.0-10.0-0.34","5f99cee5a2a7d109a1624e10","650c16f0f2faf8d7a0d14c09","651c1c26dc17185c0d747440","null","null","<p style=""font-size: 60px; font-family: BACS"">PCPDhTmTm</p>","","","","","","","","",""
"html-keyboard-response","124","211917","0.0-10.0-0.35","5f99cee5a2a7d109a1624e10","650c16f0f2faf8d7a0d14c09","651c1c26dc17185c0d747440","null","null","<p style=""font-size: 60px; font-family: BACS"">YNrAmNmAG</p>","","","","","","","","",""
"html-keyboard-response","125","212930","0.0-10.0-0.36","5f99cee5a2a7d109a1624e10","650c16f0f2faf8d7a0d14c09","651c1c26dc17185c0d747440","null","null","<p style=""font-size: 60px; font-family: BACS"">TklDOdOP</p>","","","","","","","","",""
"html-keyboard-response","126","213932","0.0-10.0-0.37","5f99cee5a2a7d109a1624e10","650c16f0f2faf8d7a0d14c09","651c1c26dc17185c0d747440","null","null","<p style=""font-size: 60px; font-family: BACS"">LdrbvLcO</p>","","","","","","","","",""
"html-keyboard-response","127","214934","0.0-10.0-0.38","5f99cee5a2a7d109a1624e10","650c16f0f2faf8d7a0d14c09","651c1c26dc17185c0d747440","null","null","<p style=""font-size: 60px; font-family: BACS"">BbODAlKD</p>","","","","","","","","",""
"html-keyboard-response","128","215947","0.0-10.0-0.39","5f99cee5a2a7d109a1624e10","650c16f0f2faf8d7a0d14c09","651c1c26dc17185c0d747440","null","null","<p style=""font-size: 60px; font-family: BACS"">cdKBYTmTm</p>","","","","","","","","",""
"html-keyboard-response","129","216949","0.0-10.0-0.40","5f99cee5a2a7d109a1624e10","650c16f0f2faf8d7a0d14c09","651c1c26dc17185c0d747440","null","null","<p style=""font-size: 60px; font-family: BACS"">dvNvArab</p>","","","","","","","","",""
"html-keyboard-response","130","217965","0.0-10.0-0.41","5f99cee5a2a7d109a1624e10","650c16f0f2faf8d7a0d14c09","651c1c26dc17185c0d747440","null","null","<p style=""font-size: 60px; font-family: BACS"">kcOYOdOP</p>","","","","","","","","",""
"html-keyboard-response","131","218967","0.0-10.0-0.42","5f99cee5a2a7d109a1624e10","650c16f0f2faf8d7a0d14c09","651c1c26dc17185c0d747440","null","null","<p style=""font-size: 60px; font-family: BACS"">ECtbDAdYl</p>","","","","","","","","",""
"html-keyboard-response","132","219981","0.0-10.0-0.43","5f99cee5a2a7d109a1624e10","650c16f0f2faf8d7a0d14c09","651c1c26dc17185c0d747440","null","null","<p style=""font-size: 60px; font-family: BACS"">NaJbrab</p>","","","","","","","","",""
"html-keyboard-response","133","220982","0.0-10.0-0.44","5f99cee5a2a7d109a1624e10","650c16f0f2faf8d7a0d14c09","651c1c26dc17185c0d747440","null","null","<p style=""font-size: 60px; font-family: BACS"">cdKBYBRDh</p>","","","","","","","","",""
"html-keyboard-response","134","222000","0.0-10.0-0.45","5f99cee5a2a7d109a1624e10","650c16f0f2faf8d7a0d14c09","651c1c26dc17185c0d747440","null","null","<p style=""font-size: 60px; font-family: BACS"">BbODAdYl</p>","","","","","","","","",""
"html-keyboard-response","135","223001","0.0-10.0-0.46","5f99cee5a2a7d109a1624e10","650c16f0f2faf8d7a0d14c09","651c1c26dc17185c0d747440","null","null","<p style=""font-size: 60px; font-family: BACS"">kcdOtBRDh</p>","","","","","","","","",""
"html-keyboard-response","136","224017","0.0-10.0-0.47","5f99cee5a2a7d109a1624e10","650c16f0f2faf8d7a0d14c09","651c1c26dc17185c0d747440","null","null","<p style=""font-size: 60px; font-family: BACS"">NaJbNmAG</p>","","","","","","","","",""
"html-keyboard-response","137","225033","0.0-10.0-0.48","5f99cee5a2a7d109a1624e10","650c16f0f2faf8d7a0d14c09","651c1c26dc17185c0d747440","null","null","<p style=""font-size: 60px; font-family: BACS"">TklDBRDh</p>","","","","","","","","",""
"html-keyboard-response","138","226050","0.0-10.0-0.49","5f99cee5a2a7d109a1624e10","650c16f0f2faf8d7a0d14c09","651c1c26dc17185c0d747440","null","null","<p style=""font-size: 60px; font-family: BACS"">PCPDhOdOP</p>","","","","","","","","",""
"html-keyboard-response","139","227066","0.0-10.0-0.50","5f99cee5a2a7d109a1624e10","650c16f0f2faf8d7a0d14c09","651c1c26dc17185c0d747440","null","null","<p style=""font-size: 60px; font-family: BACS"">BbODTmTm</p>","","","","","","","","",""
"html-keyboard-response","140","228068","0.0-10.0-0.51","5f99cee5a2a7d109a1624e10","650c16f0f2faf8d7a0d14c09","651c1c26dc17185c0d747440","null","null","<p style=""font-size: 60px; font-family: BACS"">kcdOtAdYl</p>","","","","","","","","",""
"html-keyboard-response","141","229084","0.0-10.0-0.52","5f99cee5a2a7d109a1624e10","650c16f0f2faf8d7a0d14c09","651c1c26dc17185c0d747440","null","null","<p style=""font-size: 60px; font-family: BACS"">dvNvArULv</p>","","","","","","","","",""
"html-keyboard-response","142","230100","0.0-10.0-0.53","5f99cee5a2a7d109a1624e10","650c16f0f2faf8d7a0d14c09","651c1c26dc17185c0d747440","null","null","<p style=""font-size: 60px; font-family: BACS"">kcOYTmTm</p>","","","","","","","","",""
"html-keyboard-response","143","231116","0.0-10.0-0.54","5f99cee5a2a7d109a1624e10","650c16f0f2faf8d7a0d14c09","651c1c26dc17185c0d747440","null","null","<p style=""font-size: 60px; font-family: BACS"">mUOcOrab</p>","","","","","","","","",""
"html-keyboard-response","144","232132","0.0-10.0-0.55","5f99cee5a2a7d109a1624e10","650c16f0f2faf8d7a0d14c09","651c1c26dc17185c0d747440","null","null","<p style=""font-size: 60px; font-family: BACS"">CYPcBRDh</p>","","","","","","","","",""
"html-keyboard-response","145","233133","0.0-10.0-0.56","5f99cee5a2a7d109a1624e10","650c16f0f2faf8d7a0d14c09","651c1c26dc17185c0d747440","null","null","<p style=""font-size: 60px; font-family: BACS"">NaJbrULv</p>","","","","","","","","",""
"html-keyboard-response","146","234149","0.0-10.0-0.57","5f99cee5a2a7d109a1624e10","650c16f0f2faf8d7a0d14c09","651c1c26dc17185c0d747440","null","null","<p style=""font-size: 60px; font-family: BACS"">dvNvArGl</p>","","","","","","","","",""
"html-keyboard-response","147","235152","0.0-10.0-0.58","5f99cee5a2a7d109a1624e10","650c16f0f2faf8d7a0d14c09","651c1c26dc17185c0d747440","null","null","<p style=""font-size: 60px; font-family: BACS"">bRABtAdYl</p>","","","","","","","","",""
"html-keyboard-response","148","236168","0.0-10.0-0.59","5f99cee5a2a7d109a1624e10","650c16f0f2faf8d7a0d14c09","651c1c26dc17185c0d747440","null","null","<p style=""font-size: 60px; font-family: BACS"">OQarQrGl</p>","","","","","","","","",""
"html-keyboard-response","149","237184","0.0-10.0-0.60","5f99cee5a2a7d109a1624e10","650c16f0f2faf8d7a0d14c09","651c1c26dc17185c0d747440","null","null","<p style=""font-size: 60px; font-family: BACS"">CYPcAdYl</p>","","","","","","","","",""
"html-keyboard-response","150","238186","0.0-10.0-0.61","5f99cee5a2a7d109a1624e10","650c16f0f2faf8d7a0d14c09","651c1c26dc17185c0d747440","null","null","<p style=""font-size: 60px; font-family: BACS"">kcOYAlKD</p>","","","","","","","","",""
"html-keyboard-response","151","239201","0.0-10.0-0.62","5f99cee5a2a7d109a1624e10","650c16f0f2faf8d7a0d14c09","651c1c26dc17185c0d747440","null","null","<p style=""font-size: 60px; font-family: BACS"">cdKBYOdOP</p>","","","","","","","","",""
"html-keyboard-response","152","240203","0.0-10.0-0.63","5f99cee5a2a7d109a1624e10","650c16f0f2faf8d7a0d14c09","651c1c26dc17185c0d747440","null","null","<p style=""font-size: 60px; font-family: BACS"">CYPcAlKD</p>","","","","","","","","",""
"html-keyboard-response","153","241218","0.0-10.0-0.64","5f99cee5a2a7d109a1624e10","650c16f0f2faf8d7a0d14c09","651c1c26dc17185c0d747440","null","null","<p style=""font-size: 60px; font-family: BACS"">lGZvrGl</p>","","","","","","","","",""
"html-keyboard-response","154","242235","0.0-10.0-0.65","5f99cee5a2a7d109a1624e10","650c16f0f2faf8d7a0d14c09","651c1c26dc17185c0d747440","null","null","<p style=""font-size: 60px; font-family: BACS"">dRbDbTmTm</p>","","","","","","","","",""
"html-keyboard-response","155","243250","0.0-10.0-0.66","5f99cee5a2a7d109a1624e10","650c16f0f2faf8d7a0d14c09","651c1c26dc17185c0d747440","null","null","<p style=""font-size: 60px; font-family: BACS"">OQarQrab</p>","","","","","","","","",""
"html-keyboard-response","156","244252","0.0-10.0-0.67","5f99cee5a2a7d109a1624e10","650c16f0f2faf8d7a0d14c09","651c1c26dc17185c0d747440","null","null","<p style=""font-size: 60px; font-family: BACS"">QcladNmAG</p>","","","","","","","","",""
"html-keyboard-response","157","245267","0.0-10.0-0.68","5f99cee5a2a7d109a1624e10","650c16f0f2faf8d7a0d14c09","651c1c26dc17185c0d747440","null","null","<p style=""font-size: 60px; font-family: BACS"">PCPDhAdYl</p>","","","","","","","","",""
"html-keyboard-response","158","246284","0.0-10.0-0.69","5f99cee5a2a7d109a1624e10","650c16f0f2faf8d7a0d14c09","651c1c26dc17185c0d747440","null","null","<p style=""font-size: 60px; font-family: BACS"">lGZvrULv</p>","","","","","","","","",""
"html-keyboard-response","159","247285","0.0-10.0-0.70","5f99cee5a2a7d109a1624e10","650c16f0f2faf8d7a0d14c09","651c1c26dc17185c0d747440","null","null","<p style=""font-size: 60px; font-family: BACS"">YNrAmrGl</p>","","","","","","","","",""
"html-keyboard-response","160","248299","0.0-10.0-0.71","5f99cee5a2a7d109a1624e10","650c16f0f2faf8d7a0d14c09","651c1c26dc17185c0d747440","null","null","<p style=""font-size: 60px; font-family: BACS"">OQarQLcO</p>","","","","","","","","",""
"html-keyboard-response","161","249302","0.0-10.0-0.72","5f99cee5a2a7d109a1624e10","650c16f0f2faf8d7a0d14c09","651c1c26dc17185c0d747440","null","null","<p style=""font-size: 60px; font-family: BACS"">YcdOrab</p>","","","","","","","","",""
"html-keyboard-response","162","250317","0.0-10.0-0.73","5f99cee5a2a7d109a1624e10","650c16f0f2faf8d7a0d14c09","651c1c26dc17185c0d747440","null","null","<p style=""font-size: 60px; font-family: BACS"">bRABtAlKD</p>","","","","","","","","",""
"html-keyboard-response","163","251318","0.0-10.0-0.74","5f99cee5a2a7d109a1624e10","650c16f0f2faf8d7a0d14c09","651c1c26dc17185c0d747440","null","null","<p style=""font-size: 60px; font-family: BACS"">YNrAmLcO</p>","","","","","","","","",""
"html-keyboard-response","164","252335","0.0-10.0-0.75","5f99cee5a2a7d109a1624e10","650c16f0f2faf8d7a0d14c09","651c1c26dc17185c0d747440","null","null","<p style=""font-size: 60px; font-family: BACS"">lGZvNmAG</p>","","","","","","","","",""
"html-keyboard-response","165","253350","0.0-10.0-0.76","5f99cee5a2a7d109a1624e10","650c16f0f2faf8d7a0d14c09","651c1c26dc17185c0d747440","null","null","<p style=""font-size: 60px; font-family: BACS"">YNrAmrULv</p>","","","","","","","","",""
"html-keyboard-response","166","254353","0.0-10.0-0.77","5f99cee5a2a7d109a1624e10","650c16f0f2faf8d7a0d14c09","651c1c26dc17185c0d747440","null","null","<p style=""font-size: 60px; font-family: BACS"">YcdOLcO</p>","","","","","","","","",""
"html-keyboard-response","167","255366","0.0-10.0-0.78","5f99cee5a2a7d109a1624e10","650c16f0f2faf8d7a0d14c09","651c1c26dc17185c0d747440","null","null","<p style=""font-size: 60px; font-family: BACS"">dRbDbAlKD</p>","","","","","","","","",""
"html-keyboard-response","168","256370","0.0-10.0-0.79","5f99cee5a2a7d109a1624e10","650c16f0f2faf8d7a0d14c09","651c1c26dc17185c0d747440","null","null","<p style=""font-size: 60px; font-family: BACS"">kcdOtTmTm</p>","","","","","","","","",""
"html-keyboard-response","169","284588","0.0-11.0","5f99cee5a2a7d109a1624e10","650c16f0f2faf8d7a0d14c09","651c1c26dc17185c0d747440","28218"," ","<p>Great, you've seen the second block of words. You may now take a short break.</p>
      <p>Press the spacebar when you're ready to continue.</p>","","","","","","","","",""
"html-keyboard-response","170","285590","0.0-12.0-0.0","5f99cee5a2a7d109a1624e10","650c16f0f2faf8d7a0d14c09","651c1c26dc17185c0d747440","null","null","<p style=""font-size: 60px; font-family: BACS"">CYPcAlKD</p>","","","","","","","","",""
"html-keyboard-response","171","286606","0.0-12.0-0.1","5f99cee5a2a7d109a1624e10","650c16f0f2faf8d7a0d14c09","651c1c26dc17185c0d747440","null","null","<p style=""font-size: 60px; font-family: BACS"">dvNvArGl</p>","","","","","","","","",""
"html-keyboard-response","172","287620","0.0-12.0-0.2","5f99cee5a2a7d109a1624e10","650c16f0f2faf8d7a0d14c09","651c1c26dc17185c0d747440","null","null","<p style=""font-size: 60px; font-family: BACS"">CYPcBRDh</p>","","","","","","","","",""
"html-keyboard-response","173","288621","0.0-12.0-0.3","5f99cee5a2a7d109a1624e10","650c16f0f2faf8d7a0d14c09","651c1c26dc17185c0d747440","null","null","<p style=""font-size: 60px; font-family: BACS"">ECtbDAdYl</p>","","","","","","","","",""
"html-keyboard-response","174","289636","0.0-12.0-0.4","5f99cee5a2a7d109a1624e10","650c16f0f2faf8d7a0d14c09","651c1c26dc17185c0d747440","null","null","<p style=""font-size: 60px; font-family: BACS"">dvNvArULv</p>","","","","","","","","",""
"html-keyboard-response","175","290641","0.0-12.0-0.5","5f99cee5a2a7d109a1624e10","650c16f0f2faf8d7a0d14c09","651c1c26dc17185c0d747440","null","null","<p style=""font-size: 60px; font-family: BACS"">BbODAlKD</p>","","","","","","","","",""
"html-keyboard-response","176","291656","0.0-12.0-0.6","5f99cee5a2a7d109a1624e10","650c16f0f2faf8d7a0d14c09","651c1c26dc17185c0d747440","null","null","<p style=""font-size: 60px; font-family: BACS"">OQarQrGl</p>","","","","","","","","",""
"html-keyboard-response","177","292670","0.0-12.0-0.7","5f99cee5a2a7d109a1624e10","650c16f0f2faf8d7a0d14c09","651c1c26dc17185c0d747440","null","null","<p style=""font-size: 60px; font-family: BACS"">BbODAdYl</p>","","","","","","","","",""
"html-keyboard-response","178","293675","0.0-12.0-0.8","5f99cee5a2a7d109a1624e10","650c16f0f2faf8d7a0d14c09","651c1c26dc17185c0d747440","null","null","<p style=""font-size: 60px; font-family: BACS"">kcdOtTmTm</p>","","","","","","","","",""
"html-keyboard-response","179","294689","0.0-12.0-0.9","5f99cee5a2a7d109a1624e10","650c16f0f2faf8d7a0d14c09","651c1c26dc17185c0d747440","null","null","<p style=""font-size: 60px; font-family: BACS"">NaJbrULv</p>","","","","","","","","",""
"html-keyboard-response","180","295707","0.0-12.0-0.10","5f99cee5a2a7d109a1624e10","650c16f0f2faf8d7a0d14c09","651c1c26dc17185c0d747440","null","null","<p style=""font-size: 60px; font-family: BACS"">mUOcOrab</p>","","","","","","","","",""
"html-keyboard-response","181","296722","0.0-12.0-0.11","5f99cee5a2a7d109a1624e10","650c16f0f2faf8d7a0d14c09","651c1c26dc17185c0d747440","null","null","<p style=""font-size: 60px; font-family: BACS"">TklDOdOP</p>","","","","","","","","",""
"html-keyboard-response","182","297723","0.0-12.0-0.12","5f99cee5a2a7d109a1624e10","650c16f0f2faf8d7a0d14c09","651c1c26dc17185c0d747440","null","null","<p style=""font-size: 60px; font-family: BACS"">aNYmbrGl</p>","","","","","","","","",""
"html-keyboard-response","183","298739","0.0-12.0-0.13","5f99cee5a2a7d109a1624e10","650c16f0f2faf8d7a0d14c09","651c1c26dc17185c0d747440","null","null","<p style=""font-size: 60px; font-family: BACS"">ECtbDBRDh</p>","","","","","","","","",""
"html-keyboard-response","184","299755","0.0-12.0-0.14","5f99cee5a2a7d109a1624e10","650c16f0f2faf8d7a0d14c09","651c1c26dc17185c0d747440","null","null","<p style=""font-size: 60px; font-family: BACS"">TklDAdYl</p>","","","","","","","","",""
"html-keyboard-response","185","300771","0.0-12.0-0.15","5f99cee5a2a7d109a1624e10","650c16f0f2faf8d7a0d14c09","651c1c26dc17185c0d747440","null","null","<p style=""font-size: 60px; font-family: BACS"">QcladrULv</p>","","","","","","","","",""
"html-keyboard-response","186","301787","0.0-12.0-0.16","5f99cee5a2a7d109a1624e10","650c16f0f2faf8d7a0d14c09","651c1c26dc17185c0d747440","null","null","<p style=""font-size: 60px; font-family: BACS"">CYPcOdOP</p>","","","","","","","","",""
"html-keyboard-response","187","302804","0.0-12.0-0.17","5f99cee5a2a7d109a1624e10","650c16f0f2faf8d7a0d14c09","651c1c26dc17185c0d747440","null","null","<p style=""font-size: 60px; font-family: BACS"">kcOYBRDh</p>","","","","","","","","",""
"html-keyboard-response","188","303808","0.0-12.0-0.18","5f99cee5a2a7d109a1624e10","650c16f0f2faf8d7a0d14c09","651c1c26dc17185c0d747440","null","null","<p style=""font-size: 60px; font-family: BACS"">ECtbDOdOP</p>","","","","","","","","",""
"html-keyboard-response","189","304822","0.0-12.0-0.19","5f99cee5a2a7d109a1624e10","650c16f0f2faf8d7a0d14c09","651c1c26dc17185c0d747440","null","null","<p style=""font-size: 60px; font-family: BACS"">bRABtAlKD</p>","","","","","","","","",""
"html-keyboard-response","190","305838","0.0-12.0-0.20","5f99cee5a2a7d109a1624e10","650c16f0f2faf8d7a0d14c09","651c1c26dc17185c0d747440","null","null","<p style=""font-size: 60px; font-family: BACS"">dRbDbTmTm</p>","","","","","","","","",""
"html-keyboard-response","191","306842","0.0-12.0-0.21","5f99cee5a2a7d109a1624e10","650c16f0f2faf8d7a0d14c09","651c1c26dc17185c0d747440","null","null","<p style=""font-size: 60px; font-family: BACS"">BbODOdOP</p>","","","","","","","","",""
"html-keyboard-response","192","307856","0.0-12.0-0.22","5f99cee5a2a7d109a1624e10","650c16f0f2faf8d7a0d14c09","651c1c26dc17185c0d747440","null","null","<p style=""font-size: 60px; font-family: BACS"">cdKBYTmTm</p>","","","","","","","","",""
"html-keyboard-response","193","308872","0.0-12.0-0.23","5f99cee5a2a7d109a1624e10","650c16f0f2faf8d7a0d14c09","651c1c26dc17185c0d747440","null","null","<p style=""font-size: 60px; font-family: BACS"">Qcladrab</p>","","","","","","","","",""
"html-keyboard-response","194","309875","0.0-12.0-0.24","5f99cee5a2a7d109a1624e10","650c16f0f2faf8d7a0d14c09","651c1c26dc17185c0d747440","null","null","<p style=""font-size: 60px; font-family: BACS"">YNrAmLcO</p>","","","","","","","","",""
"html-keyboard-response","195","310891","0.0-12.0-0.25","5f99cee5a2a7d109a1624e10","650c16f0f2faf8d7a0d14c09","651c1c26dc17185c0d747440","null","null","<p style=""font-size: 60px; font-family: BACS"">aNYmbrab</p>","","","","","","","","",""
"html-keyboard-response","196","311906","0.0-12.0-0.26","5f99cee5a2a7d109a1624e10","650c16f0f2faf8d7a0d14c09","651c1c26dc17185c0d747440","null","null","<p style=""font-size: 60px; font-family: BACS"">mUOcOrGl</p>","","","","","","","","",""
"html-keyboard-response","197","312907","0.0-12.0-0.27","5f99cee5a2a7d109a1624e10","650c16f0f2faf8d7a0d14c09","651c1c26dc17185c0d747440","null","null","<p style=""font-size: 60px; font-family: BACS"">cdKBYAdYl</p>","","","","","","","","",""
"html-keyboard-response","198","313924","0.0-12.0-0.28","5f99cee5a2a7d109a1624e10","650c16f0f2faf8d7a0d14c09","651c1c26dc17185c0d747440","null","null","<p style=""font-size: 60px; font-family: BACS"">YNrAmrGl</p>","","","","","","","","",""
"html-keyboard-response","199","314938","0.0-12.0-0.29","5f99cee5a2a7d109a1624e10","650c16f0f2faf8d7a0d14c09","651c1c26dc17185c0d747440","null","null","<p style=""font-size: 60px; font-family: BACS"">ECtbDAlKD</p>","","","","","","","","",""
"html-keyboard-response","200","315939","0.0-12.0-0.30","5f99cee5a2a7d109a1624e10","650c16f0f2faf8d7a0d14c09","651c1c26dc17185c0d747440","null","null","<p style=""font-size: 60px; font-family: BACS"">kcOYOdOP</p>","","","","","","","","",""
"html-keyboard-response","201","316941","0.0-12.0-0.31","5f99cee5a2a7d109a1624e10","650c16f0f2faf8d7a0d14c09","651c1c26dc17185c0d747440","null","null","<p style=""font-size: 60px; font-family: BACS"">QcladrGl</p>","","","","","","","","",""
"html-keyboard-response","202","317955","0.0-12.0-0.32","5f99cee5a2a7d109a1624e10","650c16f0f2faf8d7a0d14c09","651c1c26dc17185c0d747440","null","null","<p style=""font-size: 60px; font-family: BACS"">LdrbvNmAG</p>","","","","","","","","",""
"html-keyboard-response","203","318956","0.0-12.0-0.33","5f99cee5a2a7d109a1624e10","650c16f0f2faf8d7a0d14c09","651c1c26dc17185c0d747440","null","null","<p style=""font-size: 60px; font-family: BACS"">dvNvALcO</p>","","","","","","","","",""
"html-keyboard-response","204","319958","0.0-12.0-0.34","5f99cee5a2a7d109a1624e10","650c16f0f2faf8d7a0d14c09","651c1c26dc17185c0d747440","null","null","<p style=""font-size: 60px; font-family: BACS"">cdKBYBRDh</p>","","","","","","","","",""
"html-keyboard-response","205","320974","0.0-12.0-0.35","5f99cee5a2a7d109a1624e10","650c16f0f2faf8d7a0d14c09","651c1c26dc17185c0d747440","null","null","<p style=""font-size: 60px; font-family: BACS"">YNrAmrULv</p>","","","","","","","","",""
"html-keyboard-response","206","321974","0.0-12.0-0.36","5f99cee5a2a7d109a1624e10","650c16f0f2faf8d7a0d14c09","651c1c26dc17185c0d747440","null","null","<p style=""font-size: 60px; font-family: BACS"">NaJbrGl</p>","","","","","","","","",""
"html-keyboard-response","207","322990","0.0-12.0-0.37","5f99cee5a2a7d109a1624e10","650c16f0f2faf8d7a0d14c09","651c1c26dc17185c0d747440","null","null","<p style=""font-size: 60px; font-family: BACS"">YcdOLcO</p>","","","","","","","","",""
"html-keyboard-response","208","324006","0.0-12.0-0.38","5f99cee5a2a7d109a1624e10","650c16f0f2faf8d7a0d14c09","651c1c26dc17185c0d747440","null","null","<p style=""font-size: 60px; font-family: BACS"">TklDTmTm</p>","","","","","","","","",""
"html-keyboard-response","209","325023","0.0-12.0-0.39","5f99cee5a2a7d109a1624e10","650c16f0f2faf8d7a0d14c09","651c1c26dc17185c0d747440","null","null","<p style=""font-size: 60px; font-family: BACS"">CYPcAdYl</p>","","","","","","","","",""
"html-keyboard-response","210","326025","0.0-12.0-0.40","5f99cee5a2a7d109a1624e10","650c16f0f2faf8d7a0d14c09","651c1c26dc17185c0d747440","null","null","<p style=""font-size: 60px; font-family: BACS"">bRABtBRDh</p>","","","","","","","","",""
"html-keyboard-response","211","327040","0.0-12.0-0.41","5f99cee5a2a7d109a1624e10","650c16f0f2faf8d7a0d14c09","651c1c26dc17185c0d747440","null","null","<p style=""font-size: 60px; font-family: BACS"">lGZvrULv</p>","","","","","","","","",""
"html-keyboard-response","212","328043","0.0-12.0-0.42","5f99cee5a2a7d109a1624e10","650c16f0f2faf8d7a0d14c09","651c1c26dc17185c0d747440","null","null","<p style=""font-size: 60px; font-family: BACS"">kcOYTmTm</p>","","","","","","","","",""
"html-keyboard-response","213","329058","0.0-12.0-0.43","5f99cee5a2a7d109a1624e10","650c16f0f2faf8d7a0d14c09","651c1c26dc17185c0d747440","null","null","<p style=""font-size: 60px; font-family: BACS"">LdrbvLcO</p>","","","","","","","","",""
"html-keyboard-response","214","330074","0.0-12.0-0.44","5f99cee5a2a7d109a1624e10","650c16f0f2faf8d7a0d14c09","651c1c26dc17185c0d747440","null","null","<p style=""font-size: 60px; font-family: BACS"">PCPDhAdYl</p>","","","","","","","","",""
"html-keyboard-response","215","331075","0.0-12.0-0.45","5f99cee5a2a7d109a1624e10","650c16f0f2faf8d7a0d14c09","651c1c26dc17185c0d747440","null","null","<p style=""font-size: 60px; font-family: BACS"">lGZvrGl</p>","","","","","","","","",""
"html-keyboard-response","216","332091","0.0-12.0-0.46","5f99cee5a2a7d109a1624e10","650c16f0f2faf8d7a0d14c09","651c1c26dc17185c0d747440","null","null","<p style=""font-size: 60px; font-family: BACS"">TklDBRDh</p>","","","","","","","","",""
"html-keyboard-response","217","333106","0.0-12.0-0.47","5f99cee5a2a7d109a1624e10","650c16f0f2faf8d7a0d14c09","651c1c26dc17185c0d747440","null","null","<p style=""font-size: 60px; font-family: BACS"">OQarQNmAG</p>","","","","","","","","",""
"html-keyboard-response","218","334107","0.0-12.0-0.48","5f99cee5a2a7d109a1624e10","650c16f0f2faf8d7a0d14c09","651c1c26dc17185c0d747440","null","null","<p style=""font-size: 60px; font-family: BACS"">kcdOtAdYl</p>","","","","","","","","",""
"html-keyboard-response","219","335123","0.0-12.0-0.49","5f99cee5a2a7d109a1624e10","650c16f0f2faf8d7a0d14c09","651c1c26dc17185c0d747440","null","null","<p style=""font-size: 60px; font-family: BACS"">PCPDhAlKD</p>","","","","","","","","",""
"html-keyboard-response","220","336140","0.0-12.0-0.50","5f99cee5a2a7d109a1624e10","650c16f0f2faf8d7a0d14c09","651c1c26dc17185c0d747440","null","null","<p style=""font-size: 60px; font-family: BACS"">bRABtAdYl</p>","","","","","","","","",""
"html-keyboard-response","221","337141","0.0-12.0-0.51","5f99cee5a2a7d109a1624e10","650c16f0f2faf8d7a0d14c09","651c1c26dc17185c0d747440","null","null","<p style=""font-size: 60px; font-family: BACS"">LdrbvrULv</p>","","","","","","","","",""
"html-keyboard-response","222","338158","0.0-12.0-0.52","5f99cee5a2a7d109a1624e10","650c16f0f2faf8d7a0d14c09","651c1c26dc17185c0d747440","null","null","<p style=""font-size: 60px; font-family: BACS"">cdKBYOdOP</p>","","","","","","","","",""
"html-keyboard-response","223","339159","0.0-12.0-0.53","5f99cee5a2a7d109a1624e10","650c16f0f2faf8d7a0d14c09","651c1c26dc17185c0d747440","null","null","<p style=""font-size: 60px; font-family: BACS"">OQarQrab</p>","","","","","","","","",""
"html-keyboard-response","224","340173","0.0-12.0-0.54","5f99cee5a2a7d109a1624e10","650c16f0f2faf8d7a0d14c09","651c1c26dc17185c0d747440","null","null","<p style=""font-size: 60px; font-family: BACS"">kcdOtAlKD</p>","","","","","","","","",""
"html-keyboard-response","225","341190","0.0-12.0-0.55","5f99cee5a2a7d109a1624e10","650c16f0f2faf8d7a0d14c09","651c1c26dc17185c0d747440","null","null","<p style=""font-size: 60px; font-family: BACS"">OQarQLcO</p>","","","","","","","","",""
"html-keyboard-response","226","342194","0.0-12.0-0.56","5f99cee5a2a7d109a1624e10","650c16f0f2faf8d7a0d14c09","651c1c26dc17185c0d747440","null","null","<p style=""font-size: 60px; font-family: BACS"">YcdOrab</p>","","","","","","","","",""
"html-keyboard-response","227","343210","0.0-12.0-0.57","5f99cee5a2a7d109a1624e10","650c16f0f2faf8d7a0d14c09","651c1c26dc17185c0d747440","null","null","<p style=""font-size: 60px; font-family: BACS"">aNYmbNmAG</p>","","","","","","","","",""
"html-keyboard-response","228","344226","0.0-12.0-0.58","5f99cee5a2a7d109a1624e10","650c16f0f2faf8d7a0d14c09","651c1c26dc17185c0d747440","null","null","<p style=""font-size: 60px; font-family: BACS"">dRbDbAlKD</p>","","","","","","","","",""
"html-keyboard-response","229","345242","0.0-12.0-0.59","5f99cee5a2a7d109a1624e10","650c16f0f2faf8d7a0d14c09","651c1c26dc17185c0d747440","null","null","<p style=""font-size: 60px; font-family: BACS"">bRABtTmTm</p>","","","","","","","","",""
"html-keyboard-response","230","346258","0.0-12.0-0.60","5f99cee5a2a7d109a1624e10","650c16f0f2faf8d7a0d14c09","651c1c26dc17185c0d747440","null","null","<p style=""font-size: 60px; font-family: BACS"">mUOcOLcO</p>","","","","","","","","",""
"html-keyboard-response","231","347273","0.0-12.0-0.61","5f99cee5a2a7d109a1624e10","650c16f0f2faf8d7a0d14c09","651c1c26dc17185c0d747440","null","null","<p style=""font-size: 60px; font-family: BACS"">QcladNmAG</p>","","","","","","","","",""
"html-keyboard-response","232","348275","0.0-12.0-0.62","5f99cee5a2a7d109a1624e10","650c16f0f2faf8d7a0d14c09","651c1c26dc17185c0d747440","null","null","<p style=""font-size: 60px; font-family: BACS"">YcdOrULv</p>","","","","","","","","",""
"html-keyboard-response","233","349277","0.0-12.0-0.63","5f99cee5a2a7d109a1624e10","650c16f0f2faf8d7a0d14c09","651c1c26dc17185c0d747440","null","null","<p style=""font-size: 60px; font-family: BACS"">lGZvLcO</p>","","","","","","","","",""
"html-keyboard-response","234","350292","0.0-12.0-0.64","5f99cee5a2a7d109a1624e10","650c16f0f2faf8d7a0d14c09","651c1c26dc17185c0d747440","null","null","<p style=""font-size: 60px; font-family: BACS"">dRbDbOdOP</p>","","","","","","","","",""
"html-keyboard-response","235","351293","0.0-12.0-0.65","5f99cee5a2a7d109a1624e10","650c16f0f2faf8d7a0d14c09","651c1c26dc17185c0d747440","null","null","<p style=""font-size: 60px; font-family: BACS"">mUOcOrULv</p>","","","","","","","","",""
"html-keyboard-response","236","352309","0.0-12.0-0.66","5f99cee5a2a7d109a1624e10","650c16f0f2faf8d7a0d14c09","651c1c26dc17185c0d747440","null","null","<p style=""font-size: 60px; font-family: BACS"">dRbDbBRDh</p>","","","","","","","","",""
"html-keyboard-response","237","353325","0.0-12.0-0.67","5f99cee5a2a7d109a1624e10","650c16f0f2faf8d7a0d14c09","651c1c26dc17185c0d747440","null","null","<p style=""font-size: 60px; font-family: BACS"">PCPDhTmTm</p>","","","","","","","","",""
"html-keyboard-response","238","354341","0.0-12.0-0.68","5f99cee5a2a7d109a1624e10","650c16f0f2faf8d7a0d14c09","651c1c26dc17185c0d747440","null","null","<p style=""font-size: 60px; font-family: BACS"">NaJbNmAG</p>","","","","","","","","",""
"html-keyboard-response","239","355359","0.0-12.0-0.69","5f99cee5a2a7d109a1624e10","650c16f0f2faf8d7a0d14c09","651c1c26dc17185c0d747440","null","null","<p style=""font-size: 60px; font-family: BACS"">aNYmbLcO</p>","","","","","","","","",""
"html-keyboard-response","240","356375","0.0-12.0-0.70","5f99cee5a2a7d109a1624e10","650c16f0f2faf8d7a0d14c09","651c1c26dc17185c0d747440","null","null","<p style=""font-size: 60px; font-family: BACS"">kcdOtBRDh</p>","","","","","","","","",""
"html-keyboard-response","241","357377","0.0-12.0-0.71","5f99cee5a2a7d109a1624e10","650c16f0f2faf8d7a0d14c09","651c1c26dc17185c0d747440","null","null","<p style=""font-size: 60px; font-family: BACS"">NaJbrab</p>","","","","","","","","",""
"html-keyboard-response","242","358393","0.0-12.0-0.72","5f99cee5a2a7d109a1624e10","650c16f0f2faf8d7a0d14c09","651c1c26dc17185c0d747440","null","null","<p style=""font-size: 60px; font-family: BACS"">BbODTmTm</p>","","","","","","","","",""
"html-keyboard-response","243","359395","0.0-12.0-0.73","5f99cee5a2a7d109a1624e10","650c16f0f2faf8d7a0d14c09","651c1c26dc17185c0d747440","null","null","<p style=""font-size: 60px; font-family: BACS"">YcdONmAG</p>","","","","","","","","",""
"html-keyboard-response","244","360410","0.0-12.0-0.74","5f99cee5a2a7d109a1624e10","650c16f0f2faf8d7a0d14c09","651c1c26dc17185c0d747440","null","null","<p style=""font-size: 60px; font-family: BACS"">kcOYAlKD</p>","","","","","","","","",""
"html-keyboard-response","245","361427","0.0-12.0-0.75","5f99cee5a2a7d109a1624e10","650c16f0f2faf8d7a0d14c09","651c1c26dc17185c0d747440","null","null","<p style=""font-size: 60px; font-family: BACS"">YNrAmNmAG</p>","","","","","","","","",""
"html-keyboard-response","246","362443","0.0-12.0-0.76","5f99cee5a2a7d109a1624e10","650c16f0f2faf8d7a0d14c09","651c1c26dc17185c0d747440","null","null","<p style=""font-size: 60px; font-family: BACS"">dvNvArab</p>","","","","","","","","",""
"html-keyboard-response","247","363459","0.0-12.0-0.77","5f99cee5a2a7d109a1624e10","650c16f0f2faf8d7a0d14c09","651c1c26dc17185c0d747440","null","null","<p style=""font-size: 60px; font-family: BACS"">lGZvNmAG</p>","","","","","","","","",""
"html-keyboard-response","248","364475","0.0-12.0-0.78","5f99cee5a2a7d109a1624e10","650c16f0f2faf8d7a0d14c09","651c1c26dc17185c0d747440","null","null","<p style=""font-size: 60px; font-family: BACS"">Ldrbvrab</p>","","","","","","","","",""
"html-keyboard-response","249","365476","0.0-12.0-0.79","5f99cee5a2a7d109a1624e10","650c16f0f2faf8d7a0d14c09","651c1c26dc17185c0d747440","null","null","<p style=""font-size: 60px; font-family: BACS"">PCPDhOdOP</p>","","","","","","","","",""
"html-keyboard-response","250","367480","0.0-13.0","5f99cee5a2a7d109a1624e10","650c16f0f2faf8d7a0d14c09","651c1c26dc17185c0d747440","2003"," ","<p>Great, you've seen the third block of words. You may now take a short break.</p>
      <p>Press the spacebar when you're ready to continue.</p>","","","","","","","","",""
"html-keyboard-response","251","368493","0.0-14.0-0.0","5f99cee5a2a7d109a1624e10","650c16f0f2faf8d7a0d14c09","651c1c26dc17185c0d747440","null","null","<p style=""font-size: 60px; font-family: BACS"">ECtbDAlKD</p>","","","","","","","","",""
"html-keyboard-response","252","369509","0.0-14.0-0.1","5f99cee5a2a7d109a1624e10","650c16f0f2faf8d7a0d14c09","651c1c26dc17185c0d747440","null","null","<p style=""font-size: 60px; font-family: BACS"">TklDOdOP</p>","","","","","","","","",""
"html-keyboard-response","253","370511","0.0-14.0-0.2","5f99cee5a2a7d109a1624e10","650c16f0f2faf8d7a0d14c09","651c1c26dc17185c0d747440","null","null","<p style=""font-size: 60px; font-family: BACS"">PCPDhAlKD</p>","","","","","","","","",""
"html-keyboard-response","254","371526","0.0-14.0-0.3","5f99cee5a2a7d109a1624e10","650c16f0f2faf8d7a0d14c09","651c1c26dc17185c0d747440","null","null","<p style=""font-size: 60px; font-family: BACS"">BbODTmTm</p>","","","","","","","","",""
"html-keyboard-response","255","372543","0.0-14.0-0.4","5f99cee5a2a7d109a1624e10","650c16f0f2faf8d7a0d14c09","651c1c26dc17185c0d747440","null","null","<p style=""font-size: 60px; font-family: BACS"">NaJbrGl</p>","","","","","","","","",""
"html-keyboard-response","256","373559","0.0-14.0-0.5","5f99cee5a2a7d109a1624e10","650c16f0f2faf8d7a0d14c09","651c1c26dc17185c0d747440","null","null","<p style=""font-size: 60px; font-family: BACS"">PCPDhAdYl</p>","","","","","","","","",""
"html-keyboard-response","257","374562","0.0-14.0-0.6","5f99cee5a2a7d109a1624e10","650c16f0f2faf8d7a0d14c09","651c1c26dc17185c0d747440","null","null","<p style=""font-size: 60px; font-family: BACS"">NaJbrab</p>","","","","","","","","",""
"html-keyboard-response","258","375578","0.0-14.0-0.7","5f99cee5a2a7d109a1624e10","650c16f0f2faf8d7a0d14c09","651c1c26dc17185c0d747440","null","null","<p style=""font-size: 60px; font-family: BACS"">YNrAmLcO</p>","","","","","","","","",""
"html-keyboard-response","259","376579","0.0-14.0-0.8","5f99cee5a2a7d109a1624e10","650c16f0f2faf8d7a0d14c09","651c1c26dc17185c0d747440","null","null","<p style=""font-size: 60px; font-family: BACS"">YcdOrab</p>","","","","","","","","",""
"html-keyboard-response","260","377595","0.0-14.0-0.9","5f99cee5a2a7d109a1624e10","650c16f0f2faf8d7a0d14c09","651c1c26dc17185c0d747440","null","null","<p style=""font-size: 60px; font-family: BACS"">BbODAdYl</p>","","","","","","","","",""
"html-keyboard-response","261","378610","0.0-14.0-0.10","5f99cee5a2a7d109a1624e10","650c16f0f2faf8d7a0d14c09","651c1c26dc17185c0d747440","null","null","<p style=""font-size: 60px; font-family: BACS"">LdrbvrULv</p>","","","","","","","","",""
"html-keyboard-response","262","379612","0.0-14.0-0.11","5f99cee5a2a7d109a1624e10","650c16f0f2faf8d7a0d14c09","651c1c26dc17185c0d747440","null","null","<p style=""font-size: 60px; font-family: BACS"">dvNvArGl</p>","","","","","","","","",""
"html-keyboard-response","263","380627","0.0-14.0-0.12","5f99cee5a2a7d109a1624e10","650c16f0f2faf8d7a0d14c09","651c1c26dc17185c0d747440","null","null","<p style=""font-size: 60px; font-family: BACS"">ECtbDAdYl</p>","","","","","","","","",""
"html-keyboard-response","264","381651","0.0-14.0-0.13","5f99cee5a2a7d109a1624e10","650c16f0f2faf8d7a0d14c09","651c1c26dc17185c0d747440","null","null","<p style=""font-size: 60px; font-family: BACS"">kcdOtTmTm</p>","","","","","","","","",""
"html-keyboard-response","265","382664","0.0-14.0-0.14","5f99cee5a2a7d109a1624e10","650c16f0f2faf8d7a0d14c09","651c1c26dc17185c0d747440","null","null","<p style=""font-size: 60px; font-family: BACS"">BbODOdOP</p>","","","","","","","","",""
"html-keyboard-response","266","383684","0.0-14.0-0.15","5f99cee5a2a7d109a1624e10","650c16f0f2faf8d7a0d14c09","651c1c26dc17185c0d747440","null","null","<p style=""font-size: 60px; font-family: BACS"">aNYmbNmAG</p>","","","","","","","","",""
"html-keyboard-response","267","384703","0.0-14.0-0.16","5f99cee5a2a7d109a1624e10","650c16f0f2faf8d7a0d14c09","651c1c26dc17185c0d747440","null","null","<p style=""font-size: 60px; font-family: BACS"">mUOcOrGl</p>","","","","","","","","",""
"html-keyboard-response","268","385728","0.0-14.0-0.17","5f99cee5a2a7d109a1624e10","650c16f0f2faf8d7a0d14c09","651c1c26dc17185c0d747440","null","null","<p style=""font-size: 60px; font-family: BACS"">YcdOrULv</p>","","","","","","","","",""
"html-keyboard-response","269","386746","0.0-14.0-0.18","5f99cee5a2a7d109a1624e10","650c16f0f2faf8d7a0d14c09","651c1c26dc17185c0d747440","null","null","<p style=""font-size: 60px; font-family: BACS"">cdKBYTmTm</p>","","","","","","","","",""
"html-keyboard-response","270","387766","0.0-14.0-0.19","5f99cee5a2a7d109a1624e10","650c16f0f2faf8d7a0d14c09","651c1c26dc17185c0d747440","null","null","<p style=""font-size: 60px; font-family: BACS"">TklDBRDh</p>","","","","","","","","",""
"html-keyboard-response","271","388790","0.0-14.0-0.20","5f99cee5a2a7d109a1624e10","650c16f0f2faf8d7a0d14c09","651c1c26dc17185c0d747440","null","null","<p style=""font-size: 60px; font-family: BACS"">bRABtAlKD</p>","","","","","","","","",""
"html-keyboard-response","272","389806","0.0-14.0-0.21","5f99cee5a2a7d109a1624e10","650c16f0f2faf8d7a0d14c09","651c1c26dc17185c0d747440","null","null","<p style=""font-size: 60px; font-family: BACS"">kcdOtAdYl</p>","","","","","","","","",""
"html-keyboard-response","273","390833","0.0-14.0-0.22","5f99cee5a2a7d109a1624e10","650c16f0f2faf8d7a0d14c09","651c1c26dc17185c0d747440","null","null","<p style=""font-size: 60px; font-family: BACS"">OQarQNmAG</p>","","","","","","","","",""
"html-keyboard-response","274","391848","0.0-14.0-0.23","5f99cee5a2a7d109a1624e10","650c16f0f2faf8d7a0d14c09","651c1c26dc17185c0d747440","null","null","<p style=""font-size: 60px; font-family: BACS"">lGZvrGl</p>","","","","","","","","",""
"html-keyboard-response","275","392866","0.0-14.0-0.24","5f99cee5a2a7d109a1624e10","650c16f0f2faf8d7a0d14c09","651c1c26dc17185c0d747440","null","null","<p style=""font-size: 60px; font-family: BACS"">kcOYTmTm</p>","","","","","","","","",""
"html-keyboard-response","276","393895","0.0-14.0-0.25","5f99cee5a2a7d109a1624e10","650c16f0f2faf8d7a0d14c09","651c1c26dc17185c0d747440","null","null","<p style=""font-size: 60px; font-family: BACS"">ECtbDBRDh</p>","","","","","","","","",""
"html-keyboard-response","277","394917","0.0-14.0-0.26","5f99cee5a2a7d109a1624e10","650c16f0f2faf8d7a0d14c09","651c1c26dc17185c0d747440","null","null","<p style=""font-size: 60px; font-family: BACS"">BbODAlKD</p>","","","","","","","","",""
"html-keyboard-response","278","395933","0.0-14.0-0.27","5f99cee5a2a7d109a1624e10","650c16f0f2faf8d7a0d14c09","651c1c26dc17185c0d747440","null","null","<p style=""font-size: 60px; font-family: BACS"">dRbDbTmTm</p>","","","","","","","","",""
"html-keyboard-response","279","396955","0.0-14.0-0.28","5f99cee5a2a7d109a1624e10","650c16f0f2faf8d7a0d14c09","651c1c26dc17185c0d747440","null","null","<p style=""font-size: 60px; font-family: BACS"">OQarQLcO</p>","","","","","","","","",""
"html-keyboard-response","280","397961","0.0-14.0-0.29","5f99cee5a2a7d109a1624e10","650c16f0f2faf8d7a0d14c09","651c1c26dc17185c0d747440","null","null","<p style=""font-size: 60px; font-family: BACS"">kcdOtBRDh</p>","","","","","","","","",""
"html-keyboard-response","281","398995","0.0-14.0-0.30","5f99cee5a2a7d109a1624e10","650c16f0f2faf8d7a0d14c09","651c1c26dc17185c0d747440","null","null","<p style=""font-size: 60px; font-family: BACS"">Qcladrab</p>","","","","","","","","",""
"html-keyboard-response","282","400012","0.0-14.0-0.31","5f99cee5a2a7d109a1624e10","650c16f0f2faf8d7a0d14c09","651c1c26dc17185c0d747440","null","null","<p style=""font-size: 60px; font-family: BACS"">TklDTmTm</p>","","","","","","","","",""
"html-keyboard-response","283","401021","0.0-14.0-0.32","5f99cee5a2a7d109a1624e10","650c16f0f2faf8d7a0d14c09","651c1c26dc17185c0d747440","null","null","<p style=""font-size: 60px; font-family: BACS"">CYPcBRDh</p>","","","","","","","","",""
"html-keyboard-response","284","402053","0.0-14.0-0.33","5f99cee5a2a7d109a1624e10","650c16f0f2faf8d7a0d14c09","651c1c26dc17185c0d747440","null","null","<p style=""font-size: 60px; font-family: BACS"">PCPDhTmTm</p>","","","","","","","","",""
"html-keyboard-response","285","403069","0.0-14.0-0.34","5f99cee5a2a7d109a1624e10","650c16f0f2faf8d7a0d14c09","651c1c26dc17185c0d747440","null","null","<p style=""font-size: 60px; font-family: BACS"">YcdOLcO</p>","","","","","","","","",""
"html-keyboard-response","286","404095","0.0-14.0-0.35","5f99cee5a2a7d109a1624e10","650c16f0f2faf8d7a0d14c09","651c1c26dc17185c0d747440","null","null","<p style=""font-size: 60px; font-family: BACS"">cdKBYAdYl</p>","","","","","","","","",""
"html-keyboard-response","287","405113","0.0-14.0-0.36","5f99cee5a2a7d109a1624e10","650c16f0f2faf8d7a0d14c09","651c1c26dc17185c0d747440","null","null","<p style=""font-size: 60px; font-family: BACS"">YNrAmNmAG</p>","","","","","","","","",""
"html-keyboard-response","288","406130","0.0-14.0-0.37","5f99cee5a2a7d109a1624e10","650c16f0f2faf8d7a0d14c09","651c1c26dc17185c0d747440","null","null","<p style=""font-size: 60px; font-family: BACS"">lGZvLcO</p>","","","","","","","","",""
"html-keyboard-response","289","407146","0.0-14.0-0.38","5f99cee5a2a7d109a1624e10","650c16f0f2faf8d7a0d14c09","651c1c26dc17185c0d747440","null","null","<p style=""font-size: 60px; font-family: BACS"">dRbDbAlKD</p>","","","","","","","","",""
"html-keyboard-response","290","408162","0.0-14.0-0.39","5f99cee5a2a7d109a1624e10","650c16f0f2faf8d7a0d14c09","651c1c26dc17185c0d747440","null","null","<p style=""font-size: 60px; font-family: BACS"">dvNvArULv</p>","","","","","","","","",""
"html-keyboard-response","291","409180","0.0-14.0-0.40","5f99cee5a2a7d109a1624e10","650c16f0f2faf8d7a0d14c09","651c1c26dc17185c0d747440","null","null","<p style=""font-size: 60px; font-family: BACS"">dRbDbOdOP</p>","","","","","","","","",""
"html-keyboard-response","292","410181","0.0-14.0-0.41","5f99cee5a2a7d109a1624e10","650c16f0f2faf8d7a0d14c09","651c1c26dc17185c0d747440","null","null","<p style=""font-size: 60px; font-family: BACS"">LdrbvNmAG</p>","","","","","","","","",""
"html-keyboard-response","293","411198","0.0-14.0-0.42","5f99cee5a2a7d109a1624e10","650c16f0f2faf8d7a0d14c09","651c1c26dc17185c0d747440","null","null","<p style=""font-size: 60px; font-family: BACS"">aNYmbrGl</p>","","","","","","","","",""
"html-keyboard-response","294","412213","0.0-14.0-0.43","5f99cee5a2a7d109a1624e10","650c16f0f2faf8d7a0d14c09","651c1c26dc17185c0d747440","null","null","<p style=""font-size: 60px; font-family: BACS"">lGZvrULv</p>","","","","","","","","",""
"html-keyboard-response","295","413215","0.0-14.0-0.44","5f99cee5a2a7d109a1624e10","650c16f0f2faf8d7a0d14c09","651c1c26dc17185c0d747440","null","null","<p style=""font-size: 60px; font-family: BACS"">YcdONmAG</p>","","","","","","","","",""
"html-keyboard-response","296","414216","0.0-14.0-0.45","5f99cee5a2a7d109a1624e10","650c16f0f2faf8d7a0d14c09","651c1c26dc17185c0d747440","null","null","<p style=""font-size: 60px; font-family: BACS"">mUOcOLcO</p>","","","","","","","","",""
"html-keyboard-response","297","415230","0.0-14.0-0.46","5f99cee5a2a7d109a1624e10","650c16f0f2faf8d7a0d14c09","651c1c26dc17185c0d747440","null","null","<p style=""font-size: 60px; font-family: BACS"">Ldrbvrab</p>","","","","","","","","",""
"html-keyboard-response","298","416232","0.0-14.0-0.47","5f99cee5a2a7d109a1624e10","650c16f0f2faf8d7a0d14c09","651c1c26dc17185c0d747440","null","null","<p style=""font-size: 60px; font-family: BACS"">OQarQrGl</p>","","","","","","","","",""
"html-keyboard-response","299","417247","0.0-14.0-0.48","5f99cee5a2a7d109a1624e10","650c16f0f2faf8d7a0d14c09","651c1c26dc17185c0d747440","null","null","<p style=""font-size: 60px; font-family: BACS"">kcdOtAlKD</p>","","","","","","","","",""
"html-keyboard-response","300","418262","0.0-14.0-0.49","5f99cee5a2a7d109a1624e10","650c16f0f2faf8d7a0d14c09","651c1c26dc17185c0d747440","null","null","<p style=""font-size: 60px; font-family: BACS"">YNrAmrULv</p>","","","","","","","","",""
"html-keyboard-response","301","419265","0.0-14.0-0.50","5f99cee5a2a7d109a1624e10","650c16f0f2faf8d7a0d14c09","651c1c26dc17185c0d747440","null","null","<p style=""font-size: 60px; font-family: BACS"">dvNvArab</p>","","","","","","","","",""
"html-keyboard-response","302","420280","0.0-14.0-0.51","5f99cee5a2a7d109a1624e10","650c16f0f2faf8d7a0d14c09","651c1c26dc17185c0d747440","null","null","<p style=""font-size: 60px; font-family: BACS"">CYPcAdYl</p>","","","","","","","","",""
"html-keyboard-response","303","421296","0.0-14.0-0.52","5f99cee5a2a7d109a1624e10","650c16f0f2faf8d7a0d14c09","651c1c26dc17185c0d747440","null","null","<p style=""font-size: 60px; font-family: BACS"">mUOcOrab</p>","","","","","","","","",""
"html-keyboard-response","304","422312","0.0-14.0-0.53","5f99cee5a2a7d109a1624e10","650c16f0f2faf8d7a0d14c09","651c1c26dc17185c0d747440","null","null","<p style=""font-size: 60px; font-family: BACS"">aNYmbLcO</p>","","","","","","","","",""
"html-keyboard-response","305","423313","0.0-14.0-0.54","5f99cee5a2a7d109a1624e10","650c16f0f2faf8d7a0d14c09","651c1c26dc17185c0d747440","null","null","<p style=""font-size: 60px; font-family: BACS"">YNrAmrGl</p>","","","","","","","","",""
"html-keyboard-response","306","424329","0.0-14.0-0.55","5f99cee5a2a7d109a1624e10","650c16f0f2faf8d7a0d14c09","651c1c26dc17185c0d747440","null","null","<p style=""font-size: 60px; font-family: BACS"">QcladrULv</p>","","","","","","","","",""
"html-keyboard-response","307","425347","0.0-14.0-0.56","5f99cee5a2a7d109a1624e10","650c16f0f2faf8d7a0d14c09","651c1c26dc17185c0d747440","null","null","<p style=""font-size: 60px; font-family: BACS"">NaJbNmAG</p>","","","","","","","","",""
"html-keyboard-response","308","426349","0.0-14.0-0.57","5f99cee5a2a7d109a1624e10","650c16f0f2faf8d7a0d14c09","651c1c26dc17185c0d747440","null","null","<p style=""font-size: 60px; font-family: BACS"">QcladrGl</p>","","","","","","","","",""
"html-keyboard-response","309","427363","0.0-14.0-0.58","5f99cee5a2a7d109a1624e10","650c16f0f2faf8d7a0d14c09","651c1c26dc17185c0d747440","null","null","<p style=""font-size: 60px; font-family: BACS"">aNYmbrab</p>","","","","","","","","",""
"html-keyboard-response","310","428379","0.0-14.0-0.59","5f99cee5a2a7d109a1624e10","650c16f0f2faf8d7a0d14c09","651c1c26dc17185c0d747440","null","null","<p style=""font-size: 60px; font-family: BACS"">kcOYOdOP</p>","","","","","","","","",""
"html-keyboard-response","311","429382","0.0-14.0-0.60","5f99cee5a2a7d109a1624e10","650c16f0f2faf8d7a0d14c09","651c1c26dc17185c0d747440","null","null","<p style=""font-size: 60px; font-family: BACS"">bRABtBRDh</p>","","","","","","","","",""
"html-keyboard-response","312","430398","0.0-14.0-0.61","5f99cee5a2a7d109a1624e10","650c16f0f2faf8d7a0d14c09","651c1c26dc17185c0d747440","null","null","<p style=""font-size: 60px; font-family: BACS"">mUOcOrULv</p>","","","","","","","","",""
"html-keyboard-response","313","431412","0.0-14.0-0.62","5f99cee5a2a7d109a1624e10","650c16f0f2faf8d7a0d14c09","651c1c26dc17185c0d747440","null","null","<p style=""font-size: 60px; font-family: BACS"">dRbDbBRDh</p>","","","","","","","","",""
"html-keyboard-response","314","432415","0.0-14.0-0.63","5f99cee5a2a7d109a1624e10","650c16f0f2faf8d7a0d14c09","651c1c26dc17185c0d747440","null","null","<p style=""font-size: 60px; font-family: BACS"">CYPcAlKD</p>","","","","","","","","",""
"html-keyboard-response","315","433431","0.0-14.0-0.64","5f99cee5a2a7d109a1624e10","650c16f0f2faf8d7a0d14c09","651c1c26dc17185c0d747440","null","null","<p style=""font-size: 60px; font-family: BACS"">dvNvALcO</p>","","","","","","","","",""
"html-keyboard-response","316","434447","0.0-14.0-0.65","5f99cee5a2a7d109a1624e10","650c16f0f2faf8d7a0d14c09","651c1c26dc17185c0d747440","null","null","<p style=""font-size: 60px; font-family: BACS"">cdKBYBRDh</p>","","","","","","","","",""
"html-keyboard-response","317","435463","0.0-14.0-0.66","5f99cee5a2a7d109a1624e10","650c16f0f2faf8d7a0d14c09","651c1c26dc17185c0d747440","null","null","<p style=""font-size: 60px; font-family: BACS"">NaJbrULv</p>","","","","","","","","",""
"html-keyboard-response","318","436465","0.0-14.0-0.67","5f99cee5a2a7d109a1624e10","650c16f0f2faf8d7a0d14c09","651c1c26dc17185c0d747440","null","null","<p style=""font-size: 60px; font-family: BACS"">LdrbvLcO</p>","","","","","","","","",""
"html-keyboard-response","319","437479","0.0-14.0-0.68","5f99cee5a2a7d109a1624e10","650c16f0f2faf8d7a0d14c09","651c1c26dc17185c0d747440","null","null","<p style=""font-size: 60px; font-family: BACS"">QcladNmAG</p>","","","","","","","","",""
"html-keyboard-response","320","438481","0.0-14.0-0.69","5f99cee5a2a7d109a1624e10","650c16f0f2faf8d7a0d14c09","651c1c26dc17185c0d747440","null","null","<p style=""font-size: 60px; font-family: BACS"">bRABtAdYl</p>","","","","","","","","",""
"html-keyboard-response","321","439496","0.0-14.0-0.70","5f99cee5a2a7d109a1624e10","650c16f0f2faf8d7a0d14c09","651c1c26dc17185c0d747440","null","null","<p style=""font-size: 60px; font-family: BACS"">ECtbDOdOP</p>","","","","","","","","",""
"html-keyboard-response","322","440498","0.0-14.0-0.71","5f99cee5a2a7d109a1624e10","650c16f0f2faf8d7a0d14c09","651c1c26dc17185c0d747440","null","null","<p style=""font-size: 60px; font-family: BACS"">kcOYAlKD</p>","","","","","","","","",""
"html-keyboard-response","323","441515","0.0-14.0-0.72","5f99cee5a2a7d109a1624e10","650c16f0f2faf8d7a0d14c09","651c1c26dc17185c0d747440","null","null","<p style=""font-size: 60px; font-family: BACS"">PCPDhOdOP</p>","","","","","","","","",""
"html-keyboard-response","324","442517","0.0-14.0-0.73","5f99cee5a2a7d109a1624e10","650c16f0f2faf8d7a0d14c09","651c1c26dc17185c0d747440","null","null","<p style=""font-size: 60px; font-family: BACS"">kcOYBRDh</p>","","","","","","","","",""
"html-keyboard-response","325","443532","0.0-14.0-0.74","5f99cee5a2a7d109a1624e10","650c16f0f2faf8d7a0d14c09","651c1c26dc17185c0d747440","null","null","<p style=""font-size: 60px; font-family: BACS"">lGZvNmAG</p>","","","","","","","","",""
"html-keyboard-response","326","444548","0.0-14.0-0.75","5f99cee5a2a7d109a1624e10","650c16f0f2faf8d7a0d14c09","651c1c26dc17185c0d747440","null","null","<p style=""font-size: 60px; font-family: BACS"">TklDAdYl</p>","","","","","","","","",""
"html-keyboard-response","327","445564","0.0-14.0-0.76","5f99cee5a2a7d109a1624e10","650c16f0f2faf8d7a0d14c09","651c1c26dc17185c0d747440","null","null","<p style=""font-size: 60px; font-family: BACS"">cdKBYOdOP</p>","","","","","","","","",""
"html-keyboard-response","328","446565","0.0-14.0-0.77","5f99cee5a2a7d109a1624e10","650c16f0f2faf8d7a0d14c09","651c1c26dc17185c0d747440","null","null","<p style=""font-size: 60px; font-family: BACS"">OQarQrab</p>","","","","","","","","",""
"html-keyboard-response","329","447581","0.0-14.0-0.78","5f99cee5a2a7d109a1624e10","650c16f0f2faf8d7a0d14c09","651c1c26dc17185c0d747440","null","null","<p style=""font-size: 60px; font-family: BACS"">bRABtTmTm</p>","","","","","","","","",""
"html-keyboard-response","330","448598","0.0-14.0-0.79","5f99cee5a2a7d109a1624e10","650c16f0f2faf8d7a0d14c09","651c1c26dc17185c0d747440","null","null","<p style=""font-size: 60px; font-family: BACS"">CYPcOdOP</p>","","","","","","","","",""
"html-keyboard-response","331","450330","0.0-15.0","5f99cee5a2a7d109a1624e10","650c16f0f2faf8d7a0d14c09","651c1c26dc17185c0d747440","1731"," ","<p>Great, you've seen the fourth block of words. You may now take a short break.</p>
      <p>Press the spacebar when you're ready to continue.</p>","","","","","","","","",""
"html-keyboard-response","332","451332","0.0-16.0-0.0","5f99cee5a2a7d109a1624e10","650c16f0f2faf8d7a0d14c09","651c1c26dc17185c0d747440","null","null","<p style=""font-size: 60px; font-family: BACS"">bRABtAlKD</p>","","","","","","","","",""
"html-keyboard-response","333","452333","0.0-16.0-0.1","5f99cee5a2a7d109a1624e10","650c16f0f2faf8d7a0d14c09","651c1c26dc17185c0d747440","null","null","<p style=""font-size: 60px; font-family: BACS"">bRABtAlKD</p>","","","","","","","","",""
"html-keyboard-response","334","453348","0.0-16.0-0.2","5f99cee5a2a7d109a1624e10","650c16f0f2faf8d7a0d14c09","651c1c26dc17185c0d747440","null","null","<p style=""font-size: 60px; font-family: BACS"">bRABtAlKD</p>","","","","","","","","",""
"html-keyboard-response","335","454349","0.0-16.0-0.3","5f99cee5a2a7d109a1624e10","650c16f0f2faf8d7a0d14c09","651c1c26dc17185c0d747440","null","null","<p style=""font-size: 60px; font-family: BACS"">bRABtAlKD</p>","","","","","","","","",""
"html-keyboard-response","336","455366","0.0-16.0-0.4","5f99cee5a2a7d109a1624e10","650c16f0f2faf8d7a0d14c09","651c1c26dc17185c0d747440","null","null","<p style=""font-size: 60px; font-family: BACS"">bRABtAlKD</p>","","","","","","","","",""
"html-keyboard-response","337","456381","0.0-16.0-0.5","5f99cee5a2a7d109a1624e10","650c16f0f2faf8d7a0d14c09","651c1c26dc17185c0d747440","null","null","<p style=""font-size: 60px; font-family: BACS"">bRABtAlKD</p>","","","","","","","","",""
"html-keyboard-response","338","457398","0.0-16.0-0.6","5f99cee5a2a7d109a1624e10","650c16f0f2faf8d7a0d14c09","651c1c26dc17185c0d747440","null","null","<p style=""font-size: 60px; font-family: BACS"">bRABtAlKD</p>","","","","","","","","",""
"html-keyboard-response","339","458402","0.0-16.0-0.7","5f99cee5a2a7d109a1624e10","650c16f0f2faf8d7a0d14c09","651c1c26dc17185c0d747440","null","null","<p style=""font-size: 60px; font-family: BACS"">bRABtAlKD</p>","","","","","","","","",""
"html-keyboard-response","340","459418","0.0-16.0-0.8","5f99cee5a2a7d109a1624e10","650c16f0f2faf8d7a0d14c09","651c1c26dc17185c0d747440","null","null","<p style=""font-size: 60px; font-family: BACS"">bRABtAlKD</p>","","","","","","","","",""
"html-keyboard-response","341","460434","0.0-16.0-0.9","5f99cee5a2a7d109a1624e10","650c16f0f2faf8d7a0d14c09","651c1c26dc17185c0d747440","null","null","<p style=""font-size: 60px; font-family: BACS"">bRABtAlKD</p>","","","","","","","","",""
"html-keyboard-response","342","461450","0.0-16.0-0.10","5f99cee5a2a7d109a1624e10","650c16f0f2faf8d7a0d14c09","651c1c26dc17185c0d747440","null","null","<p style=""font-size: 60px; font-family: BACS"">bRABtAlKD</p>","","","","","","","","",""
"html-keyboard-response","343","462452","0.0-16.0-0.11","5f99cee5a2a7d109a1624e10","650c16f0f2faf8d7a0d14c09","651c1c26dc17185c0d747440","null","null","<p style=""font-size: 60px; font-family: BACS"">bRABtAlKD</p>","","","","","","","","",""
"html-keyboard-response","344","463466","0.0-16.0-0.12","5f99cee5a2a7d109a1624e10","650c16f0f2faf8d7a0d14c09","651c1c26dc17185c0d747440","null","null","<p style=""font-size: 60px; font-family: BACS"">bRABtAlKD</p>","","","","","","","","",""
"html-keyboard-response","345","464468","0.0-16.0-0.13","5f99cee5a2a7d109a1624e10","650c16f0f2faf8d7a0d14c09","651c1c26dc17185c0d747440","null","null","<p style=""font-size: 60px; font-family: BACS"">bRABtAlKD</p>","","","","","","","","",""
"html-keyboard-response","346","465484","0.0-16.0-0.14","5f99cee5a2a7d109a1624e10","650c16f0f2faf8d7a0d14c09","651c1c26dc17185c0d747440","null","null","<p style=""font-size: 60px; font-family: BACS"">bRABtAlKD</p>","","","","","","","","",""
"html-keyboard-response","347","466499","0.0-16.0-0.15","5f99cee5a2a7d109a1624e10","650c16f0f2faf8d7a0d14c09","651c1c26dc17185c0d747440","null","null","<p style=""font-size: 60px; font-family: BACS"">bRABtAlKD</p>","","","","","","","","",""
"html-keyboard-response","348","467500","0.0-16.0-0.16","5f99cee5a2a7d109a1624e10","650c16f0f2faf8d7a0d14c09","651c1c26dc17185c0d747440","null","null","<p style=""font-size: 60px; font-family: BACS"">bRABtAlKD</p>","","","","","","","","",""
"html-keyboard-response","349","468516","0.0-16.0-0.17","5f99cee5a2a7d109a1624e10","650c16f0f2faf8d7a0d14c09","651c1c26dc17185c0d747440","null","null","<p style=""font-size: 60px; font-family: BACS"">bRABtAlKD</p>","","","","","","","","",""
"html-keyboard-response","350","469518","0.0-16.0-0.18","5f99cee5a2a7d109a1624e10","650c16f0f2faf8d7a0d14c09","651c1c26dc17185c0d747440","null","null","<p style=""font-size: 60px; font-family: BACS"">bRABtAlKD</p>","","","","","","","","",""
"html-keyboard-response","351","470533","0.0-16.0-0.19","5f99cee5a2a7d109a1624e10","650c16f0f2faf8d7a0d14c09","651c1c26dc17185c0d747440","null","null","<p style=""font-size: 60px; font-family: BACS"">bRABtAlKD</p>","","","","","","","","",""
"html-keyboard-response","352","471549","0.0-16.0-0.20","5f99cee5a2a7d109a1624e10","650c16f0f2faf8d7a0d14c09","651c1c26dc17185c0d747440","null","null","<p style=""font-size: 60px; font-family: BACS"">bRABtAlKD</p>","","","","","","","","",""
"html-keyboard-response","353","472551","0.0-16.0-0.21","5f99cee5a2a7d109a1624e10","650c16f0f2faf8d7a0d14c09","651c1c26dc17185c0d747440","null","null","<p style=""font-size: 60px; font-family: BACS"">bRABtAlKD</p>","","","","","","","","",""
"html-keyboard-response","354","473567","0.0-16.0-0.22","5f99cee5a2a7d109a1624e10","650c16f0f2faf8d7a0d14c09","651c1c26dc17185c0d747440","null","null","<p style=""font-size: 60px; font-family: BACS"">bRABtAlKD</p>","","","","","","","","",""
"html-keyboard-response","355","474584","0.0-16.0-0.23","5f99cee5a2a7d109a1624e10","650c16f0f2faf8d7a0d14c09","651c1c26dc17185c0d747440","null","null","<p style=""font-size: 60px; font-family: BACS"">bRABtAlKD</p>","","","","","","","","",""
"html-keyboard-response","356","475600","0.0-16.0-0.24","5f99cee5a2a7d109a1624e10","650c16f0f2faf8d7a0d14c09","651c1c26dc17185c0d747440","null","null","<p style=""font-size: 60px; font-family: BACS"">bRABtAlKD</p>","","","","","","","","",""
"html-keyboard-response","357","476617","0.0-16.0-0.25","5f99cee5a2a7d109a1624e10","650c16f0f2faf8d7a0d14c09","651c1c26dc17185c0d747440","null","null","<p style=""font-size: 60px; font-family: BACS"">bRABtAlKD</p>","","","","","","","","",""
"html-keyboard-response","358","477619","0.0-16.0-0.26","5f99cee5a2a7d109a1624e10","650c16f0f2faf8d7a0d14c09","651c1c26dc17185c0d747440","null","null","<p style=""font-size: 60px; font-family: BACS"">bRABtAlKD</p>","","","","","","","","",""
"html-keyboard-response","359","478635","0.0-16.0-0.27","5f99cee5a2a7d109a1624e10","650c16f0f2faf8d7a0d14c09","651c1c26dc17185c0d747440","null","null","<p style=""font-size: 60px; font-family: BACS"">bRABtAlKD</p>","","","","","","","","",""
"html-keyboard-response","360","479651","0.0-16.0-0.28","5f99cee5a2a7d109a1624e10","650c16f0f2faf8d7a0d14c09","651c1c26dc17185c0d747440","null","null","<p style=""font-size: 60px; font-family: BACS"">bRABtAlKD</p>","","","","","","","","",""
"html-keyboard-response","361","480652","0.0-16.0-0.29","5f99cee5a2a7d109a1624e10","650c16f0f2faf8d7a0d14c09","651c1c26dc17185c0d747440","null","null","<p style=""font-size: 60px; font-family: BACS"">bRABtAlKD</p>","","","","","","","","",""
"html-keyboard-response","362","481668","0.0-16.0-0.30","5f99cee5a2a7d109a1624e10","650c16f0f2faf8d7a0d14c09","651c1c26dc17185c0d747440","null","null","<p style=""font-size: 60px; font-family: BACS"">bRABtAlKD</p>","","","","","","","","",""
"html-keyboard-response","363","482685","0.0-16.0-0.31","5f99cee5a2a7d109a1624e10","650c16f0f2faf8d7a0d14c09","651c1c26dc17185c0d747440","null","null","<p style=""font-size: 60px; font-family: BACS"">bRABtAlKD</p>","","","","","","","","",""
"html-keyboard-response","364","483686","0.0-16.0-0.32","5f99cee5a2a7d109a1624e10","650c16f0f2faf8d7a0d14c09","651c1c26dc17185c0d747440","null","null","<p style=""font-size: 60px; font-family: BACS"">bRABtAlKD</p>","","","","","","","","",""
"html-keyboard-response","365","484702","0.0-16.0-0.33","5f99cee5a2a7d109a1624e10","650c16f0f2faf8d7a0d14c09","651c1c26dc17185c0d747440","null","null","<p style=""font-size: 60px; font-family: BACS"">bRABtAlKD</p>","","","","","","","","",""
"html-keyboard-response","366","485703","0.0-16.0-0.34","5f99cee5a2a7d109a1624e10","650c16f0f2faf8d7a0d14c09","651c1c26dc17185c0d747440","null","null","<p style=""font-size: 60px; font-family: BACS"">bRABtAlKD</p>","","","","","","","","",""
"html-keyboard-response","367","486720","0.0-16.0-0.35","5f99cee5a2a7d109a1624e10","650c16f0f2faf8d7a0d14c09","651c1c26dc17185c0d747440","null","null","<p style=""font-size: 60px; font-family: BACS"">bRABtAlKD</p>","","","","","","","","",""
"html-keyboard-response","368","487735","0.0-16.0-0.36","5f99cee5a2a7d109a1624e10","650c16f0f2faf8d7a0d14c09","651c1c26dc17185c0d747440","null","null","<p style=""font-size: 60px; font-family: BACS"">bRABtAlKD</p>","","","","","","","","",""
"html-keyboard-response","369","488751","0.0-16.0-0.37","5f99cee5a2a7d109a1624e10","650c16f0f2faf8d7a0d14c09","651c1c26dc17185c0d747440","null","null","<p style=""font-size: 60px; font-family: BACS"">bRABtAlKD</p>","","","","","","","","",""
"html-keyboard-response","370","489753","0.0-16.0-0.38","5f99cee5a2a7d109a1624e10","650c16f0f2faf8d7a0d14c09","651c1c26dc17185c0d747440","null","null","<p style=""font-size: 60px; font-family: BACS"">bRABtAlKD</p>","","","","","","","","",""
"html-keyboard-response","371","490767","0.0-16.0-0.39","5f99cee5a2a7d109a1624e10","650c16f0f2faf8d7a0d14c09","651c1c26dc17185c0d747440","null","null","<p style=""font-size: 60px; font-family: BACS"">bRABtAlKD</p>","","","","","","","","",""
"html-keyboard-response","372","491785","0.0-16.0-0.40","5f99cee5a2a7d109a1624e10","650c16f0f2faf8d7a0d14c09","651c1c26dc17185c0d747440","null","null","<p style=""font-size: 60px; font-family: BACS"">bRABtAlKD</p>","","","","","","","","",""
"html-keyboard-response","373","492787","0.0-16.0-0.41","5f99cee5a2a7d109a1624e10","650c16f0f2faf8d7a0d14c09","651c1c26dc17185c0d747440","null","null","<p style=""font-size: 60px; font-family: BACS"">bRABtAlKD</p>","","","","","","","","",""
"html-keyboard-response","374","493803","0.0-16.0-0.42","5f99cee5a2a7d109a1624e10","650c16f0f2faf8d7a0d14c09","651c1c26dc17185c0d747440","null","null","<p style=""font-size: 60px; font-family: BACS"">bRABtAlKD</p>","","","","","","","","",""
"html-keyboard-response","375","494817","0.0-16.0-0.43","5f99cee5a2a7d109a1624e10","650c16f0f2faf8d7a0d14c09","651c1c26dc17185c0d747440","null","null","<p style=""font-size: 60px; font-family: BACS"">bRABtAlKD</p>","","","","","","","","",""
"html-keyboard-response","376","495820","0.0-16.0-0.44","5f99cee5a2a7d109a1624e10","650c16f0f2faf8d7a0d14c09","651c1c26dc17185c0d747440","null","null","<p style=""font-size: 60px; font-family: BACS"">bRABtAlKD</p>","","","","","","","","",""
"html-keyboard-response","377","496835","0.0-16.0-0.45","5f99cee5a2a7d109a1624e10","650c16f0f2faf8d7a0d14c09","651c1c26dc17185c0d747440","null","null","<p style=""font-size: 60px; font-family: BACS"">bRABtAlKD</p>","","","","","","","","",""
"html-keyboard-response","378","497850","0.0-16.0-0.46","5f99cee5a2a7d109a1624e10","650c16f0f2faf8d7a0d14c09","651c1c26dc17185c0d747440","null","null","<p style=""font-size: 60px; font-family: BACS"">bRABtAlKD</p>","","","","","","","","",""
"html-keyboard-response","379","498854","0.0-16.0-0.47","5f99cee5a2a7d109a1624e10","650c16f0f2faf8d7a0d14c09","651c1c26dc17185c0d747440","null","null","<p style=""font-size: 60px; font-family: BACS"">bRABtAlKD</p>","","","","","","","","",""
"html-keyboard-response","380","499869","0.0-16.0-0.48","5f99cee5a2a7d109a1624e10","650c16f0f2faf8d7a0d14c09","651c1c26dc17185c0d747440","null","null","<p style=""font-size: 60px; font-family: BACS"">bRABtAlKD</p>","","","","","","","","",""
"html-keyboard-response","381","500885","0.0-16.0-0.49","5f99cee5a2a7d109a1624e10","650c16f0f2faf8d7a0d14c09","651c1c26dc17185c0d747440","null","null","<p style=""font-size: 60px; font-family: BACS"">bRABtAlKD</p>","","","","","","","","",""
"html-keyboard-response","382","501900","0.0-16.0-0.50","5f99cee5a2a7d109a1624e10","650c16f0f2faf8d7a0d14c09","651c1c26dc17185c0d747440","null","null","<p style=""font-size: 60px; font-family: BACS"">bRABtAlKD</p>","","","","","","","","",""
"html-keyboard-response","383","502903","0.0-16.0-0.51","5f99cee5a2a7d109a1624e10","650c16f0f2faf8d7a0d14c09","651c1c26dc17185c0d747440","null","null","<p style=""font-size: 60px; font-family: BACS"">bRABtAlKD</p>","","","","","","","","",""
"html-keyboard-response","384","503905","0.0-16.0-0.52","5f99cee5a2a7d109a1624e10","650c16f0f2faf8d7a0d14c09","651c1c26dc17185c0d747440","null","null","<p style=""font-size: 60px; font-family: BACS"">bRABtAlKD</p>","","","","","","","","",""
"html-keyboard-response","385","504918","0.0-16.0-0.53","5f99cee5a2a7d109a1624e10","650c16f0f2faf8d7a0d14c09","651c1c26dc17185c0d747440","null","null","<p style=""font-size: 60px; font-family: BACS"">bRABtAlKD</p>","","","","","","","","",""
"html-keyboard-response","386","505920","0.0-16.0-0.54","5f99cee5a2a7d109a1624e10","650c16f0f2faf8d7a0d14c09","651c1c26dc17185c0d747440","null","null","<p style=""font-size: 60px; font-family: BACS"">bRABtAlKD</p>","","","","","","","","",""
"html-keyboard-response","387","506936","0.0-16.0-0.55","5f99cee5a2a7d109a1624e10","650c16f0f2faf8d7a0d14c09","651c1c26dc17185c0d747440","null","null","<p style=""font-size: 60px; font-family: BACS"">bRABtAlKD</p>","","","","","","","","",""
"html-keyboard-response","388","507952","0.0-16.0-0.56","5f99cee5a2a7d109a1624e10","650c16f0f2faf8d7a0d14c09","651c1c26dc17185c0d747440","null","null","<p style=""font-size: 60px; font-family: BACS"">bRABtAlKD</p>","","","","","","","","",""
"html-keyboard-response","389","508954","0.0-16.0-0.57","5f99cee5a2a7d109a1624e10","650c16f0f2faf8d7a0d14c09","651c1c26dc17185c0d747440","null","null","<p style=""font-size: 60px; font-family: BACS"">bRABtAlKD</p>","","","","","","","","",""
"html-keyboard-response","390","509955","0.0-16.0-0.58","5f99cee5a2a7d109a1624e10","650c16f0f2faf8d7a0d14c09","651c1c26dc17185c0d747440","null","null","<p style=""font-size: 60px; font-family: BACS"">bRABtAlKD</p>","","","","","","","","",""
"html-keyboard-response","391","510971","0.0-16.0-0.59","5f99cee5a2a7d109a1624e10","650c16f0f2faf8d7a0d14c09","651c1c26dc17185c0d747440","null","null","<p style=""font-size: 60px; font-family: BACS"">bRABtAlKD</p>","","","","","","","","",""
"html-keyboard-response","392","511987","0.0-16.0-0.60","5f99cee5a2a7d109a1624e10","650c16f0f2faf8d7a0d14c09","651c1c26dc17185c0d747440","null","null","<p style=""font-size: 60px; font-family: BACS"">bRABtAlKD</p>","","","","","","","","",""
"html-keyboard-response","393","512990","0.0-16.0-0.61","5f99cee5a2a7d109a1624e10","650c16f0f2faf8d7a0d14c09","651c1c26dc17185c0d747440","null","null","<p style=""font-size: 60px; font-family: BACS"">bRABtAlKD</p>","","","","","","","","",""
"html-keyboard-response","394","514005","0.0-16.0-0.62","5f99cee5a2a7d109a1624e10","650c16f0f2faf8d7a0d14c09","651c1c26dc17185c0d747440","null","null","<p style=""font-size: 60px; font-family: BACS"">bRABtAlKD</p>","","","","","","","","",""
"html-keyboard-response","395","515019","0.0-16.0-0.63","5f99cee5a2a7d109a1624e10","650c16f0f2faf8d7a0d14c09","651c1c26dc17185c0d747440","null","null","<p style=""font-size: 60px; font-family: BACS"">bRABtAlKD</p>","","","","","","","","",""
"html-keyboard-response","396","516021","0.0-16.0-0.64","5f99cee5a2a7d109a1624e10","650c16f0f2faf8d7a0d14c09","651c1c26dc17185c0d747440","null","null","<p style=""font-size: 60px; font-family: BACS"">bRABtAlKD</p>","","","","","","","","",""
"html-keyboard-response","397","517038","0.0-16.0-0.65","5f99cee5a2a7d109a1624e10","650c16f0f2faf8d7a0d14c09","651c1c26dc17185c0d747440","null","null","<p style=""font-size: 60px; font-family: BACS"">bRABtAlKD</p>","","","","","","","","",""
