"trial_type","trial_index","time_elapsed","internal_node_id","subject_id","study_id","session_id","rt","response","stimulus","success","item","task","correct_response","testing_condition","correct","target","confound","name"
"pavlovia","0","748","0.0-0.0","5f6cd5ce1758e90f12ae1123","650c16f0f2faf8d7a0d14c09","651c1db03c158adada7643af","","","","","","","","","","","",""
"survey-html-form","1","9847","0.0-1.0","5f6cd5ce1758e90f12ae1123","650c16f0f2faf8d7a0d14c09","651c1db03c158adada7643af","9097","{""ID"":""5f6cd5ce1758e90f12ae1123""}","","","","","","","","","",""
"html-keyboard-response","2","29053","0.0-2.0","5f6cd5ce1758e90f12ae1123","650c16f0f2faf8d7a0d14c09","651c1db03c158adada7643af","19205"," ","<p style=""font-size: 15px;"">Before beginning, we ask that you read the consent information and confirm your agreement to participate in the experiment.</p>
      <p style=""font-size: 15px;""> We ask that you remember that this is a research project and that your participation is entirely voluntary. You can stop your participation at any time, without needing to provide any explanation. The study we're asking you to participate in aims at examining how readers process written words. You will be engaged in a session of apprximately 20 minutes, followed by a brief questionnaire. You will have the opportunity to take a few breaks during the experiment. You will be paid £4 for your participation, corresponding to a rate of £8/hour. While this experiment looks at cognitive faculties, this experiment doesn't constitute clinical proof of eventual pathologies.</p>
      <p style=""font-size: 15px;"">All of the information collected thanks to yours and others' participation will be held in a secure password-protected server, and will not be shared with anyone not authorised to view it. Your personal information will be kept with an arbitrary participant ID. Thanks to this data anonymity process, any researcher analysing the data won't be able to track the information back to a specific participant. Therefore, this process will make identifying you impossibile, even when results from the study will be published in scientific reviews, presented at congresses, or at any other public forum. More generally, the collected data will be treated in accordance with the laws on privacy and conformity to the Legislative Degree n. 196 ""Code regarding the protection of personal data"" of the 30th of June 2003 and to the European Regulation 2016/670 (General Data Protection Regulation - GDPR). The Data Protection Officer is Avv. Valentina Carollo, who can be contacted at the following email addresses: <a href=""mailto:dpo@sissa.it"">dpo@sissa.it</a> or <a href=""mailto:rpd@sissa.it"">rpd@sissa.it</a> - PEC: <a href=""mailto:protocollo@pec.sissa.it"">protocollo@pec.sissa.it</a>.</p>
      <p style=""font-size: 15px;""> Before expressing your consent to participate, we would like to remind you again that in case you need explanations on any aspect of the experimental procedure, the researcher is at your disposition (<a href=""mailto:aliebelt@sissa.it"">aliebelt@sissa.it</a>, <a href=""mailto:davide.crepaldi@sissa.it"">davide.crepaldi@sissa.it</a>).</p>
      <p style=""font-size: 15px;"">If you would like to download the informed consent form, you can do so here: <a href=""BASL-Informed_Consent.pdf"" download>informed consent form</a>.</p>
      <p style=""font-size: 15px;"">We ask that you press the spacebar to proceed to the consent section.</p>","","","","","","","","",""
"survey-html-form","3","39459","0.0-3.0","5f6cd5ce1758e90f12ae1123","650c16f0f2faf8d7a0d14c09","651c1db03c158adada7643af","10405","{""consent1"":""YES"",""consent2"":""YES"",""consent3"":""YES"",""consent4"":""YES"",""consent5"":""YES"",""consent6"":""YES""}","","","","","","","","","",""
"fullscreen","4","44688","0.0-4.0","5f6cd5ce1758e90f12ae1123","650c16f0f2faf8d7a0d14c09","651c1db03c158adada7643af","","","","true","","","","","","","",""
"html-keyboard-response","5","80083","0.0-5.0","5f6cd5ce1758e90f12ae1123","650c16f0f2faf8d7a0d14c09","651c1db03c158adada7643af","35394"," ","<p>Welcome, and thank you very much for your time!</p>
      <p>In this experiment, you'll be a language expert who's been asked to take a look at words that Earth has received in its first communication with aliens. Your task, in this first part of the experiment, is to pay close attention to the words you'll be shown; later, world leaders will ask you questions on what you saw. The words will be shown to you quite quickly; it seems that the aliens were in a hurry :-)</p>
      <p>Press the spacebar to continue.<p>","","","","","","","","",""
"html-keyboard-response","6","80134","0.0-6.0","5f6cd5ce1758e90f12ae1123","650c16f0f2faf8d7a0d14c09","651c1db03c158adada7643af","null","null","<p style=""font-size: 120px; font-family: BACS""> </p>","","","","","","","","",""
"html-keyboard-response","7","83377","0.0-7.0","5f6cd5ce1758e90f12ae1123","650c16f0f2faf8d7a0d14c09","651c1db03c158adada7643af","3242"," ","<p>Here is an example of the words you'll see:</p>
      <img src='esempio.png' height='400px'>
      <p>When you're ready to begin, press the spacebar.</p></div>","","","","","","","","",""
"html-keyboard-response","8","84387","0.0-8.0-0.0","5f6cd5ce1758e90f12ae1123","650c16f0f2faf8d7a0d14c09","651c1db03c158adada7643af","null","null","<p style=""font-size: 60px; font-family: BACS"">YKRkRDM</p>","","","","","","","","",""
"html-keyboard-response","9","85394","0.0-8.0-0.1","5f6cd5ce1758e90f12ae1123","650c16f0f2faf8d7a0d14c09","651c1db03c158adada7643af","null","null","<p style=""font-size: 60px; font-family: BACS"">tdDdTmc</p>","","","","","","","","",""
"html-keyboard-response","10","86397","0.0-8.0-0.2","5f6cd5ce1758e90f12ae1123","650c16f0f2faf8d7a0d14c09","651c1db03c158adada7643af","null","null","<p style=""font-size: 60px; font-family: BACS"">mrOdvcb</p>","","","","","","","","",""
"html-keyboard-response","11","87404","0.0-8.0-0.3","5f6cd5ce1758e90f12ae1123","650c16f0f2faf8d7a0d14c09","651c1db03c158adada7643af","null","null","<p style=""font-size: 60px; font-family: BACS"">ukYZUZu</p>","","","","","","","","",""
"html-keyboard-response","12","88407","0.0-8.0-0.4","5f6cd5ce1758e90f12ae1123","650c16f0f2faf8d7a0d14c09","651c1db03c158adada7643af","null","null","<p style=""font-size: 60px; font-family: BACS"">YKRkTmc</p>","","","","","","","","",""
"html-keyboard-response","13","89414","0.0-8.0-0.5","5f6cd5ce1758e90f12ae1123","650c16f0f2faf8d7a0d14c09","651c1db03c158adada7643af","null","null","<p style=""font-size: 60px; font-family: BACS"">mrOdUZu</p>","","","","","","","","",""
"html-keyboard-response","14","90421","0.0-8.0-0.6","5f6cd5ce1758e90f12ae1123","650c16f0f2faf8d7a0d14c09","651c1db03c158adada7643af","null","null","<p style=""font-size: 60px; font-family: BACS"">OEPkRDM</p>","","","","","","","","",""
"html-keyboard-response","15","91425","0.0-8.0-0.7","5f6cd5ce1758e90f12ae1123","650c16f0f2faf8d7a0d14c09","651c1db03c158adada7643af","null","null","<p style=""font-size: 60px; font-family: BACS"">ckduAravu</p>","","","","","","","","",""
"html-keyboard-response","16","92434","0.0-8.0-0.8","5f6cd5ce1758e90f12ae1123","650c16f0f2faf8d7a0d14c09","651c1db03c158adada7643af","null","null","<p style=""font-size: 60px; font-family: BACS"">tdDdhBK</p>","","","","","","","","",""
"html-keyboard-response","17","93439","0.0-8.0-0.9","5f6cd5ce1758e90f12ae1123","650c16f0f2faf8d7a0d14c09","651c1db03c158adada7643af","null","null","<p style=""font-size: 60px; font-family: BACS"">ckduArba</p>","","","","","","","","",""
"html-keyboard-response","18","94448","0.0-8.0-0.10","5f6cd5ce1758e90f12ae1123","650c16f0f2faf8d7a0d14c09","651c1db03c158adada7643af","null","null","<p style=""font-size: 60px; font-family: BACS"">cAZuLkNc</p>","","","","","","","","",""
"html-keyboard-response","19","95457","0.0-8.0-0.11","5f6cd5ce1758e90f12ae1123","650c16f0f2faf8d7a0d14c09","651c1db03c158adada7643af","null","null","<p style=""font-size: 60px; font-family: BACS"">mBYlOYK</p>","","","","","","","","",""
"html-keyboard-response","20","96473","0.0-8.0-0.12","5f6cd5ce1758e90f12ae1123","650c16f0f2faf8d7a0d14c09","651c1db03c158adada7643af","null","null","<p style=""font-size: 60px; font-family: BACS"">OEPkhBK</p>","","","","","","","","",""
"html-keyboard-response","21","97475","0.0-8.0-0.13","5f6cd5ce1758e90f12ae1123","650c16f0f2faf8d7a0d14c09","651c1db03c158adada7643af","null","null","<p style=""font-size: 60px; font-family: BACS"">BECkATc</p>","","","","","","","","",""
"html-keyboard-response","22","98485","0.0-8.0-0.14","5f6cd5ce1758e90f12ae1123","650c16f0f2faf8d7a0d14c09","651c1db03c158adada7643af","null","null","<p style=""font-size: 60px; font-family: BACS"">ukYZLkNc</p>","","","","","","","","",""
"html-keyboard-response","23","99501","0.0-8.0-0.15","5f6cd5ce1758e90f12ae1123","650c16f0f2faf8d7a0d14c09","651c1db03c158adada7643af","null","null","<p style=""font-size: 60px; font-family: BACS"">BOCRMTmc</p>","","","","","","","","",""
"html-keyboard-response","24","100510","0.0-8.0-0.16","5f6cd5ce1758e90f12ae1123","650c16f0f2faf8d7a0d14c09","651c1db03c158adada7643af","null","null","<p style=""font-size: 60px; font-family: BACS"">BECkhBK</p>","","","","","","","","",""
"html-keyboard-response","25","101519","0.0-8.0-0.17","5f6cd5ce1758e90f12ae1123","650c16f0f2faf8d7a0d14c09","651c1db03c158adada7643af","null","null","<p style=""font-size: 60px; font-family: BACS"">kabJbLkNc</p>","","","","","","","","",""
"html-keyboard-response","26","102523","0.0-8.0-0.18","5f6cd5ce1758e90f12ae1123","650c16f0f2faf8d7a0d14c09","651c1db03c158adada7643af","null","null","<p style=""font-size: 60px; font-family: BACS"">BOCRMOYK</p>","","","","","","","","",""
"html-keyboard-response","27","103530","0.0-8.0-0.19","5f6cd5ce1758e90f12ae1123","650c16f0f2faf8d7a0d14c09","651c1db03c158adada7643af","null","null","<p style=""font-size: 60px; font-family: BACS"">LvuOGrba</p>","","","","","","","","",""
"html-keyboard-response","28","104538","0.0-8.0-0.20","5f6cd5ce1758e90f12ae1123","650c16f0f2faf8d7a0d14c09","651c1db03c158adada7643af","null","null","<p style=""font-size: 60px; font-family: BACS"">ckduALkNc</p>","","","","","","","","",""
"html-keyboard-response","29","105547","0.0-8.0-0.21","5f6cd5ce1758e90f12ae1123","650c16f0f2faf8d7a0d14c09","651c1db03c158adada7643af","null","null","<p style=""font-size: 60px; font-family: BACS"">GAcYravu</p>","","","","","","","","",""
"html-keyboard-response","30","106563","0.0-8.0-0.22","5f6cd5ce1758e90f12ae1123","650c16f0f2faf8d7a0d14c09","651c1db03c158adada7643af","null","null","<p style=""font-size: 60px; font-family: BACS"">YKRkOYK</p>","","","","","","","","",""
"html-keyboard-response","31","107568","0.0-8.0-0.23","5f6cd5ce1758e90f12ae1123","650c16f0f2faf8d7a0d14c09","651c1db03c158adada7643af","null","null","<p style=""font-size: 60px; font-family: BACS"">mBYlATc</p>","","","","","","","","",""
"html-keyboard-response","32","108575","0.0-8.0-0.24","5f6cd5ce1758e90f12ae1123","650c16f0f2faf8d7a0d14c09","651c1db03c158adada7643af","null","null","<p style=""font-size: 60px; font-family: BACS"">YQbcLkNc</p>","","","","","","","","",""
"html-keyboard-response","33","109581","0.0-8.0-0.25","5f6cd5ce1758e90f12ae1123","650c16f0f2faf8d7a0d14c09","651c1db03c158adada7643af","null","null","<p style=""font-size: 60px; font-family: BACS"">Udbdravu</p>","","","","","","","","",""
"html-keyboard-response","34","110585","0.0-8.0-0.26","5f6cd5ce1758e90f12ae1123","650c16f0f2faf8d7a0d14c09","651c1db03c158adada7643af","null","null","<p style=""font-size: 60px; font-family: BACS"">ukYZrba</p>","","","","","","","","",""
"html-keyboard-response","35","111586","0.0-8.0-0.27","5f6cd5ce1758e90f12ae1123","650c16f0f2faf8d7a0d14c09","651c1db03c158adada7643af","null","null","<p style=""font-size: 60px; font-family: BACS"">mrOdravu</p>","","","","","","","","",""
"html-keyboard-response","36","112587","0.0-8.0-0.28","5f6cd5ce1758e90f12ae1123","650c16f0f2faf8d7a0d14c09","651c1db03c158adada7643af","null","null","<p style=""font-size: 60px; font-family: BACS"">LvuOGvcb</p>","","","","","","","","",""
"html-keyboard-response","37","113594","0.0-8.0-0.29","5f6cd5ce1758e90f12ae1123","650c16f0f2faf8d7a0d14c09","651c1db03c158adada7643af","null","null","<p style=""font-size: 60px; font-family: BACS"">kabJbravu</p>","","","","","","","","",""
"html-keyboard-response","38","114595","0.0-8.0-0.30","5f6cd5ce1758e90f12ae1123","650c16f0f2faf8d7a0d14c09","651c1db03c158adada7643af","null","null","<p style=""font-size: 60px; font-family: BACS"">RYtkcTmc</p>","","","","","","","","",""
"html-keyboard-response","39","115607","0.0-8.0-0.31","5f6cd5ce1758e90f12ae1123","650c16f0f2faf8d7a0d14c09","651c1db03c158adada7643af","null","null","<p style=""font-size: 60px; font-family: BACS"">GAcYrba</p>","","","","","","","","",""
"html-keyboard-response","40","116609","0.0-8.0-0.32","5f6cd5ce1758e90f12ae1123","650c16f0f2faf8d7a0d14c09","651c1db03c158adada7643af","null","null","<p style=""font-size: 60px; font-family: BACS"">mBYlhBK</p>","","","","","","","","",""
"html-keyboard-response","41","117611","0.0-8.0-0.33","5f6cd5ce1758e90f12ae1123","650c16f0f2faf8d7a0d14c09","651c1db03c158adada7643af","null","null","<p style=""font-size: 60px; font-family: BACS"">mrOdLkNc</p>","","","","","","","","",""
"html-keyboard-response","42","118613","0.0-8.0-0.34","5f6cd5ce1758e90f12ae1123","650c16f0f2faf8d7a0d14c09","651c1db03c158adada7643af","null","null","<p style=""font-size: 60px; font-family: BACS"">ckduAUZu</p>","","","","","","","","",""
"html-keyboard-response","43","119615","0.0-8.0-0.35","5f6cd5ce1758e90f12ae1123","650c16f0f2faf8d7a0d14c09","651c1db03c158adada7643af","null","null","<p style=""font-size: 60px; font-family: BACS"">RYtkcATc</p>","","","","","","","","",""
"html-keyboard-response","44","120617","0.0-8.0-0.36","5f6cd5ce1758e90f12ae1123","650c16f0f2faf8d7a0d14c09","651c1db03c158adada7643af","null","null","<p style=""font-size: 60px; font-family: BACS"">LvuOGLkNc</p>","","","","","","","","",""
"html-keyboard-response","45","121628","0.0-8.0-0.37","5f6cd5ce1758e90f12ae1123","650c16f0f2faf8d7a0d14c09","651c1db03c158adada7643af","null","null","<p style=""font-size: 60px; font-family: BACS"">ZcGdNUZu</p>","","","","","","","","",""
"html-keyboard-response","46","122629","0.0-8.0-0.38","5f6cd5ce1758e90f12ae1123","650c16f0f2faf8d7a0d14c09","651c1db03c158adada7643af","null","null","<p style=""font-size: 60px; font-family: BACS"">tdDdOYK</p>","","","","","","","","",""
"html-keyboard-response","47","123643","0.0-8.0-0.39","5f6cd5ce1758e90f12ae1123","650c16f0f2faf8d7a0d14c09","651c1db03c158adada7643af","null","null","<p style=""font-size: 60px; font-family: BACS"">mhtcRDM</p>","","","","","","","","",""
"html-keyboard-response","48","124648","0.0-8.0-0.40","5f6cd5ce1758e90f12ae1123","650c16f0f2faf8d7a0d14c09","651c1db03c158adada7643af","null","null","<p style=""font-size: 60px; font-family: BACS"">UdbdUZu</p>","","","","","","","","",""
"html-keyboard-response","49","125649","0.0-8.0-0.41","5f6cd5ce1758e90f12ae1123","650c16f0f2faf8d7a0d14c09","651c1db03c158adada7643af","null","null","<p style=""font-size: 60px; font-family: BACS"">BOCRMRDM</p>","","","","","","","","",""
"html-keyboard-response","50","126656","0.0-8.0-0.42","5f6cd5ce1758e90f12ae1123","650c16f0f2faf8d7a0d14c09","651c1db03c158adada7643af","null","null","<p style=""font-size: 60px; font-family: BACS"">LvuOGUZu</p>","","","","","","","","",""
"html-keyboard-response","51","127662","0.0-8.0-0.43","5f6cd5ce1758e90f12ae1123","650c16f0f2faf8d7a0d14c09","651c1db03c158adada7643af","null","null","<p style=""font-size: 60px; font-family: BACS"">cAZuravu</p>","","","","","","","","",""
"html-keyboard-response","52","128675","0.0-8.0-0.44","5f6cd5ce1758e90f12ae1123","650c16f0f2faf8d7a0d14c09","651c1db03c158adada7643af","null","null","<p style=""font-size: 60px; font-family: BACS"">hTDdRDM</p>","","","","","","","","",""
"html-keyboard-response","53","129680","0.0-8.0-0.45","5f6cd5ce1758e90f12ae1123","650c16f0f2faf8d7a0d14c09","651c1db03c158adada7643af","null","null","<p style=""font-size: 60px; font-family: BACS"">dMThkOYK</p>","","","","","","","","",""
"html-keyboard-response","54","130688","0.0-8.0-0.46","5f6cd5ce1758e90f12ae1123","650c16f0f2faf8d7a0d14c09","651c1db03c158adada7643af","null","null","<p style=""font-size: 60px; font-family: BACS"">ukYZvcb</p>","","","","","","","","",""
"html-keyboard-response","55","131695","0.0-8.0-0.47","5f6cd5ce1758e90f12ae1123","650c16f0f2faf8d7a0d14c09","651c1db03c158adada7643af","null","null","<p style=""font-size: 60px; font-family: BACS"">GAcYUZu</p>","","","","","","","","",""
"html-keyboard-response","56","132702","0.0-8.0-0.48","5f6cd5ce1758e90f12ae1123","650c16f0f2faf8d7a0d14c09","651c1db03c158adada7643af","null","null","<p style=""font-size: 60px; font-family: BACS"">YKRkATc</p>","","","","","","","","",""
"html-keyboard-response","57","133706","0.0-8.0-0.49","5f6cd5ce1758e90f12ae1123","650c16f0f2faf8d7a0d14c09","651c1db03c158adada7643af","null","null","<p style=""font-size: 60px; font-family: BACS"">mhtcTmc</p>","","","","","","","","",""
"html-keyboard-response","58","134707","0.0-8.0-0.50","5f6cd5ce1758e90f12ae1123","650c16f0f2faf8d7a0d14c09","651c1db03c158adada7643af","null","null","<p style=""font-size: 60px; font-family: BACS"">OEPkOYK</p>","","","","","","","","",""
"html-keyboard-response","59","135716","0.0-8.0-0.51","5f6cd5ce1758e90f12ae1123","650c16f0f2faf8d7a0d14c09","651c1db03c158adada7643af","null","null","<p style=""font-size: 60px; font-family: BACS"">dMThkRDM</p>","","","","","","","","",""
"html-keyboard-response","60","136717","0.0-8.0-0.52","5f6cd5ce1758e90f12ae1123","650c16f0f2faf8d7a0d14c09","651c1db03c158adada7643af","null","null","<p style=""font-size: 60px; font-family: BACS"">cAZurba</p>","","","","","","","","",""
"html-keyboard-response","61","137721","0.0-8.0-0.53","5f6cd5ce1758e90f12ae1123","650c16f0f2faf8d7a0d14c09","651c1db03c158adada7643af","null","null","<p style=""font-size: 60px; font-family: BACS"">GAcYLkNc</p>","","","","","","","","",""
"html-keyboard-response","62","138729","0.0-8.0-0.54","5f6cd5ce1758e90f12ae1123","650c16f0f2faf8d7a0d14c09","651c1db03c158adada7643af","null","null","<p style=""font-size: 60px; font-family: BACS"">ZcGdNravu</p>","","","","","","","","",""
"html-keyboard-response","63","139734","0.0-8.0-0.55","5f6cd5ce1758e90f12ae1123","650c16f0f2faf8d7a0d14c09","651c1db03c158adada7643af","null","null","<p style=""font-size: 60px; font-family: BACS"">YQbcvcb</p>","","","","","","","","",""
"html-keyboard-response","64","140738","0.0-8.0-0.56","5f6cd5ce1758e90f12ae1123","650c16f0f2faf8d7a0d14c09","651c1db03c158adada7643af","null","null","<p style=""font-size: 60px; font-family: BACS"">Udbdrba</p>","","","","","","","","",""
"html-keyboard-response","65","141742","0.0-8.0-0.57","5f6cd5ce1758e90f12ae1123","650c16f0f2faf8d7a0d14c09","651c1db03c158adada7643af","null","null","<p style=""font-size: 60px; font-family: BACS"">kabJbUZu</p>","","","","","","","","",""
"html-keyboard-response","66","142755","0.0-8.0-0.58","5f6cd5ce1758e90f12ae1123","650c16f0f2faf8d7a0d14c09","651c1db03c158adada7643af","null","null","<p style=""font-size: 60px; font-family: BACS"">hTDdATc</p>","","","","","","","","",""
"html-keyboard-response","67","143765","0.0-8.0-0.59","5f6cd5ce1758e90f12ae1123","650c16f0f2faf8d7a0d14c09","651c1db03c158adada7643af","null","null","<p style=""font-size: 60px; font-family: BACS"">RYtkcOYK</p>","","","","","","","","",""
"html-keyboard-response","68","144766","0.0-8.0-0.60","5f6cd5ce1758e90f12ae1123","650c16f0f2faf8d7a0d14c09","651c1db03c158adada7643af","null","null","<p style=""font-size: 60px; font-family: BACS"">ZcGdNvcb</p>","","","","","","","","",""
"html-keyboard-response","69","145767","0.0-8.0-0.61","5f6cd5ce1758e90f12ae1123","650c16f0f2faf8d7a0d14c09","651c1db03c158adada7643af","null","null","<p style=""font-size: 60px; font-family: BACS"">BECkRDM</p>","","","","","","","","",""
"html-keyboard-response","70","146774","0.0-8.0-0.62","5f6cd5ce1758e90f12ae1123","650c16f0f2faf8d7a0d14c09","651c1db03c158adada7643af","null","null","<p style=""font-size: 60px; font-family: BACS"">cAZuvcb</p>","","","","","","","","",""
"html-keyboard-response","71","147781","0.0-8.0-0.63","5f6cd5ce1758e90f12ae1123","650c16f0f2faf8d7a0d14c09","651c1db03c158adada7643af","null","null","<p style=""font-size: 60px; font-family: BACS"">RYtkcRDM</p>","","","","","","","","",""
"html-keyboard-response","72","148786","0.0-8.0-0.64","5f6cd5ce1758e90f12ae1123","650c16f0f2faf8d7a0d14c09","651c1db03c158adada7643af","null","null","<p style=""font-size: 60px; font-family: BACS"">mBYlTmc</p>","","","","","","","","",""
"html-keyboard-response","73","149789","0.0-8.0-0.65","5f6cd5ce1758e90f12ae1123","650c16f0f2faf8d7a0d14c09","651c1db03c158adada7643af","null","null","<p style=""font-size: 60px; font-family: BACS"">mhtcATc</p>","","","","","","","","",""
"html-keyboard-response","74","150795","0.0-8.0-0.66","5f6cd5ce1758e90f12ae1123","650c16f0f2faf8d7a0d14c09","651c1db03c158adada7643af","null","null","<p style=""font-size: 60px; font-family: BACS"">Udbdvcb</p>","","","","","","","","",""
"html-keyboard-response","75","151801","0.0-8.0-0.67","5f6cd5ce1758e90f12ae1123","650c16f0f2faf8d7a0d14c09","651c1db03c158adada7643af","null","null","<p style=""font-size: 60px; font-family: BACS"">mhtchBK</p>","","","","","","","","",""
"html-keyboard-response","76","152802","0.0-8.0-0.68","5f6cd5ce1758e90f12ae1123","650c16f0f2faf8d7a0d14c09","651c1db03c158adada7643af","null","null","<p style=""font-size: 60px; font-family: BACS"">YQbcrba</p>","","","","","","","","",""
"html-keyboard-response","77","153816","0.0-8.0-0.69","5f6cd5ce1758e90f12ae1123","650c16f0f2faf8d7a0d14c09","651c1db03c158adada7643af","null","null","<p style=""font-size: 60px; font-family: BACS"">dMThkTmc</p>","","","","","","","","",""
"html-keyboard-response","78","154824","0.0-8.0-0.70","5f6cd5ce1758e90f12ae1123","650c16f0f2faf8d7a0d14c09","651c1db03c158adada7643af","null","null","<p style=""font-size: 60px; font-family: BACS"">OEPkATc</p>","","","","","","","","",""
"html-keyboard-response","79","155827","0.0-8.0-0.71","5f6cd5ce1758e90f12ae1123","650c16f0f2faf8d7a0d14c09","651c1db03c158adada7643af","null","null","<p style=""font-size: 60px; font-family: BACS"">hTDdTmc</p>","","","","","","","","",""
"html-keyboard-response","80","156828","0.0-8.0-0.72","5f6cd5ce1758e90f12ae1123","650c16f0f2faf8d7a0d14c09","651c1db03c158adada7643af","null","null","<p style=""font-size: 60px; font-family: BACS"">BECkOYK</p>","","","","","","","","",""
"html-keyboard-response","81","157829","0.0-8.0-0.73","5f6cd5ce1758e90f12ae1123","650c16f0f2faf8d7a0d14c09","651c1db03c158adada7643af","null","null","<p style=""font-size: 60px; font-family: BACS"">dMThkhBK</p>","","","","","","","","",""
"html-keyboard-response","82","158830","0.0-8.0-0.74","5f6cd5ce1758e90f12ae1123","650c16f0f2faf8d7a0d14c09","651c1db03c158adada7643af","null","null","<p style=""font-size: 60px; font-family: BACS"">tdDdATc</p>","","","","","","","","",""
"html-keyboard-response","83","159842","0.0-8.0-0.75","5f6cd5ce1758e90f12ae1123","650c16f0f2faf8d7a0d14c09","651c1db03c158adada7643af","null","null","<p style=""font-size: 60px; font-family: BACS"">YQbcravu</p>","","","","","","","","",""
"html-keyboard-response","84","160846","0.0-8.0-0.76","5f6cd5ce1758e90f12ae1123","650c16f0f2faf8d7a0d14c09","651c1db03c158adada7643af","null","null","<p style=""font-size: 60px; font-family: BACS"">hTDdhBK</p>","","","","","","","","",""
"html-keyboard-response","85","161855","0.0-8.0-0.77","5f6cd5ce1758e90f12ae1123","650c16f0f2faf8d7a0d14c09","651c1db03c158adada7643af","null","null","<p style=""font-size: 60px; font-family: BACS"">ZcGdNrba</p>","","","","","","","","",""
"html-keyboard-response","86","162855","0.0-8.0-0.78","5f6cd5ce1758e90f12ae1123","650c16f0f2faf8d7a0d14c09","651c1db03c158adada7643af","null","null","<p style=""font-size: 60px; font-family: BACS"">kabJbvcb</p>","","","","","","","","",""
"html-keyboard-response","87","163860","0.0-8.0-0.79","5f6cd5ce1758e90f12ae1123","650c16f0f2faf8d7a0d14c09","651c1db03c158adada7643af","null","null","<p style=""font-size: 60px; font-family: BACS"">BOCRMhBK</p>","","","","","","","","",""
"html-keyboard-response","88","169385","0.0-9.0","5f6cd5ce1758e90f12ae1123","650c16f0f2faf8d7a0d14c09","651c1db03c158adada7643af","5524"," ","<p>Great, you've seen the first block of words. You may now take a short break.</p>
      <p>Press the spacebar when you're ready to continue.</p>","","","","","","","","",""
"html-keyboard-response","89","170386","0.0-10.0-0.0","5f6cd5ce1758e90f12ae1123","650c16f0f2faf8d7a0d14c09","651c1db03c158adada7643af","null","null","<p style=""font-size: 60px; font-family: BACS"">mBYlOYK</p>","","","","","","","","",""
"html-keyboard-response","90","171390","0.0-10.0-0.1","5f6cd5ce1758e90f12ae1123","650c16f0f2faf8d7a0d14c09","651c1db03c158adada7643af","null","null","<p style=""font-size: 60px; font-family: BACS"">cAZuravu</p>","","","","","","","","",""
"html-keyboard-response","91","172393","0.0-10.0-0.2","5f6cd5ce1758e90f12ae1123","650c16f0f2faf8d7a0d14c09","651c1db03c158adada7643af","null","null","<p style=""font-size: 60px; font-family: BACS"">mhtcRDM</p>","","","","","","","","",""
"html-keyboard-response","92","173406","0.0-10.0-0.3","5f6cd5ce1758e90f12ae1123","650c16f0f2faf8d7a0d14c09","651c1db03c158adada7643af","null","null","<p style=""font-size: 60px; font-family: BACS"">LvuOGUZu</p>","","","","","","","","",""
"html-keyboard-response","93","174412","0.0-10.0-0.4","5f6cd5ce1758e90f12ae1123","650c16f0f2faf8d7a0d14c09","651c1db03c158adada7643af","null","null","<p style=""font-size: 60px; font-family: BACS"">BECkhBK</p>","","","","","","","","",""
"html-keyboard-response","94","175416","0.0-10.0-0.5","5f6cd5ce1758e90f12ae1123","650c16f0f2faf8d7a0d14c09","651c1db03c158adada7643af","null","null","<p style=""font-size: 60px; font-family: BACS"">mrOdLkNc</p>","","","","","","","","",""
"html-keyboard-response","95","176432","0.0-10.0-0.6","5f6cd5ce1758e90f12ae1123","650c16f0f2faf8d7a0d14c09","651c1db03c158adada7643af","null","null","<p style=""font-size: 60px; font-family: BACS"">ckduAUZu</p>","","","","","","","","",""
"html-keyboard-response","96","177437","0.0-10.0-0.7","5f6cd5ce1758e90f12ae1123","650c16f0f2faf8d7a0d14c09","651c1db03c158adada7643af","null","null","<p style=""font-size: 60px; font-family: BACS"">cAZuvcb</p>","","","","","","","","",""
"html-keyboard-response","97","178440","0.0-10.0-0.8","5f6cd5ce1758e90f12ae1123","650c16f0f2faf8d7a0d14c09","651c1db03c158adada7643af","null","null","<p style=""font-size: 60px; font-family: BACS"">ckduArba</p>","","","","","","","","",""
"html-keyboard-response","98","179442","0.0-10.0-0.9","5f6cd5ce1758e90f12ae1123","650c16f0f2faf8d7a0d14c09","651c1db03c158adada7643af","null","null","<p style=""font-size: 60px; font-family: BACS"">YQbcLkNc</p>","","","","","","","","",""
"html-keyboard-response","99","180448","0.0-10.0-0.10","5f6cd5ce1758e90f12ae1123","650c16f0f2faf8d7a0d14c09","651c1db03c158adada7643af","null","null","<p style=""font-size: 60px; font-family: BACS"">BECkOYK</p>","","","","","","","","",""
"html-keyboard-response","100","181455","0.0-10.0-0.11","5f6cd5ce1758e90f12ae1123","650c16f0f2faf8d7a0d14c09","651c1db03c158adada7643af","null","null","<p style=""font-size: 60px; font-family: BACS"">ukYZLkNc</p>","","","","","","","","",""
"html-keyboard-response","101","182465","0.0-10.0-0.12","5f6cd5ce1758e90f12ae1123","650c16f0f2faf8d7a0d14c09","651c1db03c158adada7643af","null","null","<p style=""font-size: 60px; font-family: BACS"">ZcGdNvcb</p>","","","","","","","","",""
"html-keyboard-response","102","183469","0.0-10.0-0.13","5f6cd5ce1758e90f12ae1123","650c16f0f2faf8d7a0d14c09","651c1db03c158adada7643af","null","null","<p style=""font-size: 60px; font-family: BACS"">tdDdATc</p>","","","","","","","","",""
"html-keyboard-response","103","184478","0.0-10.0-0.14","5f6cd5ce1758e90f12ae1123","650c16f0f2faf8d7a0d14c09","651c1db03c158adada7643af","null","null","<p style=""font-size: 60px; font-family: BACS"">ukYZvcb</p>","","","","","","","","",""
"html-keyboard-response","104","185486","0.0-10.0-0.15","5f6cd5ce1758e90f12ae1123","650c16f0f2faf8d7a0d14c09","651c1db03c158adada7643af","null","null","<p style=""font-size: 60px; font-family: BACS"">ZcGdNUZu</p>","","","","","","","","",""
"html-keyboard-response","105","186496","0.0-10.0-0.16","5f6cd5ce1758e90f12ae1123","650c16f0f2faf8d7a0d14c09","651c1db03c158adada7643af","null","null","<p style=""font-size: 60px; font-family: BACS"">RYtkcATc</p>","","","","","","","","",""
"html-keyboard-response","106","187505","0.0-10.0-0.17","5f6cd5ce1758e90f12ae1123","650c16f0f2faf8d7a0d14c09","651c1db03c158adada7643af","null","null","<p style=""font-size: 60px; font-family: BACS"">cAZuLkNc</p>","","","","","","","","",""
"html-keyboard-response","107","188511","0.0-10.0-0.18","5f6cd5ce1758e90f12ae1123","650c16f0f2faf8d7a0d14c09","651c1db03c158adada7643af","null","null","<p style=""font-size: 60px; font-family: BACS"">LvuOGrba</p>","","","","","","","","",""
"html-keyboard-response","108","189517","0.0-10.0-0.19","5f6cd5ce1758e90f12ae1123","650c16f0f2faf8d7a0d14c09","651c1db03c158adada7643af","null","null","<p style=""font-size: 60px; font-family: BACS"">OEPkhBK</p>","","","","","","","","",""
"html-keyboard-response","109","190524","0.0-10.0-0.20","5f6cd5ce1758e90f12ae1123","650c16f0f2faf8d7a0d14c09","651c1db03c158adada7643af","null","null","<p style=""font-size: 60px; font-family: BACS"">mhtcATc</p>","","","","","","","","",""
"html-keyboard-response","110","191531","0.0-10.0-0.21","5f6cd5ce1758e90f12ae1123","650c16f0f2faf8d7a0d14c09","651c1db03c158adada7643af","null","null","<p style=""font-size: 60px; font-family: BACS"">YQbcvcb</p>","","","","","","","","",""
"html-keyboard-response","111","192536","0.0-10.0-0.22","5f6cd5ce1758e90f12ae1123","650c16f0f2faf8d7a0d14c09","651c1db03c158adada7643af","null","null","<p style=""font-size: 60px; font-family: BACS"">GAcYravu</p>","","","","","","","","",""
"html-keyboard-response","112","193542","0.0-10.0-0.23","5f6cd5ce1758e90f12ae1123","650c16f0f2faf8d7a0d14c09","651c1db03c158adada7643af","null","null","<p style=""font-size: 60px; font-family: BACS"">OEPkRDM</p>","","","","","","","","",""
"html-keyboard-response","113","194547","0.0-10.0-0.24","5f6cd5ce1758e90f12ae1123","650c16f0f2faf8d7a0d14c09","651c1db03c158adada7643af","null","null","<p style=""font-size: 60px; font-family: BACS"">kabJbravu</p>","","","","","","","","",""
"html-keyboard-response","114","195550","0.0-10.0-0.25","5f6cd5ce1758e90f12ae1123","650c16f0f2faf8d7a0d14c09","651c1db03c158adada7643af","null","null","<p style=""font-size: 60px; font-family: BACS"">Udbdvcb</p>","","","","","","","","",""
"html-keyboard-response","115","196553","0.0-10.0-0.26","5f6cd5ce1758e90f12ae1123","650c16f0f2faf8d7a0d14c09","651c1db03c158adada7643af","null","null","<p style=""font-size: 60px; font-family: BACS"">ZcGdNrba</p>","","","","","","","","",""
"html-keyboard-response","116","197565","0.0-10.0-0.27","5f6cd5ce1758e90f12ae1123","650c16f0f2faf8d7a0d14c09","651c1db03c158adada7643af","null","null","<p style=""font-size: 60px; font-family: BACS"">YKRkOYK</p>","","","","","","","","",""
"html-keyboard-response","117","198569","0.0-10.0-0.28","5f6cd5ce1758e90f12ae1123","650c16f0f2faf8d7a0d14c09","651c1db03c158adada7643af","null","null","<p style=""font-size: 60px; font-family: BACS"">hTDdRDM</p>","","","","","","","","",""
"html-keyboard-response","118","199572","0.0-10.0-0.29","5f6cd5ce1758e90f12ae1123","650c16f0f2faf8d7a0d14c09","651c1db03c158adada7643af","null","null","<p style=""font-size: 60px; font-family: BACS"">ukYZUZu</p>","","","","","","","","",""
"html-keyboard-response","119","200579","0.0-10.0-0.30","5f6cd5ce1758e90f12ae1123","650c16f0f2faf8d7a0d14c09","651c1db03c158adada7643af","null","null","<p style=""font-size: 60px; font-family: BACS"">LvuOGvcb</p>","","","","","","","","",""
"html-keyboard-response","120","201587","0.0-10.0-0.31","5f6cd5ce1758e90f12ae1123","650c16f0f2faf8d7a0d14c09","651c1db03c158adada7643af","null","null","<p style=""font-size: 60px; font-family: BACS"">cAZurba</p>","","","","","","","","",""
"html-keyboard-response","121","202588","0.0-10.0-0.32","5f6cd5ce1758e90f12ae1123","650c16f0f2faf8d7a0d14c09","651c1db03c158adada7643af","null","null","<p style=""font-size: 60px; font-family: BACS"">GAcYLkNc</p>","","","","","","","","",""
"html-keyboard-response","122","203602","0.0-10.0-0.33","5f6cd5ce1758e90f12ae1123","650c16f0f2faf8d7a0d14c09","651c1db03c158adada7643af","null","null","<p style=""font-size: 60px; font-family: BACS"">mhtchBK</p>","","","","","","","","",""
"html-keyboard-response","123","204604","0.0-10.0-0.34","5f6cd5ce1758e90f12ae1123","650c16f0f2faf8d7a0d14c09","651c1db03c158adada7643af","null","null","<p style=""font-size: 60px; font-family: BACS"">dMThkOYK</p>","","","","","","","","",""
"html-keyboard-response","124","205611","0.0-10.0-0.35","5f6cd5ce1758e90f12ae1123","650c16f0f2faf8d7a0d14c09","651c1db03c158adada7643af","null","null","<p style=""font-size: 60px; font-family: BACS"">hTDdATc</p>","","","","","","","","",""
"html-keyboard-response","125","206618","0.0-10.0-0.36","5f6cd5ce1758e90f12ae1123","650c16f0f2faf8d7a0d14c09","651c1db03c158adada7643af","null","null","<p style=""font-size: 60px; font-family: BACS"">kabJbUZu</p>","","","","","","","","",""
"html-keyboard-response","126","207622","0.0-10.0-0.37","5f6cd5ce1758e90f12ae1123","650c16f0f2faf8d7a0d14c09","651c1db03c158adada7643af","null","null","<p style=""font-size: 60px; font-family: BACS"">mBYlATc</p>","","","","","","","","",""
"html-keyboard-response","127","208630","0.0-10.0-0.38","5f6cd5ce1758e90f12ae1123","650c16f0f2faf8d7a0d14c09","651c1db03c158adada7643af","null","null","<p style=""font-size: 60px; font-family: BACS"">mrOdvcb</p>","","","","","","","","",""
"html-keyboard-response","128","209637","0.0-10.0-0.39","5f6cd5ce1758e90f12ae1123","650c16f0f2faf8d7a0d14c09","651c1db03c158adada7643af","null","null","<p style=""font-size: 60px; font-family: BACS"">dMThkRDM</p>","","","","","","","","",""
"html-keyboard-response","129","210638","0.0-10.0-0.40","5f6cd5ce1758e90f12ae1123","650c16f0f2faf8d7a0d14c09","651c1db03c158adada7643af","null","null","<p style=""font-size: 60px; font-family: BACS"">YQbcravu</p>","","","","","","","","",""
"html-keyboard-response","130","211649","0.0-10.0-0.41","5f6cd5ce1758e90f12ae1123","650c16f0f2faf8d7a0d14c09","651c1db03c158adada7643af","null","null","<p style=""font-size: 60px; font-family: BACS"">BECkRDM</p>","","","","","","","","",""
"html-keyboard-response","131","212655","0.0-10.0-0.42","5f6cd5ce1758e90f12ae1123","650c16f0f2faf8d7a0d14c09","651c1db03c158adada7643af","null","null","<p style=""font-size: 60px; font-family: BACS"">RYtkcTmc</p>","","","","","","","","",""
"html-keyboard-response","132","213665","0.0-10.0-0.43","5f6cd5ce1758e90f12ae1123","650c16f0f2faf8d7a0d14c09","651c1db03c158adada7643af","null","null","<p style=""font-size: 60px; font-family: BACS"">GAcYrba</p>","","","","","","","","",""
"html-keyboard-response","133","214667","0.0-10.0-0.44","5f6cd5ce1758e90f12ae1123","650c16f0f2faf8d7a0d14c09","651c1db03c158adada7643af","null","null","<p style=""font-size: 60px; font-family: BACS"">hTDdTmc</p>","","","","","","","","",""
"html-keyboard-response","134","215668","0.0-10.0-0.45","5f6cd5ce1758e90f12ae1123","650c16f0f2faf8d7a0d14c09","651c1db03c158adada7643af","null","null","<p style=""font-size: 60px; font-family: BACS"">BOCRMhBK</p>","","","","","","","","",""
"html-keyboard-response","135","216682","0.0-10.0-0.46","5f6cd5ce1758e90f12ae1123","650c16f0f2faf8d7a0d14c09","651c1db03c158adada7643af","null","null","<p style=""font-size: 60px; font-family: BACS"">ZcGdNravu</p>","","","","","","","","",""
"html-keyboard-response","136","217687","0.0-10.0-0.47","5f6cd5ce1758e90f12ae1123","650c16f0f2faf8d7a0d14c09","651c1db03c158adada7643af","null","null","<p style=""font-size: 60px; font-family: BACS"">Udbdrba</p>","","","","","","","","",""
"html-keyboard-response","137","218691","0.0-10.0-0.48","5f6cd5ce1758e90f12ae1123","650c16f0f2faf8d7a0d14c09","651c1db03c158adada7643af","null","null","<p style=""font-size: 60px; font-family: BACS"">OEPkATc</p>","","","","","","","","",""
"html-keyboard-response","138","219700","0.0-10.0-0.49","5f6cd5ce1758e90f12ae1123","650c16f0f2faf8d7a0d14c09","651c1db03c158adada7643af","null","null","<p style=""font-size: 60px; font-family: BACS"">BOCRMRDM</p>","","","","","","","","",""
"html-keyboard-response","139","220704","0.0-10.0-0.50","5f6cd5ce1758e90f12ae1123","650c16f0f2faf8d7a0d14c09","651c1db03c158adada7643af","null","null","<p style=""font-size: 60px; font-family: BACS"">LvuOGLkNc</p>","","","","","","","","",""
"html-keyboard-response","140","221709","0.0-10.0-0.51","5f6cd5ce1758e90f12ae1123","650c16f0f2faf8d7a0d14c09","651c1db03c158adada7643af","null","null","<p style=""font-size: 60px; font-family: BACS"">GAcYUZu</p>","","","","","","","","",""
"html-keyboard-response","141","222717","0.0-10.0-0.52","5f6cd5ce1758e90f12ae1123","650c16f0f2faf8d7a0d14c09","651c1db03c158adada7643af","null","null","<p style=""font-size: 60px; font-family: BACS"">kabJbvcb</p>","","","","","","","","",""
"html-keyboard-response","142","223721","0.0-10.0-0.53","5f6cd5ce1758e90f12ae1123","650c16f0f2faf8d7a0d14c09","651c1db03c158adada7643af","null","null","<p style=""font-size: 60px; font-family: BACS"">dMThkhBK</p>","","","","","","","","",""
"html-keyboard-response","143","224732","0.0-10.0-0.54","5f6cd5ce1758e90f12ae1123","650c16f0f2faf8d7a0d14c09","651c1db03c158adada7643af","null","null","<p style=""font-size: 60px; font-family: BACS"">BOCRMTmc</p>","","","","","","","","",""
"html-keyboard-response","144","225737","0.0-10.0-0.55","5f6cd5ce1758e90f12ae1123","650c16f0f2faf8d7a0d14c09","651c1db03c158adada7643af","null","null","<p style=""font-size: 60px; font-family: BACS"">YKRkRDM</p>","","","","","","","","",""
"html-keyboard-response","145","226745","0.0-10.0-0.56","5f6cd5ce1758e90f12ae1123","650c16f0f2faf8d7a0d14c09","651c1db03c158adada7643af","null","null","<p style=""font-size: 60px; font-family: BACS"">BECkATc</p>","","","","","","","","",""
"html-keyboard-response","146","227753","0.0-10.0-0.57","5f6cd5ce1758e90f12ae1123","650c16f0f2faf8d7a0d14c09","651c1db03c158adada7643af","null","null","<p style=""font-size: 60px; font-family: BACS"">ckduALkNc</p>","","","","","","","","",""
"html-keyboard-response","147","228763","0.0-10.0-0.58","5f6cd5ce1758e90f12ae1123","650c16f0f2faf8d7a0d14c09","651c1db03c158adada7643af","null","null","<p style=""font-size: 60px; font-family: BACS"">mBYlTmc</p>","","","","","","","","",""
"html-keyboard-response","148","229768","0.0-10.0-0.59","5f6cd5ce1758e90f12ae1123","650c16f0f2faf8d7a0d14c09","651c1db03c158adada7643af","null","null","<p style=""font-size: 60px; font-family: BACS"">YKRkATc</p>","","","","","","","","",""
"html-keyboard-response","149","230769","0.0-10.0-0.60","5f6cd5ce1758e90f12ae1123","650c16f0f2faf8d7a0d14c09","651c1db03c158adada7643af","null","null","<p style=""font-size: 60px; font-family: BACS"">BOCRMOYK</p>","","","","","","","","",""
"html-keyboard-response","150","231781","0.0-10.0-0.61","5f6cd5ce1758e90f12ae1123","650c16f0f2faf8d7a0d14c09","651c1db03c158adada7643af","null","null","<p style=""font-size: 60px; font-family: BACS"">hTDdhBK</p>","","","","","","","","",""
"html-keyboard-response","151","232786","0.0-10.0-0.62","5f6cd5ce1758e90f12ae1123","650c16f0f2faf8d7a0d14c09","651c1db03c158adada7643af","null","null","<p style=""font-size: 60px; font-family: BACS"">tdDdOYK</p>","","","","","","","","",""
"html-keyboard-response","152","233795","0.0-10.0-0.63","5f6cd5ce1758e90f12ae1123","650c16f0f2faf8d7a0d14c09","651c1db03c158adada7643af","null","null","<p style=""font-size: 60px; font-family: BACS"">kabJbLkNc</p>","","","","","","","","",""
"html-keyboard-response","153","234803","0.0-10.0-0.64","5f6cd5ce1758e90f12ae1123","650c16f0f2faf8d7a0d14c09","651c1db03c158adada7643af","null","null","<p style=""font-size: 60px; font-family: BACS"">tdDdTmc</p>","","","","","","","","",""
"html-keyboard-response","154","235806","0.0-10.0-0.65","5f6cd5ce1758e90f12ae1123","650c16f0f2faf8d7a0d14c09","651c1db03c158adada7643af","null","null","<p style=""font-size: 60px; font-family: BACS"">RYtkcOYK</p>","","","","","","","","",""
"html-keyboard-response","155","236810","0.0-10.0-0.66","5f6cd5ce1758e90f12ae1123","650c16f0f2faf8d7a0d14c09","651c1db03c158adada7643af","null","null","<p style=""font-size: 60px; font-family: BACS"">mrOdravu</p>","","","","","","","","",""
"html-keyboard-response","156","237812","0.0-10.0-0.67","5f6cd5ce1758e90f12ae1123","650c16f0f2faf8d7a0d14c09","651c1db03c158adada7643af","null","null","<p style=""font-size: 60px; font-family: BACS"">OEPkOYK</p>","","","","","","","","",""
"html-keyboard-response","157","238813","0.0-10.0-0.68","5f6cd5ce1758e90f12ae1123","650c16f0f2faf8d7a0d14c09","651c1db03c158adada7643af","null","null","<p style=""font-size: 60px; font-family: BACS"">RYtkcRDM</p>","","","","","","","","",""
"html-keyboard-response","158","239823","0.0-10.0-0.69","5f6cd5ce1758e90f12ae1123","650c16f0f2faf8d7a0d14c09","651c1db03c158adada7643af","null","null","<p style=""font-size: 60px; font-family: BACS"">YQbcrba</p>","","","","","","","","",""
"html-keyboard-response","159","240830","0.0-10.0-0.70","5f6cd5ce1758e90f12ae1123","650c16f0f2faf8d7a0d14c09","651c1db03c158adada7643af","null","null","<p style=""font-size: 60px; font-family: BACS"">Udbdravu</p>","","","","","","","","",""
"html-keyboard-response","160","241836","0.0-10.0-0.71","5f6cd5ce1758e90f12ae1123","650c16f0f2faf8d7a0d14c09","651c1db03c158adada7643af","null","null","<p style=""font-size: 60px; font-family: BACS"">mrOdUZu</p>","","","","","","","","",""
"html-keyboard-response","161","242844","0.0-10.0-0.72","5f6cd5ce1758e90f12ae1123","650c16f0f2faf8d7a0d14c09","651c1db03c158adada7643af","null","null","<p style=""font-size: 60px; font-family: BACS"">dMThkTmc</p>","","","","","","","","",""
"html-keyboard-response","162","243850","0.0-10.0-0.73","5f6cd5ce1758e90f12ae1123","650c16f0f2faf8d7a0d14c09","651c1db03c158adada7643af","null","null","<p style=""font-size: 60px; font-family: BACS"">tdDdhBK</p>","","","","","","","","",""
"html-keyboard-response","163","244851","0.0-10.0-0.74","5f6cd5ce1758e90f12ae1123","650c16f0f2faf8d7a0d14c09","651c1db03c158adada7643af","null","null","<p style=""font-size: 60px; font-family: BACS"">UdbdUZu</p>","","","","","","","","",""
"html-keyboard-response","164","245860","0.0-10.0-0.75","5f6cd5ce1758e90f12ae1123","650c16f0f2faf8d7a0d14c09","651c1db03c158adada7643af","null","null","<p style=""font-size: 60px; font-family: BACS"">ckduAravu</p>","","","","","","","","",""
"html-keyboard-response","165","246862","0.0-10.0-0.76","5f6cd5ce1758e90f12ae1123","650c16f0f2faf8d7a0d14c09","651c1db03c158adada7643af","null","null","<p style=""font-size: 60px; font-family: BACS"">ukYZrba</p>","","","","","","","","",""
"html-keyboard-response","166","247864","0.0-10.0-0.77","5f6cd5ce1758e90f12ae1123","650c16f0f2faf8d7a0d14c09","651c1db03c158adada7643af","null","null","<p style=""font-size: 60px; font-family: BACS"">mhtcTmc</p>","","","","","","","","",""
"html-keyboard-response","167","248866","0.0-10.0-0.78","5f6cd5ce1758e90f12ae1123","650c16f0f2faf8d7a0d14c09","651c1db03c158adada7643af","null","null","<p style=""font-size: 60px; font-family: BACS"">mBYlhBK</p>","","","","","","","","",""
"html-keyboard-response","168","249867","0.0-10.0-0.79","5f6cd5ce1758e90f12ae1123","650c16f0f2faf8d7a0d14c09","651c1db03c158adada7643af","null","null","<p style=""font-size: 60px; font-family: BACS"">YKRkTmc</p>","","","","","","","","",""
"html-keyboard-response","169","294555","0.0-11.0","5f6cd5ce1758e90f12ae1123","650c16f0f2faf8d7a0d14c09","651c1db03c158adada7643af","44688"," ","<p>Great, you've seen the second block of words. You may now take a short break.</p>
      <p>Press the spacebar when you're ready to continue.</p>","","","","","","","","",""
"html-keyboard-response","170","295559","0.0-12.0-0.0","5f6cd5ce1758e90f12ae1123","650c16f0f2faf8d7a0d14c09","651c1db03c158adada7643af","null","null","<p style=""font-size: 60px; font-family: BACS"">ZcGdNrba</p>","","","","","","","","",""
"html-keyboard-response","171","296567","0.0-12.0-0.1","5f6cd5ce1758e90f12ae1123","650c16f0f2faf8d7a0d14c09","651c1db03c158adada7643af","null","null","<p style=""font-size: 60px; font-family: BACS"">OEPkATc</p>","","","","","","","","",""
"html-keyboard-response","172","297571","0.0-12.0-0.2","5f6cd5ce1758e90f12ae1123","650c16f0f2faf8d7a0d14c09","651c1db03c158adada7643af","null","null","<p style=""font-size: 60px; font-family: BACS"">YQbcrba</p>","","","","","","","","",""
"html-keyboard-response","173","298580","0.0-12.0-0.3","5f6cd5ce1758e90f12ae1123","650c16f0f2faf8d7a0d14c09","651c1db03c158adada7643af","null","null","<p style=""font-size: 60px; font-family: BACS"">BECkhBK</p>","","","","","","","","",""
"html-keyboard-response","174","299584","0.0-12.0-0.4","5f6cd5ce1758e90f12ae1123","650c16f0f2faf8d7a0d14c09","651c1db03c158adada7643af","null","null","<p style=""font-size: 60px; font-family: BACS"">mrOdvcb</p>","","","","","","","","",""
"html-keyboard-response","175","300590","0.0-12.0-0.5","5f6cd5ce1758e90f12ae1123","650c16f0f2faf8d7a0d14c09","651c1db03c158adada7643af","null","null","<p style=""font-size: 60px; font-family: BACS"">mBYlATc</p>","","","","","","","","",""
"html-keyboard-response","176","301591","0.0-12.0-0.6","5f6cd5ce1758e90f12ae1123","650c16f0f2faf8d7a0d14c09","651c1db03c158adada7643af","null","null","<p style=""font-size: 60px; font-family: BACS"">cAZuLkNc</p>","","","","","","","","",""
"html-keyboard-response","177","302603","0.0-12.0-0.7","5f6cd5ce1758e90f12ae1123","650c16f0f2faf8d7a0d14c09","651c1db03c158adada7643af","null","null","<p style=""font-size: 60px; font-family: BACS"">hTDdhBK</p>","","","","","","","","",""
"html-keyboard-response","178","303604","0.0-12.0-0.8","5f6cd5ce1758e90f12ae1123","650c16f0f2faf8d7a0d14c09","651c1db03c158adada7643af","null","null","<p style=""font-size: 60px; font-family: BACS"">cAZurba</p>","","","","","","","","",""
"html-keyboard-response","179","304616","0.0-12.0-0.9","5f6cd5ce1758e90f12ae1123","650c16f0f2faf8d7a0d14c09","651c1db03c158adada7643af","null","null","<p style=""font-size: 60px; font-family: BACS"">kabJbUZu</p>","","","","","","","","",""
"html-keyboard-response","180","305618","0.0-12.0-0.10","5f6cd5ce1758e90f12ae1123","650c16f0f2faf8d7a0d14c09","651c1db03c158adada7643af","null","null","<p style=""font-size: 60px; font-family: BACS"">ckduAravu</p>","","","","","","","","",""
"html-keyboard-response","181","306619","0.0-12.0-0.11","5f6cd5ce1758e90f12ae1123","650c16f0f2faf8d7a0d14c09","651c1db03c158adada7643af","null","null","<p style=""font-size: 60px; font-family: BACS"">tdDdTmc</p>","","","","","","","","",""
"html-keyboard-response","182","307620","0.0-12.0-0.12","5f6cd5ce1758e90f12ae1123","650c16f0f2faf8d7a0d14c09","651c1db03c158adada7643af","null","null","<p style=""font-size: 60px; font-family: BACS"">ukYZrba</p>","","","","","","","","",""
"html-keyboard-response","183","308636","0.0-12.0-0.13","5f6cd5ce1758e90f12ae1123","650c16f0f2faf8d7a0d14c09","651c1db03c158adada7643af","null","null","<p style=""font-size: 60px; font-family: BACS"">OEPkhBK</p>","","","","","","","","",""
"html-keyboard-response","184","309638","0.0-12.0-0.14","5f6cd5ce1758e90f12ae1123","650c16f0f2faf8d7a0d14c09","651c1db03c158adada7643af","null","null","<p style=""font-size: 60px; font-family: BACS"">GAcYUZu</p>","","","","","","","","",""
"html-keyboard-response","185","310646","0.0-12.0-0.15","5f6cd5ce1758e90f12ae1123","650c16f0f2faf8d7a0d14c09","651c1db03c158adada7643af","null","null","<p style=""font-size: 60px; font-family: BACS"">YQbcvcb</p>","","","","","","","","",""
"html-keyboard-response","186","311648","0.0-12.0-0.16","5f6cd5ce1758e90f12ae1123","650c16f0f2faf8d7a0d14c09","651c1db03c158adada7643af","null","null","<p style=""font-size: 60px; font-family: BACS"">BOCRMOYK</p>","","","","","","","","",""
"html-keyboard-response","187","312655","0.0-12.0-0.17","5f6cd5ce1758e90f12ae1123","650c16f0f2faf8d7a0d14c09","651c1db03c158adada7643af","null","null","<p style=""font-size: 60px; font-family: BACS"">dMThkTmc</p>","","","","","","","","",""
"html-keyboard-response","188","313663","0.0-12.0-0.18","5f6cd5ce1758e90f12ae1123","650c16f0f2faf8d7a0d14c09","651c1db03c158adada7643af","null","null","<p style=""font-size: 60px; font-family: BACS"">RYtkcOYK</p>","","","","","","","","",""
"html-keyboard-response","189","314664","0.0-12.0-0.19","5f6cd5ce1758e90f12ae1123","650c16f0f2faf8d7a0d14c09","651c1db03c158adada7643af","null","null","<p style=""font-size: 60px; font-family: BACS"">mhtcTmc</p>","","","","","","","","",""
"html-keyboard-response","190","315676","0.0-12.0-0.20","5f6cd5ce1758e90f12ae1123","650c16f0f2faf8d7a0d14c09","651c1db03c158adada7643af","null","null","<p style=""font-size: 60px; font-family: BACS"">UdbdUZu</p>","","","","","","","","",""
"html-keyboard-response","191","316678","0.0-12.0-0.21","5f6cd5ce1758e90f12ae1123","650c16f0f2faf8d7a0d14c09","651c1db03c158adada7643af","null","null","<p style=""font-size: 60px; font-family: BACS"">mrOdLkNc</p>","","","","","","","","",""
"html-keyboard-response","192","317691","0.0-12.0-0.22","5f6cd5ce1758e90f12ae1123","650c16f0f2faf8d7a0d14c09","651c1db03c158adada7643af","null","null","<p style=""font-size: 60px; font-family: BACS"">BECkOYK</p>","","","","","","","","",""
"html-keyboard-response","193","318703","0.0-12.0-0.23","5f6cd5ce1758e90f12ae1123","650c16f0f2faf8d7a0d14c09","651c1db03c158adada7643af","null","null","<p style=""font-size: 60px; font-family: BACS"">mrOdUZu</p>","","","","","","","","",""
"html-keyboard-response","194","319710","0.0-12.0-0.24","5f6cd5ce1758e90f12ae1123","650c16f0f2faf8d7a0d14c09","651c1db03c158adada7643af","null","null","<p style=""font-size: 60px; font-family: BACS"">YKRkATc</p>","","","","","","","","",""
"html-keyboard-response","195","320719","0.0-12.0-0.25","5f6cd5ce1758e90f12ae1123","650c16f0f2faf8d7a0d14c09","651c1db03c158adada7643af","null","null","<p style=""font-size: 60px; font-family: BACS"">ckduArba</p>","","","","","","","","",""
"html-keyboard-response","196","321720","0.0-12.0-0.26","5f6cd5ce1758e90f12ae1123","650c16f0f2faf8d7a0d14c09","651c1db03c158adada7643af","null","null","<p style=""font-size: 60px; font-family: BACS"">hTDdATc</p>","","","","","","","","",""
"html-keyboard-response","197","322734","0.0-12.0-0.27","5f6cd5ce1758e90f12ae1123","650c16f0f2faf8d7a0d14c09","651c1db03c158adada7643af","null","null","<p style=""font-size: 60px; font-family: BACS"">cAZuravu</p>","","","","","","","","",""
"html-keyboard-response","198","323739","0.0-12.0-0.28","5f6cd5ce1758e90f12ae1123","650c16f0f2faf8d7a0d14c09","651c1db03c158adada7643af","null","null","<p style=""font-size: 60px; font-family: BACS"">ckduALkNc</p>","","","","","","","","",""
"html-keyboard-response","199","324743","0.0-12.0-0.29","5f6cd5ce1758e90f12ae1123","650c16f0f2faf8d7a0d14c09","651c1db03c158adada7643af","null","null","<p style=""font-size: 60px; font-family: BACS"">BECkRDM</p>","","","","","","","","",""
"html-keyboard-response","200","325750","0.0-12.0-0.30","5f6cd5ce1758e90f12ae1123","650c16f0f2faf8d7a0d14c09","651c1db03c158adada7643af","null","null","<p style=""font-size: 60px; font-family: BACS"">ukYZUZu</p>","","","","","","","","",""
"html-keyboard-response","201","326769","0.0-12.0-0.31","5f6cd5ce1758e90f12ae1123","650c16f0f2faf8d7a0d14c09","651c1db03c158adada7643af","null","null","<p style=""font-size: 60px; font-family: BACS"">RYtkcATc</p>","","","","","","","","",""
"html-keyboard-response","202","327774","0.0-12.0-0.32","5f6cd5ce1758e90f12ae1123","650c16f0f2faf8d7a0d14c09","651c1db03c158adada7643af","null","null","<p style=""font-size: 60px; font-family: BACS"">BOCRMhBK</p>","","","","","","","","",""
"html-keyboard-response","203","328778","0.0-12.0-0.33","5f6cd5ce1758e90f12ae1123","650c16f0f2faf8d7a0d14c09","651c1db03c158adada7643af","null","null","<p style=""font-size: 60px; font-family: BACS"">BECkATc</p>","","","","","","","","",""
"html-keyboard-response","204","329785","0.0-12.0-0.34","5f6cd5ce1758e90f12ae1123","650c16f0f2faf8d7a0d14c09","651c1db03c158adada7643af","null","null","<p style=""font-size: 60px; font-family: BACS"">LvuOGLkNc</p>","","","","","","","","",""
"html-keyboard-response","205","330795","0.0-12.0-0.35","5f6cd5ce1758e90f12ae1123","650c16f0f2faf8d7a0d14c09","651c1db03c158adada7643af","null","null","<p style=""font-size: 60px; font-family: BACS"">dMThkOYK</p>","","","","","","","","",""
"html-keyboard-response","206","331801","0.0-12.0-0.36","5f6cd5ce1758e90f12ae1123","650c16f0f2faf8d7a0d14c09","651c1db03c158adada7643af","null","null","<p style=""font-size: 60px; font-family: BACS"">Udbdrba</p>","","","","","","","","",""
"html-keyboard-response","207","332806","0.0-12.0-0.37","5f6cd5ce1758e90f12ae1123","650c16f0f2faf8d7a0d14c09","651c1db03c158adada7643af","null","null","<p style=""font-size: 60px; font-family: BACS"">mrOdravu</p>","","","","","","","","",""
"html-keyboard-response","208","333808","0.0-12.0-0.38","5f6cd5ce1758e90f12ae1123","650c16f0f2faf8d7a0d14c09","651c1db03c158adada7643af","null","null","<p style=""font-size: 60px; font-family: BACS"">YKRkTmc</p>","","","","","","","","",""
"html-keyboard-response","209","334816","0.0-12.0-0.39","5f6cd5ce1758e90f12ae1123","650c16f0f2faf8d7a0d14c09","651c1db03c158adada7643af","null","null","<p style=""font-size: 60px; font-family: BACS"">Udbdravu</p>","","","","","","","","",""
"html-keyboard-response","210","335822","0.0-12.0-0.40","5f6cd5ce1758e90f12ae1123","650c16f0f2faf8d7a0d14c09","651c1db03c158adada7643af","null","null","<p style=""font-size: 60px; font-family: BACS"">mhtcATc</p>","","","","","","","","",""
"html-keyboard-response","211","336828","0.0-12.0-0.41","5f6cd5ce1758e90f12ae1123","650c16f0f2faf8d7a0d14c09","651c1db03c158adada7643af","null","null","<p style=""font-size: 60px; font-family: BACS"">OEPkOYK</p>","","","","","","","","",""
"html-keyboard-response","212","337834","0.0-12.0-0.42","5f6cd5ce1758e90f12ae1123","650c16f0f2faf8d7a0d14c09","651c1db03c158adada7643af","null","null","<p style=""font-size: 60px; font-family: BACS"">dMThkRDM</p>","","","","","","","","",""
"html-keyboard-response","213","338838","0.0-12.0-0.43","5f6cd5ce1758e90f12ae1123","650c16f0f2faf8d7a0d14c09","651c1db03c158adada7643af","null","null","<p style=""font-size: 60px; font-family: BACS"">mBYlTmc</p>","","","","","","","","",""
"html-keyboard-response","214","339842","0.0-12.0-0.44","5f6cd5ce1758e90f12ae1123","650c16f0f2faf8d7a0d14c09","651c1db03c158adada7643af","null","null","<p style=""font-size: 60px; font-family: BACS"">ukYZLkNc</p>","","","","","","","","",""
"html-keyboard-response","215","340851","0.0-12.0-0.45","5f6cd5ce1758e90f12ae1123","650c16f0f2faf8d7a0d14c09","651c1db03c158adada7643af","null","null","<p style=""font-size: 60px; font-family: BACS"">tdDdATc</p>","","","","","","","","",""
"html-keyboard-response","216","341858","0.0-12.0-0.46","5f6cd5ce1758e90f12ae1123","650c16f0f2faf8d7a0d14c09","651c1db03c158adada7643af","null","null","<p style=""font-size: 60px; font-family: BACS"">Udbdvcb</p>","","","","","","","","",""
"html-keyboard-response","217","342862","0.0-12.0-0.47","5f6cd5ce1758e90f12ae1123","650c16f0f2faf8d7a0d14c09","651c1db03c158adada7643af","null","null","<p style=""font-size: 60px; font-family: BACS"">ZcGdNUZu</p>","","","","","","","","",""
"html-keyboard-response","218","343869","0.0-12.0-0.48","5f6cd5ce1758e90f12ae1123","650c16f0f2faf8d7a0d14c09","651c1db03c158adada7643af","null","null","<p style=""font-size: 60px; font-family: BACS"">mBYlhBK</p>","","","","","","","","",""
"html-keyboard-response","219","344878","0.0-12.0-0.49","5f6cd5ce1758e90f12ae1123","650c16f0f2faf8d7a0d14c09","651c1db03c158adada7643af","null","null","<p style=""font-size: 60px; font-family: BACS"">hTDdTmc</p>","","","","","","","","",""
"html-keyboard-response","220","345879","0.0-12.0-0.50","5f6cd5ce1758e90f12ae1123","650c16f0f2faf8d7a0d14c09","651c1db03c158adada7643af","null","null","<p style=""font-size: 60px; font-family: BACS"">mBYlOYK</p>","","","","","","","","",""
"html-keyboard-response","221","346881","0.0-12.0-0.51","5f6cd5ce1758e90f12ae1123","650c16f0f2faf8d7a0d14c09","651c1db03c158adada7643af","null","null","<p style=""font-size: 60px; font-family: BACS"">BOCRMTmc</p>","","","","","","","","",""
"html-keyboard-response","222","347882","0.0-12.0-0.52","5f6cd5ce1758e90f12ae1123","650c16f0f2faf8d7a0d14c09","651c1db03c158adada7643af","null","null","<p style=""font-size: 60px; font-family: BACS"">YKRkRDM</p>","","","","","","","","",""
"html-keyboard-response","223","348894","0.0-12.0-0.53","5f6cd5ce1758e90f12ae1123","650c16f0f2faf8d7a0d14c09","651c1db03c158adada7643af","null","null","<p style=""font-size: 60px; font-family: BACS"">ckduAUZu</p>","","","","","","","","",""
"html-keyboard-response","224","349896","0.0-12.0-0.54","5f6cd5ce1758e90f12ae1123","650c16f0f2faf8d7a0d14c09","651c1db03c158adada7643af","null","null","<p style=""font-size: 60px; font-family: BACS"">BOCRMRDM</p>","","","","","","","","",""
"html-keyboard-response","225","350897","0.0-12.0-0.55","5f6cd5ce1758e90f12ae1123","650c16f0f2faf8d7a0d14c09","651c1db03c158adada7643af","null","null","<p style=""font-size: 60px; font-family: BACS"">YQbcravu</p>","","","","","","","","",""
"html-keyboard-response","226","351899","0.0-12.0-0.56","5f6cd5ce1758e90f12ae1123","650c16f0f2faf8d7a0d14c09","651c1db03c158adada7643af","null","null","<p style=""font-size: 60px; font-family: BACS"">hTDdRDM</p>","","","","","","","","",""
"html-keyboard-response","227","352900","0.0-12.0-0.57","5f6cd5ce1758e90f12ae1123","650c16f0f2faf8d7a0d14c09","651c1db03c158adada7643af","null","null","<p style=""font-size: 60px; font-family: BACS"">LvuOGrba</p>","","","","","","","","",""
"html-keyboard-response","228","353912","0.0-12.0-0.58","5f6cd5ce1758e90f12ae1123","650c16f0f2faf8d7a0d14c09","651c1db03c158adada7643af","null","null","<p style=""font-size: 60px; font-family: BACS"">kabJbLkNc</p>","","","","","","","","",""
"html-keyboard-response","229","354916","0.0-12.0-0.59","5f6cd5ce1758e90f12ae1123","650c16f0f2faf8d7a0d14c09","651c1db03c158adada7643af","null","null","<p style=""font-size: 60px; font-family: BACS"">OEPkRDM</p>","","","","","","","","",""
"html-keyboard-response","230","355922","0.0-12.0-0.60","5f6cd5ce1758e90f12ae1123","650c16f0f2faf8d7a0d14c09","651c1db03c158adada7643af","null","null","<p style=""font-size: 60px; font-family: BACS"">mhtchBK</p>","","","","","","","","",""
"html-keyboard-response","231","356927","0.0-12.0-0.61","5f6cd5ce1758e90f12ae1123","650c16f0f2faf8d7a0d14c09","651c1db03c158adada7643af","null","null","<p style=""font-size: 60px; font-family: BACS"">ZcGdNravu</p>","","","","","","","","",""
"html-keyboard-response","232","357932","0.0-12.0-0.62","5f6cd5ce1758e90f12ae1123","650c16f0f2faf8d7a0d14c09","651c1db03c158adada7643af","null","null","<p style=""font-size: 60px; font-family: BACS"">kabJbvcb</p>","","","","","","","","",""
"html-keyboard-response","233","358941","0.0-12.0-0.63","5f6cd5ce1758e90f12ae1123","650c16f0f2faf8d7a0d14c09","651c1db03c158adada7643af","null","null","<p style=""font-size: 60px; font-family: BACS"">tdDdOYK</p>","","","","","","","","",""
"html-keyboard-response","234","359943","0.0-12.0-0.64","5f6cd5ce1758e90f12ae1123","650c16f0f2faf8d7a0d14c09","651c1db03c158adada7643af","null","null","<p style=""font-size: 60px; font-family: BACS"">dMThkhBK</p>","","","","","","","","",""
"html-keyboard-response","235","360946","0.0-12.0-0.65","5f6cd5ce1758e90f12ae1123","650c16f0f2faf8d7a0d14c09","651c1db03c158adada7643af","null","null","<p style=""font-size: 60px; font-family: BACS"">LvuOGUZu</p>","","","","","","","","",""
"html-keyboard-response","236","361953","0.0-12.0-0.66","5f6cd5ce1758e90f12ae1123","650c16f0f2faf8d7a0d14c09","651c1db03c158adada7643af","null","null","<p style=""font-size: 60px; font-family: BACS"">kabJbravu</p>","","","","","","","","",""
"html-keyboard-response","237","362955","0.0-12.0-0.67","5f6cd5ce1758e90f12ae1123","650c16f0f2faf8d7a0d14c09","651c1db03c158adada7643af","null","null","<p style=""font-size: 60px; font-family: BACS"">YKRkOYK</p>","","","","","","","","",""
"html-keyboard-response","238","363964","0.0-12.0-0.68","5f6cd5ce1758e90f12ae1123","650c16f0f2faf8d7a0d14c09","651c1db03c158adada7643af","null","null","<p style=""font-size: 60px; font-family: BACS"">RYtkcTmc</p>","","","","","","","","",""
"html-keyboard-response","239","364973","0.0-12.0-0.69","5f6cd5ce1758e90f12ae1123","650c16f0f2faf8d7a0d14c09","651c1db03c158adada7643af","null","null","<p style=""font-size: 60px; font-family: BACS"">ZcGdNvcb</p>","","","","","","","","",""
"html-keyboard-response","240","365979","0.0-12.0-0.70","5f6cd5ce1758e90f12ae1123","650c16f0f2faf8d7a0d14c09","651c1db03c158adada7643af","null","null","<p style=""font-size: 60px; font-family: BACS"">GAcYLkNc</p>","","","","","","","","",""
"html-keyboard-response","241","366985","0.0-12.0-0.71","5f6cd5ce1758e90f12ae1123","650c16f0f2faf8d7a0d14c09","651c1db03c158adada7643af","null","null","<p style=""font-size: 60px; font-family: BACS"">RYtkcRDM</p>","","","","","","","","",""
"html-keyboard-response","242","367993","0.0-12.0-0.72","5f6cd5ce1758e90f12ae1123","650c16f0f2faf8d7a0d14c09","651c1db03c158adada7643af","null","null","<p style=""font-size: 60px; font-family: BACS"">YQbcLkNc</p>","","","","","","","","",""
"html-keyboard-response","243","369001","0.0-12.0-0.73","5f6cd5ce1758e90f12ae1123","650c16f0f2faf8d7a0d14c09","651c1db03c158adada7643af","null","null","<p style=""font-size: 60px; font-family: BACS"">GAcYrba</p>","","","","","","","","",""
"html-keyboard-response","244","370007","0.0-12.0-0.74","5f6cd5ce1758e90f12ae1123","650c16f0f2faf8d7a0d14c09","651c1db03c158adada7643af","null","null","<p style=""font-size: 60px; font-family: BACS"">tdDdhBK</p>","","","","","","","","",""
"html-keyboard-response","245","371017","0.0-12.0-0.75","5f6cd5ce1758e90f12ae1123","650c16f0f2faf8d7a0d14c09","651c1db03c158adada7643af","null","null","<p style=""font-size: 60px; font-family: BACS"">ukYZvcb</p>","","","","","","","","",""
"html-keyboard-response","246","372022","0.0-12.0-0.76","5f6cd5ce1758e90f12ae1123","650c16f0f2faf8d7a0d14c09","651c1db03c158adada7643af","null","null","<p style=""font-size: 60px; font-family: BACS"">GAcYravu</p>","","","","","","","","",""
"html-keyboard-response","247","373026","0.0-12.0-0.77","5f6cd5ce1758e90f12ae1123","650c16f0f2faf8d7a0d14c09","651c1db03c158adada7643af","null","null","<p style=""font-size: 60px; font-family: BACS"">LvuOGvcb</p>","","","","","","","","",""
"html-keyboard-response","248","374033","0.0-12.0-0.78","5f6cd5ce1758e90f12ae1123","650c16f0f2faf8d7a0d14c09","651c1db03c158adada7643af","null","null","<p style=""font-size: 60px; font-family: BACS"">mhtcRDM</p>","","","","","","","","",""
"html-keyboard-response","249","375038","0.0-12.0-0.79","5f6cd5ce1758e90f12ae1123","650c16f0f2faf8d7a0d14c09","651c1db03c158adada7643af","null","null","<p style=""font-size: 60px; font-family: BACS"">cAZuvcb</p>","","","","","","","","",""
"html-keyboard-response","250","402874","0.0-13.0","5f6cd5ce1758e90f12ae1123","650c16f0f2faf8d7a0d14c09","651c1db03c158adada7643af","27836"," ","<p>Great, you've seen the third block of words. You may now take a short break.</p>
      <p>Press the spacebar when you're ready to continue.</p>","","","","","","","","",""
"html-keyboard-response","251","403883","0.0-14.0-0.0","5f6cd5ce1758e90f12ae1123","650c16f0f2faf8d7a0d14c09","651c1db03c158adada7643af","null","null","<p style=""font-size: 60px; font-family: BACS"">RYtkcRDM</p>","","","","","","","","",""
"html-keyboard-response","252","404886","0.0-14.0-0.1","5f6cd5ce1758e90f12ae1123","650c16f0f2faf8d7a0d14c09","651c1db03c158adada7643af","null","null","<p style=""font-size: 60px; font-family: BACS"">OEPkOYK</p>","","","","","","","","",""
"html-keyboard-response","253","405887","0.0-14.0-0.2","5f6cd5ce1758e90f12ae1123","650c16f0f2faf8d7a0d14c09","651c1db03c158adada7643af","null","null","<p style=""font-size: 60px; font-family: BACS"">BOCRMRDM</p>","","","","","","","","",""
"html-keyboard-response","254","406899","0.0-14.0-0.3","5f6cd5ce1758e90f12ae1123","650c16f0f2faf8d7a0d14c09","651c1db03c158adada7643af","null","null","<p style=""font-size: 60px; font-family: BACS"">cAZuvcb</p>","","","","","","","","",""
"html-keyboard-response","255","407905","0.0-14.0-0.4","5f6cd5ce1758e90f12ae1123","650c16f0f2faf8d7a0d14c09","651c1db03c158adada7643af","null","null","<p style=""font-size: 60px; font-family: BACS"">ukYZUZu</p>","","","","","","","","",""
"html-keyboard-response","256","408912","0.0-14.0-0.5","5f6cd5ce1758e90f12ae1123","650c16f0f2faf8d7a0d14c09","651c1db03c158adada7643af","null","null","<p style=""font-size: 60px; font-family: BACS"">mBYlATc</p>","","","","","","","","",""
"html-keyboard-response","257","409917","0.0-14.0-0.6","5f6cd5ce1758e90f12ae1123","650c16f0f2faf8d7a0d14c09","651c1db03c158adada7643af","null","null","<p style=""font-size: 60px; font-family: BACS"">BECkhBK</p>","","","","","","","","",""
"html-keyboard-response","258","410921","0.0-14.0-0.7","5f6cd5ce1758e90f12ae1123","650c16f0f2faf8d7a0d14c09","651c1db03c158adada7643af","null","null","<p style=""font-size: 60px; font-family: BACS"">ZcGdNravu</p>","","","","","","","","",""
"html-keyboard-response","259","411925","0.0-14.0-0.8","5f6cd5ce1758e90f12ae1123","650c16f0f2faf8d7a0d14c09","651c1db03c158adada7643af","null","null","<p style=""font-size: 60px; font-family: BACS"">LvuOGvcb</p>","","","","","","","","",""
"html-keyboard-response","260","412927","0.0-14.0-0.9","5f6cd5ce1758e90f12ae1123","650c16f0f2faf8d7a0d14c09","651c1db03c158adada7643af","null","null","<p style=""font-size: 60px; font-family: BACS"">mBYlhBK</p>","","","","","","","","",""
"html-keyboard-response","261","413934","0.0-14.0-0.10","5f6cd5ce1758e90f12ae1123","650c16f0f2faf8d7a0d14c09","651c1db03c158adada7643af","null","null","<p style=""font-size: 60px; font-family: BACS"">tdDdTmc</p>","","","","","","","","",""
"html-keyboard-response","262","414939","0.0-14.0-0.11","5f6cd5ce1758e90f12ae1123","650c16f0f2faf8d7a0d14c09","651c1db03c158adada7643af","null","null","<p style=""font-size: 60px; font-family: BACS"">mrOdravu</p>","","","","","","","","",""
"html-keyboard-response","263","415951","0.0-14.0-0.12","5f6cd5ce1758e90f12ae1123","650c16f0f2faf8d7a0d14c09","651c1db03c158adada7643af","null","null","<p style=""font-size: 60px; font-family: BACS"">YQbcrba</p>","","","","","","","","",""
"html-keyboard-response","264","416955","0.0-14.0-0.13","5f6cd5ce1758e90f12ae1123","650c16f0f2faf8d7a0d14c09","651c1db03c158adada7643af","null","null","<p style=""font-size: 60px; font-family: BACS"">ZcGdNUZu</p>","","","","","","","","",""
"html-keyboard-response","265","417962","0.0-14.0-0.14","5f6cd5ce1758e90f12ae1123","650c16f0f2faf8d7a0d14c09","651c1db03c158adada7643af","null","null","<p style=""font-size: 60px; font-family: BACS"">cAZuLkNc</p>","","","","","","","","",""
"html-keyboard-response","266","418967","0.0-14.0-0.15","5f6cd5ce1758e90f12ae1123","650c16f0f2faf8d7a0d14c09","651c1db03c158adada7643af","null","null","<p style=""font-size: 60px; font-family: BACS"">dMThkOYK</p>","","","","","","","","",""
"html-keyboard-response","267","419975","0.0-14.0-0.16","5f6cd5ce1758e90f12ae1123","650c16f0f2faf8d7a0d14c09","651c1db03c158adada7643af","null","null","<p style=""font-size: 60px; font-family: BACS"">mhtcRDM</p>","","","","","","","","",""
"html-keyboard-response","268","420981","0.0-14.0-0.17","5f6cd5ce1758e90f12ae1123","650c16f0f2faf8d7a0d14c09","651c1db03c158adada7643af","null","null","<p style=""font-size: 60px; font-family: BACS"">LvuOGLkNc</p>","","","","","","","","",""
"html-keyboard-response","269","421983","0.0-14.0-0.18","5f6cd5ce1758e90f12ae1123","650c16f0f2faf8d7a0d14c09","651c1db03c158adada7643af","null","null","<p style=""font-size: 60px; font-family: BACS"">UdbdUZu</p>","","","","","","","","",""
"html-keyboard-response","270","422987","0.0-14.0-0.19","5f6cd5ce1758e90f12ae1123","650c16f0f2faf8d7a0d14c09","651c1db03c158adada7643af","null","null","<p style=""font-size: 60px; font-family: BACS"">tdDdOYK</p>","","","","","","","","",""
"html-keyboard-response","271","423998","0.0-14.0-0.20","5f6cd5ce1758e90f12ae1123","650c16f0f2faf8d7a0d14c09","651c1db03c158adada7643af","null","null","<p style=""font-size: 60px; font-family: BACS"">ckduALkNc</p>","","","","","","","","",""
"html-keyboard-response","272","425007","0.0-14.0-0.21","5f6cd5ce1758e90f12ae1123","650c16f0f2faf8d7a0d14c09","651c1db03c158adada7643af","null","null","<p style=""font-size: 60px; font-family: BACS"">YKRkRDM</p>","","","","","","","","",""
"html-keyboard-response","273","426014","0.0-14.0-0.22","5f6cd5ce1758e90f12ae1123","650c16f0f2faf8d7a0d14c09","651c1db03c158adada7643af","null","null","<p style=""font-size: 60px; font-family: BACS"">Udbdvcb</p>","","","","","","","","",""
"html-keyboard-response","274","427017","0.0-14.0-0.23","5f6cd5ce1758e90f12ae1123","650c16f0f2faf8d7a0d14c09","651c1db03c158adada7643af","null","null","<p style=""font-size: 60px; font-family: BACS"">mBYlTmc</p>","","","","","","","","",""
"html-keyboard-response","275","428025","0.0-14.0-0.24","5f6cd5ce1758e90f12ae1123","650c16f0f2faf8d7a0d14c09","651c1db03c158adada7643af","null","null","<p style=""font-size: 60px; font-family: BACS"">dMThkhBK</p>","","","","","","","","",""
"html-keyboard-response","276","429031","0.0-14.0-0.25","5f6cd5ce1758e90f12ae1123","650c16f0f2faf8d7a0d14c09","651c1db03c158adada7643af","null","null","<p style=""font-size: 60px; font-family: BACS"">tdDdATc</p>","","","","","","","","",""
"html-keyboard-response","277","430037","0.0-14.0-0.26","5f6cd5ce1758e90f12ae1123","650c16f0f2faf8d7a0d14c09","651c1db03c158adada7643af","null","null","<p style=""font-size: 60px; font-family: BACS"">YKRkTmc</p>","","","","","","","","",""
"html-keyboard-response","278","431042","0.0-14.0-0.27","5f6cd5ce1758e90f12ae1123","650c16f0f2faf8d7a0d14c09","651c1db03c158adada7643af","null","null","<p style=""font-size: 60px; font-family: BACS"">GAcYUZu</p>","","","","","","","","",""
"html-keyboard-response","279","432050","0.0-14.0-0.28","5f6cd5ce1758e90f12ae1123","650c16f0f2faf8d7a0d14c09","651c1db03c158adada7643af","null","null","<p style=""font-size: 60px; font-family: BACS"">kabJbLkNc</p>","","","","","","","","",""
"html-keyboard-response","280","433057","0.0-14.0-0.29","5f6cd5ce1758e90f12ae1123","650c16f0f2faf8d7a0d14c09","651c1db03c158adada7643af","null","null","<p style=""font-size: 60px; font-family: BACS"">OEPkRDM</p>","","","","","","","","",""
"html-keyboard-response","281","434061","0.0-14.0-0.30","5f6cd5ce1758e90f12ae1123","650c16f0f2faf8d7a0d14c09","651c1db03c158adada7643af","null","null","<p style=""font-size: 60px; font-family: BACS"">ZcGdNrba</p>","","","","","","","","",""
"html-keyboard-response","282","435069","0.0-14.0-0.31","5f6cd5ce1758e90f12ae1123","650c16f0f2faf8d7a0d14c09","651c1db03c158adada7643af","null","null","<p style=""font-size: 60px; font-family: BACS"">RYtkcTmc</p>","","","","","","","","",""
"html-keyboard-response","283","436075","0.0-14.0-0.32","5f6cd5ce1758e90f12ae1123","650c16f0f2faf8d7a0d14c09","651c1db03c158adada7643af","null","null","<p style=""font-size: 60px; font-family: BACS"">GAcYLkNc</p>","","","","","","","","",""
"html-keyboard-response","284","437078","0.0-14.0-0.33","5f6cd5ce1758e90f12ae1123","650c16f0f2faf8d7a0d14c09","651c1db03c158adada7643af","null","null","<p style=""font-size: 60px; font-family: BACS"">OEPkhBK</p>","","","","","","","","",""
"html-keyboard-response","285","438082","0.0-14.0-0.34","5f6cd5ce1758e90f12ae1123","650c16f0f2faf8d7a0d14c09","651c1db03c158adada7643af","null","null","<p style=""font-size: 60px; font-family: BACS"">cAZurba</p>","","","","","","","","",""
"html-keyboard-response","286","439088","0.0-14.0-0.35","5f6cd5ce1758e90f12ae1123","650c16f0f2faf8d7a0d14c09","651c1db03c158adada7643af","null","null","<p style=""font-size: 60px; font-family: BACS"">BOCRMTmc</p>","","","","","","","","",""
"html-keyboard-response","287","440094","0.0-14.0-0.36","5f6cd5ce1758e90f12ae1123","650c16f0f2faf8d7a0d14c09","651c1db03c158adada7643af","null","null","<p style=""font-size: 60px; font-family: BACS"">Udbdrba</p>","","","","","","","","",""
"html-keyboard-response","288","441099","0.0-14.0-0.37","5f6cd5ce1758e90f12ae1123","650c16f0f2faf8d7a0d14c09","651c1db03c158adada7643af","null","null","<p style=""font-size: 60px; font-family: BACS"">YKRkATc</p>","","","","","","","","",""
"html-keyboard-response","289","442112","0.0-14.0-0.38","5f6cd5ce1758e90f12ae1123","650c16f0f2faf8d7a0d14c09","651c1db03c158adada7643af","null","null","<p style=""font-size: 60px; font-family: BACS"">LvuOGUZu</p>","","","","","","","","",""
"html-keyboard-response","290","443116","0.0-14.0-0.39","5f6cd5ce1758e90f12ae1123","650c16f0f2faf8d7a0d14c09","651c1db03c158adada7643af","null","null","<p style=""font-size: 60px; font-family: BACS"">YKRkOYK</p>","","","","","","","","",""
"html-keyboard-response","291","444117","0.0-14.0-0.40","5f6cd5ce1758e90f12ae1123","650c16f0f2faf8d7a0d14c09","651c1db03c158adada7643af","null","null","<p style=""font-size: 60px; font-family: BACS"">YQbcravu</p>","","","","","","","","",""
"html-keyboard-response","292","445132","0.0-14.0-0.41","5f6cd5ce1758e90f12ae1123","650c16f0f2faf8d7a0d14c09","651c1db03c158adada7643af","null","null","<p style=""font-size: 60px; font-family: BACS"">RYtkcATc</p>","","","","","","","","",""
"html-keyboard-response","293","446138","0.0-14.0-0.42","5f6cd5ce1758e90f12ae1123","650c16f0f2faf8d7a0d14c09","651c1db03c158adada7643af","null","null","<p style=""font-size: 60px; font-family: BACS"">tdDdhBK</p>","","","","","","","","",""
"html-keyboard-response","294","447146","0.0-14.0-0.43","5f6cd5ce1758e90f12ae1123","650c16f0f2faf8d7a0d14c09","651c1db03c158adada7643af","null","null","<p style=""font-size: 60px; font-family: BACS"">mrOdUZu</p>","","","","","","","","",""
"html-keyboard-response","295","448150","0.0-14.0-0.44","5f6cd5ce1758e90f12ae1123","650c16f0f2faf8d7a0d14c09","651c1db03c158adada7643af","null","null","<p style=""font-size: 60px; font-family: BACS"">YQbcvcb</p>","","","","","","","","",""
"html-keyboard-response","296","449159","0.0-14.0-0.45","5f6cd5ce1758e90f12ae1123","650c16f0f2faf8d7a0d14c09","651c1db03c158adada7643af","null","null","<p style=""font-size: 60px; font-family: BACS"">hTDdATc</p>","","","","","","","","",""
"html-keyboard-response","297","450163","0.0-14.0-0.46","5f6cd5ce1758e90f12ae1123","650c16f0f2faf8d7a0d14c09","651c1db03c158adada7643af","null","null","<p style=""font-size: 60px; font-family: BACS"">mrOdvcb</p>","","","","","","","","",""
"html-keyboard-response","298","451167","0.0-14.0-0.47","5f6cd5ce1758e90f12ae1123","650c16f0f2faf8d7a0d14c09","651c1db03c158adada7643af","null","null","<p style=""font-size: 60px; font-family: BACS"">ukYZrba</p>","","","","","","","","",""
"html-keyboard-response","299","452172","0.0-14.0-0.48","5f6cd5ce1758e90f12ae1123","650c16f0f2faf8d7a0d14c09","651c1db03c158adada7643af","null","null","<p style=""font-size: 60px; font-family: BACS"">kabJbUZu</p>","","","","","","","","",""
"html-keyboard-response","300","453187","0.0-14.0-0.49","5f6cd5ce1758e90f12ae1123","650c16f0f2faf8d7a0d14c09","651c1db03c158adada7643af","null","null","<p style=""font-size: 60px; font-family: BACS"">Udbdravu</p>","","","","","","","","",""
"html-keyboard-response","301","454188","0.0-14.0-0.50","5f6cd5ce1758e90f12ae1123","650c16f0f2faf8d7a0d14c09","651c1db03c158adada7643af","null","null","<p style=""font-size: 60px; font-family: BACS"">kabJbvcb</p>","","","","","","","","",""
"html-keyboard-response","302","455189","0.0-14.0-0.51","5f6cd5ce1758e90f12ae1123","650c16f0f2faf8d7a0d14c09","651c1db03c158adada7643af","null","null","<p style=""font-size: 60px; font-family: BACS"">hTDdhBK</p>","","","","","","","","",""
"html-keyboard-response","303","456202","0.0-14.0-0.52","5f6cd5ce1758e90f12ae1123","650c16f0f2faf8d7a0d14c09","651c1db03c158adada7643af","null","null","<p style=""font-size: 60px; font-family: BACS"">BECkRDM</p>","","","","","","","","",""
"html-keyboard-response","304","457208","0.0-14.0-0.53","5f6cd5ce1758e90f12ae1123","650c16f0f2faf8d7a0d14c09","651c1db03c158adada7643af","null","null","<p style=""font-size: 60px; font-family: BACS"">BOCRMOYK</p>","","","","","","","","",""
"html-keyboard-response","305","458214","0.0-14.0-0.54","5f6cd5ce1758e90f12ae1123","650c16f0f2faf8d7a0d14c09","651c1db03c158adada7643af","null","null","<p style=""font-size: 60px; font-family: BACS"">mrOdLkNc</p>","","","","","","","","",""
"html-keyboard-response","306","459222","0.0-14.0-0.55","5f6cd5ce1758e90f12ae1123","650c16f0f2faf8d7a0d14c09","651c1db03c158adada7643af","null","null","<p style=""font-size: 60px; font-family: BACS"">mhtchBK</p>","","","","","","","","",""
"html-keyboard-response","307","460229","0.0-14.0-0.56","5f6cd5ce1758e90f12ae1123","650c16f0f2faf8d7a0d14c09","651c1db03c158adada7643af","null","null","<p style=""font-size: 60px; font-family: BACS"">GAcYravu</p>","","","","","","","","",""
"html-keyboard-response","308","461231","0.0-14.0-0.57","5f6cd5ce1758e90f12ae1123","650c16f0f2faf8d7a0d14c09","651c1db03c158adada7643af","null","null","<p style=""font-size: 60px; font-family: BACS"">RYtkcOYK</p>","","","","","","","","",""
"html-keyboard-response","309","462232","0.0-14.0-0.58","5f6cd5ce1758e90f12ae1123","650c16f0f2faf8d7a0d14c09","651c1db03c158adada7643af","null","null","<p style=""font-size: 60px; font-family: BACS"">dMThkTmc</p>","","","","","","","","",""
"html-keyboard-response","310","463239","0.0-14.0-0.59","5f6cd5ce1758e90f12ae1123","650c16f0f2faf8d7a0d14c09","651c1db03c158adada7643af","null","null","<p style=""font-size: 60px; font-family: BACS"">BECkOYK</p>","","","","","","","","",""
"html-keyboard-response","311","464241","0.0-14.0-0.60","5f6cd5ce1758e90f12ae1123","650c16f0f2faf8d7a0d14c09","651c1db03c158adada7643af","null","null","<p style=""font-size: 60px; font-family: BACS"">kabJbravu</p>","","","","","","","","",""
"html-keyboard-response","312","465251","0.0-14.0-0.61","5f6cd5ce1758e90f12ae1123","650c16f0f2faf8d7a0d14c09","651c1db03c158adada7643af","null","null","<p style=""font-size: 60px; font-family: BACS"">ukYZLkNc</p>","","","","","","","","",""
"html-keyboard-response","313","466261","0.0-14.0-0.62","5f6cd5ce1758e90f12ae1123","650c16f0f2faf8d7a0d14c09","651c1db03c158adada7643af","null","null","<p style=""font-size: 60px; font-family: BACS"">dMThkRDM</p>","","","","","","","","",""
"html-keyboard-response","314","467276","0.0-14.0-0.63","5f6cd5ce1758e90f12ae1123","650c16f0f2faf8d7a0d14c09","651c1db03c158adada7643af","null","null","<p style=""font-size: 60px; font-family: BACS"">ZcGdNvcb</p>","","","","","","","","",""
"html-keyboard-response","315","468282","0.0-14.0-0.64","5f6cd5ce1758e90f12ae1123","650c16f0f2faf8d7a0d14c09","651c1db03c158adada7643af","null","null","<p style=""font-size: 60px; font-family: BACS"">BOCRMhBK</p>","","","","","","","","",""
"html-keyboard-response","316","469287","0.0-14.0-0.65","5f6cd5ce1758e90f12ae1123","650c16f0f2faf8d7a0d14c09","651c1db03c158adada7643af","null","null","<p style=""font-size: 60px; font-family: BACS"">BECkATc</p>","","","","","","","","",""
"html-keyboard-response","317","470293","0.0-14.0-0.66","5f6cd5ce1758e90f12ae1123","650c16f0f2faf8d7a0d14c09","651c1db03c158adada7643af","null","null","<p style=""font-size: 60px; font-family: BACS"">mhtcTmc</p>","","","","","","","","",""
"html-keyboard-response","318","471298","0.0-14.0-0.67","5f6cd5ce1758e90f12ae1123","650c16f0f2faf8d7a0d14c09","651c1db03c158adada7643af","null","null","<p style=""font-size: 60px; font-family: BACS"">mBYlOYK</p>","","","","","","","","",""
"html-keyboard-response","319","472299","0.0-14.0-0.68","5f6cd5ce1758e90f12ae1123","650c16f0f2faf8d7a0d14c09","651c1db03c158adada7643af","null","null","<p style=""font-size: 60px; font-family: BACS"">YQbcLkNc</p>","","","","","","","","",""
"html-keyboard-response","320","473300","0.0-14.0-0.69","5f6cd5ce1758e90f12ae1123","650c16f0f2faf8d7a0d14c09","651c1db03c158adada7643af","null","null","<p style=""font-size: 60px; font-family: BACS"">hTDdRDM</p>","","","","","","","","",""
"html-keyboard-response","321","474302","0.0-14.0-0.70","5f6cd5ce1758e90f12ae1123","650c16f0f2faf8d7a0d14c09","651c1db03c158adada7643af","null","null","<p style=""font-size: 60px; font-family: BACS"">GAcYrba</p>","","","","","","","","",""
"html-keyboard-response","322","475312","0.0-14.0-0.71","5f6cd5ce1758e90f12ae1123","650c16f0f2faf8d7a0d14c09","651c1db03c158adada7643af","null","null","<p style=""font-size: 60px; font-family: BACS"">ukYZvcb</p>","","","","","","","","",""
"html-keyboard-response","323","476320","0.0-14.0-0.72","5f6cd5ce1758e90f12ae1123","650c16f0f2faf8d7a0d14c09","651c1db03c158adada7643af","null","null","<p style=""font-size: 60px; font-family: BACS"">OEPkATc</p>","","","","","","","","",""
"html-keyboard-response","324","477328","0.0-14.0-0.73","5f6cd5ce1758e90f12ae1123","650c16f0f2faf8d7a0d14c09","651c1db03c158adada7643af","null","null","<p style=""font-size: 60px; font-family: BACS"">ckduArba</p>","","","","","","","","",""
"html-keyboard-response","325","478330","0.0-14.0-0.74","5f6cd5ce1758e90f12ae1123","650c16f0f2faf8d7a0d14c09","651c1db03c158adada7643af","null","null","<p style=""font-size: 60px; font-family: BACS"">cAZuravu</p>","","","","","","","","",""
"html-keyboard-response","326","479332","0.0-14.0-0.75","5f6cd5ce1758e90f12ae1123","650c16f0f2faf8d7a0d14c09","651c1db03c158adada7643af","null","null","<p style=""font-size: 60px; font-family: BACS"">hTDdTmc</p>","","","","","","","","",""
"html-keyboard-response","327","480348","0.0-14.0-0.76","5f6cd5ce1758e90f12ae1123","650c16f0f2faf8d7a0d14c09","651c1db03c158adada7643af","null","null","<p style=""font-size: 60px; font-family: BACS"">ckduAUZu</p>","","","","","","","","",""
"html-keyboard-response","328","481353","0.0-14.0-0.77","5f6cd5ce1758e90f12ae1123","650c16f0f2faf8d7a0d14c09","651c1db03c158adada7643af","null","null","<p style=""font-size: 60px; font-family: BACS"">LvuOGrba</p>","","","","","","","","",""
"html-keyboard-response","329","482360","0.0-14.0-0.78","5f6cd5ce1758e90f12ae1123","650c16f0f2faf8d7a0d14c09","651c1db03c158adada7643af","null","null","<p style=""font-size: 60px; font-family: BACS"">ckduAravu</p>","","","","","","","","",""
"html-keyboard-response","330","483368","0.0-14.0-0.79","5f6cd5ce1758e90f12ae1123","650c16f0f2faf8d7a0d14c09","651c1db03c158adada7643af","null","null","<p style=""font-size: 60px; font-family: BACS"">mhtcATc</p>","","","","","","","","",""
"html-keyboard-response","331","491081","0.0-15.0","5f6cd5ce1758e90f12ae1123","650c16f0f2faf8d7a0d14c09","651c1db03c158adada7643af","7712"," ","<p>Great, you've seen the fourth block of words. You may now take a short break.</p>
      <p>Press the spacebar when you're ready to continue.</p>","","","","","","","","",""
"html-keyboard-response","332","492087","0.0-16.0-0.0","5f6cd5ce1758e90f12ae1123","650c16f0f2faf8d7a0d14c09","651c1db03c158adada7643af","null","null","<p style=""font-size: 60px; font-family: BACS"">BOCRMhBK</p>","","","","","","","","",""
"html-keyboard-response","333","493089","0.0-16.0-0.1","5f6cd5ce1758e90f12ae1123","650c16f0f2faf8d7a0d14c09","651c1db03c158adada7643af","null","null","<p style=""font-size: 60px; font-family: BACS"">BOCRMhBK</p>","","","","","","","","",""
"html-keyboard-response","334","494091","0.0-16.0-0.2","5f6cd5ce1758e90f12ae1123","650c16f0f2faf8d7a0d14c09","651c1db03c158adada7643af","null","null","<p style=""font-size: 60px; font-family: BACS"">BOCRMhBK</p>","","","","","","","","",""
"html-keyboard-response","335","495103","0.0-16.0-0.3","5f6cd5ce1758e90f12ae1123","650c16f0f2faf8d7a0d14c09","651c1db03c158adada7643af","null","null","<p style=""font-size: 60px; font-family: BACS"">BOCRMhBK</p>","","","","","","","","",""
"html-keyboard-response","336","496109","0.0-16.0-0.4","5f6cd5ce1758e90f12ae1123","650c16f0f2faf8d7a0d14c09","651c1db03c158adada7643af","null","null","<p style=""font-size: 60px; font-family: BACS"">BOCRMhBK</p>","","","","","","","","",""
"html-keyboard-response","337","497111","0.0-16.0-0.5","5f6cd5ce1758e90f12ae1123","650c16f0f2faf8d7a0d14c09","651c1db03c158adada7643af","null","null","<p style=""font-size: 60px; font-family: BACS"">BOCRMhBK</p>","","","","","","","","",""
"html-keyboard-response","338","498120","0.0-16.0-0.6","5f6cd5ce1758e90f12ae1123","650c16f0f2faf8d7a0d14c09","651c1db03c158adada7643af","null","null","<p style=""font-size: 60px; font-family: BACS"">BOCRMhBK</p>","","","","","","","","",""
"html-keyboard-response","339","499121","0.0-16.0-0.7","5f6cd5ce1758e90f12ae1123","650c16f0f2faf8d7a0d14c09","651c1db03c158adada7643af","null","null","<p style=""font-size: 60px; font-family: BACS"">BOCRMhBK</p>","","","","","","","","",""
"html-keyboard-response","340","500122","0.0-16.0-0.8","5f6cd5ce1758e90f12ae1123","650c16f0f2faf8d7a0d14c09","651c1db03c158adada7643af","null","null","<p style=""font-size: 60px; font-family: BACS"">BOCRMhBK</p>","","","","","","","","",""
"html-keyboard-response","341","501123","0.0-16.0-0.9","5f6cd5ce1758e90f12ae1123","650c16f0f2faf8d7a0d14c09","651c1db03c158adada7643af","null","null","<p style=""font-size: 60px; font-family: BACS"">BOCRMhBK</p>","","","","","","","","",""
"html-keyboard-response","342","502126","0.0-16.0-0.10","5f6cd5ce1758e90f12ae1123","650c16f0f2faf8d7a0d14c09","651c1db03c158adada7643af","null","null","<p style=""font-size: 60px; font-family: BACS"">BOCRMhBK</p>","","","","","","","","",""
"html-keyboard-response","343","503128","0.0-16.0-0.11","5f6cd5ce1758e90f12ae1123","650c16f0f2faf8d7a0d14c09","651c1db03c158adada7643af","null","null","<p style=""font-size: 60px; font-family: BACS"">BOCRMhBK</p>","","","","","","","","",""
"html-keyboard-response","344","504141","0.0-16.0-0.12","5f6cd5ce1758e90f12ae1123","650c16f0f2faf8d7a0d14c09","651c1db03c158adada7643af","null","null","<p style=""font-size: 60px; font-family: BACS"">BOCRMhBK</p>","","","","","","","","",""
"html-keyboard-response","345","505149","0.0-16.0-0.13","5f6cd5ce1758e90f12ae1123","650c16f0f2faf8d7a0d14c09","651c1db03c158adada7643af","null","null","<p style=""font-size: 60px; font-family: BACS"">BOCRMhBK</p>","","","","","","","","",""
"html-keyboard-response","346","506160","0.0-16.0-0.14","5f6cd5ce1758e90f12ae1123","650c16f0f2faf8d7a0d14c09","651c1db03c158adada7643af","null","null","<p style=""font-size: 60px; font-family: BACS"">BOCRMhBK</p>","","","","","","","","",""
"html-keyboard-response","347","507164","0.0-16.0-0.15","5f6cd5ce1758e90f12ae1123","650c16f0f2faf8d7a0d14c09","651c1db03c158adada7643af","null","null","<p style=""font-size: 60px; font-family: BACS"">BOCRMhBK</p>","","","","","","","","",""
"html-keyboard-response","348","508165","0.0-16.0-0.16","5f6cd5ce1758e90f12ae1123","650c16f0f2faf8d7a0d14c09","651c1db03c158adada7643af","null","null","<p style=""font-size: 60px; font-family: BACS"">BOCRMhBK</p>","","","","","","","","",""
"html-keyboard-response","349","509171","0.0-16.0-0.17","5f6cd5ce1758e90f12ae1123","650c16f0f2faf8d7a0d14c09","651c1db03c158adada7643af","null","null","<p style=""font-size: 60px; font-family: BACS"">BOCRMhBK</p>","","","","","","","","",""
"html-keyboard-response","350","510180","0.0-16.0-0.18","5f6cd5ce1758e90f12ae1123","650c16f0f2faf8d7a0d14c09","651c1db03c158adada7643af","null","null","<p style=""font-size: 60px; font-family: BACS"">BOCRMhBK</p>","","","","","","","","",""
"html-keyboard-response","351","511196","0.0-16.0-0.19","5f6cd5ce1758e90f12ae1123","650c16f0f2faf8d7a0d14c09","651c1db03c158adada7643af","null","null","<p style=""font-size: 60px; font-family: BACS"">BOCRMhBK</p>","","","","","","","","",""
"html-keyboard-response","352","512210","0.0-16.0-0.20","5f6cd5ce1758e90f12ae1123","650c16f0f2faf8d7a0d14c09","651c1db03c158adada7643af","null","null","<p style=""font-size: 60px; font-family: BACS"">BOCRMhBK</p>","","","","","","","","",""
"html-keyboard-response","353","513216","0.0-16.0-0.21","5f6cd5ce1758e90f12ae1123","650c16f0f2faf8d7a0d14c09","651c1db03c158adada7643af","null","null","<p style=""font-size: 60px; font-family: BACS"">BOCRMhBK</p>","","","","","","","","",""
"html-keyboard-response","354","514218","0.0-16.0-0.22","5f6cd5ce1758e90f12ae1123","650c16f0f2faf8d7a0d14c09","651c1db03c158adada7643af","null","null","<p style=""font-size: 60px; font-family: BACS"">BOCRMhBK</p>","","","","","","","","",""
"html-keyboard-response","355","515225","0.0-16.0-0.23","5f6cd5ce1758e90f12ae1123","650c16f0f2faf8d7a0d14c09","651c1db03c158adada7643af","null","null","<p style=""font-size: 60px; font-family: BACS"">BOCRMhBK</p>","","","","","","","","",""
"html-keyboard-response","356","516228","0.0-16.0-0.24","5f6cd5ce1758e90f12ae1123","650c16f0f2faf8d7a0d14c09","651c1db03c158adada7643af","null","null","<p style=""font-size: 60px; font-family: BACS"">BOCRMhBK</p>","","","","","","","","",""
"html-keyboard-response","357","517230","0.0-16.0-0.25","5f6cd5ce1758e90f12ae1123","650c16f0f2faf8d7a0d14c09","651c1db03c158adada7643af","null","null","<p style=""font-size: 60px; font-family: BACS"">BOCRMhBK</p>","","","","","","","","",""
"html-keyboard-response","358","518238","0.0-16.0-0.26","5f6cd5ce1758e90f12ae1123","650c16f0f2faf8d7a0d14c09","651c1db03c158adada7643af","null","null","<p style=""font-size: 60px; font-family: BACS"">BOCRMhBK</p>","","","","","","","","",""
"html-keyboard-response","359","519246","0.0-16.0-0.27","5f6cd5ce1758e90f12ae1123","650c16f0f2faf8d7a0d14c09","651c1db03c158adada7643af","null","null","<p style=""font-size: 60px; font-family: BACS"">BOCRMhBK</p>","","","","","","","","",""
"html-keyboard-response","360","520247","0.0-16.0-0.28","5f6cd5ce1758e90f12ae1123","650c16f0f2faf8d7a0d14c09","651c1db03c158adada7643af","null","null","<p style=""font-size: 60px; font-family: BACS"">BOCRMhBK</p>","","","","","","","","",""
"html-keyboard-response","361","521257","0.0-16.0-0.29","5f6cd5ce1758e90f12ae1123","650c16f0f2faf8d7a0d14c09","651c1db03c158adada7643af","null","null","<p style=""font-size: 60px; font-family: BACS"">BOCRMhBK</p>","","","","","","","","",""
"html-keyboard-response","362","522262","0.0-16.0-0.30","5f6cd5ce1758e90f12ae1123","650c16f0f2faf8d7a0d14c09","651c1db03c158adada7643af","null","null","<p style=""font-size: 60px; font-family: BACS"">BOCRMhBK</p>","","","","","","","","",""
"html-keyboard-response","363","523266","0.0-16.0-0.31","5f6cd5ce1758e90f12ae1123","650c16f0f2faf8d7a0d14c09","651c1db03c158adada7643af","null","null","<p style=""font-size: 60px; font-family: BACS"">BOCRMhBK</p>","","","","","","","","",""
"html-keyboard-response","364","524270","0.0-16.0-0.32","5f6cd5ce1758e90f12ae1123","650c16f0f2faf8d7a0d14c09","651c1db03c158adada7643af","null","null","<p style=""font-size: 60px; font-family: BACS"">BOCRMhBK</p>","","","","","","","","",""
"html-keyboard-response","365","525272","0.0-16.0-0.33","5f6cd5ce1758e90f12ae1123","650c16f0f2faf8d7a0d14c09","651c1db03c158adada7643af","null","null","<p style=""font-size: 60px; font-family: BACS"">BOCRMhBK</p>","","","","","","","","",""
"html-keyboard-response","366","526286","0.0-16.0-0.34","5f6cd5ce1758e90f12ae1123","650c16f0f2faf8d7a0d14c09","651c1db03c158adada7643af","null","null","<p style=""font-size: 60px; font-family: BACS"">BOCRMhBK</p>","","","","","","","","",""
"html-keyboard-response","367","527292","0.0-16.0-0.35","5f6cd5ce1758e90f12ae1123","650c16f0f2faf8d7a0d14c09","651c1db03c158adada7643af","null","null","<p style=""font-size: 60px; font-family: BACS"">BOCRMhBK</p>","","","","","","","","",""
"html-keyboard-response","368","528298","0.0-16.0-0.36","5f6cd5ce1758e90f12ae1123","650c16f0f2faf8d7a0d14c09","651c1db03c158adada7643af","null","null","<p style=""font-size: 60px; font-family: BACS"">BOCRMhBK</p>","","","","","","","","",""
"html-keyboard-response","369","529299","0.0-16.0-0.37","5f6cd5ce1758e90f12ae1123","650c16f0f2faf8d7a0d14c09","651c1db03c158adada7643af","null","null","<p style=""font-size: 60px; font-family: BACS"">BOCRMhBK</p>","","","","","","","","",""
"html-keyboard-response","370","530310","0.0-16.0-0.38","5f6cd5ce1758e90f12ae1123","650c16f0f2faf8d7a0d14c09","651c1db03c158adada7643af","null","null","<p style=""font-size: 60px; font-family: BACS"">BOCRMhBK</p>","","","","","","","","",""
"html-keyboard-response","371","531314","0.0-16.0-0.39","5f6cd5ce1758e90f12ae1123","650c16f0f2faf8d7a0d14c09","651c1db03c158adada7643af","null","null","<p style=""font-size: 60px; font-family: BACS"">BOCRMhBK</p>","","","","","","","","",""
"html-keyboard-response","372","532320","0.0-16.0-0.40","5f6cd5ce1758e90f12ae1123","650c16f0f2faf8d7a0d14c09","651c1db03c158adada7643af","null","null","<p style=""font-size: 60px; font-family: BACS"">BOCRMhBK</p>","","","","","","","","",""
"html-keyboard-response","373","533321","0.0-16.0-0.41","5f6cd5ce1758e90f12ae1123","650c16f0f2faf8d7a0d14c09","651c1db03c158adada7643af","null","null","<p style=""font-size: 60px; font-family: BACS"">BOCRMhBK</p>","","","","","","","","",""
"html-keyboard-response","374","534322","0.0-16.0-0.42","5f6cd5ce1758e90f12ae1123","650c16f0f2faf8d7a0d14c09","651c1db03c158adada7643af","null","null","<p style=""font-size: 60px; font-family: BACS"">BOCRMhBK</p>","","","","","","","","",""
"html-keyboard-response","375","535323","0.0-16.0-0.43","5f6cd5ce1758e90f12ae1123","650c16f0f2faf8d7a0d14c09","651c1db03c158adada7643af","null","null","<p style=""font-size: 60px; font-family: BACS"">BOCRMhBK</p>","","","","","","","","",""
"html-keyboard-response","376","536339","0.0-16.0-0.44","5f6cd5ce1758e90f12ae1123","650c16f0f2faf8d7a0d14c09","651c1db03c158adada7643af","null","null","<p style=""font-size: 60px; font-family: BACS"">BOCRMhBK</p>","","","","","","","","",""
"html-keyboard-response","377","537347","0.0-16.0-0.45","5f6cd5ce1758e90f12ae1123","650c16f0f2faf8d7a0d14c09","651c1db03c158adada7643af","null","null","<p style=""font-size: 60px; font-family: BACS"">BOCRMhBK</p>","","","","","","","","",""
"html-keyboard-response","378","538356","0.0-16.0-0.46","5f6cd5ce1758e90f12ae1123","650c16f0f2faf8d7a0d14c09","651c1db03c158adada7643af","null","null","<p style=""font-size: 60px; font-family: BACS"">BOCRMhBK</p>","","","","","","","","",""
"html-keyboard-response","379","539365","0.0-16.0-0.47","5f6cd5ce1758e90f12ae1123","650c16f0f2faf8d7a0d14c09","651c1db03c158adada7643af","null","null","<p style=""font-size: 60px; font-family: BACS"">BOCRMhBK</p>","","","","","","","","",""
"html-keyboard-response","380","540367","0.0-16.0-0.48","5f6cd5ce1758e90f12ae1123","650c16f0f2faf8d7a0d14c09","651c1db03c158adada7643af","null","null","<p style=""font-size: 60px; font-family: BACS"">BOCRMhBK</p>","","","","","","","","",""
"html-keyboard-response","381","541381","0.0-16.0-0.49","5f6cd5ce1758e90f12ae1123","650c16f0f2faf8d7a0d14c09","651c1db03c158adada7643af","null","null","<p style=""font-size: 60px; font-family: BACS"">BOCRMhBK</p>","","","","","","","","",""
"html-keyboard-response","382","542385","0.0-16.0-0.50","5f6cd5ce1758e90f12ae1123","650c16f0f2faf8d7a0d14c09","651c1db03c158adada7643af","null","null","<p style=""font-size: 60px; font-family: BACS"">BOCRMhBK</p>","","","","","","","","",""
"html-keyboard-response","383","543393","0.0-16.0-0.51","5f6cd5ce1758e90f12ae1123","650c16f0f2faf8d7a0d14c09","651c1db03c158adada7643af","null","null","<p style=""font-size: 60px; font-family: BACS"">BOCRMhBK</p>","","","","","","","","",""
"html-keyboard-response","384","544400","0.0-16.0-0.52","5f6cd5ce1758e90f12ae1123","650c16f0f2faf8d7a0d14c09","651c1db03c158adada7643af","null","null","<p style=""font-size: 60px; font-family: BACS"">BOCRMhBK</p>","","","","","","","","",""
"html-keyboard-response","385","545404","0.0-16.0-0.53","5f6cd5ce1758e90f12ae1123","650c16f0f2faf8d7a0d14c09","651c1db03c158adada7643af","null","null","<p style=""font-size: 60px; font-family: BACS"">BOCRMhBK</p>","","","","","","","","",""
"html-keyboard-response","386","546410","0.0-16.0-0.54","5f6cd5ce1758e90f12ae1123","650c16f0f2faf8d7a0d14c09","651c1db03c158adada7643af","null","null","<p style=""font-size: 60px; font-family: BACS"">BOCRMhBK</p>","","","","","","","","",""
"html-keyboard-response","387","547414","0.0-16.0-0.55","5f6cd5ce1758e90f12ae1123","650c16f0f2faf8d7a0d14c09","651c1db03c158adada7643af","null","null","<p style=""font-size: 60px; font-family: BACS"">BOCRMhBK</p>","","","","","","","","",""
"html-keyboard-response","388","548419","0.0-16.0-0.56","5f6cd5ce1758e90f12ae1123","650c16f0f2faf8d7a0d14c09","651c1db03c158adada7643af","null","null","<p style=""font-size: 60px; font-family: BACS"">BOCRMhBK</p>","","","","","","","","",""
"html-keyboard-response","389","549425","0.0-16.0-0.57","5f6cd5ce1758e90f12ae1123","650c16f0f2faf8d7a0d14c09","651c1db03c158adada7643af","null","null","<p style=""font-size: 60px; font-family: BACS"">BOCRMhBK</p>","","","","","","","","",""
"html-keyboard-response","390","550432","0.0-16.0-0.58","5f6cd5ce1758e90f12ae1123","650c16f0f2faf8d7a0d14c09","651c1db03c158adada7643af","null","null","<p style=""font-size: 60px; font-family: BACS"">BOCRMhBK</p>","","","","","","","","",""
"html-keyboard-response","391","551434","0.0-16.0-0.59","5f6cd5ce1758e90f12ae1123","650c16f0f2faf8d7a0d14c09","651c1db03c158adada7643af","null","null","<p style=""font-size: 60px; font-family: BACS"">BOCRMhBK</p>","","","","","","","","",""
"html-keyboard-response","392","552445","0.0-16.0-0.60","5f6cd5ce1758e90f12ae1123","650c16f0f2faf8d7a0d14c09","651c1db03c158adada7643af","null","null","<p style=""font-size: 60px; font-family: BACS"">BOCRMhBK</p>","","","","","","","","",""
"html-keyboard-response","393","553449","0.0-16.0-0.61","5f6cd5ce1758e90f12ae1123","650c16f0f2faf8d7a0d14c09","651c1db03c158adada7643af","null","null","<p style=""font-size: 60px; font-family: BACS"">BOCRMhBK</p>","","","","","","","","",""
"html-keyboard-response","394","554452","0.0-16.0-0.62","5f6cd5ce1758e90f12ae1123","650c16f0f2faf8d7a0d14c09","651c1db03c158adada7643af","null","null","<p style=""font-size: 60px; font-family: BACS"">BOCRMhBK</p>","","","","","","","","",""
"html-keyboard-response","395","555457","0.0-16.0-0.63","5f6cd5ce1758e90f12ae1123","650c16f0f2faf8d7a0d14c09","651c1db03c158adada7643af","null","null","<p style=""font-size: 60px; font-family: BACS"">BOCRMhBK</p>","","","","","","","","",""
"html-keyboard-response","396","556460","0.0-16.0-0.64","5f6cd5ce1758e90f12ae1123","650c16f0f2faf8d7a0d14c09","651c1db03c158adada7643af","null","null","<p style=""font-size: 60px; font-family: BACS"">BOCRMhBK</p>","","","","","","","","",""
"html-keyboard-response","397","557466","0.0-16.0-0.65","5f6cd5ce1758e90f12ae1123","650c16f0f2faf8d7a0d14c09","651c1db03c158adada7643af","null","null","<p style=""font-size: 60px; font-family: BACS"">BOCRMhBK</p>","","","","","","","","",""
"html-keyboard-response","398","558474","0.0-16.0-0.66","5f6cd5ce1758e90f12ae1123","650c16f0f2faf8d7a0d14c09","651c1db03c158adada7643af","null","null","<p style=""font-size: 60px; font-family: BACS"">BOCRMhBK</p>","","","","","","","","",""
