"trial_type","trial_index","time_elapsed","internal_node_id","subject_id","study_id","session_id","rt","response","stimulus","success","item","task","correct_response","testing_condition","correct","target","confound","name"
"pavlovia","0","1090","0.0-0.0","5e87b28549538b0fdf96b318","650c16f0f2faf8d7a0d14c09","651c1c730bd3beb12c8cec76","","","","","","","","","","","",""
"survey-html-form","1","37896","0.0-1.0","5e87b28549538b0fdf96b318","650c16f0f2faf8d7a0d14c09","651c1c730bd3beb12c8cec76","36807","{""ID"":""5e87b28549538b0fdf96b318""}","","","","","","","","","",""
"html-keyboard-response","2","91029","0.0-2.0","5e87b28549538b0fdf96b318","650c16f0f2faf8d7a0d14c09","651c1c730bd3beb12c8cec76","53131"," ","<p style=""font-size: 15px;"">Before beginning, we ask that you read the consent information and confirm your agreement to participate in the experiment.</p>
      <p style=""font-size: 15px;""> We ask that you remember that this is a research project and that your participation is entirely voluntary. You can stop your participation at any time, without needing to provide any explanation. The study we're asking you to participate in aims at examining how readers process written words. You will be engaged in a session of apprximately 20 minutes, followed by a brief questionnaire. You will have the opportunity to take a few breaks during the experiment. You will be paid £4 for your participation, corresponding to a rate of £8/hour. While this experiment looks at cognitive faculties, this experiment doesn't constitute clinical proof of eventual pathologies.</p>
      <p style=""font-size: 15px;"">All of the information collected thanks to yours and others' participation will be held in a secure password-protected server, and will not be shared with anyone not authorised to view it. Your personal information will be kept with an arbitrary participant ID. Thanks to this data anonymity process, any researcher analysing the data won't be able to track the information back to a specific participant. Therefore, this process will make identifying you impossibile, even when results from the study will be published in scientific reviews, presented at congresses, or at any other public forum. More generally, the collected data will be treated in accordance with the laws on privacy and conformity to the Legislative Degree n. 196 ""Code regarding the protection of personal data"" of the 30th of June 2003 and to the European Regulation 2016/670 (General Data Protection Regulation - GDPR). The Data Protection Officer is Avv. Valentina Carollo, who can be contacted at the following email addresses: <a href=""mailto:dpo@sissa.it"">dpo@sissa.it</a> or <a href=""mailto:rpd@sissa.it"">rpd@sissa.it</a> - PEC: <a href=""mailto:protocollo@pec.sissa.it"">protocollo@pec.sissa.it</a>.</p>
      <p style=""font-size: 15px;""> Before expressing your consent to participate, we would like to remind you again that in case you need explanations on any aspect of the experimental procedure, the researcher is at your disposition (<a href=""mailto:aliebelt@sissa.it"">aliebelt@sissa.it</a>, <a href=""mailto:davide.crepaldi@sissa.it"">davide.crepaldi@sissa.it</a>).</p>
      <p style=""font-size: 15px;"">If you would like to download the informed consent form, you can do so here: <a href=""BASL-Informed_Consent.pdf"" download>informed consent form</a>.</p>
      <p style=""font-size: 15px;"">We ask that you press the spacebar to proceed to the consent section.</p>","","","","","","","","",""
"survey-html-form","3","95391","0.0-3.0","5e87b28549538b0fdf96b318","650c16f0f2faf8d7a0d14c09","651c1c730bd3beb12c8cec76","4361","{""consent1"":""YES"",""consent2"":""YES"",""consent3"":""YES"",""consent4"":""YES"",""consent5"":""YES"",""consent6"":""YES""}","","","","","","","","","",""
"fullscreen","4","97591","0.0-4.0","5e87b28549538b0fdf96b318","650c16f0f2faf8d7a0d14c09","651c1c730bd3beb12c8cec76","","","","true","","","","","","","",""
"html-keyboard-response","5","101250","0.0-5.0","5e87b28549538b0fdf96b318","650c16f0f2faf8d7a0d14c09","651c1c730bd3beb12c8cec76","3658"," ","<p>Welcome, and thank you very much for your time!</p>
      <p>In this experiment, you'll be a language expert who's been asked to take a look at words that Earth has received in its first communication with aliens. Your task, in this first part of the experiment, is to pay close attention to the words you'll be shown; later, world leaders will ask you questions on what you saw. The words will be shown to you quite quickly; it seems that the aliens were in a hurry :-)</p>
      <p>Press the spacebar to continue.<p>","","","","","","","","",""
"html-keyboard-response","6","101309","0.0-6.0","5e87b28549538b0fdf96b318","650c16f0f2faf8d7a0d14c09","651c1c730bd3beb12c8cec76","null","null","<p style=""font-size: 120px; font-family: BACS""> </p>","","","","","","","","",""
"html-keyboard-response","7","102474","0.0-7.0","5e87b28549538b0fdf96b318","650c16f0f2faf8d7a0d14c09","651c1c730bd3beb12c8cec76","1165"," ","<p>Here is an example of the words you'll see:</p>
      <img src='esempio.png' height='400px'>
      <p>When you're ready to begin, press the spacebar.</p></div>","","","","","","","","",""
"html-keyboard-response","8","103484","0.0-8.0-0.0","5e87b28549538b0fdf96b318","650c16f0f2faf8d7a0d14c09","651c1c730bd3beb12c8cec76","null","null","<p style=""font-size: 60px; font-family: BACS"">BPAlYDTk</p>","","","","","","","","",""
"html-keyboard-response","9","104499","0.0-8.0-0.1","5e87b28549538b0fdf96b318","650c16f0f2faf8d7a0d14c09","651c1c730bd3beb12c8cec76","null","null","<p style=""font-size: 60px; font-family: BACS"">GQrcvAvb</p>","","","","","","","","",""
"html-keyboard-response","10","105516","0.0-8.0-0.2","5e87b28549538b0fdf96b318","650c16f0f2faf8d7a0d14c09","651c1c730bd3beb12c8cec76","null","null","<p style=""font-size: 60px; font-family: BACS"">QcQAJOcN</p>","","","","","","","","",""
"html-keyboard-response","11","106529","0.0-8.0-0.3","5e87b28549538b0fdf96b318","650c16f0f2faf8d7a0d14c09","651c1c730bd3beb12c8cec76","null","null","<p style=""font-size: 60px; font-family: BACS"">ORbkdmRb</p>","","","","","","","","",""
"html-keyboard-response","12","107544","0.0-8.0-0.4","5e87b28549538b0fdf96b318","650c16f0f2faf8d7a0d14c09","651c1c730bd3beb12c8cec76","null","null","<p style=""font-size: 60px; font-family: BACS"">RCcEYDTk</p>","","","","","","","","",""
"html-keyboard-response","13","108554","0.0-8.0-0.5","5e87b28549538b0fdf96b318","650c16f0f2faf8d7a0d14c09","651c1c730bd3beb12c8cec76","null","null","<p style=""font-size: 60px; font-family: BACS"">OMlTdmRb</p>","","","","","","","","",""
"html-keyboard-response","14","109570","0.0-8.0-0.6","5e87b28549538b0fdf96b318","650c16f0f2faf8d7a0d14c09","651c1c730bd3beb12c8cec76","null","null","<p style=""font-size: 60px; font-family: BACS"">QcQAJkuvb</p>","","","","","","","","",""
"html-keyboard-response","15","110578","0.0-8.0-0.7","5e87b28549538b0fdf96b318","650c16f0f2faf8d7a0d14c09","651c1c730bd3beb12c8cec76","null","null","<p style=""font-size: 60px; font-family: BACS"">dMYBPYDTk</p>","","","","","","","","",""
"html-keyboard-response","16","111585","0.0-8.0-0.8","5e87b28549538b0fdf96b318","650c16f0f2faf8d7a0d14c09","651c1c730bd3beb12c8cec76","null","null","<p style=""font-size: 60px; font-family: BACS"">NbmQUkuvb</p>","","","","","","","","",""
"html-keyboard-response","17","112599","0.0-8.0-0.9","5e87b28549538b0fdf96b318","650c16f0f2faf8d7a0d14c09","651c1c730bd3beb12c8cec76","null","null","<p style=""font-size: 60px; font-family: BACS"">OYuvbLUOk</p>","","","","","","","","",""
"html-keyboard-response","18","113607","0.0-8.0-0.10","5e87b28549538b0fdf96b318","650c16f0f2faf8d7a0d14c09","651c1c730bd3beb12c8cec76","null","null","<p style=""font-size: 60px; font-family: BACS"">COTKAdYl</p>","","","","","","","","",""
"html-keyboard-response","19","114613","0.0-8.0-0.11","5e87b28549538b0fdf96b318","650c16f0f2faf8d7a0d14c09","651c1c730bd3beb12c8cec76","null","null","<p style=""font-size: 60px; font-family: BACS"">KdAROYK</p>","","","","","","","","",""
"html-keyboard-response","20","115617","0.0-8.0-0.12","5e87b28549538b0fdf96b318","650c16f0f2faf8d7a0d14c09","651c1c730bd3beb12c8cec76","null","null","<p style=""font-size: 60px; font-family: BACS"">kdaAJkuvb</p>","","","","","","","","",""
"html-keyboard-response","21","116622","0.0-8.0-0.13","5e87b28549538b0fdf96b318","650c16f0f2faf8d7a0d14c09","651c1c730bd3beb12c8cec76","null","null","<p style=""font-size: 60px; font-family: BACS"">RCcEdmRb</p>","","","","","","","","",""
"html-keyboard-response","22","117636","0.0-8.0-0.14","5e87b28549538b0fdf96b318","650c16f0f2faf8d7a0d14c09","651c1c730bd3beb12c8cec76","null","null","<p style=""font-size: 60px; font-family: BACS"">kcdOtYDTk</p>","","","","","","","","",""
"html-keyboard-response","23","118646","0.0-8.0-0.15","5e87b28549538b0fdf96b318","650c16f0f2faf8d7a0d14c09","651c1c730bd3beb12c8cec76","null","null","<p style=""font-size: 60px; font-family: BACS"">QcQAJGUOA</p>","","","","","","","","",""
"html-keyboard-response","24","119658","0.0-8.0-0.16","5e87b28549538b0fdf96b318","650c16f0f2faf8d7a0d14c09","651c1c730bd3beb12c8cec76","null","null","<p style=""font-size: 60px; font-family: BACS"">kdaAJvAvb</p>","","","","","","","","",""
"html-keyboard-response","25","120667","0.0-8.0-0.17","5e87b28549538b0fdf96b318","650c16f0f2faf8d7a0d14c09","651c1c730bd3beb12c8cec76","null","null","<p style=""font-size: 60px; font-family: BACS"">GQrcOcN</p>","","","","","","","","",""
"html-keyboard-response","26","121670","0.0-8.0-0.18","5e87b28549538b0fdf96b318","650c16f0f2faf8d7a0d14c09","651c1c730bd3beb12c8cec76","null","null","<p style=""font-size: 60px; font-family: BACS"">kdaAJLUOk</p>","","","","","","","","",""
"html-keyboard-response","27","122684","0.0-8.0-0.19","5e87b28549538b0fdf96b318","650c16f0f2faf8d7a0d14c09","651c1c730bd3beb12c8cec76","null","null","<p style=""font-size: 60px; font-family: BACS"">YJLcAvAvb</p>","","","","","","","","",""
"html-keyboard-response","28","123700","0.0-8.0-0.20","5e87b28549538b0fdf96b318","650c16f0f2faf8d7a0d14c09","651c1c730bd3beb12c8cec76","null","null","<p style=""font-size: 60px; font-family: BACS"">bdUNuLUOk</p>","","","","","","","","",""
"html-keyboard-response","29","124716","0.0-8.0-0.21","5e87b28549538b0fdf96b318","650c16f0f2faf8d7a0d14c09","651c1c730bd3beb12c8cec76","null","null","<p style=""font-size: 60px; font-family: BACS"">dMYBPOYK</p>","","","","","","","","",""
"html-keyboard-response","30","125731","0.0-8.0-0.22","5e87b28549538b0fdf96b318","650c16f0f2faf8d7a0d14c09","651c1c730bd3beb12c8cec76","null","null","<p style=""font-size: 60px; font-family: BACS"">tmtEMdmRb</p>","","","","","","","","",""
"html-keyboard-response","31","126744","0.0-8.0-0.23","5e87b28549538b0fdf96b318","650c16f0f2faf8d7a0d14c09","651c1c730bd3beb12c8cec76","null","null","<p style=""font-size: 60px; font-family: BACS"">NaJbGUOA</p>","","","","","","","","",""
"html-keyboard-response","32","127746","0.0-8.0-0.24","5e87b28549538b0fdf96b318","650c16f0f2faf8d7a0d14c09","651c1c730bd3beb12c8cec76","null","null","<p style=""font-size: 60px; font-family: BACS"">udkmOcN</p>","","","","","","","","",""
"html-keyboard-response","33","128762","0.0-8.0-0.25","5e87b28549538b0fdf96b318","650c16f0f2faf8d7a0d14c09","651c1c730bd3beb12c8cec76","null","null","<p style=""font-size: 60px; font-family: BACS"">dMYBPdmRb</p>","","","","","","","","",""
"html-keyboard-response","34","129776","0.0-8.0-0.26","5e87b28549538b0fdf96b318","650c16f0f2faf8d7a0d14c09","651c1c730bd3beb12c8cec76","null","null","<p style=""font-size: 60px; font-family: BACS"">YJLcAGUOA</p>","","","","","","","","",""
"html-keyboard-response","35","130781","0.0-8.0-0.27","5e87b28549538b0fdf96b318","650c16f0f2faf8d7a0d14c09","651c1c730bd3beb12c8cec76","null","null","<p style=""font-size: 60px; font-family: BACS"">OMlTOYK</p>","","","","","","","","",""
"html-keyboard-response","36","131797","0.0-8.0-0.28","5e87b28549538b0fdf96b318","650c16f0f2faf8d7a0d14c09","651c1c730bd3beb12c8cec76","null","null","<p style=""font-size: 60px; font-family: BACS"">BPAlmAM</p>","","","","","","","","",""
"html-keyboard-response","37","132799","0.0-8.0-0.29","5e87b28549538b0fdf96b318","650c16f0f2faf8d7a0d14c09","651c1c730bd3beb12c8cec76","null","null","<p style=""font-size: 60px; font-family: BACS"">YuaNdkuvb</p>","","","","","","","","",""
"html-keyboard-response","38","133805","0.0-8.0-0.30","5e87b28549538b0fdf96b318","650c16f0f2faf8d7a0d14c09","651c1c730bd3beb12c8cec76","null","null","<p style=""font-size: 60px; font-family: BACS"">OYuvbOcN</p>","","","","","","","","",""
"html-keyboard-response","39","134821","0.0-8.0-0.31","5e87b28549538b0fdf96b318","650c16f0f2faf8d7a0d14c09","651c1c730bd3beb12c8cec76","null","null","<p style=""font-size: 60px; font-family: BACS"">udkmGUOA</p>","","","","","","","","",""
"html-keyboard-response","40","135837","0.0-8.0-0.32","5e87b28549538b0fdf96b318","650c16f0f2faf8d7a0d14c09","651c1c730bd3beb12c8cec76","null","null","<p style=""font-size: 60px; font-family: BACS"">NaJbLUOk</p>","","","","","","","","",""
"html-keyboard-response","41","136850","0.0-8.0-0.33","5e87b28549538b0fdf96b318","650c16f0f2faf8d7a0d14c09","651c1c730bd3beb12c8cec76","null","null","<p style=""font-size: 60px; font-family: BACS"">COTKmAM</p>","","","","","","","","",""
"html-keyboard-response","42","137860","0.0-8.0-0.34","5e87b28549538b0fdf96b318","650c16f0f2faf8d7a0d14c09","651c1c730bd3beb12c8cec76","null","null","<p style=""font-size: 60px; font-family: BACS"">QcQAJLUOk</p>","","","","","","","","",""
"html-keyboard-response","43","138869","0.0-8.0-0.35","5e87b28549538b0fdf96b318","650c16f0f2faf8d7a0d14c09","651c1c730bd3beb12c8cec76","null","null","<p style=""font-size: 60px; font-family: BACS"">YJLcAkuvb</p>","","","","","","","","",""
"html-keyboard-response","44","139884","0.0-8.0-0.36","5e87b28549538b0fdf96b318","650c16f0f2faf8d7a0d14c09","651c1c730bd3beb12c8cec76","null","null","<p style=""font-size: 60px; font-family: BACS"">BPAlAdYl</p>","","","","","","","","",""
"html-keyboard-response","45","140888","0.0-8.0-0.37","5e87b28549538b0fdf96b318","650c16f0f2faf8d7a0d14c09","651c1c730bd3beb12c8cec76","null","null","<p style=""font-size: 60px; font-family: BACS"">tmtEMYDTk</p>","","","","","","","","",""
"html-keyboard-response","46","141905","0.0-8.0-0.38","5e87b28549538b0fdf96b318","650c16f0f2faf8d7a0d14c09","651c1c730bd3beb12c8cec76","null","null","<p style=""font-size: 60px; font-family: BACS"">YuaNdGUOA</p>","","","","","","","","",""
"html-keyboard-response","47","142916","0.0-8.0-0.39","5e87b28549538b0fdf96b318","650c16f0f2faf8d7a0d14c09","651c1c730bd3beb12c8cec76","null","null","<p style=""font-size: 60px; font-family: BACS"">ORbkmAM</p>","","","","","","","","",""
"html-keyboard-response","48","143931","0.0-8.0-0.40","5e87b28549538b0fdf96b318","650c16f0f2faf8d7a0d14c09","651c1c730bd3beb12c8cec76","null","null","<p style=""font-size: 60px; font-family: BACS"">KdARdmRb</p>","","","","","","","","",""
"html-keyboard-response","49","144933","0.0-8.0-0.41","5e87b28549538b0fdf96b318","650c16f0f2faf8d7a0d14c09","651c1c730bd3beb12c8cec76","null","null","<p style=""font-size: 60px; font-family: BACS"">blMkAdYl</p>","","","","","","","","",""
"html-keyboard-response","50","145938","0.0-8.0-0.42","5e87b28549538b0fdf96b318","650c16f0f2faf8d7a0d14c09","651c1c730bd3beb12c8cec76","null","null","<p style=""font-size: 60px; font-family: BACS"">YuaNdLUOk</p>","","","","","","","","",""
"html-keyboard-response","51","146947","0.0-8.0-0.43","5e87b28549538b0fdf96b318","650c16f0f2faf8d7a0d14c09","651c1c730bd3beb12c8cec76","null","null","<p style=""font-size: 60px; font-family: BACS"">NbmQUGUOA</p>","","","","","","","","",""
"html-keyboard-response","52","147953","0.0-8.0-0.44","5e87b28549538b0fdf96b318","650c16f0f2faf8d7a0d14c09","651c1c730bd3beb12c8cec76","null","null","<p style=""font-size: 60px; font-family: BACS"">BPAldmRb</p>","","","","","","","","",""
"html-keyboard-response","53","148963","0.0-8.0-0.45","5e87b28549538b0fdf96b318","650c16f0f2faf8d7a0d14c09","651c1c730bd3beb12c8cec76","null","null","<p style=""font-size: 60px; font-family: BACS"">KdARAdYl</p>","","","","","","","","",""
"html-keyboard-response","54","149966","0.0-8.0-0.46","5e87b28549538b0fdf96b318","650c16f0f2faf8d7a0d14c09","651c1c730bd3beb12c8cec76","null","null","<p style=""font-size: 60px; font-family: BACS"">kcdOtOYK</p>","","","","","","","","",""
"html-keyboard-response","55","150972","0.0-8.0-0.47","5e87b28549538b0fdf96b318","650c16f0f2faf8d7a0d14c09","651c1c730bd3beb12c8cec76","null","null","<p style=""font-size: 60px; font-family: BACS"">GQrcLUOk</p>","","","","","","","","",""
"html-keyboard-response","56","151976","0.0-8.0-0.48","5e87b28549538b0fdf96b318","650c16f0f2faf8d7a0d14c09","651c1c730bd3beb12c8cec76","null","null","<p style=""font-size: 60px; font-family: BACS"">NaJbvAvb</p>","","","","","","","","",""
"html-keyboard-response","57","152979","0.0-8.0-0.49","5e87b28549538b0fdf96b318","650c16f0f2faf8d7a0d14c09","651c1c730bd3beb12c8cec76","null","null","<p style=""font-size: 60px; font-family: BACS"">COTKYDTk</p>","","","","","","","","",""
"html-keyboard-response","58","153989","0.0-8.0-0.50","5e87b28549538b0fdf96b318","650c16f0f2faf8d7a0d14c09","651c1c730bd3beb12c8cec76","null","null","<p style=""font-size: 60px; font-family: BACS"">bdUNuGUOA</p>","","","","","","","","",""
"html-keyboard-response","59","155002","0.0-8.0-0.51","5e87b28549538b0fdf96b318","650c16f0f2faf8d7a0d14c09","651c1c730bd3beb12c8cec76","null","null","<p style=""font-size: 60px; font-family: BACS"">udkmLUOk</p>","","","","","","","","",""
"html-keyboard-response","60","156019","0.0-8.0-0.52","5e87b28549538b0fdf96b318","650c16f0f2faf8d7a0d14c09","651c1c730bd3beb12c8cec76","null","null","<p style=""font-size: 60px; font-family: BACS"">RCcEmAM</p>","","","","","","","","",""
"html-keyboard-response","61","157036","0.0-8.0-0.53","5e87b28549538b0fdf96b318","650c16f0f2faf8d7a0d14c09","651c1c730bd3beb12c8cec76","null","null","<p style=""font-size: 60px; font-family: BACS"">kdaAJOcN</p>","","","","","","","","",""
"html-keyboard-response","62","158048","0.0-8.0-0.54","5e87b28549538b0fdf96b318","650c16f0f2faf8d7a0d14c09","651c1c730bd3beb12c8cec76","null","null","<p style=""font-size: 60px; font-family: BACS"">OMlTAdYl</p>","","","","","","","","",""
"html-keyboard-response","63","159060","0.0-8.0-0.55","5e87b28549538b0fdf96b318","650c16f0f2faf8d7a0d14c09","651c1c730bd3beb12c8cec76","null","null","<p style=""font-size: 60px; font-family: BACS"">OYuvbvAvb</p>","","","","","","","","",""
"html-keyboard-response","64","160064","0.0-8.0-0.56","5e87b28549538b0fdf96b318","650c16f0f2faf8d7a0d14c09","651c1c730bd3beb12c8cec76","null","null","<p style=""font-size: 60px; font-family: BACS"">KdARmAM</p>","","","","","","","","",""
"html-keyboard-response","65","161066","0.0-8.0-0.57","5e87b28549538b0fdf96b318","650c16f0f2faf8d7a0d14c09","651c1c730bd3beb12c8cec76","null","null","<p style=""font-size: 60px; font-family: BACS"">COTKOYK</p>","","","","","","","","",""
"html-keyboard-response","66","162076","0.0-8.0-0.58","5e87b28549538b0fdf96b318","650c16f0f2faf8d7a0d14c09","651c1c730bd3beb12c8cec76","null","null","<p style=""font-size: 60px; font-family: BACS"">NbmQUvAvb</p>","","","","","","","","",""
"html-keyboard-response","67","163081","0.0-8.0-0.59","5e87b28549538b0fdf96b318","650c16f0f2faf8d7a0d14c09","651c1c730bd3beb12c8cec76","null","null","<p style=""font-size: 60px; font-family: BACS"">bdUNuOcN</p>","","","","","","","","",""
"html-keyboard-response","68","164088","0.0-8.0-0.60","5e87b28549538b0fdf96b318","650c16f0f2faf8d7a0d14c09","651c1c730bd3beb12c8cec76","null","null","<p style=""font-size: 60px; font-family: BACS"">blMkmAM</p>","","","","","","","","",""
"html-keyboard-response","69","165101","0.0-8.0-0.61","5e87b28549538b0fdf96b318","650c16f0f2faf8d7a0d14c09","651c1c730bd3beb12c8cec76","null","null","<p style=""font-size: 60px; font-family: BACS"">OMlTYDTk</p>","","","","","","","","",""
"html-keyboard-response","70","166110","0.0-8.0-0.62","5e87b28549538b0fdf96b318","650c16f0f2faf8d7a0d14c09","651c1c730bd3beb12c8cec76","null","null","<p style=""font-size: 60px; font-family: BACS"">YuaNdvAvb</p>","","","","","","","","",""
"html-keyboard-response","71","167128","0.0-8.0-0.63","5e87b28549538b0fdf96b318","650c16f0f2faf8d7a0d14c09","651c1c730bd3beb12c8cec76","null","null","<p style=""font-size: 60px; font-family: BACS"">blMkOYK</p>","","","","","","","","",""
"html-keyboard-response","72","168143","0.0-8.0-0.64","5e87b28549538b0fdf96b318","650c16f0f2faf8d7a0d14c09","651c1c730bd3beb12c8cec76","null","null","<p style=""font-size: 60px; font-family: BACS"">kcdOtdmRb</p>","","","","","","","","",""
"html-keyboard-response","73","169157","0.0-8.0-0.65","5e87b28549538b0fdf96b318","650c16f0f2faf8d7a0d14c09","651c1c730bd3beb12c8cec76","null","null","<p style=""font-size: 60px; font-family: BACS"">NaJbkuvb</p>","","","","","","","","",""
"html-keyboard-response","74","170162","0.0-8.0-0.66","5e87b28549538b0fdf96b318","650c16f0f2faf8d7a0d14c09","651c1c730bd3beb12c8cec76","null","null","<p style=""font-size: 60px; font-family: BACS"">tmtEMOYK</p>","","","","","","","","",""
"html-keyboard-response","75","171179","0.0-8.0-0.67","5e87b28549538b0fdf96b318","650c16f0f2faf8d7a0d14c09","651c1c730bd3beb12c8cec76","null","null","<p style=""font-size: 60px; font-family: BACS"">ORbkAdYl</p>","","","","","","","","",""
"html-keyboard-response","76","172193","0.0-8.0-0.68","5e87b28549538b0fdf96b318","650c16f0f2faf8d7a0d14c09","651c1c730bd3beb12c8cec76","null","null","<p style=""font-size: 60px; font-family: BACS"">OYuvbGUOA</p>","","","","","","","","",""
"html-keyboard-response","77","173205","0.0-8.0-0.69","5e87b28549538b0fdf96b318","650c16f0f2faf8d7a0d14c09","651c1c730bd3beb12c8cec76","null","null","<p style=""font-size: 60px; font-family: BACS"">YJLcAOcN</p>","","","","","","","","",""
"html-keyboard-response","78","174219","0.0-8.0-0.70","5e87b28549538b0fdf96b318","650c16f0f2faf8d7a0d14c09","651c1c730bd3beb12c8cec76","null","null","<p style=""font-size: 60px; font-family: BACS"">GQrckuvb</p>","","","","","","","","",""
"html-keyboard-response","79","175227","0.0-8.0-0.71","5e87b28549538b0fdf96b318","650c16f0f2faf8d7a0d14c09","651c1c730bd3beb12c8cec76","null","null","<p style=""font-size: 60px; font-family: BACS"">blMkYDTk</p>","","","","","","","","",""
"html-keyboard-response","80","176239","0.0-8.0-0.72","5e87b28549538b0fdf96b318","650c16f0f2faf8d7a0d14c09","651c1c730bd3beb12c8cec76","null","null","<p style=""font-size: 60px; font-family: BACS"">RCcEAdYl</p>","","","","","","","","",""
"html-keyboard-response","81","177241","0.0-8.0-0.73","5e87b28549538b0fdf96b318","650c16f0f2faf8d7a0d14c09","651c1c730bd3beb12c8cec76","null","null","<p style=""font-size: 60px; font-family: BACS"">bdUNuvAvb</p>","","","","","","","","",""
"html-keyboard-response","82","178243","0.0-8.0-0.74","5e87b28549538b0fdf96b318","650c16f0f2faf8d7a0d14c09","651c1c730bd3beb12c8cec76","null","null","<p style=""font-size: 60px; font-family: BACS"">dMYBPAdYl</p>","","","","","","","","",""
"html-keyboard-response","83","179248","0.0-8.0-0.75","5e87b28549538b0fdf96b318","650c16f0f2faf8d7a0d14c09","651c1c730bd3beb12c8cec76","null","null","<p style=""font-size: 60px; font-family: BACS"">NbmQUOcN</p>","","","","","","","","",""
"html-keyboard-response","84","180261","0.0-8.0-0.76","5e87b28549538b0fdf96b318","650c16f0f2faf8d7a0d14c09","651c1c730bd3beb12c8cec76","null","null","<p style=""font-size: 60px; font-family: BACS"">udkmkuvb</p>","","","","","","","","",""
"html-keyboard-response","85","181267","0.0-8.0-0.77","5e87b28549538b0fdf96b318","650c16f0f2faf8d7a0d14c09","651c1c730bd3beb12c8cec76","null","null","<p style=""font-size: 60px; font-family: BACS"">tmtEMmAM</p>","","","","","","","","",""
"html-keyboard-response","86","182278","0.0-8.0-0.78","5e87b28549538b0fdf96b318","650c16f0f2faf8d7a0d14c09","651c1c730bd3beb12c8cec76","null","null","<p style=""font-size: 60px; font-family: BACS"">ORbkOYK</p>","","","","","","","","",""
"html-keyboard-response","87","183283","0.0-8.0-0.79","5e87b28549538b0fdf96b318","650c16f0f2faf8d7a0d14c09","651c1c730bd3beb12c8cec76","null","null","<p style=""font-size: 60px; font-family: BACS"">kcdOtmAM</p>","","","","","","","","",""
"html-keyboard-response","88","189463","0.0-9.0","5e87b28549538b0fdf96b318","650c16f0f2faf8d7a0d14c09","651c1c730bd3beb12c8cec76","6179"," ","<p>Great, you've seen the first block of words. You may now take a short break.</p>
      <p>Press the spacebar when you're ready to continue.</p>","","","","","","","","",""
"html-keyboard-response","89","190474","0.0-10.0-0.0","5e87b28549538b0fdf96b318","650c16f0f2faf8d7a0d14c09","651c1c730bd3beb12c8cec76","null","null","<p style=""font-size: 60px; font-family: BACS"">OMlTdmRb</p>","","","","","","","","",""
"html-keyboard-response","90","191487","0.0-10.0-0.1","5e87b28549538b0fdf96b318","650c16f0f2faf8d7a0d14c09","651c1c730bd3beb12c8cec76","null","null","<p style=""font-size: 60px; font-family: BACS"">bdUNuGUOA</p>","","","","","","","","",""
"html-keyboard-response","91","192496","0.0-10.0-0.2","5e87b28549538b0fdf96b318","650c16f0f2faf8d7a0d14c09","651c1c730bd3beb12c8cec76","null","null","<p style=""font-size: 60px; font-family: BACS"">NaJbLUOk</p>","","","","","","","","",""
"html-keyboard-response","92","193501","0.0-10.0-0.3","5e87b28549538b0fdf96b318","650c16f0f2faf8d7a0d14c09","651c1c730bd3beb12c8cec76","null","null","<p style=""font-size: 60px; font-family: BACS"">bdUNuOcN</p>","","","","","","","","",""
"html-keyboard-response","93","194507","0.0-10.0-0.4","5e87b28549538b0fdf96b318","650c16f0f2faf8d7a0d14c09","651c1c730bd3beb12c8cec76","null","null","<p style=""font-size: 60px; font-family: BACS"">RCcEmAM</p>","","","","","","","","",""
"html-keyboard-response","94","195517","0.0-10.0-0.5","5e87b28549538b0fdf96b318","650c16f0f2faf8d7a0d14c09","651c1c730bd3beb12c8cec76","null","null","<p style=""font-size: 60px; font-family: BACS"">QcQAJGUOA</p>","","","","","","","","",""
"html-keyboard-response","95","196532","0.0-10.0-0.6","5e87b28549538b0fdf96b318","650c16f0f2faf8d7a0d14c09","651c1c730bd3beb12c8cec76","null","null","<p style=""font-size: 60px; font-family: BACS"">kcdOtmAM</p>","","","","","","","","",""
"html-keyboard-response","96","197547","0.0-10.0-0.7","5e87b28549538b0fdf96b318","650c16f0f2faf8d7a0d14c09","651c1c730bd3beb12c8cec76","null","null","<p style=""font-size: 60px; font-family: BACS"">bdUNuLUOk</p>","","","","","","","","",""
"html-keyboard-response","97","198552","0.0-10.0-0.8","5e87b28549538b0fdf96b318","650c16f0f2faf8d7a0d14c09","651c1c730bd3beb12c8cec76","null","null","<p style=""font-size: 60px; font-family: BACS"">KdARmAM</p>","","","","","","","","",""
"html-keyboard-response","98","199562","0.0-10.0-0.9","5e87b28549538b0fdf96b318","650c16f0f2faf8d7a0d14c09","651c1c730bd3beb12c8cec76","null","null","<p style=""font-size: 60px; font-family: BACS"">OYuvbGUOA</p>","","","","","","","","",""
"html-keyboard-response","99","200564","0.0-10.0-0.10","5e87b28549538b0fdf96b318","650c16f0f2faf8d7a0d14c09","651c1c730bd3beb12c8cec76","null","null","<p style=""font-size: 60px; font-family: BACS"">GQrcOcN</p>","","","","","","","","",""
"html-keyboard-response","100","201577","0.0-10.0-0.11","5e87b28549538b0fdf96b318","650c16f0f2faf8d7a0d14c09","651c1c730bd3beb12c8cec76","null","null","<p style=""font-size: 60px; font-family: BACS"">dMYBPdmRb</p>","","","","","","","","",""
"html-keyboard-response","101","202594","0.0-10.0-0.12","5e87b28549538b0fdf96b318","650c16f0f2faf8d7a0d14c09","651c1c730bd3beb12c8cec76","null","null","<p style=""font-size: 60px; font-family: BACS"">YuaNdLUOk</p>","","","","","","","","",""
"html-keyboard-response","102","203600","0.0-10.0-0.13","5e87b28549538b0fdf96b318","650c16f0f2faf8d7a0d14c09","651c1c730bd3beb12c8cec76","null","null","<p style=""font-size: 60px; font-family: BACS"">COTKAdYl</p>","","","","","","","","",""
"html-keyboard-response","103","204604","0.0-10.0-0.14","5e87b28549538b0fdf96b318","650c16f0f2faf8d7a0d14c09","651c1c730bd3beb12c8cec76","null","null","<p style=""font-size: 60px; font-family: BACS"">OYuvbvAvb</p>","","","","","","","","",""
"html-keyboard-response","104","205620","0.0-10.0-0.15","5e87b28549538b0fdf96b318","650c16f0f2faf8d7a0d14c09","651c1c730bd3beb12c8cec76","null","null","<p style=""font-size: 60px; font-family: BACS"">QcQAJLUOk</p>","","","","","","","","",""
"html-keyboard-response","105","206623","0.0-10.0-0.16","5e87b28549538b0fdf96b318","650c16f0f2faf8d7a0d14c09","651c1c730bd3beb12c8cec76","null","null","<p style=""font-size: 60px; font-family: BACS"">OYuvbOcN</p>","","","","","","","","",""
"html-keyboard-response","106","207638","0.0-10.0-0.17","5e87b28549538b0fdf96b318","650c16f0f2faf8d7a0d14c09","651c1c730bd3beb12c8cec76","null","null","<p style=""font-size: 60px; font-family: BACS"">udkmLUOk</p>","","","","","","","","",""
"html-keyboard-response","107","208654","0.0-10.0-0.18","5e87b28549538b0fdf96b318","650c16f0f2faf8d7a0d14c09","651c1c730bd3beb12c8cec76","null","null","<p style=""font-size: 60px; font-family: BACS"">NaJbvAvb</p>","","","","","","","","",""
"html-keyboard-response","108","209670","0.0-10.0-0.19","5e87b28549538b0fdf96b318","650c16f0f2faf8d7a0d14c09","651c1c730bd3beb12c8cec76","null","null","<p style=""font-size: 60px; font-family: BACS"">dMYBPAdYl</p>","","","","","","","","",""
"html-keyboard-response","109","210687","0.0-10.0-0.20","5e87b28549538b0fdf96b318","650c16f0f2faf8d7a0d14c09","651c1c730bd3beb12c8cec76","null","null","<p style=""font-size: 60px; font-family: BACS"">udkmkuvb</p>","","","","","","","","",""
"html-keyboard-response","110","211700","0.0-10.0-0.21","5e87b28549538b0fdf96b318","650c16f0f2faf8d7a0d14c09","651c1c730bd3beb12c8cec76","null","null","<p style=""font-size: 60px; font-family: BACS"">BPAldmRb</p>","","","","","","","","",""
"html-keyboard-response","111","212702","0.0-10.0-0.22","5e87b28549538b0fdf96b318","650c16f0f2faf8d7a0d14c09","651c1c730bd3beb12c8cec76","null","null","<p style=""font-size: 60px; font-family: BACS"">udkmOcN</p>","","","","","","","","",""
"html-keyboard-response","112","213717","0.0-10.0-0.23","5e87b28549538b0fdf96b318","650c16f0f2faf8d7a0d14c09","651c1c730bd3beb12c8cec76","null","null","<p style=""font-size: 60px; font-family: BACS"">GQrckuvb</p>","","","","","","","","",""
"html-keyboard-response","113","214730","0.0-10.0-0.24","5e87b28549538b0fdf96b318","650c16f0f2faf8d7a0d14c09","651c1c730bd3beb12c8cec76","null","null","<p style=""font-size: 60px; font-family: BACS"">RCcEdmRb</p>","","","","","","","","",""
"html-keyboard-response","114","215736","0.0-10.0-0.25","5e87b28549538b0fdf96b318","650c16f0f2faf8d7a0d14c09","651c1c730bd3beb12c8cec76","null","null","<p style=""font-size: 60px; font-family: BACS"">blMkYDTk</p>","","","","","","","","",""
"html-keyboard-response","115","216745","0.0-10.0-0.26","5e87b28549538b0fdf96b318","650c16f0f2faf8d7a0d14c09","651c1c730bd3beb12c8cec76","null","null","<p style=""font-size: 60px; font-family: BACS"">YJLcAOcN</p>","","","","","","","","",""
"html-keyboard-response","116","217747","0.0-10.0-0.27","5e87b28549538b0fdf96b318","650c16f0f2faf8d7a0d14c09","651c1c730bd3beb12c8cec76","null","null","<p style=""font-size: 60px; font-family: BACS"">kcdOtYDTk</p>","","","","","","","","",""
"html-keyboard-response","117","218750","0.0-10.0-0.28","5e87b28549538b0fdf96b318","650c16f0f2faf8d7a0d14c09","651c1c730bd3beb12c8cec76","null","null","<p style=""font-size: 60px; font-family: BACS"">ORbkmAM</p>","","","","","","","","",""
"html-keyboard-response","118","219765","0.0-10.0-0.29","5e87b28549538b0fdf96b318","650c16f0f2faf8d7a0d14c09","651c1c730bd3beb12c8cec76","null","null","<p style=""font-size: 60px; font-family: BACS"">GQrcvAvb</p>","","","","","","","","",""
"html-keyboard-response","119","220781","0.0-10.0-0.30","5e87b28549538b0fdf96b318","650c16f0f2faf8d7a0d14c09","651c1c730bd3beb12c8cec76","null","null","<p style=""font-size: 60px; font-family: BACS"">OMlTYDTk</p>","","","","","","","","",""
"html-keyboard-response","120","221792","0.0-10.0-0.31","5e87b28549538b0fdf96b318","650c16f0f2faf8d7a0d14c09","651c1c730bd3beb12c8cec76","null","null","<p style=""font-size: 60px; font-family: BACS"">KdAROYK</p>","","","","","","","","",""
"html-keyboard-response","121","222808","0.0-10.0-0.32","5e87b28549538b0fdf96b318","650c16f0f2faf8d7a0d14c09","651c1c730bd3beb12c8cec76","null","null","<p style=""font-size: 60px; font-family: BACS"">QcQAJkuvb</p>","","","","","","","","",""
"html-keyboard-response","122","223823","0.0-10.0-0.33","5e87b28549538b0fdf96b318","650c16f0f2faf8d7a0d14c09","651c1c730bd3beb12c8cec76","null","null","<p style=""font-size: 60px; font-family: BACS"">COTKYDTk</p>","","","","","","","","",""
"html-keyboard-response","123","224837","0.0-10.0-0.34","5e87b28549538b0fdf96b318","650c16f0f2faf8d7a0d14c09","651c1c730bd3beb12c8cec76","null","null","<p style=""font-size: 60px; font-family: BACS"">udkmGUOA</p>","","","","","","","","",""
"html-keyboard-response","124","225839","0.0-10.0-0.35","5e87b28549538b0fdf96b318","650c16f0f2faf8d7a0d14c09","651c1c730bd3beb12c8cec76","null","null","<p style=""font-size: 60px; font-family: BACS"">COTKOYK</p>","","","","","","","","",""
"html-keyboard-response","125","226853","0.0-10.0-0.36","5e87b28549538b0fdf96b318","650c16f0f2faf8d7a0d14c09","651c1c730bd3beb12c8cec76","null","null","<p style=""font-size: 60px; font-family: BACS"">blMkmAM</p>","","","","","","","","",""
"html-keyboard-response","126","227869","0.0-10.0-0.37","5e87b28549538b0fdf96b318","650c16f0f2faf8d7a0d14c09","651c1c730bd3beb12c8cec76","null","null","<p style=""font-size: 60px; font-family: BACS"">NaJbGUOA</p>","","","","","","","","",""
"html-keyboard-response","127","228884","0.0-10.0-0.38","5e87b28549538b0fdf96b318","650c16f0f2faf8d7a0d14c09","651c1c730bd3beb12c8cec76","null","null","<p style=""font-size: 60px; font-family: BACS"">bdUNuvAvb</p>","","","","","","","","",""
"html-keyboard-response","128","229900","0.0-10.0-0.39","5e87b28549538b0fdf96b318","650c16f0f2faf8d7a0d14c09","651c1c730bd3beb12c8cec76","null","null","<p style=""font-size: 60px; font-family: BACS"">BPAlYDTk</p>","","","","","","","","",""
"html-keyboard-response","129","230916","0.0-10.0-0.40","5e87b28549538b0fdf96b318","650c16f0f2faf8d7a0d14c09","651c1c730bd3beb12c8cec76","null","null","<p style=""font-size: 60px; font-family: BACS"">NbmQUGUOA</p>","","","","","","","","",""
"html-keyboard-response","130","231923","0.0-10.0-0.41","5e87b28549538b0fdf96b318","650c16f0f2faf8d7a0d14c09","651c1c730bd3beb12c8cec76","null","null","<p style=""font-size: 60px; font-family: BACS"">kcdOtdmRb</p>","","","","","","","","",""
"html-keyboard-response","131","232931","0.0-10.0-0.42","5e87b28549538b0fdf96b318","650c16f0f2faf8d7a0d14c09","651c1c730bd3beb12c8cec76","null","null","<p style=""font-size: 60px; font-family: BACS"">YuaNdkuvb</p>","","","","","","","","",""
"html-keyboard-response","132","233945","0.0-10.0-0.43","5e87b28549538b0fdf96b318","650c16f0f2faf8d7a0d14c09","651c1c730bd3beb12c8cec76","null","null","<p style=""font-size: 60px; font-family: BACS"">RCcEYDTk</p>","","","","","","","","",""
"html-keyboard-response","133","234948","0.0-10.0-0.44","5e87b28549538b0fdf96b318","650c16f0f2faf8d7a0d14c09","651c1c730bd3beb12c8cec76","null","null","<p style=""font-size: 60px; font-family: BACS"">NbmQUvAvb</p>","","","","","","","","",""
"html-keyboard-response","134","235962","0.0-10.0-0.45","5e87b28549538b0fdf96b318","650c16f0f2faf8d7a0d14c09","651c1c730bd3beb12c8cec76","null","null","<p style=""font-size: 60px; font-family: BACS"">kcdOtOYK</p>","","","","","","","","",""
"html-keyboard-response","135","236976","0.0-10.0-0.46","5e87b28549538b0fdf96b318","650c16f0f2faf8d7a0d14c09","651c1c730bd3beb12c8cec76","null","null","<p style=""font-size: 60px; font-family: BACS"">COTKmAM</p>","","","","","","","","",""
"html-keyboard-response","136","237981","0.0-10.0-0.47","5e87b28549538b0fdf96b318","650c16f0f2faf8d7a0d14c09","651c1c730bd3beb12c8cec76","null","null","<p style=""font-size: 60px; font-family: BACS"">blMkAdYl</p>","","","","","","","","",""
"html-keyboard-response","137","238991","0.0-10.0-0.48","5e87b28549538b0fdf96b318","650c16f0f2faf8d7a0d14c09","651c1c730bd3beb12c8cec76","null","null","<p style=""font-size: 60px; font-family: BACS"">YJLcAvAvb</p>","","","","","","","","",""
"html-keyboard-response","138","239998","0.0-10.0-0.49","5e87b28549538b0fdf96b318","650c16f0f2faf8d7a0d14c09","651c1c730bd3beb12c8cec76","null","null","<p style=""font-size: 60px; font-family: BACS"">ORbkAdYl</p>","","","","","","","","",""
"html-keyboard-response","139","241012","0.0-10.0-0.50","5e87b28549538b0fdf96b318","650c16f0f2faf8d7a0d14c09","651c1c730bd3beb12c8cec76","null","null","<p style=""font-size: 60px; font-family: BACS"">NbmQUOcN</p>","","","","","","","","",""
"html-keyboard-response","140","242016","0.0-10.0-0.51","5e87b28549538b0fdf96b318","650c16f0f2faf8d7a0d14c09","651c1c730bd3beb12c8cec76","null","null","<p style=""font-size: 60px; font-family: BACS"">tmtEMmAM</p>","","","","","","","","",""
"html-keyboard-response","141","243027","0.0-10.0-0.52","5e87b28549538b0fdf96b318","650c16f0f2faf8d7a0d14c09","651c1c730bd3beb12c8cec76","null","null","<p style=""font-size: 60px; font-family: BACS"">YJLcAkuvb</p>","","","","","","","","",""
"html-keyboard-response","142","244042","0.0-10.0-0.53","5e87b28549538b0fdf96b318","650c16f0f2faf8d7a0d14c09","651c1c730bd3beb12c8cec76","null","null","<p style=""font-size: 60px; font-family: BACS"">ORbkdmRb</p>","","","","","","","","",""
"html-keyboard-response","143","245051","0.0-10.0-0.54","5e87b28549538b0fdf96b318","650c16f0f2faf8d7a0d14c09","651c1c730bd3beb12c8cec76","null","null","<p style=""font-size: 60px; font-family: BACS"">OYuvbLUOk</p>","","","","","","","","",""
"html-keyboard-response","144","246058","0.0-10.0-0.55","5e87b28549538b0fdf96b318","650c16f0f2faf8d7a0d14c09","651c1c730bd3beb12c8cec76","null","null","<p style=""font-size: 60px; font-family: BACS"">KdARAdYl</p>","","","","","","","","",""
"html-keyboard-response","145","247073","0.0-10.0-0.56","5e87b28549538b0fdf96b318","650c16f0f2faf8d7a0d14c09","651c1c730bd3beb12c8cec76","null","null","<p style=""font-size: 60px; font-family: BACS"">kdaAJLUOk</p>","","","","","","","","",""
"html-keyboard-response","146","248074","0.0-10.0-0.57","5e87b28549538b0fdf96b318","650c16f0f2faf8d7a0d14c09","651c1c730bd3beb12c8cec76","null","null","<p style=""font-size: 60px; font-family: BACS"">NaJbkuvb</p>","","","","","","","","",""
"html-keyboard-response","147","249082","0.0-10.0-0.58","5e87b28549538b0fdf96b318","650c16f0f2faf8d7a0d14c09","651c1c730bd3beb12c8cec76","null","null","<p style=""font-size: 60px; font-family: BACS"">OMlTAdYl</p>","","","","","","","","",""
"html-keyboard-response","148","250098","0.0-10.0-0.59","5e87b28549538b0fdf96b318","650c16f0f2faf8d7a0d14c09","651c1c730bd3beb12c8cec76","null","null","<p style=""font-size: 60px; font-family: BACS"">KdARdmRb</p>","","","","","","","","",""
"html-keyboard-response","149","251107","0.0-10.0-0.60","5e87b28549538b0fdf96b318","650c16f0f2faf8d7a0d14c09","651c1c730bd3beb12c8cec76","null","null","<p style=""font-size: 60px; font-family: BACS"">NbmQUkuvb</p>","","","","","","","","",""
"html-keyboard-response","150","252120","0.0-10.0-0.61","5e87b28549538b0fdf96b318","650c16f0f2faf8d7a0d14c09","651c1c730bd3beb12c8cec76","null","null","<p style=""font-size: 60px; font-family: BACS"">dMYBPYDTk</p>","","","","","","","","",""
"html-keyboard-response","151","253127","0.0-10.0-0.62","5e87b28549538b0fdf96b318","650c16f0f2faf8d7a0d14c09","651c1c730bd3beb12c8cec76","null","null","<p style=""font-size: 60px; font-family: BACS"">tmtEMOYK</p>","","","","","","","","",""
"html-keyboard-response","152","254129","0.0-10.0-0.63","5e87b28549538b0fdf96b318","650c16f0f2faf8d7a0d14c09","651c1c730bd3beb12c8cec76","null","null","<p style=""font-size: 60px; font-family: BACS"">YuaNdvAvb</p>","","","","","","","","",""
"html-keyboard-response","153","255144","0.0-10.0-0.64","5e87b28549538b0fdf96b318","650c16f0f2faf8d7a0d14c09","651c1c730bd3beb12c8cec76","null","null","<p style=""font-size: 60px; font-family: BACS"">YJLcAGUOA</p>","","","","","","","","",""
"html-keyboard-response","154","256159","0.0-10.0-0.65","5e87b28549538b0fdf96b318","650c16f0f2faf8d7a0d14c09","651c1c730bd3beb12c8cec76","null","null","<p style=""font-size: 60px; font-family: BACS"">GQrcLUOk</p>","","","","","","","","",""
"html-keyboard-response","155","257160","0.0-10.0-0.66","5e87b28549538b0fdf96b318","650c16f0f2faf8d7a0d14c09","651c1c730bd3beb12c8cec76","null","null","<p style=""font-size: 60px; font-family: BACS"">kdaAJkuvb</p>","","","","","","","","",""
"html-keyboard-response","156","258165","0.0-10.0-0.67","5e87b28549538b0fdf96b318","650c16f0f2faf8d7a0d14c09","651c1c730bd3beb12c8cec76","null","null","<p style=""font-size: 60px; font-family: BACS"">tmtEMdmRb</p>","","","","","","","","",""
"html-keyboard-response","157","259181","0.0-10.0-0.68","5e87b28549538b0fdf96b318","650c16f0f2faf8d7a0d14c09","651c1c730bd3beb12c8cec76","null","null","<p style=""font-size: 60px; font-family: BACS"">dMYBPOYK</p>","","","","","","","","",""
"html-keyboard-response","158","260190","0.0-10.0-0.69","5e87b28549538b0fdf96b318","650c16f0f2faf8d7a0d14c09","651c1c730bd3beb12c8cec76","null","null","<p style=""font-size: 60px; font-family: BACS"">kdaAJOcN</p>","","","","","","","","",""
"html-keyboard-response","159","261194","0.0-10.0-0.70","5e87b28549538b0fdf96b318","650c16f0f2faf8d7a0d14c09","651c1c730bd3beb12c8cec76","null","null","<p style=""font-size: 60px; font-family: BACS"">YuaNdGUOA</p>","","","","","","","","",""
"html-keyboard-response","160","262201","0.0-10.0-0.71","5e87b28549538b0fdf96b318","650c16f0f2faf8d7a0d14c09","651c1c730bd3beb12c8cec76","null","null","<p style=""font-size: 60px; font-family: BACS"">RCcEAdYl</p>","","","","","","","","",""
"html-keyboard-response","161","263213","0.0-10.0-0.72","5e87b28549538b0fdf96b318","650c16f0f2faf8d7a0d14c09","651c1c730bd3beb12c8cec76","null","null","<p style=""font-size: 60px; font-family: BACS"">BPAlmAM</p>","","","","","","","","",""
"html-keyboard-response","162","264222","0.0-10.0-0.73","5e87b28549538b0fdf96b318","650c16f0f2faf8d7a0d14c09","651c1c730bd3beb12c8cec76","null","null","<p style=""font-size: 60px; font-family: BACS"">OMlTOYK</p>","","","","","","","","",""
"html-keyboard-response","163","265229","0.0-10.0-0.74","5e87b28549538b0fdf96b318","650c16f0f2faf8d7a0d14c09","651c1c730bd3beb12c8cec76","null","null","<p style=""font-size: 60px; font-family: BACS"">BPAlAdYl</p>","","","","","","","","",""
"html-keyboard-response","164","266234","0.0-10.0-0.75","5e87b28549538b0fdf96b318","650c16f0f2faf8d7a0d14c09","651c1c730bd3beb12c8cec76","null","null","<p style=""font-size: 60px; font-family: BACS"">tmtEMYDTk</p>","","","","","","","","",""
"html-keyboard-response","165","267249","0.0-10.0-0.76","5e87b28549538b0fdf96b318","650c16f0f2faf8d7a0d14c09","651c1c730bd3beb12c8cec76","null","null","<p style=""font-size: 60px; font-family: BACS"">blMkOYK</p>","","","","","","","","",""
"html-keyboard-response","166","268263","0.0-10.0-0.77","5e87b28549538b0fdf96b318","650c16f0f2faf8d7a0d14c09","651c1c730bd3beb12c8cec76","null","null","<p style=""font-size: 60px; font-family: BACS"">kdaAJvAvb</p>","","","","","","","","",""
"html-keyboard-response","167","269272","0.0-10.0-0.78","5e87b28549538b0fdf96b318","650c16f0f2faf8d7a0d14c09","651c1c730bd3beb12c8cec76","null","null","<p style=""font-size: 60px; font-family: BACS"">QcQAJOcN</p>","","","","","","","","",""
"html-keyboard-response","168","270288","0.0-10.0-0.79","5e87b28549538b0fdf96b318","650c16f0f2faf8d7a0d14c09","651c1c730bd3beb12c8cec76","null","null","<p style=""font-size: 60px; font-family: BACS"">ORbkOYK</p>","","","","","","","","",""
"html-keyboard-response","169","284440","0.0-11.0","5e87b28549538b0fdf96b318","650c16f0f2faf8d7a0d14c09","651c1c730bd3beb12c8cec76","14152"," ","<p>Great, you've seen the second block of words. You may now take a short break.</p>
      <p>Press the spacebar when you're ready to continue.</p>","","","","","","","","",""
"html-keyboard-response","170","285448","0.0-12.0-0.0","5e87b28549538b0fdf96b318","650c16f0f2faf8d7a0d14c09","651c1c730bd3beb12c8cec76","null","null","<p style=""font-size: 60px; font-family: BACS"">dMYBPOYK</p>","","","","","","","","",""
"html-keyboard-response","171","286450","0.0-12.0-0.1","5e87b28549538b0fdf96b318","650c16f0f2faf8d7a0d14c09","651c1c730bd3beb12c8cec76","null","null","<p style=""font-size: 60px; font-family: BACS"">BPAlAdYl</p>","","","","","","","","",""
"html-keyboard-response","172","287455","0.0-12.0-0.2","5e87b28549538b0fdf96b318","650c16f0f2faf8d7a0d14c09","651c1c730bd3beb12c8cec76","null","null","<p style=""font-size: 60px; font-family: BACS"">GQrckuvb</p>","","","","","","","","",""
"html-keyboard-response","173","288461","0.0-12.0-0.3","5e87b28549538b0fdf96b318","650c16f0f2faf8d7a0d14c09","651c1c730bd3beb12c8cec76","null","null","<p style=""font-size: 60px; font-family: BACS"">tmtEMOYK</p>","","","","","","","","",""
"html-keyboard-response","174","289462","0.0-12.0-0.4","5e87b28549538b0fdf96b318","650c16f0f2faf8d7a0d14c09","651c1c730bd3beb12c8cec76","null","null","<p style=""font-size: 60px; font-family: BACS"">RCcEmAM</p>","","","","","","","","",""
"html-keyboard-response","175","290468","0.0-12.0-0.5","5e87b28549538b0fdf96b318","650c16f0f2faf8d7a0d14c09","651c1c730bd3beb12c8cec76","null","null","<p style=""font-size: 60px; font-family: BACS"">QcQAJLUOk</p>","","","","","","","","",""
"html-keyboard-response","176","291476","0.0-12.0-0.6","5e87b28549538b0fdf96b318","650c16f0f2faf8d7a0d14c09","651c1c730bd3beb12c8cec76","null","null","<p style=""font-size: 60px; font-family: BACS"">YJLcAOcN</p>","","","","","","","","",""
"html-keyboard-response","177","292492","0.0-12.0-0.7","5e87b28549538b0fdf96b318","650c16f0f2faf8d7a0d14c09","651c1c730bd3beb12c8cec76","null","null","<p style=""font-size: 60px; font-family: BACS"">COTKOYK</p>","","","","","","","","",""
"html-keyboard-response","178","293500","0.0-12.0-0.8","5e87b28549538b0fdf96b318","650c16f0f2faf8d7a0d14c09","651c1c730bd3beb12c8cec76","null","null","<p style=""font-size: 60px; font-family: BACS"">QcQAJkuvb</p>","","","","","","","","",""
"html-keyboard-response","179","294513","0.0-12.0-0.9","5e87b28549538b0fdf96b318","650c16f0f2faf8d7a0d14c09","651c1c730bd3beb12c8cec76","null","null","<p style=""font-size: 60px; font-family: BACS"">udkmLUOk</p>","","","","","","","","",""
"html-keyboard-response","180","295516","0.0-12.0-0.10","5e87b28549538b0fdf96b318","650c16f0f2faf8d7a0d14c09","651c1c730bd3beb12c8cec76","null","null","<p style=""font-size: 60px; font-family: BACS"">blMkmAM</p>","","","","","","","","",""
"html-keyboard-response","181","296521","0.0-12.0-0.11","5e87b28549538b0fdf96b318","650c16f0f2faf8d7a0d14c09","651c1c730bd3beb12c8cec76","null","null","<p style=""font-size: 60px; font-family: BACS"">OMlTAdYl</p>","","","","","","","","",""
"html-keyboard-response","182","297536","0.0-12.0-0.12","5e87b28549538b0fdf96b318","650c16f0f2faf8d7a0d14c09","651c1c730bd3beb12c8cec76","null","null","<p style=""font-size: 60px; font-family: BACS"">NbmQUkuvb</p>","","","","","","","","",""
"html-keyboard-response","183","298544","0.0-12.0-0.13","5e87b28549538b0fdf96b318","650c16f0f2faf8d7a0d14c09","651c1c730bd3beb12c8cec76","null","null","<p style=""font-size: 60px; font-family: BACS"">GQrcLUOk</p>","","","","","","","","",""
"html-keyboard-response","184","299549","0.0-12.0-0.14","5e87b28549538b0fdf96b318","650c16f0f2faf8d7a0d14c09","651c1c730bd3beb12c8cec76","null","null","<p style=""font-size: 60px; font-family: BACS"">KdARmAM</p>","","","","","","","","",""
"html-keyboard-response","185","300556","0.0-12.0-0.15","5e87b28549538b0fdf96b318","650c16f0f2faf8d7a0d14c09","651c1c730bd3beb12c8cec76","null","null","<p style=""font-size: 60px; font-family: BACS"">bdUNuLUOk</p>","","","","","","","","",""
"html-keyboard-response","186","301568","0.0-12.0-0.16","5e87b28549538b0fdf96b318","650c16f0f2faf8d7a0d14c09","651c1c730bd3beb12c8cec76","null","null","<p style=""font-size: 60px; font-family: BACS"">ORbkmAM</p>","","","","","","","","",""
"html-keyboard-response","187","302580","0.0-12.0-0.17","5e87b28549538b0fdf96b318","650c16f0f2faf8d7a0d14c09","651c1c730bd3beb12c8cec76","null","null","<p style=""font-size: 60px; font-family: BACS"">NbmQUOcN</p>","","","","","","","","",""
"html-keyboard-response","188","303582","0.0-12.0-0.18","5e87b28549538b0fdf96b318","650c16f0f2faf8d7a0d14c09","651c1c730bd3beb12c8cec76","null","null","<p style=""font-size: 60px; font-family: BACS"">NaJbkuvb</p>","","","","","","","","",""
"html-keyboard-response","189","304596","0.0-12.0-0.19","5e87b28549538b0fdf96b318","650c16f0f2faf8d7a0d14c09","651c1c730bd3beb12c8cec76","null","null","<p style=""font-size: 60px; font-family: BACS"">blMkOYK</p>","","","","","","","","",""
"html-keyboard-response","190","305613","0.0-12.0-0.20","5e87b28549538b0fdf96b318","650c16f0f2faf8d7a0d14c09","651c1c730bd3beb12c8cec76","null","null","<p style=""font-size: 60px; font-family: BACS"">kcdOtYDTk</p>","","","","","","","","",""
"html-keyboard-response","191","306628","0.0-12.0-0.21","5e87b28549538b0fdf96b318","650c16f0f2faf8d7a0d14c09","651c1c730bd3beb12c8cec76","null","null","<p style=""font-size: 60px; font-family: BACS"">QcQAJOcN</p>","","","","","","","","",""
"html-keyboard-response","192","307635","0.0-12.0-0.22","5e87b28549538b0fdf96b318","650c16f0f2faf8d7a0d14c09","651c1c730bd3beb12c8cec76","null","null","<p style=""font-size: 60px; font-family: BACS"">NbmQUvAvb</p>","","","","","","","","",""
"html-keyboard-response","193","308643","0.0-12.0-0.23","5e87b28549538b0fdf96b318","650c16f0f2faf8d7a0d14c09","651c1c730bd3beb12c8cec76","null","null","<p style=""font-size: 60px; font-family: BACS"">blMkYDTk</p>","","","","","","","","",""
"html-keyboard-response","194","309656","0.0-12.0-0.24","5e87b28549538b0fdf96b318","650c16f0f2faf8d7a0d14c09","651c1c730bd3beb12c8cec76","null","null","<p style=""font-size: 60px; font-family: BACS"">NaJbvAvb</p>","","","","","","","","",""
"html-keyboard-response","195","310666","0.0-12.0-0.25","5e87b28549538b0fdf96b318","650c16f0f2faf8d7a0d14c09","651c1c730bd3beb12c8cec76","null","null","<p style=""font-size: 60px; font-family: BACS"">OMlTOYK</p>","","","","","","","","",""
"html-keyboard-response","196","311678","0.0-12.0-0.26","5e87b28549538b0fdf96b318","650c16f0f2faf8d7a0d14c09","651c1c730bd3beb12c8cec76","null","null","<p style=""font-size: 60px; font-family: BACS"">udkmGUOA</p>","","","","","","","","",""
"html-keyboard-response","197","312690","0.0-12.0-0.27","5e87b28549538b0fdf96b318","650c16f0f2faf8d7a0d14c09","651c1c730bd3beb12c8cec76","null","null","<p style=""font-size: 60px; font-family: BACS"">YuaNdLUOk</p>","","","","","","","","",""
"html-keyboard-response","198","313705","0.0-12.0-0.28","5e87b28549538b0fdf96b318","650c16f0f2faf8d7a0d14c09","651c1c730bd3beb12c8cec76","null","null","<p style=""font-size: 60px; font-family: BACS"">udkmkuvb</p>","","","","","","","","",""
"html-keyboard-response","199","314721","0.0-12.0-0.29","5e87b28549538b0fdf96b318","650c16f0f2faf8d7a0d14c09","651c1c730bd3beb12c8cec76","null","null","<p style=""font-size: 60px; font-family: BACS"">YuaNdGUOA</p>","","","","","","","","",""
"html-keyboard-response","200","315723","0.0-12.0-0.30","5e87b28549538b0fdf96b318","650c16f0f2faf8d7a0d14c09","651c1c730bd3beb12c8cec76","null","null","<p style=""font-size: 60px; font-family: BACS"">OMlTdmRb</p>","","","","","","","","",""
"html-keyboard-response","201","316734","0.0-12.0-0.31","5e87b28549538b0fdf96b318","650c16f0f2faf8d7a0d14c09","651c1c730bd3beb12c8cec76","null","null","<p style=""font-size: 60px; font-family: BACS"">bdUNuvAvb</p>","","","","","","","","",""
"html-keyboard-response","202","317740","0.0-12.0-0.32","5e87b28549538b0fdf96b318","650c16f0f2faf8d7a0d14c09","651c1c730bd3beb12c8cec76","null","null","<p style=""font-size: 60px; font-family: BACS"">COTKAdYl</p>","","","","","","","","",""
"html-keyboard-response","203","318751","0.0-12.0-0.33","5e87b28549538b0fdf96b318","650c16f0f2faf8d7a0d14c09","651c1c730bd3beb12c8cec76","null","null","<p style=""font-size: 60px; font-family: BACS"">BPAlYDTk</p>","","","","","","","","",""
"html-keyboard-response","204","319754","0.0-12.0-0.34","5e87b28549538b0fdf96b318","650c16f0f2faf8d7a0d14c09","651c1c730bd3beb12c8cec76","null","null","<p style=""font-size: 60px; font-family: BACS"">ORbkAdYl</p>","","","","","","","","",""
"html-keyboard-response","205","320763","0.0-12.0-0.35","5e87b28549538b0fdf96b318","650c16f0f2faf8d7a0d14c09","651c1c730bd3beb12c8cec76","null","null","<p style=""font-size: 60px; font-family: BACS"">kdaAJLUOk</p>","","","","","","","","",""
"html-keyboard-response","206","321776","0.0-12.0-0.36","5e87b28549538b0fdf96b318","650c16f0f2faf8d7a0d14c09","651c1c730bd3beb12c8cec76","null","null","<p style=""font-size: 60px; font-family: BACS"">dMYBPYDTk</p>","","","","","","","","",""
"html-keyboard-response","207","322781","0.0-12.0-0.37","5e87b28549538b0fdf96b318","650c16f0f2faf8d7a0d14c09","651c1c730bd3beb12c8cec76","null","null","<p style=""font-size: 60px; font-family: BACS"">YuaNdkuvb</p>","","","","","","","","",""
"html-keyboard-response","208","323783","0.0-12.0-0.38","5e87b28549538b0fdf96b318","650c16f0f2faf8d7a0d14c09","651c1c730bd3beb12c8cec76","null","null","<p style=""font-size: 60px; font-family: BACS"">OYuvbOcN</p>","","","","","","","","",""
"html-keyboard-response","209","324796","0.0-12.0-0.39","5e87b28549538b0fdf96b318","650c16f0f2faf8d7a0d14c09","651c1c730bd3beb12c8cec76","null","null","<p style=""font-size: 60px; font-family: BACS"">KdAROYK</p>","","","","","","","","",""
"html-keyboard-response","210","325801","0.0-12.0-0.40","5e87b28549538b0fdf96b318","650c16f0f2faf8d7a0d14c09","651c1c730bd3beb12c8cec76","null","null","<p style=""font-size: 60px; font-family: BACS"">blMkAdYl</p>","","","","","","","","",""
"html-keyboard-response","211","326806","0.0-12.0-0.41","5e87b28549538b0fdf96b318","650c16f0f2faf8d7a0d14c09","651c1c730bd3beb12c8cec76","null","null","<p style=""font-size: 60px; font-family: BACS"">kdaAJOcN</p>","","","","","","","","",""
"html-keyboard-response","212","327808","0.0-12.0-0.42","5e87b28549538b0fdf96b318","650c16f0f2faf8d7a0d14c09","651c1c730bd3beb12c8cec76","null","null","<p style=""font-size: 60px; font-family: BACS"">tmtEMdmRb</p>","","","","","","","","",""
"html-keyboard-response","213","328820","0.0-12.0-0.43","5e87b28549538b0fdf96b318","650c16f0f2faf8d7a0d14c09","651c1c730bd3beb12c8cec76","null","null","<p style=""font-size: 60px; font-family: BACS"">OYuvbvAvb</p>","","","","","","","","",""
"html-keyboard-response","214","329821","0.0-12.0-0.44","5e87b28549538b0fdf96b318","650c16f0f2faf8d7a0d14c09","651c1c730bd3beb12c8cec76","null","null","<p style=""font-size: 60px; font-family: BACS"">NbmQUGUOA</p>","","","","","","","","",""
"html-keyboard-response","215","330823","0.0-12.0-0.45","5e87b28549538b0fdf96b318","650c16f0f2faf8d7a0d14c09","651c1c730bd3beb12c8cec76","null","null","<p style=""font-size: 60px; font-family: BACS"">OMlTYDTk</p>","","","","","","","","",""
"html-keyboard-response","216","331835","0.0-12.0-0.46","5e87b28549538b0fdf96b318","650c16f0f2faf8d7a0d14c09","651c1c730bd3beb12c8cec76","null","null","<p style=""font-size: 60px; font-family: BACS"">KdARAdYl</p>","","","","","","","","",""
"html-keyboard-response","217","332838","0.0-12.0-0.47","5e87b28549538b0fdf96b318","650c16f0f2faf8d7a0d14c09","651c1c730bd3beb12c8cec76","null","null","<p style=""font-size: 60px; font-family: BACS"">bdUNuGUOA</p>","","","","","","","","",""
"html-keyboard-response","218","333846","0.0-12.0-0.48","5e87b28549538b0fdf96b318","650c16f0f2faf8d7a0d14c09","651c1c730bd3beb12c8cec76","null","null","<p style=""font-size: 60px; font-family: BACS"">COTKYDTk</p>","","","","","","","","",""
"html-keyboard-response","219","334858","0.0-12.0-0.49","5e87b28549538b0fdf96b318","650c16f0f2faf8d7a0d14c09","651c1c730bd3beb12c8cec76","null","null","<p style=""font-size: 60px; font-family: BACS"">RCcEdmRb</p>","","","","","","","","",""
"html-keyboard-response","220","335860","0.0-12.0-0.50","5e87b28549538b0fdf96b318","650c16f0f2faf8d7a0d14c09","651c1c730bd3beb12c8cec76","null","null","<p style=""font-size: 60px; font-family: BACS"">NaJbLUOk</p>","","","","","","","","",""
"html-keyboard-response","221","336867","0.0-12.0-0.51","5e87b28549538b0fdf96b318","650c16f0f2faf8d7a0d14c09","651c1c730bd3beb12c8cec76","null","null","<p style=""font-size: 60px; font-family: BACS"">udkmOcN</p>","","","","","","","","",""
"html-keyboard-response","222","337876","0.0-12.0-0.52","5e87b28549538b0fdf96b318","650c16f0f2faf8d7a0d14c09","651c1c730bd3beb12c8cec76","null","null","<p style=""font-size: 60px; font-family: BACS"">BPAlmAM</p>","","","","","","","","",""
"html-keyboard-response","223","338891","0.0-12.0-0.53","5e87b28549538b0fdf96b318","650c16f0f2faf8d7a0d14c09","651c1c730bd3beb12c8cec76","null","null","<p style=""font-size: 60px; font-family: BACS"">KdARdmRb</p>","","","","","","","","",""
"html-keyboard-response","224","339901","0.0-12.0-0.54","5e87b28549538b0fdf96b318","650c16f0f2faf8d7a0d14c09","651c1c730bd3beb12c8cec76","null","null","<p style=""font-size: 60px; font-family: BACS"">kdaAJkuvb</p>","","","","","","","","",""
"html-keyboard-response","225","340910","0.0-12.0-0.55","5e87b28549538b0fdf96b318","650c16f0f2faf8d7a0d14c09","651c1c730bd3beb12c8cec76","null","null","<p style=""font-size: 60px; font-family: BACS"">QcQAJGUOA</p>","","","","","","","","",""
"html-keyboard-response","226","341916","0.0-12.0-0.56","5e87b28549538b0fdf96b318","650c16f0f2faf8d7a0d14c09","651c1c730bd3beb12c8cec76","null","null","<p style=""font-size: 60px; font-family: BACS"">BPAldmRb</p>","","","","","","","","",""
"html-keyboard-response","227","342917","0.0-12.0-0.57","5e87b28549538b0fdf96b318","650c16f0f2faf8d7a0d14c09","651c1c730bd3beb12c8cec76","null","null","<p style=""font-size: 60px; font-family: BACS"">RCcEYDTk</p>","","","","","","","","",""
"html-keyboard-response","228","343927","0.0-12.0-0.58","5e87b28549538b0fdf96b318","650c16f0f2faf8d7a0d14c09","651c1c730bd3beb12c8cec76","null","null","<p style=""font-size: 60px; font-family: BACS"">GQrcOcN</p>","","","","","","","","",""
"html-keyboard-response","229","344943","0.0-12.0-0.59","5e87b28549538b0fdf96b318","650c16f0f2faf8d7a0d14c09","651c1c730bd3beb12c8cec76","null","null","<p style=""font-size: 60px; font-family: BACS"">kcdOtOYK</p>","","","","","","","","",""
"html-keyboard-response","230","345956","0.0-12.0-0.60","5e87b28549538b0fdf96b318","650c16f0f2faf8d7a0d14c09","651c1c730bd3beb12c8cec76","null","null","<p style=""font-size: 60px; font-family: BACS"">dMYBPAdYl</p>","","","","","","","","",""
"html-keyboard-response","231","346972","0.0-12.0-0.61","5e87b28549538b0fdf96b318","650c16f0f2faf8d7a0d14c09","651c1c730bd3beb12c8cec76","null","null","<p style=""font-size: 60px; font-family: BACS"">kcdOtmAM</p>","","","","","","","","",""
"html-keyboard-response","232","347982","0.0-12.0-0.62","5e87b28549538b0fdf96b318","650c16f0f2faf8d7a0d14c09","651c1c730bd3beb12c8cec76","null","null","<p style=""font-size: 60px; font-family: BACS"">YJLcAkuvb</p>","","","","","","","","",""
"html-keyboard-response","233","348997","0.0-12.0-0.63","5e87b28549538b0fdf96b318","650c16f0f2faf8d7a0d14c09","651c1c730bd3beb12c8cec76","null","null","<p style=""font-size: 60px; font-family: BACS"">RCcEAdYl</p>","","","","","","","","",""
"html-keyboard-response","234","350012","0.0-12.0-0.64","5e87b28549538b0fdf96b318","650c16f0f2faf8d7a0d14c09","651c1c730bd3beb12c8cec76","null","null","<p style=""font-size: 60px; font-family: BACS"">COTKmAM</p>","","","","","","","","",""
"html-keyboard-response","235","351013","0.0-12.0-0.65","5e87b28549538b0fdf96b318","650c16f0f2faf8d7a0d14c09","651c1c730bd3beb12c8cec76","null","null","<p style=""font-size: 60px; font-family: BACS"">tmtEMYDTk</p>","","","","","","","","",""
"html-keyboard-response","236","352019","0.0-12.0-0.66","5e87b28549538b0fdf96b318","650c16f0f2faf8d7a0d14c09","651c1c730bd3beb12c8cec76","null","null","<p style=""font-size: 60px; font-family: BACS"">dMYBPdmRb</p>","","","","","","","","",""
"html-keyboard-response","237","353025","0.0-12.0-0.67","5e87b28549538b0fdf96b318","650c16f0f2faf8d7a0d14c09","651c1c730bd3beb12c8cec76","null","null","<p style=""font-size: 60px; font-family: BACS"">tmtEMmAM</p>","","","","","","","","",""
"html-keyboard-response","238","354027","0.0-12.0-0.68","5e87b28549538b0fdf96b318","650c16f0f2faf8d7a0d14c09","651c1c730bd3beb12c8cec76","null","null","<p style=""font-size: 60px; font-family: BACS"">ORbkdmRb</p>","","","","","","","","",""
"html-keyboard-response","239","355033","0.0-12.0-0.69","5e87b28549538b0fdf96b318","650c16f0f2faf8d7a0d14c09","651c1c730bd3beb12c8cec76","null","null","<p style=""font-size: 60px; font-family: BACS"">bdUNuOcN</p>","","","","","","","","",""
"html-keyboard-response","240","356047","0.0-12.0-0.70","5e87b28549538b0fdf96b318","650c16f0f2faf8d7a0d14c09","651c1c730bd3beb12c8cec76","null","null","<p style=""font-size: 60px; font-family: BACS"">ORbkOYK</p>","","","","","","","","",""
"html-keyboard-response","241","357054","0.0-12.0-0.71","5e87b28549538b0fdf96b318","650c16f0f2faf8d7a0d14c09","651c1c730bd3beb12c8cec76","null","null","<p style=""font-size: 60px; font-family: BACS"">kdaAJvAvb</p>","","","","","","","","",""
"html-keyboard-response","242","358064","0.0-12.0-0.72","5e87b28549538b0fdf96b318","650c16f0f2faf8d7a0d14c09","651c1c730bd3beb12c8cec76","null","null","<p style=""font-size: 60px; font-family: BACS"">kcdOtdmRb</p>","","","","","","","","",""
"html-keyboard-response","243","359067","0.0-12.0-0.73","5e87b28549538b0fdf96b318","650c16f0f2faf8d7a0d14c09","651c1c730bd3beb12c8cec76","null","null","<p style=""font-size: 60px; font-family: BACS"">NaJbGUOA</p>","","","","","","","","",""
"html-keyboard-response","244","360079","0.0-12.0-0.74","5e87b28549538b0fdf96b318","650c16f0f2faf8d7a0d14c09","651c1c730bd3beb12c8cec76","null","null","<p style=""font-size: 60px; font-family: BACS"">GQrcvAvb</p>","","","","","","","","",""
"html-keyboard-response","245","361094","0.0-12.0-0.75","5e87b28549538b0fdf96b318","650c16f0f2faf8d7a0d14c09","651c1c730bd3beb12c8cec76","null","null","<p style=""font-size: 60px; font-family: BACS"">OYuvbLUOk</p>","","","","","","","","",""
"html-keyboard-response","246","362099","0.0-12.0-0.76","5e87b28549538b0fdf96b318","650c16f0f2faf8d7a0d14c09","651c1c730bd3beb12c8cec76","null","null","<p style=""font-size: 60px; font-family: BACS"">YJLcAvAvb</p>","","","","","","","","",""
"html-keyboard-response","247","363111","0.0-12.0-0.77","5e87b28549538b0fdf96b318","650c16f0f2faf8d7a0d14c09","651c1c730bd3beb12c8cec76","null","null","<p style=""font-size: 60px; font-family: BACS"">OYuvbGUOA</p>","","","","","","","","",""
"html-keyboard-response","248","364127","0.0-12.0-0.78","5e87b28549538b0fdf96b318","650c16f0f2faf8d7a0d14c09","651c1c730bd3beb12c8cec76","null","null","<p style=""font-size: 60px; font-family: BACS"">YuaNdvAvb</p>","","","","","","","","",""
"html-keyboard-response","249","365129","0.0-12.0-0.79","5e87b28549538b0fdf96b318","650c16f0f2faf8d7a0d14c09","651c1c730bd3beb12c8cec76","null","null","<p style=""font-size: 60px; font-family: BACS"">YJLcAGUOA</p>","","","","","","","","",""
"html-keyboard-response","250","400490","0.0-13.0","5e87b28549538b0fdf96b318","650c16f0f2faf8d7a0d14c09","651c1c730bd3beb12c8cec76","35361"," ","<p>Great, you've seen the third block of words. You may now take a short break.</p>
      <p>Press the spacebar when you're ready to continue.</p>","","","","","","","","",""
"html-keyboard-response","251","401505","0.0-14.0-0.0","5e87b28549538b0fdf96b318","650c16f0f2faf8d7a0d14c09","651c1c730bd3beb12c8cec76","null","null","<p style=""font-size: 60px; font-family: BACS"">YuaNdvAvb</p>","","","","","","","","",""
"html-keyboard-response","252","402510","0.0-14.0-0.1","5e87b28549538b0fdf96b318","650c16f0f2faf8d7a0d14c09","651c1c730bd3beb12c8cec76","null","null","<p style=""font-size: 60px; font-family: BACS"">COTKAdYl</p>","","","","","","","","",""
"html-keyboard-response","253","403524","0.0-14.0-0.2","5e87b28549538b0fdf96b318","650c16f0f2faf8d7a0d14c09","651c1c730bd3beb12c8cec76","null","null","<p style=""font-size: 60px; font-family: BACS"">kcdOtOYK</p>","","","","","","","","",""
"html-keyboard-response","254","404537","0.0-14.0-0.3","5e87b28549538b0fdf96b318","650c16f0f2faf8d7a0d14c09","651c1c730bd3beb12c8cec76","null","null","<p style=""font-size: 60px; font-family: BACS"">NaJbkuvb</p>","","","","","","","","",""
"html-keyboard-response","255","405555","0.0-14.0-0.4","5e87b28549538b0fdf96b318","650c16f0f2faf8d7a0d14c09","651c1c730bd3beb12c8cec76","null","null","<p style=""font-size: 60px; font-family: BACS"">COTKYDTk</p>","","","","","","","","",""
"html-keyboard-response","256","406556","0.0-14.0-0.5","5e87b28549538b0fdf96b318","650c16f0f2faf8d7a0d14c09","651c1c730bd3beb12c8cec76","null","null","<p style=""font-size: 60px; font-family: BACS"">GQrcOcN</p>","","","","","","","","",""
"html-keyboard-response","257","407568","0.0-14.0-0.6","5e87b28549538b0fdf96b318","650c16f0f2faf8d7a0d14c09","651c1c730bd3beb12c8cec76","null","null","<p style=""font-size: 60px; font-family: BACS"">QcQAJGUOA</p>","","","","","","","","",""
"html-keyboard-response","258","408583","0.0-14.0-0.7","5e87b28549538b0fdf96b318","650c16f0f2faf8d7a0d14c09","651c1c730bd3beb12c8cec76","null","null","<p style=""font-size: 60px; font-family: BACS"">blMkYDTk</p>","","","","","","","","",""
"html-keyboard-response","259","409599","0.0-14.0-0.8","5e87b28549538b0fdf96b318","650c16f0f2faf8d7a0d14c09","651c1c730bd3beb12c8cec76","null","null","<p style=""font-size: 60px; font-family: BACS"">dMYBPdmRb</p>","","","","","","","","",""
"html-keyboard-response","260","410613","0.0-14.0-0.9","5e87b28549538b0fdf96b318","650c16f0f2faf8d7a0d14c09","651c1c730bd3beb12c8cec76","null","null","<p style=""font-size: 60px; font-family: BACS"">NbmQUGUOA</p>","","","","","","","","",""
"html-keyboard-response","261","411618","0.0-14.0-0.10","5e87b28549538b0fdf96b318","650c16f0f2faf8d7a0d14c09","651c1c730bd3beb12c8cec76","null","null","<p style=""font-size: 60px; font-family: BACS"">udkmLUOk</p>","","","","","","","","",""
"html-keyboard-response","262","412630","0.0-14.0-0.11","5e87b28549538b0fdf96b318","650c16f0f2faf8d7a0d14c09","651c1c730bd3beb12c8cec76","null","null","<p style=""font-size: 60px; font-family: BACS"">QcQAJkuvb</p>","","","","","","","","",""
"html-keyboard-response","263","413633","0.0-14.0-0.12","5e87b28549538b0fdf96b318","650c16f0f2faf8d7a0d14c09","651c1c730bd3beb12c8cec76","null","null","<p style=""font-size: 60px; font-family: BACS"">KdARdmRb</p>","","","","","","","","",""
"html-keyboard-response","264","414647","0.0-14.0-0.13","5e87b28549538b0fdf96b318","650c16f0f2faf8d7a0d14c09","651c1c730bd3beb12c8cec76","null","null","<p style=""font-size: 60px; font-family: BACS"">kdaAJOcN</p>","","","","","","","","",""
"html-keyboard-response","265","415657","0.0-14.0-0.14","5e87b28549538b0fdf96b318","650c16f0f2faf8d7a0d14c09","651c1c730bd3beb12c8cec76","null","null","<p style=""font-size: 60px; font-family: BACS"">tmtEMOYK</p>","","","","","","","","",""
"html-keyboard-response","266","416667","0.0-14.0-0.15","5e87b28549538b0fdf96b318","650c16f0f2faf8d7a0d14c09","651c1c730bd3beb12c8cec76","null","null","<p style=""font-size: 60px; font-family: BACS"">RCcEYDTk</p>","","","","","","","","",""
"html-keyboard-response","267","417675","0.0-14.0-0.16","5e87b28549538b0fdf96b318","650c16f0f2faf8d7a0d14c09","651c1c730bd3beb12c8cec76","null","null","<p style=""font-size: 60px; font-family: BACS"">tmtEMmAM</p>","","","","","","","","",""
"html-keyboard-response","268","418688","0.0-14.0-0.17","5e87b28549538b0fdf96b318","650c16f0f2faf8d7a0d14c09","651c1c730bd3beb12c8cec76","null","null","<p style=""font-size: 60px; font-family: BACS"">blMkOYK</p>","","","","","","","","",""
"html-keyboard-response","269","419698","0.0-14.0-0.18","5e87b28549538b0fdf96b318","650c16f0f2faf8d7a0d14c09","651c1c730bd3beb12c8cec76","null","null","<p style=""font-size: 60px; font-family: BACS"">OYuvbvAvb</p>","","","","","","","","",""
"html-keyboard-response","270","420713","0.0-14.0-0.19","5e87b28549538b0fdf96b318","650c16f0f2faf8d7a0d14c09","651c1c730bd3beb12c8cec76","null","null","<p style=""font-size: 60px; font-family: BACS"">COTKmAM</p>","","","","","","","","",""
"html-keyboard-response","271","421718","0.0-14.0-0.20","5e87b28549538b0fdf96b318","650c16f0f2faf8d7a0d14c09","651c1c730bd3beb12c8cec76","null","null","<p style=""font-size: 60px; font-family: BACS"">tmtEMdmRb</p>","","","","","","","","",""
"html-keyboard-response","272","422733","0.0-14.0-0.21","5e87b28549538b0fdf96b318","650c16f0f2faf8d7a0d14c09","651c1c730bd3beb12c8cec76","null","null","<p style=""font-size: 60px; font-family: BACS"">udkmGUOA</p>","","","","","","","","",""
"html-keyboard-response","273","423749","0.0-14.0-0.22","5e87b28549538b0fdf96b318","650c16f0f2faf8d7a0d14c09","651c1c730bd3beb12c8cec76","null","null","<p style=""font-size: 60px; font-family: BACS"">NbmQUOcN</p>","","","","","","","","",""
"html-keyboard-response","274","424756","0.0-14.0-0.23","5e87b28549538b0fdf96b318","650c16f0f2faf8d7a0d14c09","651c1c730bd3beb12c8cec76","null","null","<p style=""font-size: 60px; font-family: BACS"">YJLcAkuvb</p>","","","","","","","","",""
"html-keyboard-response","275","425773","0.0-14.0-0.24","5e87b28549538b0fdf96b318","650c16f0f2faf8d7a0d14c09","651c1c730bd3beb12c8cec76","null","null","<p style=""font-size: 60px; font-family: BACS"">udkmOcN</p>","","","","","","","","",""
"html-keyboard-response","276","426783","0.0-14.0-0.25","5e87b28549538b0fdf96b318","650c16f0f2faf8d7a0d14c09","651c1c730bd3beb12c8cec76","null","null","<p style=""font-size: 60px; font-family: BACS"">ORbkOYK</p>","","","","","","","","",""
"html-keyboard-response","277","427797","0.0-14.0-0.26","5e87b28549538b0fdf96b318","650c16f0f2faf8d7a0d14c09","651c1c730bd3beb12c8cec76","null","null","<p style=""font-size: 60px; font-family: BACS"">GQrcLUOk</p>","","","","","","","","",""
"html-keyboard-response","278","428813","0.0-14.0-0.27","5e87b28549538b0fdf96b318","650c16f0f2faf8d7a0d14c09","651c1c730bd3beb12c8cec76","null","null","<p style=""font-size: 60px; font-family: BACS"">YJLcAGUOA</p>","","","","","","","","",""
"html-keyboard-response","279","429825","0.0-14.0-0.28","5e87b28549538b0fdf96b318","650c16f0f2faf8d7a0d14c09","651c1c730bd3beb12c8cec76","null","null","<p style=""font-size: 60px; font-family: BACS"">kcdOtYDTk</p>","","","","","","","","",""
"html-keyboard-response","280","430837","0.0-14.0-0.29","5e87b28549538b0fdf96b318","650c16f0f2faf8d7a0d14c09","651c1c730bd3beb12c8cec76","null","null","<p style=""font-size: 60px; font-family: BACS"">RCcEdmRb</p>","","","","","","","","",""
"html-keyboard-response","281","431844","0.0-14.0-0.30","5e87b28549538b0fdf96b318","650c16f0f2faf8d7a0d14c09","651c1c730bd3beb12c8cec76","null","null","<p style=""font-size: 60px; font-family: BACS"">YuaNdLUOk</p>","","","","","","","","",""
"html-keyboard-response","282","432849","0.0-14.0-0.31","5e87b28549538b0fdf96b318","650c16f0f2faf8d7a0d14c09","651c1c730bd3beb12c8cec76","null","null","<p style=""font-size: 60px; font-family: BACS"">KdARAdYl</p>","","","","","","","","",""
"html-keyboard-response","283","433857","0.0-14.0-0.32","5e87b28549538b0fdf96b318","650c16f0f2faf8d7a0d14c09","651c1c730bd3beb12c8cec76","null","null","<p style=""font-size: 60px; font-family: BACS"">OYuvbLUOk</p>","","","","","","","","",""
"html-keyboard-response","284","434872","0.0-14.0-0.33","5e87b28549538b0fdf96b318","650c16f0f2faf8d7a0d14c09","651c1c730bd3beb12c8cec76","null","null","<p style=""font-size: 60px; font-family: BACS"">blMkmAM</p>","","","","","","","","",""
"html-keyboard-response","285","435876","0.0-14.0-0.34","5e87b28549538b0fdf96b318","650c16f0f2faf8d7a0d14c09","651c1c730bd3beb12c8cec76","null","null","<p style=""font-size: 60px; font-family: BACS"">YuaNdkuvb</p>","","","","","","","","",""
"html-keyboard-response","286","436889","0.0-14.0-0.35","5e87b28549538b0fdf96b318","650c16f0f2faf8d7a0d14c09","651c1c730bd3beb12c8cec76","null","null","<p style=""font-size: 60px; font-family: BACS"">tmtEMYDTk</p>","","","","","","","","",""
"html-keyboard-response","287","437890","0.0-14.0-0.36","5e87b28549538b0fdf96b318","650c16f0f2faf8d7a0d14c09","651c1c730bd3beb12c8cec76","null","null","<p style=""font-size: 60px; font-family: BACS"">kdaAJvAvb</p>","","","","","","","","",""
"html-keyboard-response","288","438904","0.0-14.0-0.37","5e87b28549538b0fdf96b318","650c16f0f2faf8d7a0d14c09","651c1c730bd3beb12c8cec76","null","null","<p style=""font-size: 60px; font-family: BACS"">kcdOtdmRb</p>","","","","","","","","",""
"html-keyboard-response","289","439911","0.0-14.0-0.38","5e87b28549538b0fdf96b318","650c16f0f2faf8d7a0d14c09","651c1c730bd3beb12c8cec76","null","null","<p style=""font-size: 60px; font-family: BACS"">RCcEAdYl</p>","","","","","","","","",""
"html-keyboard-response","290","440919","0.0-14.0-0.39","5e87b28549538b0fdf96b318","650c16f0f2faf8d7a0d14c09","651c1c730bd3beb12c8cec76","null","null","<p style=""font-size: 60px; font-family: BACS"">bdUNuGUOA</p>","","","","","","","","",""
"html-keyboard-response","291","441935","0.0-14.0-0.40","5e87b28549538b0fdf96b318","650c16f0f2faf8d7a0d14c09","651c1c730bd3beb12c8cec76","null","null","<p style=""font-size: 60px; font-family: BACS"">OMlTOYK</p>","","","","","","","","",""
"html-keyboard-response","292","442950","0.0-14.0-0.41","5e87b28549538b0fdf96b318","650c16f0f2faf8d7a0d14c09","651c1c730bd3beb12c8cec76","null","null","<p style=""font-size: 60px; font-family: BACS"">udkmkuvb</p>","","","","","","","","",""
"html-keyboard-response","293","443958","0.0-14.0-0.42","5e87b28549538b0fdf96b318","650c16f0f2faf8d7a0d14c09","651c1c730bd3beb12c8cec76","null","null","<p style=""font-size: 60px; font-family: BACS"">NaJbGUOA</p>","","","","","","","","",""
"html-keyboard-response","294","444965","0.0-14.0-0.43","5e87b28549538b0fdf96b318","650c16f0f2faf8d7a0d14c09","651c1c730bd3beb12c8cec76","null","null","<p style=""font-size: 60px; font-family: BACS"">OMlTYDTk</p>","","","","","","","","",""
"html-keyboard-response","295","445981","0.0-14.0-0.44","5e87b28549538b0fdf96b318","650c16f0f2faf8d7a0d14c09","651c1c730bd3beb12c8cec76","null","null","<p style=""font-size: 60px; font-family: BACS"">kcdOtmAM</p>","","","","","","","","",""
"html-keyboard-response","296","446994","0.0-14.0-0.45","5e87b28549538b0fdf96b318","650c16f0f2faf8d7a0d14c09","651c1c730bd3beb12c8cec76","null","null","<p style=""font-size: 60px; font-family: BACS"">bdUNuLUOk</p>","","","","","","","","",""
"html-keyboard-response","297","448002","0.0-14.0-0.46","5e87b28549538b0fdf96b318","650c16f0f2faf8d7a0d14c09","651c1c730bd3beb12c8cec76","null","null","<p style=""font-size: 60px; font-family: BACS"">BPAlmAM</p>","","","","","","","","",""
"html-keyboard-response","298","449015","0.0-14.0-0.47","5e87b28549538b0fdf96b318","650c16f0f2faf8d7a0d14c09","651c1c730bd3beb12c8cec76","null","null","<p style=""font-size: 60px; font-family: BACS"">COTKOYK</p>","","","","","","","","",""
"html-keyboard-response","299","450024","0.0-14.0-0.48","5e87b28549538b0fdf96b318","650c16f0f2faf8d7a0d14c09","651c1c730bd3beb12c8cec76","null","null","<p style=""font-size: 60px; font-family: BACS"">NaJbvAvb</p>","","","","","","","","",""
"html-keyboard-response","300","451041","0.0-14.0-0.49","5e87b28549538b0fdf96b318","650c16f0f2faf8d7a0d14c09","651c1c730bd3beb12c8cec76","null","null","<p style=""font-size: 60px; font-family: BACS"">YuaNdGUOA</p>","","","","","","","","",""
"html-keyboard-response","301","452050","0.0-14.0-0.50","5e87b28549538b0fdf96b318","650c16f0f2faf8d7a0d14c09","651c1c730bd3beb12c8cec76","null","null","<p style=""font-size: 60px; font-family: BACS"">QcQAJOcN</p>","","","","","","","","",""
"html-keyboard-response","302","453063","0.0-14.0-0.51","5e87b28549538b0fdf96b318","650c16f0f2faf8d7a0d14c09","651c1c730bd3beb12c8cec76","null","null","<p style=""font-size: 60px; font-family: BACS"">kdaAJLUOk</p>","","","","","","","","",""
"html-keyboard-response","303","454074","0.0-14.0-0.52","5e87b28549538b0fdf96b318","650c16f0f2faf8d7a0d14c09","651c1c730bd3beb12c8cec76","null","null","<p style=""font-size: 60px; font-family: BACS"">blMkAdYl</p>","","","","","","","","",""
"html-keyboard-response","304","455077","0.0-14.0-0.53","5e87b28549538b0fdf96b318","650c16f0f2faf8d7a0d14c09","651c1c730bd3beb12c8cec76","null","null","<p style=""font-size: 60px; font-family: BACS"">KdARmAM</p>","","","","","","","","",""
"html-keyboard-response","305","456080","0.0-14.0-0.54","5e87b28549538b0fdf96b318","650c16f0f2faf8d7a0d14c09","651c1c730bd3beb12c8cec76","null","null","<p style=""font-size: 60px; font-family: BACS"">GQrckuvb</p>","","","","","","","","",""
"html-keyboard-response","306","457084","0.0-14.0-0.55","5e87b28549538b0fdf96b318","650c16f0f2faf8d7a0d14c09","651c1c730bd3beb12c8cec76","null","null","<p style=""font-size: 60px; font-family: BACS"">dMYBPOYK</p>","","","","","","","","",""
"html-keyboard-response","307","458086","0.0-14.0-0.56","5e87b28549538b0fdf96b318","650c16f0f2faf8d7a0d14c09","651c1c730bd3beb12c8cec76","null","null","<p style=""font-size: 60px; font-family: BACS"">YJLcAvAvb</p>","","","","","","","","",""
"html-keyboard-response","308","459094","0.0-14.0-0.57","5e87b28549538b0fdf96b318","650c16f0f2faf8d7a0d14c09","651c1c730bd3beb12c8cec76","null","null","<p style=""font-size: 60px; font-family: BACS"">OYuvbOcN</p>","","","","","","","","",""
"html-keyboard-response","309","460103","0.0-14.0-0.58","5e87b28549538b0fdf96b318","650c16f0f2faf8d7a0d14c09","651c1c730bd3beb12c8cec76","null","null","<p style=""font-size: 60px; font-family: BACS"">ORbkmAM</p>","","","","","","","","",""
"html-keyboard-response","310","461116","0.0-14.0-0.59","5e87b28549538b0fdf96b318","650c16f0f2faf8d7a0d14c09","651c1c730bd3beb12c8cec76","null","null","<p style=""font-size: 60px; font-family: BACS"">kdaAJkuvb</p>","","","","","","","","",""
"html-keyboard-response","311","462132","0.0-14.0-0.60","5e87b28549538b0fdf96b318","650c16f0f2faf8d7a0d14c09","651c1c730bd3beb12c8cec76","null","null","<p style=""font-size: 60px; font-family: BACS"">KdAROYK</p>","","","","","","","","",""
"html-keyboard-response","312","463138","0.0-14.0-0.61","5e87b28549538b0fdf96b318","650c16f0f2faf8d7a0d14c09","651c1c730bd3beb12c8cec76","null","null","<p style=""font-size: 60px; font-family: BACS"">BPAlAdYl</p>","","","","","","","","",""
"html-keyboard-response","313","464155","0.0-14.0-0.62","5e87b28549538b0fdf96b318","650c16f0f2faf8d7a0d14c09","651c1c730bd3beb12c8cec76","null","null","<p style=""font-size: 60px; font-family: BACS"">NbmQUkuvb</p>","","","","","","","","",""
"html-keyboard-response","314","465163","0.0-14.0-0.63","5e87b28549538b0fdf96b318","650c16f0f2faf8d7a0d14c09","651c1c730bd3beb12c8cec76","null","null","<p style=""font-size: 60px; font-family: BACS"">QcQAJLUOk</p>","","","","","","","","",""
"html-keyboard-response","315","466164","0.0-14.0-0.64","5e87b28549538b0fdf96b318","650c16f0f2faf8d7a0d14c09","651c1c730bd3beb12c8cec76","null","null","<p style=""font-size: 60px; font-family: BACS"">OMlTAdYl</p>","","","","","","","","",""
"html-keyboard-response","316","467178","0.0-14.0-0.65","5e87b28549538b0fdf96b318","650c16f0f2faf8d7a0d14c09","651c1c730bd3beb12c8cec76","null","null","<p style=""font-size: 60px; font-family: BACS"">OYuvbGUOA</p>","","","","","","","","",""
"html-keyboard-response","317","468191","0.0-14.0-0.66","5e87b28549538b0fdf96b318","650c16f0f2faf8d7a0d14c09","651c1c730bd3beb12c8cec76","null","null","<p style=""font-size: 60px; font-family: BACS"">BPAldmRb</p>","","","","","","","","",""
"html-keyboard-response","318","469206","0.0-14.0-0.67","5e87b28549538b0fdf96b318","650c16f0f2faf8d7a0d14c09","651c1c730bd3beb12c8cec76","null","null","<p style=""font-size: 60px; font-family: BACS"">bdUNuOcN</p>","","","","","","","","",""
"html-keyboard-response","319","470213","0.0-14.0-0.68","5e87b28549538b0fdf96b318","650c16f0f2faf8d7a0d14c09","651c1c730bd3beb12c8cec76","null","null","<p style=""font-size: 60px; font-family: BACS"">NbmQUvAvb</p>","","","","","","","","",""
"html-keyboard-response","320","471226","0.0-14.0-0.69","5e87b28549538b0fdf96b318","650c16f0f2faf8d7a0d14c09","651c1c730bd3beb12c8cec76","null","null","<p style=""font-size: 60px; font-family: BACS"">NaJbLUOk</p>","","","","","","","","",""
"html-keyboard-response","321","472239","0.0-14.0-0.70","5e87b28549538b0fdf96b318","650c16f0f2faf8d7a0d14c09","651c1c730bd3beb12c8cec76","null","null","<p style=""font-size: 60px; font-family: BACS"">OMlTdmRb</p>","","","","","","","","",""
"html-keyboard-response","322","473240","0.0-14.0-0.71","5e87b28549538b0fdf96b318","650c16f0f2faf8d7a0d14c09","651c1c730bd3beb12c8cec76","null","null","<p style=""font-size: 60px; font-family: BACS"">bdUNuvAvb</p>","","","","","","","","",""
"html-keyboard-response","323","474254","0.0-14.0-0.72","5e87b28549538b0fdf96b318","650c16f0f2faf8d7a0d14c09","651c1c730bd3beb12c8cec76","null","null","<p style=""font-size: 60px; font-family: BACS"">dMYBPYDTk</p>","","","","","","","","",""
"html-keyboard-response","324","475269","0.0-14.0-0.73","5e87b28549538b0fdf96b318","650c16f0f2faf8d7a0d14c09","651c1c730bd3beb12c8cec76","null","null","<p style=""font-size: 60px; font-family: BACS"">GQrcvAvb</p>","","","","","","","","",""
"html-keyboard-response","325","476285","0.0-14.0-0.74","5e87b28549538b0fdf96b318","650c16f0f2faf8d7a0d14c09","651c1c730bd3beb12c8cec76","null","null","<p style=""font-size: 60px; font-family: BACS"">BPAlYDTk</p>","","","","","","","","",""
"html-keyboard-response","326","477288","0.0-14.0-0.75","5e87b28549538b0fdf96b318","650c16f0f2faf8d7a0d14c09","651c1c730bd3beb12c8cec76","null","null","<p style=""font-size: 60px; font-family: BACS"">ORbkAdYl</p>","","","","","","","","",""
"html-keyboard-response","327","478301","0.0-14.0-0.76","5e87b28549538b0fdf96b318","650c16f0f2faf8d7a0d14c09","651c1c730bd3beb12c8cec76","null","null","<p style=""font-size: 60px; font-family: BACS"">YJLcAOcN</p>","","","","","","","","",""
"html-keyboard-response","328","479318","0.0-14.0-0.77","5e87b28549538b0fdf96b318","650c16f0f2faf8d7a0d14c09","651c1c730bd3beb12c8cec76","null","null","<p style=""font-size: 60px; font-family: BACS"">RCcEmAM</p>","","","","","","","","",""
"html-keyboard-response","329","480321","0.0-14.0-0.78","5e87b28549538b0fdf96b318","650c16f0f2faf8d7a0d14c09","651c1c730bd3beb12c8cec76","null","null","<p style=""font-size: 60px; font-family: BACS"">ORbkdmRb</p>","","","","","","","","",""
"html-keyboard-response","330","481337","0.0-14.0-0.79","5e87b28549538b0fdf96b318","650c16f0f2faf8d7a0d14c09","651c1c730bd3beb12c8cec76","null","null","<p style=""font-size: 60px; font-family: BACS"">dMYBPAdYl</p>","","","","","","","","",""
"html-keyboard-response","331","482876","0.0-15.0","5e87b28549538b0fdf96b318","650c16f0f2faf8d7a0d14c09","651c1c730bd3beb12c8cec76","1537"," ","<p>Great, you've seen the fourth block of words. You may now take a short break.</p>
      <p>Press the spacebar when you're ready to continue.</p>","","","","","","","","",""
"html-keyboard-response","332","483884","0.0-16.0-0.0","5e87b28549538b0fdf96b318","650c16f0f2faf8d7a0d14c09","651c1c730bd3beb12c8cec76","null","null","<p style=""font-size: 60px; font-family: BACS"">kcdOtmAM</p>","","","","","","","","",""
"html-keyboard-response","333","484899","0.0-16.0-0.1","5e87b28549538b0fdf96b318","650c16f0f2faf8d7a0d14c09","651c1c730bd3beb12c8cec76","null","null","<p style=""font-size: 60px; font-family: BACS"">kcdOtmAM</p>","","","","","","","","",""
"html-keyboard-response","334","485912","0.0-16.0-0.2","5e87b28549538b0fdf96b318","650c16f0f2faf8d7a0d14c09","651c1c730bd3beb12c8cec76","null","null","<p style=""font-size: 60px; font-family: BACS"">kcdOtmAM</p>","","","","","","","","",""
"html-keyboard-response","335","486924","0.0-16.0-0.3","5e87b28549538b0fdf96b318","650c16f0f2faf8d7a0d14c09","651c1c730bd3beb12c8cec76","null","null","<p style=""font-size: 60px; font-family: BACS"">kcdOtmAM</p>","","","","","","","","",""
"html-keyboard-response","336","487926","0.0-16.0-0.4","5e87b28549538b0fdf96b318","650c16f0f2faf8d7a0d14c09","651c1c730bd3beb12c8cec76","null","null","<p style=""font-size: 60px; font-family: BACS"">kcdOtmAM</p>","","","","","","","","",""
"html-keyboard-response","337","488939","0.0-16.0-0.5","5e87b28549538b0fdf96b318","650c16f0f2faf8d7a0d14c09","651c1c730bd3beb12c8cec76","null","null","<p style=""font-size: 60px; font-family: BACS"">kcdOtmAM</p>","","","","","","","","",""
"html-keyboard-response","338","489944","0.0-16.0-0.6","5e87b28549538b0fdf96b318","650c16f0f2faf8d7a0d14c09","651c1c730bd3beb12c8cec76","null","null","<p style=""font-size: 60px; font-family: BACS"">kcdOtmAM</p>","","","","","","","","",""
"html-keyboard-response","339","490955","0.0-16.0-0.7","5e87b28549538b0fdf96b318","650c16f0f2faf8d7a0d14c09","651c1c730bd3beb12c8cec76","null","null","<p style=""font-size: 60px; font-family: BACS"">kcdOtmAM</p>","","","","","","","","",""
"html-keyboard-response","340","491956","0.0-16.0-0.8","5e87b28549538b0fdf96b318","650c16f0f2faf8d7a0d14c09","651c1c730bd3beb12c8cec76","null","null","<p style=""font-size: 60px; font-family: BACS"">kcdOtmAM</p>","","","","","","","","",""
"html-keyboard-response","341","492973","0.0-16.0-0.9","5e87b28549538b0fdf96b318","650c16f0f2faf8d7a0d14c09","651c1c730bd3beb12c8cec76","null","null","<p style=""font-size: 60px; font-family: BACS"">kcdOtmAM</p>","","","","","","","","",""
"html-keyboard-response","342","493975","0.0-16.0-0.10","5e87b28549538b0fdf96b318","650c16f0f2faf8d7a0d14c09","651c1c730bd3beb12c8cec76","null","null","<p style=""font-size: 60px; font-family: BACS"">kcdOtmAM</p>","","","","","","","","",""
"html-keyboard-response","343","494986","0.0-16.0-0.11","5e87b28549538b0fdf96b318","650c16f0f2faf8d7a0d14c09","651c1c730bd3beb12c8cec76","null","null","<p style=""font-size: 60px; font-family: BACS"">kcdOtmAM</p>","","","","","","","","",""
"html-keyboard-response","344","495991","0.0-16.0-0.12","5e87b28549538b0fdf96b318","650c16f0f2faf8d7a0d14c09","651c1c730bd3beb12c8cec76","null","null","<p style=""font-size: 60px; font-family: BACS"">kcdOtmAM</p>","","","","","","","","",""
"html-keyboard-response","345","497000","0.0-16.0-0.13","5e87b28549538b0fdf96b318","650c16f0f2faf8d7a0d14c09","651c1c730bd3beb12c8cec76","null","null","<p style=""font-size: 60px; font-family: BACS"">kcdOtmAM</p>","","","","","","","","",""
"html-keyboard-response","346","498015","0.0-16.0-0.14","5e87b28549538b0fdf96b318","650c16f0f2faf8d7a0d14c09","651c1c730bd3beb12c8cec76","null","null","<p style=""font-size: 60px; font-family: BACS"">kcdOtmAM</p>","","","","","","","","",""
"html-keyboard-response","347","499031","0.0-16.0-0.15","5e87b28549538b0fdf96b318","650c16f0f2faf8d7a0d14c09","651c1c730bd3beb12c8cec76","null","null","<p style=""font-size: 60px; font-family: BACS"">kcdOtmAM</p>","","","","","","","","",""
"html-keyboard-response","348","500045","0.0-16.0-0.16","5e87b28549538b0fdf96b318","650c16f0f2faf8d7a0d14c09","651c1c730bd3beb12c8cec76","null","null","<p style=""font-size: 60px; font-family: BACS"">kcdOtmAM</p>","","","","","","","","",""
"html-keyboard-response","349","501054","0.0-16.0-0.17","5e87b28549538b0fdf96b318","650c16f0f2faf8d7a0d14c09","651c1c730bd3beb12c8cec76","null","null","<p style=""font-size: 60px; font-family: BACS"">kcdOtmAM</p>","","","","","","","","",""
"html-keyboard-response","350","502071","0.0-16.0-0.18","5e87b28549538b0fdf96b318","650c16f0f2faf8d7a0d14c09","651c1c730bd3beb12c8cec76","null","null","<p style=""font-size: 60px; font-family: BACS"">kcdOtmAM</p>","","","","","","","","",""
"html-keyboard-response","351","503084","0.0-16.0-0.19","5e87b28549538b0fdf96b318","650c16f0f2faf8d7a0d14c09","651c1c730bd3beb12c8cec76","null","null","<p style=""font-size: 60px; font-family: BACS"">kcdOtmAM</p>","","","","","","","","",""
"html-keyboard-response","352","504094","0.0-16.0-0.20","5e87b28549538b0fdf96b318","650c16f0f2faf8d7a0d14c09","651c1c730bd3beb12c8cec76","null","null","<p style=""font-size: 60px; font-family: BACS"">kcdOtmAM</p>","","","","","","","","",""
"html-keyboard-response","353","505108","0.0-16.0-0.21","5e87b28549538b0fdf96b318","650c16f0f2faf8d7a0d14c09","651c1c730bd3beb12c8cec76","null","null","<p style=""font-size: 60px; font-family: BACS"">kcdOtmAM</p>","","","","","","","","",""
"html-keyboard-response","354","506117","0.0-16.0-0.22","5e87b28549538b0fdf96b318","650c16f0f2faf8d7a0d14c09","651c1c730bd3beb12c8cec76","null","null","<p style=""font-size: 60px; font-family: BACS"">kcdOtmAM</p>","","","","","","","","",""
"html-keyboard-response","355","507127","0.0-16.0-0.23","5e87b28549538b0fdf96b318","650c16f0f2faf8d7a0d14c09","651c1c730bd3beb12c8cec76","null","null","<p style=""font-size: 60px; font-family: BACS"">kcdOtmAM</p>","","","","","","","","",""
"html-keyboard-response","356","508128","0.0-16.0-0.24","5e87b28549538b0fdf96b318","650c16f0f2faf8d7a0d14c09","651c1c730bd3beb12c8cec76","null","null","<p style=""font-size: 60px; font-family: BACS"">kcdOtmAM</p>","","","","","","","","",""
"html-keyboard-response","357","509130","0.0-16.0-0.25","5e87b28549538b0fdf96b318","650c16f0f2faf8d7a0d14c09","651c1c730bd3beb12c8cec76","null","null","<p style=""font-size: 60px; font-family: BACS"">kcdOtmAM</p>","","","","","","","","",""
"html-keyboard-response","358","510135","0.0-16.0-0.26","5e87b28549538b0fdf96b318","650c16f0f2faf8d7a0d14c09","651c1c730bd3beb12c8cec76","null","null","<p style=""font-size: 60px; font-family: BACS"">kcdOtmAM</p>","","","","","","","","",""
"html-keyboard-response","359","511145","0.0-16.0-0.27","5e87b28549538b0fdf96b318","650c16f0f2faf8d7a0d14c09","651c1c730bd3beb12c8cec76","null","null","<p style=""font-size: 60px; font-family: BACS"">kcdOtmAM</p>","","","","","","","","",""
"html-keyboard-response","360","512152","0.0-16.0-0.28","5e87b28549538b0fdf96b318","650c16f0f2faf8d7a0d14c09","651c1c730bd3beb12c8cec76","null","null","<p style=""font-size: 60px; font-family: BACS"">kcdOtmAM</p>","","","","","","","","",""
"html-keyboard-response","361","513169","0.0-16.0-0.29","5e87b28549538b0fdf96b318","650c16f0f2faf8d7a0d14c09","651c1c730bd3beb12c8cec76","null","null","<p style=""font-size: 60px; font-family: BACS"">kcdOtmAM</p>","","","","","","","","",""
"html-keyboard-response","362","514173","0.0-16.0-0.30","5e87b28549538b0fdf96b318","650c16f0f2faf8d7a0d14c09","651c1c730bd3beb12c8cec76","null","null","<p style=""font-size: 60px; font-family: BACS"">kcdOtmAM</p>","","","","","","","","",""
"html-keyboard-response","363","515183","0.0-16.0-0.31","5e87b28549538b0fdf96b318","650c16f0f2faf8d7a0d14c09","651c1c730bd3beb12c8cec76","null","null","<p style=""font-size: 60px; font-family: BACS"">kcdOtmAM</p>","","","","","","","","",""
"html-keyboard-response","364","516198","0.0-16.0-0.32","5e87b28549538b0fdf96b318","650c16f0f2faf8d7a0d14c09","651c1c730bd3beb12c8cec76","null","null","<p style=""font-size: 60px; font-family: BACS"">kcdOtmAM</p>","","","","","","","","",""
"html-keyboard-response","365","517199","0.0-16.0-0.33","5e87b28549538b0fdf96b318","650c16f0f2faf8d7a0d14c09","651c1c730bd3beb12c8cec76","null","null","<p style=""font-size: 60px; font-family: BACS"">kcdOtmAM</p>","","","","","","","","",""
"html-keyboard-response","366","518201","0.0-16.0-0.34","5e87b28549538b0fdf96b318","650c16f0f2faf8d7a0d14c09","651c1c730bd3beb12c8cec76","null","null","<p style=""font-size: 60px; font-family: BACS"">kcdOtmAM</p>","","","","","","","","",""
"html-keyboard-response","367","519212","0.0-16.0-0.35","5e87b28549538b0fdf96b318","650c16f0f2faf8d7a0d14c09","651c1c730bd3beb12c8cec76","null","null","<p style=""font-size: 60px; font-family: BACS"">kcdOtmAM</p>","","","","","","","","",""
"html-keyboard-response","368","520220","0.0-16.0-0.36","5e87b28549538b0fdf96b318","650c16f0f2faf8d7a0d14c09","651c1c730bd3beb12c8cec76","null","null","<p style=""font-size: 60px; font-family: BACS"">kcdOtmAM</p>","","","","","","","","",""
"html-keyboard-response","369","521226","0.0-16.0-0.37","5e87b28549538b0fdf96b318","650c16f0f2faf8d7a0d14c09","651c1c730bd3beb12c8cec76","null","null","<p style=""font-size: 60px; font-family: BACS"">kcdOtmAM</p>","","","","","","","","",""
"html-keyboard-response","370","522239","0.0-16.0-0.38","5e87b28549538b0fdf96b318","650c16f0f2faf8d7a0d14c09","651c1c730bd3beb12c8cec76","null","null","<p style=""font-size: 60px; font-family: BACS"">kcdOtmAM</p>","","","","","","","","",""
"html-keyboard-response","371","523247","0.0-16.0-0.39","5e87b28549538b0fdf96b318","650c16f0f2faf8d7a0d14c09","651c1c730bd3beb12c8cec76","null","null","<p style=""font-size: 60px; font-family: BACS"">kcdOtmAM</p>","","","","","","","","",""
"html-keyboard-response","372","524262","0.0-16.0-0.40","5e87b28549538b0fdf96b318","650c16f0f2faf8d7a0d14c09","651c1c730bd3beb12c8cec76","null","null","<p style=""font-size: 60px; font-family: BACS"">kcdOtmAM</p>","","","","","","","","",""
"html-keyboard-response","373","525278","0.0-16.0-0.41","5e87b28549538b0fdf96b318","650c16f0f2faf8d7a0d14c09","651c1c730bd3beb12c8cec76","null","null","<p style=""font-size: 60px; font-family: BACS"">kcdOtmAM</p>","","","","","","","","",""
"html-keyboard-response","374","526290","0.0-16.0-0.42","5e87b28549538b0fdf96b318","650c16f0f2faf8d7a0d14c09","651c1c730bd3beb12c8cec76","null","null","<p style=""font-size: 60px; font-family: BACS"">kcdOtmAM</p>","","","","","","","","",""
"html-keyboard-response","375","527304","0.0-16.0-0.43","5e87b28549538b0fdf96b318","650c16f0f2faf8d7a0d14c09","651c1c730bd3beb12c8cec76","null","null","<p style=""font-size: 60px; font-family: BACS"">kcdOtmAM</p>","","","","","","","","",""
"html-keyboard-response","376","528306","0.0-16.0-0.44","5e87b28549538b0fdf96b318","650c16f0f2faf8d7a0d14c09","651c1c730bd3beb12c8cec76","null","null","<p style=""font-size: 60px; font-family: BACS"">kcdOtmAM</p>","","","","","","","","",""
"html-keyboard-response","377","529307","0.0-16.0-0.45","5e87b28549538b0fdf96b318","650c16f0f2faf8d7a0d14c09","651c1c730bd3beb12c8cec76","null","null","<p style=""font-size: 60px; font-family: BACS"">kcdOtmAM</p>","","","","","","","","",""
"html-keyboard-response","378","530321","0.0-16.0-0.46","5e87b28549538b0fdf96b318","650c16f0f2faf8d7a0d14c09","651c1c730bd3beb12c8cec76","null","null","<p style=""font-size: 60px; font-family: BACS"">kcdOtmAM</p>","","","","","","","","",""
"html-keyboard-response","379","531334","0.0-16.0-0.47","5e87b28549538b0fdf96b318","650c16f0f2faf8d7a0d14c09","651c1c730bd3beb12c8cec76","null","null","<p style=""font-size: 60px; font-family: BACS"">kcdOtmAM</p>","","","","","","","","",""
"html-keyboard-response","380","532341","0.0-16.0-0.48","5e87b28549538b0fdf96b318","650c16f0f2faf8d7a0d14c09","651c1c730bd3beb12c8cec76","null","null","<p style=""font-size: 60px; font-family: BACS"">kcdOtmAM</p>","","","","","","","","",""
"html-keyboard-response","381","533349","0.0-16.0-0.49","5e87b28549538b0fdf96b318","650c16f0f2faf8d7a0d14c09","651c1c730bd3beb12c8cec76","null","null","<p style=""font-size: 60px; font-family: BACS"">kcdOtmAM</p>","","","","","","","","",""
"html-keyboard-response","382","534366","0.0-16.0-0.50","5e87b28549538b0fdf96b318","650c16f0f2faf8d7a0d14c09","651c1c730bd3beb12c8cec76","null","null","<p style=""font-size: 60px; font-family: BACS"">kcdOtmAM</p>","","","","","","","","",""
"html-keyboard-response","383","535379","0.0-16.0-0.51","5e87b28549538b0fdf96b318","650c16f0f2faf8d7a0d14c09","651c1c730bd3beb12c8cec76","null","null","<p style=""font-size: 60px; font-family: BACS"">kcdOtmAM</p>","","","","","","","","",""
"html-keyboard-response","384","536386","0.0-16.0-0.52","5e87b28549538b0fdf96b318","650c16f0f2faf8d7a0d14c09","651c1c730bd3beb12c8cec76","null","null","<p style=""font-size: 60px; font-family: BACS"">kcdOtmAM</p>","","","","","","","","",""
"html-keyboard-response","385","537388","0.0-16.0-0.53","5e87b28549538b0fdf96b318","650c16f0f2faf8d7a0d14c09","651c1c730bd3beb12c8cec76","null","null","<p style=""font-size: 60px; font-family: BACS"">kcdOtmAM</p>","","","","","","","","",""
"html-keyboard-response","386","538399","0.0-16.0-0.54","5e87b28549538b0fdf96b318","650c16f0f2faf8d7a0d14c09","651c1c730bd3beb12c8cec76","null","null","<p style=""font-size: 60px; font-family: BACS"">kcdOtmAM</p>","","","","","","","","",""
"html-keyboard-response","387","539409","0.0-16.0-0.55","5e87b28549538b0fdf96b318","650c16f0f2faf8d7a0d14c09","651c1c730bd3beb12c8cec76","null","null","<p style=""font-size: 60px; font-family: BACS"">kcdOtmAM</p>","","","","","","","","",""
"html-keyboard-response","388","540423","0.0-16.0-0.56","5e87b28549538b0fdf96b318","650c16f0f2faf8d7a0d14c09","651c1c730bd3beb12c8cec76","null","null","<p style=""font-size: 60px; font-family: BACS"">kcdOtmAM</p>","","","","","","","","",""
"html-keyboard-response","389","541430","0.0-16.0-0.57","5e87b28549538b0fdf96b318","650c16f0f2faf8d7a0d14c09","651c1c730bd3beb12c8cec76","null","null","<p style=""font-size: 60px; font-family: BACS"">kcdOtmAM</p>","","","","","","","","",""
"html-keyboard-response","390","542432","0.0-16.0-0.58","5e87b28549538b0fdf96b318","650c16f0f2faf8d7a0d14c09","651c1c730bd3beb12c8cec76","null","null","<p style=""font-size: 60px; font-family: BACS"">kcdOtmAM</p>","","","","","","","","",""
"html-keyboard-response","391","543441","0.0-16.0-0.59","5e87b28549538b0fdf96b318","650c16f0f2faf8d7a0d14c09","651c1c730bd3beb12c8cec76","null","null","<p style=""font-size: 60px; font-family: BACS"">kcdOtmAM</p>","","","","","","","","",""
"html-keyboard-response","392","544446","0.0-16.0-0.60","5e87b28549538b0fdf96b318","650c16f0f2faf8d7a0d14c09","651c1c730bd3beb12c8cec76","null","null","<p style=""font-size: 60px; font-family: BACS"">kcdOtmAM</p>","","","","","","","","",""
"html-keyboard-response","393","545456","0.0-16.0-0.61","5e87b28549538b0fdf96b318","650c16f0f2faf8d7a0d14c09","651c1c730bd3beb12c8cec76","null","null","<p style=""font-size: 60px; font-family: BACS"">kcdOtmAM</p>","","","","","","","","",""
"html-keyboard-response","394","546460","0.0-16.0-0.62","5e87b28549538b0fdf96b318","650c16f0f2faf8d7a0d14c09","651c1c730bd3beb12c8cec76","null","null","<p style=""font-size: 60px; font-family: BACS"">kcdOtmAM</p>","","","","","","","","",""
"html-keyboard-response","395","547470","0.0-16.0-0.63","5e87b28549538b0fdf96b318","650c16f0f2faf8d7a0d14c09","651c1c730bd3beb12c8cec76","null","null","<p style=""font-size: 60px; font-family: BACS"">kcdOtmAM</p>","","","","","","","","",""
"html-keyboard-response","396","548475","0.0-16.0-0.64","5e87b28549538b0fdf96b318","650c16f0f2faf8d7a0d14c09","651c1c730bd3beb12c8cec76","null","null","<p style=""font-size: 60px; font-family: BACS"">kcdOtmAM</p>","","","","","","","","",""
"html-keyboard-response","397","549481","0.0-16.0-0.65","5e87b28549538b0fdf96b318","650c16f0f2faf8d7a0d14c09","651c1c730bd3beb12c8cec76","null","null","<p style=""font-size: 60px; font-family: BACS"">kcdOtmAM</p>","","","","","","","","",""
