"trial_type","trial_index","time_elapsed","internal_node_id","subject_id","study_id","session_id","rt","response","stimulus","success","item","task","correct_response","testing_condition","correct","target","confound","name","view_history"
"pavlovia","0","750","0.0-0.0","616eb493bb7e4ab4fa1de8d4","650c16f0f2faf8d7a0d14c09","651c1dd7a70859f21f006961","","","","","","","","","","","","",""
"survey-html-form","1","11993","0.0-1.0","616eb493bb7e4ab4fa1de8d4","650c16f0f2faf8d7a0d14c09","651c1dd7a70859f21f006961","11241","{""ID"":""616eb493bb7e4ab4fa1de8d4""}","","","","","","","","","","",""
"html-keyboard-response","2","21731","0.0-2.0","616eb493bb7e4ab4fa1de8d4","650c16f0f2faf8d7a0d14c09","651c1dd7a70859f21f006961","9736"," ","<p style=""font-size: 15px;"">Before beginning, we ask that you read the consent information and confirm your agreement to participate in the experiment.</p>
      <p style=""font-size: 15px;""> We ask that you remember that this is a research project and that your participation is entirely voluntary. You can stop your participation at any time, without needing to provide any explanation. The study we're asking you to participate in aims at examining how readers process written words. You will be engaged in a session of apprximately 20 minutes, followed by a brief questionnaire. You will have the opportunity to take a few breaks during the experiment. You will be paid £4 for your participation, corresponding to a rate of £8/hour. While this experiment looks at cognitive faculties, this experiment doesn't constitute clinical proof of eventual pathologies.</p>
      <p style=""font-size: 15px;"">All of the information collected thanks to yours and others' participation will be held in a secure password-protected server, and will not be shared with anyone not authorised to view it. Your personal information will be kept with an arbitrary participant ID. Thanks to this data anonymity process, any researcher analysing the data won't be able to track the information back to a specific participant. Therefore, this process will make identifying you impossibile, even when results from the study will be published in scientific reviews, presented at congresses, or at any other public forum. More generally, the collected data will be treated in accordance with the laws on privacy and conformity to the Legislative Degree n. 196 ""Code regarding the protection of personal data"" of the 30th of June 2003 and to the European Regulation 2016/670 (General Data Protection Regulation - GDPR). The Data Protection Officer is Avv. Valentina Carollo, who can be contacted at the following email addresses: <a href=""mailto:dpo@sissa.it"">dpo@sissa.it</a> or <a href=""mailto:rpd@sissa.it"">rpd@sissa.it</a> - PEC: <a href=""mailto:protocollo@pec.sissa.it"">protocollo@pec.sissa.it</a>.</p>
      <p style=""font-size: 15px;""> Before expressing your consent to participate, we would like to remind you again that in case you need explanations on any aspect of the experimental procedure, the researcher is at your disposition (<a href=""mailto:aliebelt@sissa.it"">aliebelt@sissa.it</a>, <a href=""mailto:davide.crepaldi@sissa.it"">davide.crepaldi@sissa.it</a>).</p>
      <p style=""font-size: 15px;"">If you would like to download the informed consent form, you can do so here: <a href=""BASL-Informed_Consent.pdf"" download>informed consent form</a>.</p>
      <p style=""font-size: 15px;"">We ask that you press the spacebar to proceed to the consent section.</p>","","","","","","","","","",""
"survey-html-form","3","56377","0.0-3.0","616eb493bb7e4ab4fa1de8d4","650c16f0f2faf8d7a0d14c09","651c1dd7a70859f21f006961","34645","{""consent1"":""YES"",""consent2"":""YES"",""consent3"":""YES"",""consent4"":""YES"",""consent5"":""YES"",""consent6"":""YES""}","","","","","","","","","","",""
"fullscreen","4","62286","0.0-4.0","616eb493bb7e4ab4fa1de8d4","650c16f0f2faf8d7a0d14c09","651c1dd7a70859f21f006961","","","","true","","","","","","","","",""
"html-keyboard-response","5","74871","0.0-5.0","616eb493bb7e4ab4fa1de8d4","650c16f0f2faf8d7a0d14c09","651c1dd7a70859f21f006961","12583"," ","<p>Welcome, and thank you very much for your time!</p>
      <p>In this experiment, you'll be a language expert who's been asked to take a look at words that Earth has received in its first communication with aliens. Your task, in this first part of the experiment, is to pay close attention to the words you'll be shown; later, world leaders will ask you questions on what you saw. The words will be shown to you quite quickly; it seems that the aliens were in a hurry :-)</p>
      <p>Press the spacebar to continue.<p>","","","","","","","","","",""
"html-keyboard-response","6","74937","0.0-6.0","616eb493bb7e4ab4fa1de8d4","650c16f0f2faf8d7a0d14c09","651c1dd7a70859f21f006961","null","null","<p style=""font-size: 120px; font-family: BACS""> </p>","","","","","","","","","",""
"html-keyboard-response","7","81956","0.0-7.0","616eb493bb7e4ab4fa1de8d4","650c16f0f2faf8d7a0d14c09","651c1dd7a70859f21f006961","7018"," ","<p>Here is an example of the words you'll see:</p>
      <img src='esempio.png' height='400px'>
      <p>When you're ready to begin, press the spacebar.</p></div>","","","","","","","","","",""
"html-keyboard-response","8","82976","0.0-8.0-0.0","616eb493bb7e4ab4fa1de8d4","650c16f0f2faf8d7a0d14c09","651c1dd7a70859f21f006961","null","null","<p style=""font-size: 60px; font-family: BACS"">MBKREcMRl</p>","","","","","","","","","",""
"html-keyboard-response","9","83978","0.0-8.0-0.1","616eb493bb7e4ab4fa1de8d4","650c16f0f2faf8d7a0d14c09","651c1dd7a70859f21f006961","null","null","<p style=""font-size: 60px; font-family: BACS"">NJZldmkv</p>","","","","","","","","","",""
"html-keyboard-response","10","84992","0.0-8.0-0.2","616eb493bb7e4ab4fa1de8d4","650c16f0f2faf8d7a0d14c09","651c1dd7a70859f21f006961","null","null","<p style=""font-size: 60px; font-family: BACS"">dMYBPcMRl</p>","","","","","","","","","",""
"html-keyboard-response","11","86008","0.0-8.0-0.3","616eb493bb7e4ab4fa1de8d4","650c16f0f2faf8d7a0d14c09","651c1dd7a70859f21f006961","null","null","<p style=""font-size: 60px; font-family: BACS"">GNAcacrdY</p>","","","","","","","","","",""
"html-keyboard-response","12","87034","0.0-8.0-0.4","616eb493bb7e4ab4fa1de8d4","650c16f0f2faf8d7a0d14c09","651c1dd7a70859f21f006961","null","null","<p style=""font-size: 60px; font-family: BACS"">LdQvAvdk</p>","","","","","","","","","",""
"html-keyboard-response","13","88050","0.0-8.0-0.5","616eb493bb7e4ab4fa1de8d4","650c16f0f2faf8d7a0d14c09","651c1dd7a70859f21f006961","null","null","<p style=""font-size: 60px; font-family: BACS"">hbmAdRA</p>","","","","","","","","","",""
"html-keyboard-response","14","89057","0.0-8.0-0.6","616eb493bb7e4ab4fa1de8d4","650c16f0f2faf8d7a0d14c09","651c1dd7a70859f21f006961","null","null","<p style=""font-size: 60px; font-family: BACS"">muYNcrdY</p>","","","","","","","","","",""
"html-keyboard-response","15","90074","0.0-8.0-0.7","616eb493bb7e4ab4fa1de8d4","650c16f0f2faf8d7a0d14c09","651c1dd7a70859f21f006961","null","null","<p style=""font-size: 60px; font-family: BACS"">lrZGLkNc</p>","","","","","","","","","",""
"html-keyboard-response","16","91075","0.0-8.0-0.8","616eb493bb7e4ab4fa1de8d4","650c16f0f2faf8d7a0d14c09","651c1dd7a70859f21f006961","null","null","<p style=""font-size: 60px; font-family: BACS"">DRPkYdRA</p>","","","","","","","","","",""
"html-keyboard-response","17","92077","0.0-8.0-0.9","616eb493bb7e4ab4fa1de8d4","650c16f0f2faf8d7a0d14c09","651c1dd7a70859f21f006961","null","null","<p style=""font-size: 60px; font-family: BACS"">aNYmbcYUv</p>","","","","","","","","","",""
"html-keyboard-response","18","93091","0.0-8.0-0.10","616eb493bb7e4ab4fa1de8d4","650c16f0f2faf8d7a0d14c09","651c1dd7a70859f21f006961","null","null","<p style=""font-size: 60px; font-family: BACS"">NJZlcrdY</p>","","","","","","","","","",""
"html-keyboard-response","19","94106","0.0-8.0-0.11","616eb493bb7e4ab4fa1de8d4","650c16f0f2faf8d7a0d14c09","651c1dd7a70859f21f006961","null","null","<p style=""font-size: 60px; font-family: BACS"">ctktCPMl</p>","","","","","","","","","",""
"html-keyboard-response","20","95123","0.0-8.0-0.12","616eb493bb7e4ab4fa1de8d4","650c16f0f2faf8d7a0d14c09","651c1dd7a70859f21f006961","null","null","<p style=""font-size: 60px; font-family: BACS"">MBKRETPOM</p>","","","","","","","","","",""
"html-keyboard-response","21","96124","0.0-8.0-0.13","616eb493bb7e4ab4fa1de8d4","650c16f0f2faf8d7a0d14c09","651c1dd7a70859f21f006961","null","null","<p style=""font-size: 60px; font-family: BACS"">dMYBPdRA</p>","","","","","","","","","",""
"html-keyboard-response","22","97139","0.0-8.0-0.14","616eb493bb7e4ab4fa1de8d4","650c16f0f2faf8d7a0d14c09","651c1dd7a70859f21f006961","null","null","<p style=""font-size: 60px; font-family: BACS"">GNAcaAvdk</p>","","","","","","","","","",""
"html-keyboard-response","23","98155","0.0-8.0-0.15","616eb493bb7e4ab4fa1de8d4","650c16f0f2faf8d7a0d14c09","651c1dd7a70859f21f006961","null","null","<p style=""font-size: 60px; font-family: BACS"">AlQaQcrdY</p>","","","","","","","","","",""
"html-keyboard-response","24","99171","0.0-8.0-0.16","616eb493bb7e4ab4fa1de8d4","650c16f0f2faf8d7a0d14c09","651c1dd7a70859f21f006961","null","null","<p style=""font-size: 60px; font-family: BACS"">hlbtbTPOM</p>","","","","","","","","","",""
"html-keyboard-response","25","100188","0.0-8.0-0.17","616eb493bb7e4ab4fa1de8d4","650c16f0f2faf8d7a0d14c09","651c1dd7a70859f21f006961","null","null","<p style=""font-size: 60px; font-family: BACS"">mBYlCPMl</p>","","","","","","","","","",""
"html-keyboard-response","26","101204","0.0-8.0-0.18","616eb493bb7e4ab4fa1de8d4","650c16f0f2faf8d7a0d14c09","651c1dd7a70859f21f006961","null","null","<p style=""font-size: 60px; font-family: BACS"">vclYLkNc</p>","","","","","","","","","",""
"html-keyboard-response","27","102222","0.0-8.0-0.19","616eb493bb7e4ab4fa1de8d4","650c16f0f2faf8d7a0d14c09","651c1dd7a70859f21f006961","null","null","<p style=""font-size: 60px; font-family: BACS"">hbmAcMRl</p>","","","","","","","","","",""
"html-keyboard-response","28","103238","0.0-8.0-0.20","616eb493bb7e4ab4fa1de8d4","650c16f0f2faf8d7a0d14c09","651c1dd7a70859f21f006961","null","null","<p style=""font-size: 60px; font-family: BACS"">ctktdRA</p>","","","","","","","","","",""
"html-keyboard-response","29","104254","0.0-8.0-0.21","616eb493bb7e4ab4fa1de8d4","650c16f0f2faf8d7a0d14c09","651c1dd7a70859f21f006961","null","null","<p style=""font-size: 60px; font-family: BACS"">rbYbucYUv</p>","","","","","","","","","",""
"html-keyboard-response","30","105255","0.0-8.0-0.22","616eb493bb7e4ab4fa1de8d4","650c16f0f2faf8d7a0d14c09","651c1dd7a70859f21f006961","null","null","<p style=""font-size: 60px; font-family: BACS"">vclYdmkv</p>","","","","","","","","","",""
"html-keyboard-response","31","106270","0.0-8.0-0.23","616eb493bb7e4ab4fa1de8d4","650c16f0f2faf8d7a0d14c09","651c1dd7a70859f21f006961","null","null","<p style=""font-size: 60px; font-family: BACS"">DRPkYRDM</p>","","","","","","","","","",""
"html-keyboard-response","32","107287","0.0-8.0-0.24","616eb493bb7e4ab4fa1de8d4","650c16f0f2faf8d7a0d14c09","651c1dd7a70859f21f006961","null","null","<p style=""font-size: 60px; font-family: BACS"">AlQaQLkNc</p>","","","","","","","","","",""
"html-keyboard-response","33","108303","0.0-8.0-0.25","616eb493bb7e4ab4fa1de8d4","650c16f0f2faf8d7a0d14c09","651c1dd7a70859f21f006961","null","null","<p style=""font-size: 60px; font-family: BACS"">rbYbucrdY</p>","","","","","","","","","",""
"html-keyboard-response","34","109308","0.0-8.0-0.26","616eb493bb7e4ab4fa1de8d4","650c16f0f2faf8d7a0d14c09","651c1dd7a70859f21f006961","null","null","<p style=""font-size: 60px; font-family: BACS"">lrZGdmkv</p>","","","","","","","","","",""
"html-keyboard-response","35","110320","0.0-8.0-0.27","616eb493bb7e4ab4fa1de8d4","650c16f0f2faf8d7a0d14c09","651c1dd7a70859f21f006961","null","null","<p style=""font-size: 60px; font-family: BACS"">dMYBPTPOM</p>","","","","","","","","","",""
"html-keyboard-response","36","111335","0.0-8.0-0.28","616eb493bb7e4ab4fa1de8d4","650c16f0f2faf8d7a0d14c09","651c1dd7a70859f21f006961","null","null","<p style=""font-size: 60px; font-family: BACS"">DhCPCPMl</p>","","","","","","","","","",""
"html-keyboard-response","37","112352","0.0-8.0-0.29","616eb493bb7e4ab4fa1de8d4","650c16f0f2faf8d7a0d14c09","651c1dd7a70859f21f006961","null","null","<p style=""font-size: 60px; font-family: BACS"">chEDOcMRl</p>","","","","","","","","","",""
"html-keyboard-response","38","113354","0.0-8.0-0.30","616eb493bb7e4ab4fa1de8d4","650c16f0f2faf8d7a0d14c09","651c1dd7a70859f21f006961","null","null","<p style=""font-size: 60px; font-family: BACS"">hlbtbdRA</p>","","","","","","","","","",""
"html-keyboard-response","39","114368","0.0-8.0-0.31","616eb493bb7e4ab4fa1de8d4","650c16f0f2faf8d7a0d14c09","651c1dd7a70859f21f006961","null","null","<p style=""font-size: 60px; font-family: BACS"">chEDOTPOM</p>","","","","","","","","","",""
"html-keyboard-response","40","115370","0.0-8.0-0.32","616eb493bb7e4ab4fa1de8d4","650c16f0f2faf8d7a0d14c09","651c1dd7a70859f21f006961","null","null","<p style=""font-size: 60px; font-family: BACS"">DhCPRDM</p>","","","","","","","","","",""
"html-keyboard-response","41","116384","0.0-8.0-0.33","616eb493bb7e4ab4fa1de8d4","650c16f0f2faf8d7a0d14c09","651c1dd7a70859f21f006961","null","null","<p style=""font-size: 60px; font-family: BACS"">lrZGcYUv</p>","","","","","","","","","",""
"html-keyboard-response","42","117387","0.0-8.0-0.34","616eb493bb7e4ab4fa1de8d4","650c16f0f2faf8d7a0d14c09","651c1dd7a70859f21f006961","null","null","<p style=""font-size: 60px; font-family: BACS"">hbmATPOM</p>","","","","","","","","","",""
"html-keyboard-response","43","118402","0.0-8.0-0.35","616eb493bb7e4ab4fa1de8d4","650c16f0f2faf8d7a0d14c09","651c1dd7a70859f21f006961","null","null","<p style=""font-size: 60px; font-family: BACS"">LdQvLkNc</p>","","","","","","","","","",""
"html-keyboard-response","44","119417","0.0-8.0-0.36","616eb493bb7e4ab4fa1de8d4","650c16f0f2faf8d7a0d14c09","651c1dd7a70859f21f006961","null","null","<p style=""font-size: 60px; font-family: BACS"">mBYlcMRl</p>","","","","","","","","","",""
"html-keyboard-response","45","120420","0.0-8.0-0.37","616eb493bb7e4ab4fa1de8d4","650c16f0f2faf8d7a0d14c09","651c1dd7a70859f21f006961","null","null","<p style=""font-size: 60px; font-family: BACS"">muYNAvdk</p>","","","","","","","","","",""
"html-keyboard-response","46","121434","0.0-8.0-0.38","616eb493bb7e4ab4fa1de8d4","650c16f0f2faf8d7a0d14c09","651c1dd7a70859f21f006961","null","null","<p style=""font-size: 60px; font-family: BACS"">DRPkYcMRl</p>","","","","","","","","","",""
"html-keyboard-response","47","122435","0.0-8.0-0.39","616eb493bb7e4ab4fa1de8d4","650c16f0f2faf8d7a0d14c09","651c1dd7a70859f21f006961","null","null","<p style=""font-size: 60px; font-family: BACS"">muYNcYUv</p>","","","","","","","","","",""
"html-keyboard-response","48","123451","0.0-8.0-0.40","616eb493bb7e4ab4fa1de8d4","650c16f0f2faf8d7a0d14c09","651c1dd7a70859f21f006961","null","null","<p style=""font-size: 60px; font-family: BACS"">chEDORDM</p>","","","","","","","","","",""
"html-keyboard-response","49","124467","0.0-8.0-0.41","616eb493bb7e4ab4fa1de8d4","650c16f0f2faf8d7a0d14c09","651c1dd7a70859f21f006961","null","null","<p style=""font-size: 60px; font-family: BACS"">NJZlLkNc</p>","","","","","","","","","",""
"html-keyboard-response","50","125468","0.0-8.0-0.42","616eb493bb7e4ab4fa1de8d4","650c16f0f2faf8d7a0d14c09","651c1dd7a70859f21f006961","null","null","<p style=""font-size: 60px; font-family: BACS"">dMYBPRDM</p>","","","","","","","","","",""
"html-keyboard-response","51","126483","0.0-8.0-0.43","616eb493bb7e4ab4fa1de8d4","650c16f0f2faf8d7a0d14c09","651c1dd7a70859f21f006961","null","null","<p style=""font-size: 60px; font-family: BACS"">DRPkYCPMl</p>","","","","","","","","","",""
"html-keyboard-response","52","127490","0.0-8.0-0.44","616eb493bb7e4ab4fa1de8d4","650c16f0f2faf8d7a0d14c09","651c1dd7a70859f21f006961","null","null","<p style=""font-size: 60px; font-family: BACS"">mBYlTPOM</p>","","","","","","","","","",""
"html-keyboard-response","53","128499","0.0-8.0-0.45","616eb493bb7e4ab4fa1de8d4","650c16f0f2faf8d7a0d14c09","651c1dd7a70859f21f006961","null","null","<p style=""font-size: 60px; font-family: BACS"">aNYmbdmkv</p>","","","","","","","","","",""
"html-keyboard-response","54","129501","0.0-8.0-0.46","616eb493bb7e4ab4fa1de8d4","650c16f0f2faf8d7a0d14c09","651c1dd7a70859f21f006961","null","null","<p style=""font-size: 60px; font-family: BACS"">vclYAvdk</p>","","","","","","","","","",""
"html-keyboard-response","55","130516","0.0-8.0-0.47","616eb493bb7e4ab4fa1de8d4","650c16f0f2faf8d7a0d14c09","651c1dd7a70859f21f006961","null","null","<p style=""font-size: 60px; font-family: BACS"">KAERMdRA</p>","","","","","","","","","",""
"html-keyboard-response","56","131532","0.0-8.0-0.48","616eb493bb7e4ab4fa1de8d4","650c16f0f2faf8d7a0d14c09","651c1dd7a70859f21f006961","null","null","<p style=""font-size: 60px; font-family: BACS"">hlbtbCPMl</p>","","","","","","","","","",""
"html-keyboard-response","57","132548","0.0-8.0-0.49","616eb493bb7e4ab4fa1de8d4","650c16f0f2faf8d7a0d14c09","651c1dd7a70859f21f006961","null","null","<p style=""font-size: 60px; font-family: BACS"">AlQaQcYUv</p>","","","","","","","","","",""
"html-keyboard-response","58","133565","0.0-8.0-0.50","616eb493bb7e4ab4fa1de8d4","650c16f0f2faf8d7a0d14c09","651c1dd7a70859f21f006961","null","null","<p style=""font-size: 60px; font-family: BACS"">vclYcrdY</p>","","","","","","","","","",""
"html-keyboard-response","59","134581","0.0-8.0-0.51","616eb493bb7e4ab4fa1de8d4","650c16f0f2faf8d7a0d14c09","651c1dd7a70859f21f006961","null","null","<p style=""font-size: 60px; font-family: BACS"">LdrbvAvdk</p>","","","","","","","","","",""
"html-keyboard-response","60","135598","0.0-8.0-0.52","616eb493bb7e4ab4fa1de8d4","650c16f0f2faf8d7a0d14c09","651c1dd7a70859f21f006961","null","null","<p style=""font-size: 60px; font-family: BACS"">aNYmbLkNc</p>","","","","","","","","","",""
"html-keyboard-response","61","136614","0.0-8.0-0.53","616eb493bb7e4ab4fa1de8d4","650c16f0f2faf8d7a0d14c09","651c1dd7a70859f21f006961","null","null","<p style=""font-size: 60px; font-family: BACS"">NJZlAvdk</p>","","","","","","","","","",""
"html-keyboard-response","62","137630","0.0-8.0-0.54","616eb493bb7e4ab4fa1de8d4","650c16f0f2faf8d7a0d14c09","651c1dd7a70859f21f006961","null","null","<p style=""font-size: 60px; font-family: BACS"">hbmACPMl</p>","","","","","","","","","",""
"html-keyboard-response","63","138632","0.0-8.0-0.55","616eb493bb7e4ab4fa1de8d4","650c16f0f2faf8d7a0d14c09","651c1dd7a70859f21f006961","null","null","<p style=""font-size: 60px; font-family: BACS"">KAERMcMRl</p>","","","","","","","","","",""
"html-keyboard-response","64","139647","0.0-8.0-0.56","616eb493bb7e4ab4fa1de8d4","650c16f0f2faf8d7a0d14c09","651c1dd7a70859f21f006961","null","null","<p style=""font-size: 60px; font-family: BACS"">LdrbvcYUv</p>","","","","","","","","","",""
"html-keyboard-response","65","140663","0.0-8.0-0.57","616eb493bb7e4ab4fa1de8d4","650c16f0f2faf8d7a0d14c09","651c1dd7a70859f21f006961","null","null","<p style=""font-size: 60px; font-family: BACS"">rbYbuAvdk</p>","","","","","","","","","",""
"html-keyboard-response","66","141679","0.0-8.0-0.58","616eb493bb7e4ab4fa1de8d4","650c16f0f2faf8d7a0d14c09","651c1dd7a70859f21f006961","null","null","<p style=""font-size: 60px; font-family: BACS"">aNYmbcrdY</p>","","","","","","","","","",""
"html-keyboard-response","67","142681","0.0-8.0-0.59","616eb493bb7e4ab4fa1de8d4","650c16f0f2faf8d7a0d14c09","651c1dd7a70859f21f006961","null","null","<p style=""font-size: 60px; font-family: BACS"">GNAcaLkNc</p>","","","","","","","","","",""
"html-keyboard-response","68","143695","0.0-8.0-0.60","616eb493bb7e4ab4fa1de8d4","650c16f0f2faf8d7a0d14c09","651c1dd7a70859f21f006961","null","null","<p style=""font-size: 60px; font-family: BACS"">lrZGAvdk</p>","","","","","","","","","",""
"html-keyboard-response","69","144697","0.0-8.0-0.61","616eb493bb7e4ab4fa1de8d4","650c16f0f2faf8d7a0d14c09","651c1dd7a70859f21f006961","null","null","<p style=""font-size: 60px; font-family: BACS"">Ldrbvdmkv</p>","","","","","","","","","",""
"html-keyboard-response","70","145712","0.0-8.0-0.62","616eb493bb7e4ab4fa1de8d4","650c16f0f2faf8d7a0d14c09","651c1dd7a70859f21f006961","null","null","<p style=""font-size: 60px; font-family: BACS"">ctktcMRl</p>","","","","","","","","","",""
"html-keyboard-response","71","146729","0.0-8.0-0.63","616eb493bb7e4ab4fa1de8d4","650c16f0f2faf8d7a0d14c09","651c1dd7a70859f21f006961","null","null","<p style=""font-size: 60px; font-family: BACS"">KAERMRDM</p>","","","","","","","","","",""
"html-keyboard-response","72","147745","0.0-8.0-0.64","616eb493bb7e4ab4fa1de8d4","650c16f0f2faf8d7a0d14c09","651c1dd7a70859f21f006961","null","null","<p style=""font-size: 60px; font-family: BACS"">AlQaQdmkv</p>","","","","","","","","","",""
"html-keyboard-response","73","148751","0.0-8.0-0.65","616eb493bb7e4ab4fa1de8d4","650c16f0f2faf8d7a0d14c09","651c1dd7a70859f21f006961","null","null","<p style=""font-size: 60px; font-family: BACS"">mBYldRA</p>","","","","","","","","","",""
"html-keyboard-response","74","149761","0.0-8.0-0.66","616eb493bb7e4ab4fa1de8d4","650c16f0f2faf8d7a0d14c09","651c1dd7a70859f21f006961","null","null","<p style=""font-size: 60px; font-family: BACS"">ctktRDM</p>","","","","","","","","","",""
"html-keyboard-response","75","150763","0.0-8.0-0.67","616eb493bb7e4ab4fa1de8d4","650c16f0f2faf8d7a0d14c09","651c1dd7a70859f21f006961","null","null","<p style=""font-size: 60px; font-family: BACS"">LdQvdmkv</p>","","","","","","","","","",""
"html-keyboard-response","76","151777","0.0-8.0-0.68","616eb493bb7e4ab4fa1de8d4","650c16f0f2faf8d7a0d14c09","651c1dd7a70859f21f006961","null","null","<p style=""font-size: 60px; font-family: BACS"">MBKRERDM</p>","","","","","","","","","",""
"html-keyboard-response","77","152794","0.0-8.0-0.69","616eb493bb7e4ab4fa1de8d4","650c16f0f2faf8d7a0d14c09","651c1dd7a70859f21f006961","null","null","<p style=""font-size: 60px; font-family: BACS"">LdQvcYUv</p>","","","","","","","","","",""
"html-keyboard-response","78","153811","0.0-8.0-0.70","616eb493bb7e4ab4fa1de8d4","650c16f0f2faf8d7a0d14c09","651c1dd7a70859f21f006961","null","null","<p style=""font-size: 60px; font-family: BACS"">KAERMTPOM</p>","","","","","","","","","",""
"html-keyboard-response","79","154827","0.0-8.0-0.71","616eb493bb7e4ab4fa1de8d4","650c16f0f2faf8d7a0d14c09","651c1dd7a70859f21f006961","null","null","<p style=""font-size: 60px; font-family: BACS"">GNAcacYUv</p>","","","","","","","","","",""
"html-keyboard-response","80","155843","0.0-8.0-0.72","616eb493bb7e4ab4fa1de8d4","650c16f0f2faf8d7a0d14c09","651c1dd7a70859f21f006961","null","null","<p style=""font-size: 60px; font-family: BACS"">MBKRECPMl</p>","","","","","","","","","",""
"html-keyboard-response","81","156844","0.0-8.0-0.73","616eb493bb7e4ab4fa1de8d4","650c16f0f2faf8d7a0d14c09","651c1dd7a70859f21f006961","null","null","<p style=""font-size: 60px; font-family: BACS"">muYNLkNc</p>","","","","","","","","","",""
"html-keyboard-response","82","157860","0.0-8.0-0.74","616eb493bb7e4ab4fa1de8d4","650c16f0f2faf8d7a0d14c09","651c1dd7a70859f21f006961","null","null","<p style=""font-size: 60px; font-family: BACS"">hlbtbRDM</p>","","","","","","","","","",""
"html-keyboard-response","83","158876","0.0-8.0-0.75","616eb493bb7e4ab4fa1de8d4","650c16f0f2faf8d7a0d14c09","651c1dd7a70859f21f006961","null","null","<p style=""font-size: 60px; font-family: BACS"">rbYbudmkv</p>","","","","","","","","","",""
"html-keyboard-response","84","159893","0.0-8.0-0.76","616eb493bb7e4ab4fa1de8d4","650c16f0f2faf8d7a0d14c09","651c1dd7a70859f21f006961","null","null","<p style=""font-size: 60px; font-family: BACS"">LdrbvcrdY</p>","","","","","","","","","",""
"html-keyboard-response","85","160908","0.0-8.0-0.77","616eb493bb7e4ab4fa1de8d4","650c16f0f2faf8d7a0d14c09","651c1dd7a70859f21f006961","null","null","<p style=""font-size: 60px; font-family: BACS"">DhCPTPOM</p>","","","","","","","","","",""
"html-keyboard-response","86","161911","0.0-8.0-0.78","616eb493bb7e4ab4fa1de8d4","650c16f0f2faf8d7a0d14c09","651c1dd7a70859f21f006961","null","null","<p style=""font-size: 60px; font-family: BACS"">chEDOCPMl</p>","","","","","","","","","",""
"html-keyboard-response","87","162923","0.0-8.0-0.79","616eb493bb7e4ab4fa1de8d4","650c16f0f2faf8d7a0d14c09","651c1dd7a70859f21f006961","null","null","<p style=""font-size: 60px; font-family: BACS"">DhCPdRA</p>","","","","","","","","","",""
"html-keyboard-response","88","169712","0.0-9.0","616eb493bb7e4ab4fa1de8d4","650c16f0f2faf8d7a0d14c09","651c1dd7a70859f21f006961","6787"," ","<p>Great, you've seen the first block of words. You may now take a short break.</p>
      <p>Press the spacebar when you're ready to continue.</p>","","","","","","","","","",""
"html-keyboard-response","89","170723","0.0-10.0-0.0","616eb493bb7e4ab4fa1de8d4","650c16f0f2faf8d7a0d14c09","651c1dd7a70859f21f006961","null","null","<p style=""font-size: 60px; font-family: BACS"">hbmAdRA</p>","","","","","","","","","",""
"html-keyboard-response","90","171724","0.0-10.0-0.1","616eb493bb7e4ab4fa1de8d4","650c16f0f2faf8d7a0d14c09","651c1dd7a70859f21f006961","null","null","<p style=""font-size: 60px; font-family: BACS"">chEDOTPOM</p>","","","","","","","","","",""
"html-keyboard-response","91","172740","0.0-10.0-0.2","616eb493bb7e4ab4fa1de8d4","650c16f0f2faf8d7a0d14c09","651c1dd7a70859f21f006961","null","null","<p style=""font-size: 60px; font-family: BACS"">vclYcrdY</p>","","","","","","","","","",""
"html-keyboard-response","92","173755","0.0-10.0-0.3","616eb493bb7e4ab4fa1de8d4","650c16f0f2faf8d7a0d14c09","651c1dd7a70859f21f006961","null","null","<p style=""font-size: 60px; font-family: BACS"">hlbtbCPMl</p>","","","","","","","","","",""
"html-keyboard-response","93","174758","0.0-10.0-0.4","616eb493bb7e4ab4fa1de8d4","650c16f0f2faf8d7a0d14c09","651c1dd7a70859f21f006961","null","null","<p style=""font-size: 60px; font-family: BACS"">rbYbudmkv</p>","","","","","","","","","",""
"html-keyboard-response","94","175772","0.0-10.0-0.5","616eb493bb7e4ab4fa1de8d4","650c16f0f2faf8d7a0d14c09","651c1dd7a70859f21f006961","null","null","<p style=""font-size: 60px; font-family: BACS"">AlQaQcrdY</p>","","","","","","","","","",""
"html-keyboard-response","95","176788","0.0-10.0-0.6","616eb493bb7e4ab4fa1de8d4","650c16f0f2faf8d7a0d14c09","651c1dd7a70859f21f006961","null","null","<p style=""font-size: 60px; font-family: BACS"">hlbtbdRA</p>","","","","","","","","","",""
"html-keyboard-response","96","177790","0.0-10.0-0.7","616eb493bb7e4ab4fa1de8d4","650c16f0f2faf8d7a0d14c09","651c1dd7a70859f21f006961","null","null","<p style=""font-size: 60px; font-family: BACS"">DRPkYCPMl</p>","","","","","","","","","",""
"html-keyboard-response","97","178805","0.0-10.0-0.8","616eb493bb7e4ab4fa1de8d4","650c16f0f2faf8d7a0d14c09","651c1dd7a70859f21f006961","null","null","<p style=""font-size: 60px; font-family: BACS"">hbmATPOM</p>","","","","","","","","","",""
"html-keyboard-response","98","179809","0.0-10.0-0.9","616eb493bb7e4ab4fa1de8d4","650c16f0f2faf8d7a0d14c09","651c1dd7a70859f21f006961","null","null","<p style=""font-size: 60px; font-family: BACS"">NJZlLkNc</p>","","","","","","","","","",""
"html-keyboard-response","99","180821","0.0-10.0-0.10","616eb493bb7e4ab4fa1de8d4","650c16f0f2faf8d7a0d14c09","651c1dd7a70859f21f006961","null","null","<p style=""font-size: 60px; font-family: BACS"">DhCPTPOM</p>","","","","","","","","","",""
"html-keyboard-response","100","181822","0.0-10.0-0.11","616eb493bb7e4ab4fa1de8d4","650c16f0f2faf8d7a0d14c09","651c1dd7a70859f21f006961","null","null","<p style=""font-size: 60px; font-family: BACS"">mBYlcMRl</p>","","","","","","","","","",""
"html-keyboard-response","101","182837","0.0-10.0-0.12","616eb493bb7e4ab4fa1de8d4","650c16f0f2faf8d7a0d14c09","651c1dd7a70859f21f006961","null","null","<p style=""font-size: 60px; font-family: BACS"">rbYbuAvdk</p>","","","","","","","","","",""
"html-keyboard-response","102","183853","0.0-10.0-0.13","616eb493bb7e4ab4fa1de8d4","650c16f0f2faf8d7a0d14c09","651c1dd7a70859f21f006961","null","null","<p style=""font-size: 60px; font-family: BACS"">ctktdRA</p>","","","","","","","","","",""
"html-keyboard-response","103","184869","0.0-10.0-0.14","616eb493bb7e4ab4fa1de8d4","650c16f0f2faf8d7a0d14c09","651c1dd7a70859f21f006961","null","null","<p style=""font-size: 60px; font-family: BACS"">AlQaQcYUv</p>","","","","","","","","","",""
"html-keyboard-response","104","185886","0.0-10.0-0.15","616eb493bb7e4ab4fa1de8d4","650c16f0f2faf8d7a0d14c09","651c1dd7a70859f21f006961","null","null","<p style=""font-size: 60px; font-family: BACS"">mBYlCPMl</p>","","","","","","","","","",""
"html-keyboard-response","105","186888","0.0-10.0-0.16","616eb493bb7e4ab4fa1de8d4","650c16f0f2faf8d7a0d14c09","651c1dd7a70859f21f006961","null","null","<p style=""font-size: 60px; font-family: BACS"">LdQvcYUv</p>","","","","","","","","","",""
"html-keyboard-response","106","187902","0.0-10.0-0.17","616eb493bb7e4ab4fa1de8d4","650c16f0f2faf8d7a0d14c09","651c1dd7a70859f21f006961","null","null","<p style=""font-size: 60px; font-family: BACS"">muYNcrdY</p>","","","","","","","","","",""
"html-keyboard-response","107","188904","0.0-10.0-0.18","616eb493bb7e4ab4fa1de8d4","650c16f0f2faf8d7a0d14c09","651c1dd7a70859f21f006961","null","null","<p style=""font-size: 60px; font-family: BACS"">NJZldmkv</p>","","","","","","","","","",""
"html-keyboard-response","108","189919","0.0-10.0-0.19","616eb493bb7e4ab4fa1de8d4","650c16f0f2faf8d7a0d14c09","651c1dd7a70859f21f006961","null","null","<p style=""font-size: 60px; font-family: BACS"">LdQvAvdk</p>","","","","","","","","","",""
"html-keyboard-response","109","190935","0.0-10.0-0.20","616eb493bb7e4ab4fa1de8d4","650c16f0f2faf8d7a0d14c09","651c1dd7a70859f21f006961","null","null","<p style=""font-size: 60px; font-family: BACS"">dMYBPRDM</p>","","","","","","","","","",""
"html-keyboard-response","110","191951","0.0-10.0-0.21","616eb493bb7e4ab4fa1de8d4","650c16f0f2faf8d7a0d14c09","651c1dd7a70859f21f006961","null","null","<p style=""font-size: 60px; font-family: BACS"">ctktCPMl</p>","","","","","","","","","",""
"html-keyboard-response","111","192968","0.0-10.0-0.22","616eb493bb7e4ab4fa1de8d4","650c16f0f2faf8d7a0d14c09","651c1dd7a70859f21f006961","null","null","<p style=""font-size: 60px; font-family: BACS"">MBKRERDM</p>","","","","","","","","","",""
"html-keyboard-response","112","193984","0.0-10.0-0.23","616eb493bb7e4ab4fa1de8d4","650c16f0f2faf8d7a0d14c09","651c1dd7a70859f21f006961","null","null","<p style=""font-size: 60px; font-family: BACS"">dMYBPTPOM</p>","","","","","","","","","",""
"html-keyboard-response","113","194986","0.0-10.0-0.24","616eb493bb7e4ab4fa1de8d4","650c16f0f2faf8d7a0d14c09","651c1dd7a70859f21f006961","null","null","<p style=""font-size: 60px; font-family: BACS"">lrZGAvdk</p>","","","","","","","","","",""
"html-keyboard-response","114","196001","0.0-10.0-0.25","616eb493bb7e4ab4fa1de8d4","650c16f0f2faf8d7a0d14c09","651c1dd7a70859f21f006961","null","null","<p style=""font-size: 60px; font-family: BACS"">KAERMTPOM</p>","","","","","","","","","",""
"html-keyboard-response","115","197017","0.0-10.0-0.26","616eb493bb7e4ab4fa1de8d4","650c16f0f2faf8d7a0d14c09","651c1dd7a70859f21f006961","null","null","<p style=""font-size: 60px; font-family: BACS"">mBYldRA</p>","","","","","","","","","",""
"html-keyboard-response","116","198018","0.0-10.0-0.27","616eb493bb7e4ab4fa1de8d4","650c16f0f2faf8d7a0d14c09","651c1dd7a70859f21f006961","null","null","<p style=""font-size: 60px; font-family: BACS"">AlQaQLkNc</p>","","","","","","","","","",""
"html-keyboard-response","117","199034","0.0-10.0-0.28","616eb493bb7e4ab4fa1de8d4","650c16f0f2faf8d7a0d14c09","651c1dd7a70859f21f006961","null","null","<p style=""font-size: 60px; font-family: BACS"">hlbtbTPOM</p>","","","","","","","","","",""
"html-keyboard-response","118","200050","0.0-10.0-0.29","616eb493bb7e4ab4fa1de8d4","650c16f0f2faf8d7a0d14c09","651c1dd7a70859f21f006961","null","null","<p style=""font-size: 60px; font-family: BACS"">aNYmbcYUv</p>","","","","","","","","","",""
"html-keyboard-response","119","201066","0.0-10.0-0.30","616eb493bb7e4ab4fa1de8d4","650c16f0f2faf8d7a0d14c09","651c1dd7a70859f21f006961","null","null","<p style=""font-size: 60px; font-family: BACS"">DRPkYRDM</p>","","","","","","","","","",""
"html-keyboard-response","120","202083","0.0-10.0-0.31","616eb493bb7e4ab4fa1de8d4","650c16f0f2faf8d7a0d14c09","651c1dd7a70859f21f006961","null","null","<p style=""font-size: 60px; font-family: BACS"">LdrbvAvdk</p>","","","","","","","","","",""
"html-keyboard-response","121","203099","0.0-10.0-0.32","616eb493bb7e4ab4fa1de8d4","650c16f0f2faf8d7a0d14c09","651c1dd7a70859f21f006961","null","null","<p style=""font-size: 60px; font-family: BACS"">ctktRDM</p>","","","","","","","","","",""
"html-keyboard-response","122","204115","0.0-10.0-0.33","616eb493bb7e4ab4fa1de8d4","650c16f0f2faf8d7a0d14c09","651c1dd7a70859f21f006961","null","null","<p style=""font-size: 60px; font-family: BACS"">hbmACPMl</p>","","","","","","","","","",""
"html-keyboard-response","123","205131","0.0-10.0-0.34","616eb493bb7e4ab4fa1de8d4","650c16f0f2faf8d7a0d14c09","651c1dd7a70859f21f006961","null","null","<p style=""font-size: 60px; font-family: BACS"">aNYmbdmkv</p>","","","","","","","","","",""
"html-keyboard-response","124","206148","0.0-10.0-0.35","616eb493bb7e4ab4fa1de8d4","650c16f0f2faf8d7a0d14c09","651c1dd7a70859f21f006961","null","null","<p style=""font-size: 60px; font-family: BACS"">ctktcMRl</p>","","","","","","","","","",""
"html-keyboard-response","125","207149","0.0-10.0-0.36","616eb493bb7e4ab4fa1de8d4","650c16f0f2faf8d7a0d14c09","651c1dd7a70859f21f006961","null","null","<p style=""font-size: 60px; font-family: BACS"">MBKRETPOM</p>","","","","","","","","","",""
"html-keyboard-response","126","208166","0.0-10.0-0.37","616eb493bb7e4ab4fa1de8d4","650c16f0f2faf8d7a0d14c09","651c1dd7a70859f21f006961","null","null","<p style=""font-size: 60px; font-family: BACS"">aNYmbcrdY</p>","","","","","","","","","",""
"html-keyboard-response","127","209181","0.0-10.0-0.38","616eb493bb7e4ab4fa1de8d4","650c16f0f2faf8d7a0d14c09","651c1dd7a70859f21f006961","null","null","<p style=""font-size: 60px; font-family: BACS"">LdQvdmkv</p>","","","","","","","","","",""
"html-keyboard-response","128","210197","0.0-10.0-0.39","616eb493bb7e4ab4fa1de8d4","650c16f0f2faf8d7a0d14c09","651c1dd7a70859f21f006961","null","null","<p style=""font-size: 60px; font-family: BACS"">NJZlcrdY</p>","","","","","","","","","",""
"html-keyboard-response","129","211213","0.0-10.0-0.40","616eb493bb7e4ab4fa1de8d4","650c16f0f2faf8d7a0d14c09","651c1dd7a70859f21f006961","null","null","<p style=""font-size: 60px; font-family: BACS"">lrZGdmkv</p>","","","","","","","","","",""
"html-keyboard-response","130","212215","0.0-10.0-0.41","616eb493bb7e4ab4fa1de8d4","650c16f0f2faf8d7a0d14c09","651c1dd7a70859f21f006961","null","null","<p style=""font-size: 60px; font-family: BACS"">KAERMRDM</p>","","","","","","","","","",""
"html-keyboard-response","131","213232","0.0-10.0-0.42","616eb493bb7e4ab4fa1de8d4","650c16f0f2faf8d7a0d14c09","651c1dd7a70859f21f006961","null","null","<p style=""font-size: 60px; font-family: BACS"">GNAcacYUv</p>","","","","","","","","","",""
"html-keyboard-response","132","214246","0.0-10.0-0.43","616eb493bb7e4ab4fa1de8d4","650c16f0f2faf8d7a0d14c09","651c1dd7a70859f21f006961","null","null","<p style=""font-size: 60px; font-family: BACS"">muYNLkNc</p>","","","","","","","","","",""
"html-keyboard-response","133","215263","0.0-10.0-0.44","616eb493bb7e4ab4fa1de8d4","650c16f0f2faf8d7a0d14c09","651c1dd7a70859f21f006961","null","null","<p style=""font-size: 60px; font-family: BACS"">chEDORDM</p>","","","","","","","","","",""
"html-keyboard-response","134","216264","0.0-10.0-0.45","616eb493bb7e4ab4fa1de8d4","650c16f0f2faf8d7a0d14c09","651c1dd7a70859f21f006961","null","null","<p style=""font-size: 60px; font-family: BACS"">DRPkYdRA</p>","","","","","","","","","",""
"html-keyboard-response","135","217281","0.0-10.0-0.46","616eb493bb7e4ab4fa1de8d4","650c16f0f2faf8d7a0d14c09","651c1dd7a70859f21f006961","null","null","<p style=""font-size: 60px; font-family: BACS"">AlQaQdmkv</p>","","","","","","","","","",""
"html-keyboard-response","136","218282","0.0-10.0-0.47","616eb493bb7e4ab4fa1de8d4","650c16f0f2faf8d7a0d14c09","651c1dd7a70859f21f006961","null","null","<p style=""font-size: 60px; font-family: BACS"">DhCPRDM</p>","","","","","","","","","",""
"html-keyboard-response","137","219296","0.0-10.0-0.48","616eb493bb7e4ab4fa1de8d4","650c16f0f2faf8d7a0d14c09","651c1dd7a70859f21f006961","null","null","<p style=""font-size: 60px; font-family: BACS"">GNAcacrdY</p>","","","","","","","","","",""
"html-keyboard-response","138","220312","0.0-10.0-0.49","616eb493bb7e4ab4fa1de8d4","650c16f0f2faf8d7a0d14c09","651c1dd7a70859f21f006961","null","null","<p style=""font-size: 60px; font-family: BACS"">chEDOCPMl</p>","","","","","","","","","",""
"html-keyboard-response","139","221313","0.0-10.0-0.50","616eb493bb7e4ab4fa1de8d4","650c16f0f2faf8d7a0d14c09","651c1dd7a70859f21f006961","null","null","<p style=""font-size: 60px; font-family: BACS"">Ldrbvdmkv</p>","","","","","","","","","",""
"html-keyboard-response","140","222330","0.0-10.0-0.51","616eb493bb7e4ab4fa1de8d4","650c16f0f2faf8d7a0d14c09","651c1dd7a70859f21f006961","null","null","<p style=""font-size: 60px; font-family: BACS"">muYNAvdk</p>","","","","","","","","","",""
"html-keyboard-response","141","223344","0.0-10.0-0.52","616eb493bb7e4ab4fa1de8d4","650c16f0f2faf8d7a0d14c09","651c1dd7a70859f21f006961","null","null","<p style=""font-size: 60px; font-family: BACS"">DRPkYcMRl</p>","","","","","","","","","",""
"html-keyboard-response","142","224361","0.0-10.0-0.53","616eb493bb7e4ab4fa1de8d4","650c16f0f2faf8d7a0d14c09","651c1dd7a70859f21f006961","null","null","<p style=""font-size: 60px; font-family: BACS"">vclYLkNc</p>","","","","","","","","","",""
"html-keyboard-response","143","225377","0.0-10.0-0.54","616eb493bb7e4ab4fa1de8d4","650c16f0f2faf8d7a0d14c09","651c1dd7a70859f21f006961","null","null","<p style=""font-size: 60px; font-family: BACS"">lrZGcYUv</p>","","","","","","","","","",""
"html-keyboard-response","144","226393","0.0-10.0-0.55","616eb493bb7e4ab4fa1de8d4","650c16f0f2faf8d7a0d14c09","651c1dd7a70859f21f006961","null","null","<p style=""font-size: 60px; font-family: BACS"">hlbtbRDM</p>","","","","","","","","","",""
"html-keyboard-response","145","227410","0.0-10.0-0.56","616eb493bb7e4ab4fa1de8d4","650c16f0f2faf8d7a0d14c09","651c1dd7a70859f21f006961","null","null","<p style=""font-size: 60px; font-family: BACS"">mBYlTPOM</p>","","","","","","","","","",""
"html-keyboard-response","146","228426","0.0-10.0-0.57","616eb493bb7e4ab4fa1de8d4","650c16f0f2faf8d7a0d14c09","651c1dd7a70859f21f006961","null","null","<p style=""font-size: 60px; font-family: BACS"">MBKRECPMl</p>","","","","","","","","","",""
"html-keyboard-response","147","229428","0.0-10.0-0.58","616eb493bb7e4ab4fa1de8d4","650c16f0f2faf8d7a0d14c09","651c1dd7a70859f21f006961","null","null","<p style=""font-size: 60px; font-family: BACS"">muYNcYUv</p>","","","","","","","","","",""
"html-keyboard-response","148","230444","0.0-10.0-0.59","616eb493bb7e4ab4fa1de8d4","650c16f0f2faf8d7a0d14c09","651c1dd7a70859f21f006961","null","null","<p style=""font-size: 60px; font-family: BACS"">vclYAvdk</p>","","","","","","","","","",""
"html-keyboard-response","149","231459","0.0-10.0-0.60","616eb493bb7e4ab4fa1de8d4","650c16f0f2faf8d7a0d14c09","651c1dd7a70859f21f006961","null","null","<p style=""font-size: 60px; font-family: BACS"">KAERMdRA</p>","","","","","","","","","",""
"html-keyboard-response","150","232461","0.0-10.0-0.61","616eb493bb7e4ab4fa1de8d4","650c16f0f2faf8d7a0d14c09","651c1dd7a70859f21f006961","null","null","<p style=""font-size: 60px; font-family: BACS"">vclYdmkv</p>","","","","","","","","","",""
"html-keyboard-response","151","233475","0.0-10.0-0.62","616eb493bb7e4ab4fa1de8d4","650c16f0f2faf8d7a0d14c09","651c1dd7a70859f21f006961","null","null","<p style=""font-size: 60px; font-family: BACS"">aNYmbLkNc</p>","","","","","","","","","",""
"html-keyboard-response","152","234492","0.0-10.0-0.63","616eb493bb7e4ab4fa1de8d4","650c16f0f2faf8d7a0d14c09","651c1dd7a70859f21f006961","null","null","<p style=""font-size: 60px; font-family: BACS"">hbmAcMRl</p>","","","","","","","","","",""
"html-keyboard-response","153","235506","0.0-10.0-0.64","616eb493bb7e4ab4fa1de8d4","650c16f0f2faf8d7a0d14c09","651c1dd7a70859f21f006961","null","null","<p style=""font-size: 60px; font-family: BACS"">GNAcaLkNc</p>","","","","","","","","","",""
"html-keyboard-response","154","236509","0.0-10.0-0.65","616eb493bb7e4ab4fa1de8d4","650c16f0f2faf8d7a0d14c09","651c1dd7a70859f21f006961","null","null","<p style=""font-size: 60px; font-family: BACS"">rbYbucYUv</p>","","","","","","","","","",""
"html-keyboard-response","155","237525","0.0-10.0-0.66","616eb493bb7e4ab4fa1de8d4","650c16f0f2faf8d7a0d14c09","651c1dd7a70859f21f006961","null","null","<p style=""font-size: 60px; font-family: BACS"">DhCPdRA</p>","","","","","","","","","",""
"html-keyboard-response","156","238542","0.0-10.0-0.67","616eb493bb7e4ab4fa1de8d4","650c16f0f2faf8d7a0d14c09","651c1dd7a70859f21f006961","null","null","<p style=""font-size: 60px; font-family: BACS"">NJZlAvdk</p>","","","","","","","","","",""
"html-keyboard-response","157","239558","0.0-10.0-0.68","616eb493bb7e4ab4fa1de8d4","650c16f0f2faf8d7a0d14c09","651c1dd7a70859f21f006961","null","null","<p style=""font-size: 60px; font-family: BACS"">DhCPCPMl</p>","","","","","","","","","",""
"html-keyboard-response","158","240574","0.0-10.0-0.69","616eb493bb7e4ab4fa1de8d4","650c16f0f2faf8d7a0d14c09","651c1dd7a70859f21f006961","null","null","<p style=""font-size: 60px; font-family: BACS"">dMYBPdRA</p>","","","","","","","","","",""
"html-keyboard-response","159","241591","0.0-10.0-0.70","616eb493bb7e4ab4fa1de8d4","650c16f0f2faf8d7a0d14c09","651c1dd7a70859f21f006961","null","null","<p style=""font-size: 60px; font-family: BACS"">GNAcaAvdk</p>","","","","","","","","","",""
"html-keyboard-response","160","242607","0.0-10.0-0.71","616eb493bb7e4ab4fa1de8d4","650c16f0f2faf8d7a0d14c09","651c1dd7a70859f21f006961","null","null","<p style=""font-size: 60px; font-family: BACS"">lrZGLkNc</p>","","","","","","","","","",""
"html-keyboard-response","161","243623","0.0-10.0-0.72","616eb493bb7e4ab4fa1de8d4","650c16f0f2faf8d7a0d14c09","651c1dd7a70859f21f006961","null","null","<p style=""font-size: 60px; font-family: BACS"">MBKREcMRl</p>","","","","","","","","","",""
"html-keyboard-response","162","244625","0.0-10.0-0.73","616eb493bb7e4ab4fa1de8d4","650c16f0f2faf8d7a0d14c09","651c1dd7a70859f21f006961","null","null","<p style=""font-size: 60px; font-family: BACS"">rbYbucrdY</p>","","","","","","","","","",""
"html-keyboard-response","163","245639","0.0-10.0-0.74","616eb493bb7e4ab4fa1de8d4","650c16f0f2faf8d7a0d14c09","651c1dd7a70859f21f006961","null","null","<p style=""font-size: 60px; font-family: BACS"">KAERMcMRl</p>","","","","","","","","","",""
"html-keyboard-response","164","246656","0.0-10.0-0.75","616eb493bb7e4ab4fa1de8d4","650c16f0f2faf8d7a0d14c09","651c1dd7a70859f21f006961","null","null","<p style=""font-size: 60px; font-family: BACS"">LdrbvcYUv</p>","","","","","","","","","",""
"html-keyboard-response","165","247673","0.0-10.0-0.76","616eb493bb7e4ab4fa1de8d4","650c16f0f2faf8d7a0d14c09","651c1dd7a70859f21f006961","null","null","<p style=""font-size: 60px; font-family: BACS"">chEDOcMRl</p>","","","","","","","","","",""
"html-keyboard-response","166","248689","0.0-10.0-0.77","616eb493bb7e4ab4fa1de8d4","650c16f0f2faf8d7a0d14c09","651c1dd7a70859f21f006961","null","null","<p style=""font-size: 60px; font-family: BACS"">LdrbvcrdY</p>","","","","","","","","","",""
"html-keyboard-response","167","249705","0.0-10.0-0.78","616eb493bb7e4ab4fa1de8d4","650c16f0f2faf8d7a0d14c09","651c1dd7a70859f21f006961","null","null","<p style=""font-size: 60px; font-family: BACS"">dMYBPcMRl</p>","","","","","","","","","",""
"html-keyboard-response","168","250721","0.0-10.0-0.79","616eb493bb7e4ab4fa1de8d4","650c16f0f2faf8d7a0d14c09","651c1dd7a70859f21f006961","null","null","<p style=""font-size: 60px; font-family: BACS"">LdQvLkNc</p>","","","","","","","","","",""
"html-keyboard-response","169","257758","0.0-11.0","616eb493bb7e4ab4fa1de8d4","650c16f0f2faf8d7a0d14c09","651c1dd7a70859f21f006961","7036"," ","<p>Great, you've seen the second block of words. You may now take a short break.</p>
      <p>Press the spacebar when you're ready to continue.</p>","","","","","","","","","",""
"html-keyboard-response","170","258770","0.0-12.0-0.0","616eb493bb7e4ab4fa1de8d4","650c16f0f2faf8d7a0d14c09","651c1dd7a70859f21f006961","null","null","<p style=""font-size: 60px; font-family: BACS"">LdQvAvdk</p>","","","","","","","","","",""
"html-keyboard-response","171","259771","0.0-12.0-0.1","616eb493bb7e4ab4fa1de8d4","650c16f0f2faf8d7a0d14c09","651c1dd7a70859f21f006961","null","null","<p style=""font-size: 60px; font-family: BACS"">mBYlCPMl</p>","","","","","","","","","",""
"html-keyboard-response","172","260786","0.0-12.0-0.2","616eb493bb7e4ab4fa1de8d4","650c16f0f2faf8d7a0d14c09","651c1dd7a70859f21f006961","null","null","<p style=""font-size: 60px; font-family: BACS"">muYNAvdk</p>","","","","","","","","","",""
"html-keyboard-response","173","261787","0.0-12.0-0.3","616eb493bb7e4ab4fa1de8d4","650c16f0f2faf8d7a0d14c09","651c1dd7a70859f21f006961","null","null","<p style=""font-size: 60px; font-family: BACS"">hbmATPOM</p>","","","","","","","","","",""
"html-keyboard-response","174","262802","0.0-12.0-0.4","616eb493bb7e4ab4fa1de8d4","650c16f0f2faf8d7a0d14c09","651c1dd7a70859f21f006961","null","null","<p style=""font-size: 60px; font-family: BACS"">mBYlcMRl</p>","","","","","","","","","",""
"html-keyboard-response","175","263803","0.0-12.0-0.5","616eb493bb7e4ab4fa1de8d4","650c16f0f2faf8d7a0d14c09","651c1dd7a70859f21f006961","null","null","<p style=""font-size: 60px; font-family: BACS"">vclYAvdk</p>","","","","","","","","","",""
"html-keyboard-response","176","264819","0.0-12.0-0.6","616eb493bb7e4ab4fa1de8d4","650c16f0f2faf8d7a0d14c09","651c1dd7a70859f21f006961","null","null","<p style=""font-size: 60px; font-family: BACS"">lrZGLkNc</p>","","","","","","","","","",""
"html-keyboard-response","177","265834","0.0-12.0-0.7","616eb493bb7e4ab4fa1de8d4","650c16f0f2faf8d7a0d14c09","651c1dd7a70859f21f006961","null","null","<p style=""font-size: 60px; font-family: BACS"">hbmAdRA</p>","","","","","","","","","",""
"html-keyboard-response","178","266851","0.0-12.0-0.8","616eb493bb7e4ab4fa1de8d4","650c16f0f2faf8d7a0d14c09","651c1dd7a70859f21f006961","null","null","<p style=""font-size: 60px; font-family: BACS"">KAERMcMRl</p>","","","","","","","","","",""
"html-keyboard-response","179","267868","0.0-12.0-0.9","616eb493bb7e4ab4fa1de8d4","650c16f0f2faf8d7a0d14c09","651c1dd7a70859f21f006961","null","null","<p style=""font-size: 60px; font-family: BACS"">MBKRETPOM</p>","","","","","","","","","",""
"html-keyboard-response","180","268884","0.0-12.0-0.10","616eb493bb7e4ab4fa1de8d4","650c16f0f2faf8d7a0d14c09","651c1dd7a70859f21f006961","null","null","<p style=""font-size: 60px; font-family: BACS"">NJZldmkv</p>","","","","","","","","","",""
"html-keyboard-response","181","269900","0.0-12.0-0.11","616eb493bb7e4ab4fa1de8d4","650c16f0f2faf8d7a0d14c09","651c1dd7a70859f21f006961","null","null","<p style=""font-size: 60px; font-family: BACS"">MBKRECPMl</p>","","","","","","","","","",""
"html-keyboard-response","182","270902","0.0-12.0-0.12","616eb493bb7e4ab4fa1de8d4","650c16f0f2faf8d7a0d14c09","651c1dd7a70859f21f006961","null","null","<p style=""font-size: 60px; font-family: BACS"">rbYbucYUv</p>","","","","","","","","","",""
"html-keyboard-response","183","271918","0.0-12.0-0.13","616eb493bb7e4ab4fa1de8d4","650c16f0f2faf8d7a0d14c09","651c1dd7a70859f21f006961","null","null","<p style=""font-size: 60px; font-family: BACS"">chEDOcMRl</p>","","","","","","","","","",""
"html-keyboard-response","184","272933","0.0-12.0-0.14","616eb493bb7e4ab4fa1de8d4","650c16f0f2faf8d7a0d14c09","651c1dd7a70859f21f006961","null","null","<p style=""font-size: 60px; font-family: BACS"">DhCPRDM</p>","","","","","","","","","",""
"html-keyboard-response","185","273950","0.0-12.0-0.15","616eb493bb7e4ab4fa1de8d4","650c16f0f2faf8d7a0d14c09","651c1dd7a70859f21f006961","null","null","<p style=""font-size: 60px; font-family: BACS"">LdQvdmkv</p>","","","","","","","","","",""
"html-keyboard-response","186","274951","0.0-12.0-0.16","616eb493bb7e4ab4fa1de8d4","650c16f0f2faf8d7a0d14c09","651c1dd7a70859f21f006961","null","null","<p style=""font-size: 60px; font-family: BACS"">dMYBPRDM</p>","","","","","","","","","",""
"html-keyboard-response","187","275967","0.0-12.0-0.17","616eb493bb7e4ab4fa1de8d4","650c16f0f2faf8d7a0d14c09","651c1dd7a70859f21f006961","null","null","<p style=""font-size: 60px; font-family: BACS"">GNAcacrdY</p>","","","","","","","","","",""
"html-keyboard-response","188","276982","0.0-12.0-0.18","616eb493bb7e4ab4fa1de8d4","650c16f0f2faf8d7a0d14c09","651c1dd7a70859f21f006961","null","null","<p style=""font-size: 60px; font-family: BACS"">muYNLkNc</p>","","","","","","","","","",""
"html-keyboard-response","189","277984","0.0-12.0-0.19","616eb493bb7e4ab4fa1de8d4","650c16f0f2faf8d7a0d14c09","651c1dd7a70859f21f006961","null","null","<p style=""font-size: 60px; font-family: BACS"">ctktdRA</p>","","","","","","","","","",""
"html-keyboard-response","190","278999","0.0-12.0-0.20","616eb493bb7e4ab4fa1de8d4","650c16f0f2faf8d7a0d14c09","651c1dd7a70859f21f006961","null","null","<p style=""font-size: 60px; font-family: BACS"">KAERMRDM</p>","","","","","","","","","",""
"html-keyboard-response","191","280015","0.0-12.0-0.21","616eb493bb7e4ab4fa1de8d4","650c16f0f2faf8d7a0d14c09","651c1dd7a70859f21f006961","null","null","<p style=""font-size: 60px; font-family: BACS"">muYNcYUv</p>","","","","","","","","","",""
"html-keyboard-response","192","281017","0.0-12.0-0.22","616eb493bb7e4ab4fa1de8d4","650c16f0f2faf8d7a0d14c09","651c1dd7a70859f21f006961","null","null","<p style=""font-size: 60px; font-family: BACS"">rbYbudmkv</p>","","","","","","","","","",""
"html-keyboard-response","193","282032","0.0-12.0-0.23","616eb493bb7e4ab4fa1de8d4","650c16f0f2faf8d7a0d14c09","651c1dd7a70859f21f006961","null","null","<p style=""font-size: 60px; font-family: BACS"">vclYLkNc</p>","","","","","","","","","",""
"html-keyboard-response","194","283033","0.0-12.0-0.24","616eb493bb7e4ab4fa1de8d4","650c16f0f2faf8d7a0d14c09","651c1dd7a70859f21f006961","null","null","<p style=""font-size: 60px; font-family: BACS"">hbmACPMl</p>","","","","","","","","","",""
"html-keyboard-response","195","284049","0.0-12.0-0.25","616eb493bb7e4ab4fa1de8d4","650c16f0f2faf8d7a0d14c09","651c1dd7a70859f21f006961","null","null","<p style=""font-size: 60px; font-family: BACS"">AlQaQdmkv</p>","","","","","","","","","",""
"html-keyboard-response","196","285063","0.0-12.0-0.26","616eb493bb7e4ab4fa1de8d4","650c16f0f2faf8d7a0d14c09","651c1dd7a70859f21f006961","null","null","<p style=""font-size: 60px; font-family: BACS"">muYNcrdY</p>","","","","","","","","","",""
"html-keyboard-response","197","286066","0.0-12.0-0.27","616eb493bb7e4ab4fa1de8d4","650c16f0f2faf8d7a0d14c09","651c1dd7a70859f21f006961","null","null","<p style=""font-size: 60px; font-family: BACS"">rbYbuAvdk</p>","","","","","","","","","",""
"html-keyboard-response","198","287081","0.0-12.0-0.28","616eb493bb7e4ab4fa1de8d4","650c16f0f2faf8d7a0d14c09","651c1dd7a70859f21f006961","null","null","<p style=""font-size: 60px; font-family: BACS"">dMYBPcMRl</p>","","","","","","","","","",""
"html-keyboard-response","199","288097","0.0-12.0-0.29","616eb493bb7e4ab4fa1de8d4","650c16f0f2faf8d7a0d14c09","651c1dd7a70859f21f006961","null","null","<p style=""font-size: 60px; font-family: BACS"">NJZlAvdk</p>","","","","","","","","","",""
"html-keyboard-response","200","289113","0.0-12.0-0.30","616eb493bb7e4ab4fa1de8d4","650c16f0f2faf8d7a0d14c09","651c1dd7a70859f21f006961","null","null","<p style=""font-size: 60px; font-family: BACS"">GNAcacYUv</p>","","","","","","","","","",""
"html-keyboard-response","201","290129","0.0-12.0-0.31","616eb493bb7e4ab4fa1de8d4","650c16f0f2faf8d7a0d14c09","651c1dd7a70859f21f006961","null","null","<p style=""font-size: 60px; font-family: BACS"">vclYcrdY</p>","","","","","","","","","",""
"html-keyboard-response","202","291146","0.0-12.0-0.32","616eb493bb7e4ab4fa1de8d4","650c16f0f2faf8d7a0d14c09","651c1dd7a70859f21f006961","null","null","<p style=""font-size: 60px; font-family: BACS"">chEDORDM</p>","","","","","","","","","",""
"html-keyboard-response","203","292162","0.0-12.0-0.33","616eb493bb7e4ab4fa1de8d4","650c16f0f2faf8d7a0d14c09","651c1dd7a70859f21f006961","null","null","<p style=""font-size: 60px; font-family: BACS"">NJZlLkNc</p>","","","","","","","","","",""
"html-keyboard-response","204","293179","0.0-12.0-0.34","616eb493bb7e4ab4fa1de8d4","650c16f0f2faf8d7a0d14c09","651c1dd7a70859f21f006961","null","null","<p style=""font-size: 60px; font-family: BACS"">AlQaQcrdY</p>","","","","","","","","","",""
"html-keyboard-response","205","294196","0.0-12.0-0.35","616eb493bb7e4ab4fa1de8d4","650c16f0f2faf8d7a0d14c09","651c1dd7a70859f21f006961","null","null","<p style=""font-size: 60px; font-family: BACS"">hlbtbdRA</p>","","","","","","","","","",""
"html-keyboard-response","206","295212","0.0-12.0-0.36","616eb493bb7e4ab4fa1de8d4","650c16f0f2faf8d7a0d14c09","651c1dd7a70859f21f006961","null","null","<p style=""font-size: 60px; font-family: BACS"">LdrbvAvdk</p>","","","","","","","","","",""
"html-keyboard-response","207","296229","0.0-12.0-0.37","616eb493bb7e4ab4fa1de8d4","650c16f0f2faf8d7a0d14c09","651c1dd7a70859f21f006961","null","null","<p style=""font-size: 60px; font-family: BACS"">chEDOCPMl</p>","","","","","","","","","",""
"html-keyboard-response","208","297245","0.0-12.0-0.38","616eb493bb7e4ab4fa1de8d4","650c16f0f2faf8d7a0d14c09","651c1dd7a70859f21f006961","null","null","<p style=""font-size: 60px; font-family: BACS"">mBYldRA</p>","","","","","","","","","",""
"html-keyboard-response","209","298261","0.0-12.0-0.39","616eb493bb7e4ab4fa1de8d4","650c16f0f2faf8d7a0d14c09","651c1dd7a70859f21f006961","null","null","<p style=""font-size: 60px; font-family: BACS"">hlbtbCPMl</p>","","","","","","","","","",""
"html-keyboard-response","210","299265","0.0-12.0-0.40","616eb493bb7e4ab4fa1de8d4","650c16f0f2faf8d7a0d14c09","651c1dd7a70859f21f006961","null","null","<p style=""font-size: 60px; font-family: BACS"">rbYbucrdY</p>","","","","","","","","","",""
"html-keyboard-response","211","300279","0.0-12.0-0.41","616eb493bb7e4ab4fa1de8d4","650c16f0f2faf8d7a0d14c09","651c1dd7a70859f21f006961","null","null","<p style=""font-size: 60px; font-family: BACS"">AlQaQcYUv</p>","","","","","","","","","",""
"html-keyboard-response","212","301294","0.0-12.0-0.42","616eb493bb7e4ab4fa1de8d4","650c16f0f2faf8d7a0d14c09","651c1dd7a70859f21f006961","null","null","<p style=""font-size: 60px; font-family: BACS"">vclYdmkv</p>","","","","","","","","","",""
"html-keyboard-response","213","302311","0.0-12.0-0.43","616eb493bb7e4ab4fa1de8d4","650c16f0f2faf8d7a0d14c09","651c1dd7a70859f21f006961","null","null","<p style=""font-size: 60px; font-family: BACS"">DRPkYdRA</p>","","","","","","","","","",""
"html-keyboard-response","214","303327","0.0-12.0-0.44","616eb493bb7e4ab4fa1de8d4","650c16f0f2faf8d7a0d14c09","651c1dd7a70859f21f006961","null","null","<p style=""font-size: 60px; font-family: BACS"">KAERMTPOM</p>","","","","","","","","","",""
"html-keyboard-response","215","304328","0.0-12.0-0.45","616eb493bb7e4ab4fa1de8d4","650c16f0f2faf8d7a0d14c09","651c1dd7a70859f21f006961","null","null","<p style=""font-size: 60px; font-family: BACS"">LdrbvcrdY</p>","","","","","","","","","",""
"html-keyboard-response","216","305342","0.0-12.0-0.46","616eb493bb7e4ab4fa1de8d4","650c16f0f2faf8d7a0d14c09","651c1dd7a70859f21f006961","null","null","<p style=""font-size: 60px; font-family: BACS"">DRPkYcMRl</p>","","","","","","","","","",""
"html-keyboard-response","217","306343","0.0-12.0-0.47","616eb493bb7e4ab4fa1de8d4","650c16f0f2faf8d7a0d14c09","651c1dd7a70859f21f006961","null","null","<p style=""font-size: 60px; font-family: BACS"">ctktCPMl</p>","","","","","","","","","",""
"html-keyboard-response","218","307359","0.0-12.0-0.48","616eb493bb7e4ab4fa1de8d4","650c16f0f2faf8d7a0d14c09","651c1dd7a70859f21f006961","null","null","<p style=""font-size: 60px; font-family: BACS"">AlQaQLkNc</p>","","","","","","","","","",""
"html-keyboard-response","219","308360","0.0-12.0-0.49","616eb493bb7e4ab4fa1de8d4","650c16f0f2faf8d7a0d14c09","651c1dd7a70859f21f006961","null","null","<p style=""font-size: 60px; font-family: BACS"">hbmAcMRl</p>","","","","","","","","","",""
"html-keyboard-response","220","309376","0.0-12.0-0.50","616eb493bb7e4ab4fa1de8d4","650c16f0f2faf8d7a0d14c09","651c1dd7a70859f21f006961","null","null","<p style=""font-size: 60px; font-family: BACS"">lrZGdmkv</p>","","","","","","","","","",""
"html-keyboard-response","221","310391","0.0-12.0-0.51","616eb493bb7e4ab4fa1de8d4","650c16f0f2faf8d7a0d14c09","651c1dd7a70859f21f006961","null","null","<p style=""font-size: 60px; font-family: BACS"">dMYBPTPOM</p>","","","","","","","","","",""
"html-keyboard-response","222","311407","0.0-12.0-0.52","616eb493bb7e4ab4fa1de8d4","650c16f0f2faf8d7a0d14c09","651c1dd7a70859f21f006961","null","null","<p style=""font-size: 60px; font-family: BACS"">aNYmbcYUv</p>","","","","","","","","","",""
"html-keyboard-response","223","312408","0.0-12.0-0.53","616eb493bb7e4ab4fa1de8d4","650c16f0f2faf8d7a0d14c09","651c1dd7a70859f21f006961","null","null","<p style=""font-size: 60px; font-family: BACS"">DRPkYRDM</p>","","","","","","","","","",""
"html-keyboard-response","224","313424","0.0-12.0-0.54","616eb493bb7e4ab4fa1de8d4","650c16f0f2faf8d7a0d14c09","651c1dd7a70859f21f006961","null","null","<p style=""font-size: 60px; font-family: BACS"">dMYBPdRA</p>","","","","","","","","","",""
"html-keyboard-response","225","314440","0.0-12.0-0.55","616eb493bb7e4ab4fa1de8d4","650c16f0f2faf8d7a0d14c09","651c1dd7a70859f21f006961","null","null","<p style=""font-size: 60px; font-family: BACS"">LdrbvcYUv</p>","","","","","","","","","",""
"html-keyboard-response","226","315448","0.0-12.0-0.56","616eb493bb7e4ab4fa1de8d4","650c16f0f2faf8d7a0d14c09","651c1dd7a70859f21f006961","null","null","<p style=""font-size: 60px; font-family: BACS"">DhCPdRA</p>","","","","","","","","","",""
"html-keyboard-response","227","316457","0.0-12.0-0.57","616eb493bb7e4ab4fa1de8d4","650c16f0f2faf8d7a0d14c09","651c1dd7a70859f21f006961","null","null","<p style=""font-size: 60px; font-family: BACS"">MBKRERDM</p>","","","","","","","","","",""
"html-keyboard-response","228","317473","0.0-12.0-0.58","616eb493bb7e4ab4fa1de8d4","650c16f0f2faf8d7a0d14c09","651c1dd7a70859f21f006961","null","null","<p style=""font-size: 60px; font-family: BACS"">DhCPCPMl</p>","","","","","","","","","",""
"html-keyboard-response","229","318490","0.0-12.0-0.59","616eb493bb7e4ab4fa1de8d4","650c16f0f2faf8d7a0d14c09","651c1dd7a70859f21f006961","null","null","<p style=""font-size: 60px; font-family: BACS"">chEDOTPOM</p>","","","","","","","","","",""
"html-keyboard-response","230","319506","0.0-12.0-0.60","616eb493bb7e4ab4fa1de8d4","650c16f0f2faf8d7a0d14c09","651c1dd7a70859f21f006961","null","null","<p style=""font-size: 60px; font-family: BACS"">Ldrbvdmkv</p>","","","","","","","","","",""
"html-keyboard-response","231","320522","0.0-12.0-0.61","616eb493bb7e4ab4fa1de8d4","650c16f0f2faf8d7a0d14c09","651c1dd7a70859f21f006961","null","null","<p style=""font-size: 60px; font-family: BACS"">hlbtbTPOM</p>","","","","","","","","","",""
"html-keyboard-response","232","321524","0.0-12.0-0.62","616eb493bb7e4ab4fa1de8d4","650c16f0f2faf8d7a0d14c09","651c1dd7a70859f21f006961","null","null","<p style=""font-size: 60px; font-family: BACS"">LdQvLkNc</p>","","","","","","","","","",""
"html-keyboard-response","233","322539","0.0-12.0-0.63","616eb493bb7e4ab4fa1de8d4","650c16f0f2faf8d7a0d14c09","651c1dd7a70859f21f006961","null","null","<p style=""font-size: 60px; font-family: BACS"">aNYmbcrdY</p>","","","","","","","","","",""
"html-keyboard-response","234","323556","0.0-12.0-0.64","616eb493bb7e4ab4fa1de8d4","650c16f0f2faf8d7a0d14c09","651c1dd7a70859f21f006961","null","null","<p style=""font-size: 60px; font-family: BACS"">GNAcaLkNc</p>","","","","","","","","","",""
"html-keyboard-response","235","324571","0.0-12.0-0.65","616eb493bb7e4ab4fa1de8d4","650c16f0f2faf8d7a0d14c09","651c1dd7a70859f21f006961","null","null","<p style=""font-size: 60px; font-family: BACS"">MBKREcMRl</p>","","","","","","","","","",""
"html-keyboard-response","236","325573","0.0-12.0-0.66","616eb493bb7e4ab4fa1de8d4","650c16f0f2faf8d7a0d14c09","651c1dd7a70859f21f006961","null","null","<p style=""font-size: 60px; font-family: BACS"">ctktRDM</p>","","","","","","","","","",""
"html-keyboard-response","237","326590","0.0-12.0-0.67","616eb493bb7e4ab4fa1de8d4","650c16f0f2faf8d7a0d14c09","651c1dd7a70859f21f006961","null","null","<p style=""font-size: 60px; font-family: BACS"">aNYmbLkNc</p>","","","","","","","","","",""
"html-keyboard-response","238","327604","0.0-12.0-0.68","616eb493bb7e4ab4fa1de8d4","650c16f0f2faf8d7a0d14c09","651c1dd7a70859f21f006961","null","null","<p style=""font-size: 60px; font-family: BACS"">mBYlTPOM</p>","","","","","","","","","",""
"html-keyboard-response","239","328606","0.0-12.0-0.69","616eb493bb7e4ab4fa1de8d4","650c16f0f2faf8d7a0d14c09","651c1dd7a70859f21f006961","null","null","<p style=""font-size: 60px; font-family: BACS"">LdQvcYUv</p>","","","","","","","","","",""
"html-keyboard-response","240","329621","0.0-12.0-0.70","616eb493bb7e4ab4fa1de8d4","650c16f0f2faf8d7a0d14c09","651c1dd7a70859f21f006961","null","null","<p style=""font-size: 60px; font-family: BACS"">lrZGAvdk</p>","","","","","","","","","",""
"html-keyboard-response","241","330625","0.0-12.0-0.71","616eb493bb7e4ab4fa1de8d4","650c16f0f2faf8d7a0d14c09","651c1dd7a70859f21f006961","null","null","<p style=""font-size: 60px; font-family: BACS"">ctktcMRl</p>","","","","","","","","","",""
"html-keyboard-response","242","331638","0.0-12.0-0.72","616eb493bb7e4ab4fa1de8d4","650c16f0f2faf8d7a0d14c09","651c1dd7a70859f21f006961","null","null","<p style=""font-size: 60px; font-family: BACS"">DRPkYCPMl</p>","","","","","","","","","",""
"html-keyboard-response","243","332653","0.0-12.0-0.73","616eb493bb7e4ab4fa1de8d4","650c16f0f2faf8d7a0d14c09","651c1dd7a70859f21f006961","null","null","<p style=""font-size: 60px; font-family: BACS"">aNYmbdmkv</p>","","","","","","","","","",""
"html-keyboard-response","244","333655","0.0-12.0-0.74","616eb493bb7e4ab4fa1de8d4","650c16f0f2faf8d7a0d14c09","651c1dd7a70859f21f006961","null","null","<p style=""font-size: 60px; font-family: BACS"">KAERMdRA</p>","","","","","","","","","",""
"html-keyboard-response","245","334669","0.0-12.0-0.75","616eb493bb7e4ab4fa1de8d4","650c16f0f2faf8d7a0d14c09","651c1dd7a70859f21f006961","null","null","<p style=""font-size: 60px; font-family: BACS"">NJZlcrdY</p>","","","","","","","","","",""
"html-keyboard-response","246","335671","0.0-12.0-0.76","616eb493bb7e4ab4fa1de8d4","650c16f0f2faf8d7a0d14c09","651c1dd7a70859f21f006961","null","null","<p style=""font-size: 60px; font-family: BACS"">GNAcaAvdk</p>","","","","","","","","","",""
"html-keyboard-response","247","336686","0.0-12.0-0.77","616eb493bb7e4ab4fa1de8d4","650c16f0f2faf8d7a0d14c09","651c1dd7a70859f21f006961","null","null","<p style=""font-size: 60px; font-family: BACS"">DhCPTPOM</p>","","","","","","","","","",""
"html-keyboard-response","248","337703","0.0-12.0-0.78","616eb493bb7e4ab4fa1de8d4","650c16f0f2faf8d7a0d14c09","651c1dd7a70859f21f006961","null","null","<p style=""font-size: 60px; font-family: BACS"">lrZGcYUv</p>","","","","","","","","","",""
"html-keyboard-response","249","338719","0.0-12.0-0.79","616eb493bb7e4ab4fa1de8d4","650c16f0f2faf8d7a0d14c09","651c1dd7a70859f21f006961","null","null","<p style=""font-size: 60px; font-family: BACS"">hlbtbRDM</p>","","","","","","","","","",""
"html-keyboard-response","250","348715","0.0-13.0","616eb493bb7e4ab4fa1de8d4","650c16f0f2faf8d7a0d14c09","651c1dd7a70859f21f006961","9994"," ","<p>Great, you've seen the third block of words. You may now take a short break.</p>
      <p>Press the spacebar when you're ready to continue.</p>","","","","","","","","","",""
"html-keyboard-response","251","349717","0.0-14.0-0.0","616eb493bb7e4ab4fa1de8d4","650c16f0f2faf8d7a0d14c09","651c1dd7a70859f21f006961","null","null","<p style=""font-size: 60px; font-family: BACS"">LdQvLkNc</p>","","","","","","","","","",""
"html-keyboard-response","252","350733","0.0-14.0-0.1","616eb493bb7e4ab4fa1de8d4","650c16f0f2faf8d7a0d14c09","651c1dd7a70859f21f006961","null","null","<p style=""font-size: 60px; font-family: BACS"">dMYBPRDM</p>","","","","","","","","","",""
"html-keyboard-response","253","351749","0.0-14.0-0.2","616eb493bb7e4ab4fa1de8d4","650c16f0f2faf8d7a0d14c09","651c1dd7a70859f21f006961","null","null","<p style=""font-size: 60px; font-family: BACS"">rbYbucYUv</p>","","","","","","","","","",""
"html-keyboard-response","254","352753","0.0-14.0-0.3","616eb493bb7e4ab4fa1de8d4","650c16f0f2faf8d7a0d14c09","651c1dd7a70859f21f006961","null","null","<p style=""font-size: 60px; font-family: BACS"">NJZlcrdY</p>","","","","","","","","","",""
"html-keyboard-response","255","353765","0.0-14.0-0.4","616eb493bb7e4ab4fa1de8d4","650c16f0f2faf8d7a0d14c09","651c1dd7a70859f21f006961","null","null","<p style=""font-size: 60px; font-family: BACS"">hbmATPOM</p>","","","","","","","","","",""
"html-keyboard-response","256","354781","0.0-14.0-0.5","616eb493bb7e4ab4fa1de8d4","650c16f0f2faf8d7a0d14c09","651c1dd7a70859f21f006961","null","null","<p style=""font-size: 60px; font-family: BACS"">LdrbvAvdk</p>","","","","","","","","","",""
"html-keyboard-response","257","355782","0.0-14.0-0.6","616eb493bb7e4ab4fa1de8d4","650c16f0f2faf8d7a0d14c09","651c1dd7a70859f21f006961","null","null","<p style=""font-size: 60px; font-family: BACS"">vclYcrdY</p>","","","","","","","","","",""
"html-keyboard-response","258","356799","0.0-14.0-0.7","616eb493bb7e4ab4fa1de8d4","650c16f0f2faf8d7a0d14c09","651c1dd7a70859f21f006961","null","null","<p style=""font-size: 60px; font-family: BACS"">dMYBPTPOM</p>","","","","","","","","","",""
"html-keyboard-response","259","357814","0.0-14.0-0.8","616eb493bb7e4ab4fa1de8d4","650c16f0f2faf8d7a0d14c09","651c1dd7a70859f21f006961","null","null","<p style=""font-size: 60px; font-family: BACS"">LdQvdmkv</p>","","","","","","","","","",""
"html-keyboard-response","260","358830","0.0-14.0-0.9","616eb493bb7e4ab4fa1de8d4","650c16f0f2faf8d7a0d14c09","651c1dd7a70859f21f006961","null","null","<p style=""font-size: 60px; font-family: BACS"">AlQaQcrdY</p>","","","","","","","","","",""
"html-keyboard-response","261","359847","0.0-14.0-0.10","616eb493bb7e4ab4fa1de8d4","650c16f0f2faf8d7a0d14c09","651c1dd7a70859f21f006961","null","null","<p style=""font-size: 60px; font-family: BACS"">Ldrbvdmkv</p>","","","","","","","","","",""
"html-keyboard-response","262","360864","0.0-14.0-0.11","616eb493bb7e4ab4fa1de8d4","650c16f0f2faf8d7a0d14c09","651c1dd7a70859f21f006961","null","null","<p style=""font-size: 60px; font-family: BACS"">MBKRETPOM</p>","","","","","","","","","",""
"html-keyboard-response","263","361865","0.0-14.0-0.12","616eb493bb7e4ab4fa1de8d4","650c16f0f2faf8d7a0d14c09","651c1dd7a70859f21f006961","null","null","<p style=""font-size: 60px; font-family: BACS"">DRPkYdRA</p>","","","","","","","","","",""
"html-keyboard-response","264","362880","0.0-14.0-0.13","616eb493bb7e4ab4fa1de8d4","650c16f0f2faf8d7a0d14c09","651c1dd7a70859f21f006961","null","null","<p style=""font-size: 60px; font-family: BACS"">hbmAcMRl</p>","","","","","","","","","",""
"html-keyboard-response","265","363882","0.0-14.0-0.14","616eb493bb7e4ab4fa1de8d4","650c16f0f2faf8d7a0d14c09","651c1dd7a70859f21f006961","null","null","<p style=""font-size: 60px; font-family: BACS"">chEDOCPMl</p>","","","","","","","","","",""
"html-keyboard-response","266","364895","0.0-14.0-0.15","616eb493bb7e4ab4fa1de8d4","650c16f0f2faf8d7a0d14c09","651c1dd7a70859f21f006961","null","null","<p style=""font-size: 60px; font-family: BACS"">rbYbudmkv</p>","","","","","","","","","",""
"html-keyboard-response","267","365913","0.0-14.0-0.16","616eb493bb7e4ab4fa1de8d4","650c16f0f2faf8d7a0d14c09","651c1dd7a70859f21f006961","null","null","<p style=""font-size: 60px; font-family: BACS"">lrZGAvdk</p>","","","","","","","","","",""
"html-keyboard-response","268","366929","0.0-14.0-0.17","616eb493bb7e4ab4fa1de8d4","650c16f0f2faf8d7a0d14c09","651c1dd7a70859f21f006961","null","null","<p style=""font-size: 60px; font-family: BACS"">MBKREcMRl</p>","","","","","","","","","",""
"html-keyboard-response","269","367930","0.0-14.0-0.18","616eb493bb7e4ab4fa1de8d4","650c16f0f2faf8d7a0d14c09","651c1dd7a70859f21f006961","null","null","<p style=""font-size: 60px; font-family: BACS"">muYNcrdY</p>","","","","","","","","","",""
"html-keyboard-response","270","368945","0.0-14.0-0.19","616eb493bb7e4ab4fa1de8d4","650c16f0f2faf8d7a0d14c09","651c1dd7a70859f21f006961","null","null","<p style=""font-size: 60px; font-family: BACS"">chEDORDM</p>","","","","","","","","","",""
"html-keyboard-response","271","369961","0.0-14.0-0.20","616eb493bb7e4ab4fa1de8d4","650c16f0f2faf8d7a0d14c09","651c1dd7a70859f21f006961","null","null","<p style=""font-size: 60px; font-family: BACS"">aNYmbcYUv</p>","","","","","","","","","",""
"html-keyboard-response","272","370963","0.0-14.0-0.21","616eb493bb7e4ab4fa1de8d4","650c16f0f2faf8d7a0d14c09","651c1dd7a70859f21f006961","null","null","<p style=""font-size: 60px; font-family: BACS"">DhCPdRA</p>","","","","","","","","","",""
"html-keyboard-response","273","371978","0.0-14.0-0.22","616eb493bb7e4ab4fa1de8d4","650c16f0f2faf8d7a0d14c09","651c1dd7a70859f21f006961","null","null","<p style=""font-size: 60px; font-family: BACS"">lrZGdmkv</p>","","","","","","","","","",""
"html-keyboard-response","274","372994","0.0-14.0-0.23","616eb493bb7e4ab4fa1de8d4","650c16f0f2faf8d7a0d14c09","651c1dd7a70859f21f006961","null","null","<p style=""font-size: 60px; font-family: BACS"">ctktCPMl</p>","","","","","","","","","",""
"html-keyboard-response","275","373996","0.0-14.0-0.24","616eb493bb7e4ab4fa1de8d4","650c16f0f2faf8d7a0d14c09","651c1dd7a70859f21f006961","null","null","<p style=""font-size: 60px; font-family: BACS"">DRPkYRDM</p>","","","","","","","","","",""
"html-keyboard-response","276","375010","0.0-14.0-0.25","616eb493bb7e4ab4fa1de8d4","650c16f0f2faf8d7a0d14c09","651c1dd7a70859f21f006961","null","null","<p style=""font-size: 60px; font-family: BACS"">KAERMcMRl</p>","","","","","","","","","",""
"html-keyboard-response","277","376026","0.0-14.0-0.26","616eb493bb7e4ab4fa1de8d4","650c16f0f2faf8d7a0d14c09","651c1dd7a70859f21f006961","null","null","<p style=""font-size: 60px; font-family: BACS"">dMYBPdRA</p>","","","","","","","","","",""
"html-keyboard-response","278","377027","0.0-14.0-0.27","616eb493bb7e4ab4fa1de8d4","650c16f0f2faf8d7a0d14c09","651c1dd7a70859f21f006961","null","null","<p style=""font-size: 60px; font-family: BACS"">lrZGcYUv</p>","","","","","","","","","",""
"html-keyboard-response","279","378043","0.0-14.0-0.28","616eb493bb7e4ab4fa1de8d4","650c16f0f2faf8d7a0d14c09","651c1dd7a70859f21f006961","null","null","<p style=""font-size: 60px; font-family: BACS"">DhCPRDM</p>","","","","","","","","","",""
"html-keyboard-response","280","379059","0.0-14.0-0.29","616eb493bb7e4ab4fa1de8d4","650c16f0f2faf8d7a0d14c09","651c1dd7a70859f21f006961","null","null","<p style=""font-size: 60px; font-family: BACS"">AlQaQcYUv</p>","","","","","","","","","",""
"html-keyboard-response","281","380076","0.0-14.0-0.30","616eb493bb7e4ab4fa1de8d4","650c16f0f2faf8d7a0d14c09","651c1dd7a70859f21f006961","null","null","<p style=""font-size: 60px; font-family: BACS"">LdQvAvdk</p>","","","","","","","","","",""
"html-keyboard-response","282","381083","0.0-14.0-0.31","616eb493bb7e4ab4fa1de8d4","650c16f0f2faf8d7a0d14c09","651c1dd7a70859f21f006961","null","null","<p style=""font-size: 60px; font-family: BACS"">hbmAdRA</p>","","","","","","","","","",""
"html-keyboard-response","283","382093","0.0-14.0-0.32","616eb493bb7e4ab4fa1de8d4","650c16f0f2faf8d7a0d14c09","651c1dd7a70859f21f006961","null","null","<p style=""font-size: 60px; font-family: BACS"">MBKRERDM</p>","","","","","","","","","",""
"html-keyboard-response","284","383095","0.0-14.0-0.33","616eb493bb7e4ab4fa1de8d4","650c16f0f2faf8d7a0d14c09","651c1dd7a70859f21f006961","null","null","<p style=""font-size: 60px; font-family: BACS"">ctktcMRl</p>","","","","","","","","","",""
"html-keyboard-response","285","384109","0.0-14.0-0.34","616eb493bb7e4ab4fa1de8d4","650c16f0f2faf8d7a0d14c09","651c1dd7a70859f21f006961","null","null","<p style=""font-size: 60px; font-family: BACS"">DhCPTPOM</p>","","","","","","","","","",""
"html-keyboard-response","286","385125","0.0-14.0-0.35","616eb493bb7e4ab4fa1de8d4","650c16f0f2faf8d7a0d14c09","651c1dd7a70859f21f006961","null","null","<p style=""font-size: 60px; font-family: BACS"">AlQaQLkNc</p>","","","","","","","","","",""
"html-keyboard-response","287","386142","0.0-14.0-0.36","616eb493bb7e4ab4fa1de8d4","650c16f0f2faf8d7a0d14c09","651c1dd7a70859f21f006961","null","null","<p style=""font-size: 60px; font-family: BACS"">hlbtbCPMl</p>","","","","","","","","","",""
"html-keyboard-response","288","387158","0.0-14.0-0.37","616eb493bb7e4ab4fa1de8d4","650c16f0f2faf8d7a0d14c09","651c1dd7a70859f21f006961","null","null","<p style=""font-size: 60px; font-family: BACS"">LdQvcYUv</p>","","","","","","","","","",""
"html-keyboard-response","289","388163","0.0-14.0-0.38","616eb493bb7e4ab4fa1de8d4","650c16f0f2faf8d7a0d14c09","651c1dd7a70859f21f006961","null","null","<p style=""font-size: 60px; font-family: BACS"">GNAcaAvdk</p>","","","","","","","","","",""
"html-keyboard-response","290","389174","0.0-14.0-0.39","616eb493bb7e4ab4fa1de8d4","650c16f0f2faf8d7a0d14c09","651c1dd7a70859f21f006961","null","null","<p style=""font-size: 60px; font-family: BACS"">hlbtbTPOM</p>","","","","","","","","","",""
"html-keyboard-response","291","390191","0.0-14.0-0.40","616eb493bb7e4ab4fa1de8d4","650c16f0f2faf8d7a0d14c09","651c1dd7a70859f21f006961","null","null","<p style=""font-size: 60px; font-family: BACS"">hbmACPMl</p>","","","","","","","","","",""
"html-keyboard-response","292","391207","0.0-14.0-0.41","616eb493bb7e4ab4fa1de8d4","650c16f0f2faf8d7a0d14c09","651c1dd7a70859f21f006961","null","null","<p style=""font-size: 60px; font-family: BACS"">chEDOTPOM</p>","","","","","","","","","",""
"html-keyboard-response","293","392222","0.0-14.0-0.42","616eb493bb7e4ab4fa1de8d4","650c16f0f2faf8d7a0d14c09","651c1dd7a70859f21f006961","null","null","<p style=""font-size: 60px; font-family: BACS"">vclYAvdk</p>","","","","","","","","","",""
"html-keyboard-response","294","393224","0.0-14.0-0.43","616eb493bb7e4ab4fa1de8d4","650c16f0f2faf8d7a0d14c09","651c1dd7a70859f21f006961","null","null","<p style=""font-size: 60px; font-family: BACS"">DhCPCPMl</p>","","","","","","","","","",""
"html-keyboard-response","295","394241","0.0-14.0-0.44","616eb493bb7e4ab4fa1de8d4","650c16f0f2faf8d7a0d14c09","651c1dd7a70859f21f006961","null","null","<p style=""font-size: 60px; font-family: BACS"">hlbtbdRA</p>","","","","","","","","","",""
"html-keyboard-response","296","395256","0.0-14.0-0.45","616eb493bb7e4ab4fa1de8d4","650c16f0f2faf8d7a0d14c09","651c1dd7a70859f21f006961","null","null","<p style=""font-size: 60px; font-family: BACS"">dMYBPcMRl</p>","","","","","","","","","",""
"html-keyboard-response","297","396257","0.0-14.0-0.46","616eb493bb7e4ab4fa1de8d4","650c16f0f2faf8d7a0d14c09","651c1dd7a70859f21f006961","null","null","<p style=""font-size: 60px; font-family: BACS"">aNYmbdmkv</p>","","","","","","","","","",""
"html-keyboard-response","298","397272","0.0-14.0-0.47","616eb493bb7e4ab4fa1de8d4","650c16f0f2faf8d7a0d14c09","651c1dd7a70859f21f006961","null","null","<p style=""font-size: 60px; font-family: BACS"">NJZlLkNc</p>","","","","","","","","","",""
"html-keyboard-response","299","398288","0.0-14.0-0.48","616eb493bb7e4ab4fa1de8d4","650c16f0f2faf8d7a0d14c09","651c1dd7a70859f21f006961","null","null","<p style=""font-size: 60px; font-family: BACS"">KAERMTPOM</p>","","","","","","","","","",""
"html-keyboard-response","300","399305","0.0-14.0-0.49","616eb493bb7e4ab4fa1de8d4","650c16f0f2faf8d7a0d14c09","651c1dd7a70859f21f006961","null","null","<p style=""font-size: 60px; font-family: BACS"">mBYlcMRl</p>","","","","","","","","","",""
"html-keyboard-response","301","400307","0.0-14.0-0.50","616eb493bb7e4ab4fa1de8d4","650c16f0f2faf8d7a0d14c09","651c1dd7a70859f21f006961","null","null","<p style=""font-size: 60px; font-family: BACS"">GNAcacYUv</p>","","","","","","","","","",""
"html-keyboard-response","302","401321","0.0-14.0-0.51","616eb493bb7e4ab4fa1de8d4","650c16f0f2faf8d7a0d14c09","651c1dd7a70859f21f006961","null","null","<p style=""font-size: 60px; font-family: BACS"">NJZldmkv</p>","","","","","","","","","",""
"html-keyboard-response","303","402323","0.0-14.0-0.52","616eb493bb7e4ab4fa1de8d4","650c16f0f2faf8d7a0d14c09","651c1dd7a70859f21f006961","null","null","<p style=""font-size: 60px; font-family: BACS"">muYNLkNc</p>","","","","","","","","","",""
"html-keyboard-response","304","403337","0.0-14.0-0.53","616eb493bb7e4ab4fa1de8d4","650c16f0f2faf8d7a0d14c09","651c1dd7a70859f21f006961","null","null","<p style=""font-size: 60px; font-family: BACS"">chEDOcMRl</p>","","","","","","","","","",""
"html-keyboard-response","305","404354","0.0-14.0-0.54","616eb493bb7e4ab4fa1de8d4","650c16f0f2faf8d7a0d14c09","651c1dd7a70859f21f006961","null","null","<p style=""font-size: 60px; font-family: BACS"">muYNAvdk</p>","","","","","","","","","",""
"html-keyboard-response","306","405356","0.0-14.0-0.55","616eb493bb7e4ab4fa1de8d4","650c16f0f2faf8d7a0d14c09","651c1dd7a70859f21f006961","null","null","<p style=""font-size: 60px; font-family: BACS"">vclYdmkv</p>","","","","","","","","","",""
"html-keyboard-response","307","406371","0.0-14.0-0.56","616eb493bb7e4ab4fa1de8d4","650c16f0f2faf8d7a0d14c09","651c1dd7a70859f21f006961","null","null","<p style=""font-size: 60px; font-family: BACS"">rbYbucrdY</p>","","","","","","","","","",""
"html-keyboard-response","308","407386","0.0-14.0-0.57","616eb493bb7e4ab4fa1de8d4","650c16f0f2faf8d7a0d14c09","651c1dd7a70859f21f006961","null","null","<p style=""font-size: 60px; font-family: BACS"">GNAcaLkNc</p>","","","","","","","","","",""
"html-keyboard-response","309","408388","0.0-14.0-0.58","616eb493bb7e4ab4fa1de8d4","650c16f0f2faf8d7a0d14c09","651c1dd7a70859f21f006961","null","null","<p style=""font-size: 60px; font-family: BACS"">KAERMRDM</p>","","","","","","","","","",""
"html-keyboard-response","310","409403","0.0-14.0-0.59","616eb493bb7e4ab4fa1de8d4","650c16f0f2faf8d7a0d14c09","651c1dd7a70859f21f006961","null","null","<p style=""font-size: 60px; font-family: BACS"">GNAcacrdY</p>","","","","","","","","","",""
"html-keyboard-response","311","410419","0.0-14.0-0.60","616eb493bb7e4ab4fa1de8d4","650c16f0f2faf8d7a0d14c09","651c1dd7a70859f21f006961","null","null","<p style=""font-size: 60px; font-family: BACS"">vclYLkNc</p>","","","","","","","","","",""
"html-keyboard-response","312","411436","0.0-14.0-0.61","616eb493bb7e4ab4fa1de8d4","650c16f0f2faf8d7a0d14c09","651c1dd7a70859f21f006961","null","null","<p style=""font-size: 60px; font-family: BACS"">ctktRDM</p>","","","","","","","","","",""
"html-keyboard-response","313","412452","0.0-14.0-0.62","616eb493bb7e4ab4fa1de8d4","650c16f0f2faf8d7a0d14c09","651c1dd7a70859f21f006961","null","null","<p style=""font-size: 60px; font-family: BACS"">mBYldRA</p>","","","","","","","","","",""
"html-keyboard-response","314","413469","0.0-14.0-0.63","616eb493bb7e4ab4fa1de8d4","650c16f0f2faf8d7a0d14c09","651c1dd7a70859f21f006961","null","null","<p style=""font-size: 60px; font-family: BACS"">lrZGLkNc</p>","","","","","","","","","",""
"html-keyboard-response","315","414485","0.0-14.0-0.64","616eb493bb7e4ab4fa1de8d4","650c16f0f2faf8d7a0d14c09","651c1dd7a70859f21f006961","null","null","<p style=""font-size: 60px; font-family: BACS"">mBYlCPMl</p>","","","","","","","","","",""
"html-keyboard-response","316","415502","0.0-14.0-0.65","616eb493bb7e4ab4fa1de8d4","650c16f0f2faf8d7a0d14c09","651c1dd7a70859f21f006961","null","null","<p style=""font-size: 60px; font-family: BACS"">DRPkYcMRl</p>","","","","","","","","","",""
"html-keyboard-response","317","416517","0.0-14.0-0.66","616eb493bb7e4ab4fa1de8d4","650c16f0f2faf8d7a0d14c09","651c1dd7a70859f21f006961","null","null","<p style=""font-size: 60px; font-family: BACS"">hlbtbRDM</p>","","","","","","","","","",""
"html-keyboard-response","318","417519","0.0-14.0-0.67","616eb493bb7e4ab4fa1de8d4","650c16f0f2faf8d7a0d14c09","651c1dd7a70859f21f006961","null","null","<p style=""font-size: 60px; font-family: BACS"">KAERMdRA</p>","","","","","","","","","",""
"html-keyboard-response","319","418533","0.0-14.0-0.68","616eb493bb7e4ab4fa1de8d4","650c16f0f2faf8d7a0d14c09","651c1dd7a70859f21f006961","null","null","<p style=""font-size: 60px; font-family: BACS"">aNYmbLkNc</p>","","","","","","","","","",""
"html-keyboard-response","320","419536","0.0-14.0-0.69","616eb493bb7e4ab4fa1de8d4","650c16f0f2faf8d7a0d14c09","651c1dd7a70859f21f006961","null","null","<p style=""font-size: 60px; font-family: BACS"">NJZlAvdk</p>","","","","","","","","","",""
"html-keyboard-response","321","420551","0.0-14.0-0.70","616eb493bb7e4ab4fa1de8d4","650c16f0f2faf8d7a0d14c09","651c1dd7a70859f21f006961","null","null","<p style=""font-size: 60px; font-family: BACS"">LdrbvcrdY</p>","","","","","","","","","",""
"html-keyboard-response","322","421566","0.0-14.0-0.71","616eb493bb7e4ab4fa1de8d4","650c16f0f2faf8d7a0d14c09","651c1dd7a70859f21f006961","null","null","<p style=""font-size: 60px; font-family: BACS"">AlQaQdmkv</p>","","","","","","","","","",""
"html-keyboard-response","323","422583","0.0-14.0-0.72","616eb493bb7e4ab4fa1de8d4","650c16f0f2faf8d7a0d14c09","651c1dd7a70859f21f006961","null","null","<p style=""font-size: 60px; font-family: BACS"">MBKRECPMl</p>","","","","","","","","","",""
"html-keyboard-response","324","423600","0.0-14.0-0.73","616eb493bb7e4ab4fa1de8d4","650c16f0f2faf8d7a0d14c09","651c1dd7a70859f21f006961","null","null","<p style=""font-size: 60px; font-family: BACS"">LdrbvcYUv</p>","","","","","","","","","",""
"html-keyboard-response","325","424616","0.0-14.0-0.74","616eb493bb7e4ab4fa1de8d4","650c16f0f2faf8d7a0d14c09","651c1dd7a70859f21f006961","null","null","<p style=""font-size: 60px; font-family: BACS"">mBYlTPOM</p>","","","","","","","","","",""
"html-keyboard-response","326","425618","0.0-14.0-0.75","616eb493bb7e4ab4fa1de8d4","650c16f0f2faf8d7a0d14c09","651c1dd7a70859f21f006961","null","null","<p style=""font-size: 60px; font-family: BACS"">muYNcYUv</p>","","","","","","","","","",""
"html-keyboard-response","327","426633","0.0-14.0-0.76","616eb493bb7e4ab4fa1de8d4","650c16f0f2faf8d7a0d14c09","651c1dd7a70859f21f006961","null","null","<p style=""font-size: 60px; font-family: BACS"">rbYbuAvdk</p>","","","","","","","","","",""
"html-keyboard-response","328","427649","0.0-14.0-0.77","616eb493bb7e4ab4fa1de8d4","650c16f0f2faf8d7a0d14c09","651c1dd7a70859f21f006961","null","null","<p style=""font-size: 60px; font-family: BACS"">ctktdRA</p>","","","","","","","","","",""
"html-keyboard-response","329","428666","0.0-14.0-0.78","616eb493bb7e4ab4fa1de8d4","650c16f0f2faf8d7a0d14c09","651c1dd7a70859f21f006961","null","null","<p style=""font-size: 60px; font-family: BACS"">DRPkYCPMl</p>","","","","","","","","","",""
"html-keyboard-response","330","429681","0.0-14.0-0.79","616eb493bb7e4ab4fa1de8d4","650c16f0f2faf8d7a0d14c09","651c1dd7a70859f21f006961","null","null","<p style=""font-size: 60px; font-family: BACS"">aNYmbcrdY</p>","","","","","","","","","",""
"html-keyboard-response","331","438792","0.0-15.0","616eb493bb7e4ab4fa1de8d4","650c16f0f2faf8d7a0d14c09","651c1dd7a70859f21f006961","9110"," ","<p>Great, you've seen the fourth block of words. You may now take a short break.</p>
      <p>Press the spacebar when you're ready to continue.</p>","","","","","","","","","",""
"html-keyboard-response","332","439801","0.0-16.0-0.0","616eb493bb7e4ab4fa1de8d4","650c16f0f2faf8d7a0d14c09","651c1dd7a70859f21f006961","null","null","<p style=""font-size: 60px; font-family: BACS"">DhCPdRA</p>","","","","","","","","","",""
"html-keyboard-response","333","440815","0.0-16.0-0.1","616eb493bb7e4ab4fa1de8d4","650c16f0f2faf8d7a0d14c09","651c1dd7a70859f21f006961","null","null","<p style=""font-size: 60px; font-family: BACS"">DhCPdRA</p>","","","","","","","","","",""
"html-keyboard-response","334","441829","0.0-16.0-0.2","616eb493bb7e4ab4fa1de8d4","650c16f0f2faf8d7a0d14c09","651c1dd7a70859f21f006961","null","null","<p style=""font-size: 60px; font-family: BACS"">DhCPdRA</p>","","","","","","","","","",""
"html-keyboard-response","335","442846","0.0-16.0-0.3","616eb493bb7e4ab4fa1de8d4","650c16f0f2faf8d7a0d14c09","651c1dd7a70859f21f006961","null","null","<p style=""font-size: 60px; font-family: BACS"">DhCPdRA</p>","","","","","","","","","",""
"html-keyboard-response","336","443862","0.0-16.0-0.4","616eb493bb7e4ab4fa1de8d4","650c16f0f2faf8d7a0d14c09","651c1dd7a70859f21f006961","null","null","<p style=""font-size: 60px; font-family: BACS"">DhCPdRA</p>","","","","","","","","","",""
"html-keyboard-response","337","444864","0.0-16.0-0.5","616eb493bb7e4ab4fa1de8d4","650c16f0f2faf8d7a0d14c09","651c1dd7a70859f21f006961","null","null","<p style=""font-size: 60px; font-family: BACS"">DhCPdRA</p>","","","","","","","","","",""
"html-keyboard-response","338","445878","0.0-16.0-0.6","616eb493bb7e4ab4fa1de8d4","650c16f0f2faf8d7a0d14c09","651c1dd7a70859f21f006961","null","null","<p style=""font-size: 60px; font-family: BACS"">DhCPdRA</p>","","","","","","","","","",""
"html-keyboard-response","339","446893","0.0-16.0-0.7","616eb493bb7e4ab4fa1de8d4","650c16f0f2faf8d7a0d14c09","651c1dd7a70859f21f006961","null","null","<p style=""font-size: 60px; font-family: BACS"">DhCPdRA</p>","","","","","","","","","",""
"html-keyboard-response","340","447895","0.0-16.0-0.8","616eb493bb7e4ab4fa1de8d4","650c16f0f2faf8d7a0d14c09","651c1dd7a70859f21f006961","null","null","<p style=""font-size: 60px; font-family: BACS"">DhCPdRA</p>","","","","","","","","","",""
"html-keyboard-response","341","448911","0.0-16.0-0.9","616eb493bb7e4ab4fa1de8d4","650c16f0f2faf8d7a0d14c09","651c1dd7a70859f21f006961","null","null","<p style=""font-size: 60px; font-family: BACS"">DhCPdRA</p>","","","","","","","","","",""
"html-keyboard-response","342","449927","0.0-16.0-0.10","616eb493bb7e4ab4fa1de8d4","650c16f0f2faf8d7a0d14c09","651c1dd7a70859f21f006961","null","null","<p style=""font-size: 60px; font-family: BACS"">DhCPdRA</p>","","","","","","","","","",""
"html-keyboard-response","343","450943","0.0-16.0-0.11","616eb493bb7e4ab4fa1de8d4","650c16f0f2faf8d7a0d14c09","651c1dd7a70859f21f006961","null","null","<p style=""font-size: 60px; font-family: BACS"">DhCPdRA</p>","","","","","","","","","",""
"html-keyboard-response","344","451945","0.0-16.0-0.12","616eb493bb7e4ab4fa1de8d4","650c16f0f2faf8d7a0d14c09","651c1dd7a70859f21f006961","null","null","<p style=""font-size: 60px; font-family: BACS"">DhCPdRA</p>","","","","","","","","","",""
"html-keyboard-response","345","452959","0.0-16.0-0.13","616eb493bb7e4ab4fa1de8d4","650c16f0f2faf8d7a0d14c09","651c1dd7a70859f21f006961","null","null","<p style=""font-size: 60px; font-family: BACS"">DhCPdRA</p>","","","","","","","","","",""
"html-keyboard-response","346","453976","0.0-16.0-0.14","616eb493bb7e4ab4fa1de8d4","650c16f0f2faf8d7a0d14c09","651c1dd7a70859f21f006961","null","null","<p style=""font-size: 60px; font-family: BACS"">DhCPdRA</p>","","","","","","","","","",""
"html-keyboard-response","347","454977","0.0-16.0-0.15","616eb493bb7e4ab4fa1de8d4","650c16f0f2faf8d7a0d14c09","651c1dd7a70859f21f006961","null","null","<p style=""font-size: 60px; font-family: BACS"">DhCPdRA</p>","","","","","","","","","",""
"html-keyboard-response","348","455993","0.0-16.0-0.16","616eb493bb7e4ab4fa1de8d4","650c16f0f2faf8d7a0d14c09","651c1dd7a70859f21f006961","null","null","<p style=""font-size: 60px; font-family: BACS"">DhCPdRA</p>","","","","","","","","","",""
"html-keyboard-response","349","457008","0.0-16.0-0.17","616eb493bb7e4ab4fa1de8d4","650c16f0f2faf8d7a0d14c09","651c1dd7a70859f21f006961","null","null","<p style=""font-size: 60px; font-family: BACS"">DhCPdRA</p>","","","","","","","","","",""
"html-keyboard-response","350","458025","0.0-16.0-0.18","616eb493bb7e4ab4fa1de8d4","650c16f0f2faf8d7a0d14c09","651c1dd7a70859f21f006961","null","null","<p style=""font-size: 60px; font-family: BACS"">DhCPdRA</p>","","","","","","","","","",""
"html-keyboard-response","351","459026","0.0-16.0-0.19","616eb493bb7e4ab4fa1de8d4","650c16f0f2faf8d7a0d14c09","651c1dd7a70859f21f006961","null","null","<p style=""font-size: 60px; font-family: BACS"">DhCPdRA</p>","","","","","","","","","",""
"html-keyboard-response","352","460041","0.0-16.0-0.20","616eb493bb7e4ab4fa1de8d4","650c16f0f2faf8d7a0d14c09","651c1dd7a70859f21f006961","null","null","<p style=""font-size: 60px; font-family: BACS"">DhCPdRA</p>","","","","","","","","","",""
"html-keyboard-response","353","461042","0.0-16.0-0.21","616eb493bb7e4ab4fa1de8d4","650c16f0f2faf8d7a0d14c09","651c1dd7a70859f21f006961","null","null","<p style=""font-size: 60px; font-family: BACS"">DhCPdRA</p>","","","","","","","","","",""
"html-keyboard-response","354","462056","0.0-16.0-0.22","616eb493bb7e4ab4fa1de8d4","650c16f0f2faf8d7a0d14c09","651c1dd7a70859f21f006961","null","null","<p style=""font-size: 60px; font-family: BACS"">DhCPdRA</p>","","","","","","","","","",""
"html-keyboard-response","355","463060","0.0-16.0-0.23","616eb493bb7e4ab4fa1de8d4","650c16f0f2faf8d7a0d14c09","651c1dd7a70859f21f006961","null","null","<p style=""font-size: 60px; font-family: BACS"">DhCPdRA</p>","","","","","","","","","",""
"html-keyboard-response","356","464073","0.0-16.0-0.24","616eb493bb7e4ab4fa1de8d4","650c16f0f2faf8d7a0d14c09","651c1dd7a70859f21f006961","null","null","<p style=""font-size: 60px; font-family: BACS"">DhCPdRA</p>","","","","","","","","","",""
"html-keyboard-response","357","465076","0.0-16.0-0.25","616eb493bb7e4ab4fa1de8d4","650c16f0f2faf8d7a0d14c09","651c1dd7a70859f21f006961","null","null","<p style=""font-size: 60px; font-family: BACS"">DhCPdRA</p>","","","","","","","","","",""
"html-keyboard-response","358","466091","0.0-16.0-0.26","616eb493bb7e4ab4fa1de8d4","650c16f0f2faf8d7a0d14c09","651c1dd7a70859f21f006961","null","null","<p style=""font-size: 60px; font-family: BACS"">DhCPdRA</p>","","","","","","","","","",""
"html-keyboard-response","359","467106","0.0-16.0-0.27","616eb493bb7e4ab4fa1de8d4","650c16f0f2faf8d7a0d14c09","651c1dd7a70859f21f006961","null","null","<p style=""font-size: 60px; font-family: BACS"">DhCPdRA</p>","","","","","","","","","",""
"html-keyboard-response","360","468108","0.0-16.0-0.28","616eb493bb7e4ab4fa1de8d4","650c16f0f2faf8d7a0d14c09","651c1dd7a70859f21f006961","null","null","<p style=""font-size: 60px; font-family: BACS"">DhCPdRA</p>","","","","","","","","","",""
"html-keyboard-response","361","469123","0.0-16.0-0.29","616eb493bb7e4ab4fa1de8d4","650c16f0f2faf8d7a0d14c09","651c1dd7a70859f21f006961","null","null","<p style=""font-size: 60px; font-family: BACS"">DhCPdRA</p>","","","","","","","","","",""
"html-keyboard-response","362","470140","0.0-16.0-0.30","616eb493bb7e4ab4fa1de8d4","650c16f0f2faf8d7a0d14c09","651c1dd7a70859f21f006961","null","null","<p style=""font-size: 60px; font-family: BACS"">DhCPdRA</p>","","","","","","","","","",""
"html-keyboard-response","363","471156","0.0-16.0-0.31","616eb493bb7e4ab4fa1de8d4","650c16f0f2faf8d7a0d14c09","651c1dd7a70859f21f006961","null","null","<p style=""font-size: 60px; font-family: BACS"">DhCPdRA</p>","","","","","","","","","",""
"html-keyboard-response","364","472157","0.0-16.0-0.32","616eb493bb7e4ab4fa1de8d4","650c16f0f2faf8d7a0d14c09","651c1dd7a70859f21f006961","null","null","<p style=""font-size: 60px; font-family: BACS"">DhCPdRA</p>","","","","","","","","","",""
"html-keyboard-response","365","473172","0.0-16.0-0.33","616eb493bb7e4ab4fa1de8d4","650c16f0f2faf8d7a0d14c09","651c1dd7a70859f21f006961","null","null","<p style=""font-size: 60px; font-family: BACS"">DhCPdRA</p>","","","","","","","","","",""
"html-keyboard-response","366","474188","0.0-16.0-0.34","616eb493bb7e4ab4fa1de8d4","650c16f0f2faf8d7a0d14c09","651c1dd7a70859f21f006961","null","null","<p style=""font-size: 60px; font-family: BACS"">DhCPdRA</p>","","","","","","","","","",""
"html-keyboard-response","367","475204","0.0-16.0-0.35","616eb493bb7e4ab4fa1de8d4","650c16f0f2faf8d7a0d14c09","651c1dd7a70859f21f006961","null","null","<p style=""font-size: 60px; font-family: BACS"">DhCPdRA</p>","","","","","","","","","",""
"html-keyboard-response","368","476221","0.0-16.0-0.36","616eb493bb7e4ab4fa1de8d4","650c16f0f2faf8d7a0d14c09","651c1dd7a70859f21f006961","null","null","<p style=""font-size: 60px; font-family: BACS"">DhCPdRA</p>","","","","","","","","","",""
"html-keyboard-response","369","477226","0.0-16.0-0.37","616eb493bb7e4ab4fa1de8d4","650c16f0f2faf8d7a0d14c09","651c1dd7a70859f21f006961","null","null","<p style=""font-size: 60px; font-family: BACS"">DhCPdRA</p>","","","","","","","","","",""
"html-keyboard-response","370","478237","0.0-16.0-0.38","616eb493bb7e4ab4fa1de8d4","650c16f0f2faf8d7a0d14c09","651c1dd7a70859f21f006961","null","null","<p style=""font-size: 60px; font-family: BACS"">DhCPdRA</p>","","","","","","","","","",""
"html-keyboard-response","371","479253","0.0-16.0-0.39","616eb493bb7e4ab4fa1de8d4","650c16f0f2faf8d7a0d14c09","651c1dd7a70859f21f006961","null","null","<p style=""font-size: 60px; font-family: BACS"">DhCPdRA</p>","","","","","","","","","",""
"html-keyboard-response","372","480255","0.0-16.0-0.40","616eb493bb7e4ab4fa1de8d4","650c16f0f2faf8d7a0d14c09","651c1dd7a70859f21f006961","null","null","<p style=""font-size: 60px; font-family: BACS"">DhCPdRA</p>","","","","","","","","","",""
"html-keyboard-response","373","481271","0.0-16.0-0.41","616eb493bb7e4ab4fa1de8d4","650c16f0f2faf8d7a0d14c09","651c1dd7a70859f21f006961","null","null","<p style=""font-size: 60px; font-family: BACS"">DhCPdRA</p>","","","","","","","","","",""
"html-keyboard-response","374","482286","0.0-16.0-0.42","616eb493bb7e4ab4fa1de8d4","650c16f0f2faf8d7a0d14c09","651c1dd7a70859f21f006961","null","null","<p style=""font-size: 60px; font-family: BACS"">DhCPdRA</p>","","","","","","","","","",""
"html-keyboard-response","375","483288","0.0-16.0-0.43","616eb493bb7e4ab4fa1de8d4","650c16f0f2faf8d7a0d14c09","651c1dd7a70859f21f006961","null","null","<p style=""font-size: 60px; font-family: BACS"">DhCPdRA</p>","","","","","","","","","",""
"html-keyboard-response","376","484302","0.0-16.0-0.44","616eb493bb7e4ab4fa1de8d4","650c16f0f2faf8d7a0d14c09","651c1dd7a70859f21f006961","null","null","<p style=""font-size: 60px; font-family: BACS"">DhCPdRA</p>","","","","","","","","","",""
"html-keyboard-response","377","485304","0.0-16.0-0.45","616eb493bb7e4ab4fa1de8d4","650c16f0f2faf8d7a0d14c09","651c1dd7a70859f21f006961","null","null","<p style=""font-size: 60px; font-family: BACS"">DhCPdRA</p>","","","","","","","","","",""
"html-keyboard-response","378","486319","0.0-16.0-0.46","616eb493bb7e4ab4fa1de8d4","650c16f0f2faf8d7a0d14c09","651c1dd7a70859f21f006961","null","null","<p style=""font-size: 60px; font-family: BACS"">DhCPdRA</p>","","","","","","","","","",""
"html-keyboard-response","379","487335","0.0-16.0-0.47","616eb493bb7e4ab4fa1de8d4","650c16f0f2faf8d7a0d14c09","651c1dd7a70859f21f006961","null","null","<p style=""font-size: 60px; font-family: BACS"">DhCPdRA</p>","","","","","","","","","",""
"html-keyboard-response","380","488350","0.0-16.0-0.48","616eb493bb7e4ab4fa1de8d4","650c16f0f2faf8d7a0d14c09","651c1dd7a70859f21f006961","null","null","<p style=""font-size: 60px; font-family: BACS"">DhCPdRA</p>","","","","","","","","","",""
"html-keyboard-response","381","489352","0.0-16.0-0.49","616eb493bb7e4ab4fa1de8d4","650c16f0f2faf8d7a0d14c09","651c1dd7a70859f21f006961","null","null","<p style=""font-size: 60px; font-family: BACS"">DhCPdRA</p>","","","","","","","","","",""
"html-keyboard-response","382","490368","0.0-16.0-0.50","616eb493bb7e4ab4fa1de8d4","650c16f0f2faf8d7a0d14c09","651c1dd7a70859f21f006961","null","null","<p style=""font-size: 60px; font-family: BACS"">DhCPdRA</p>","","","","","","","","","",""
"html-keyboard-response","383","491384","0.0-16.0-0.51","616eb493bb7e4ab4fa1de8d4","650c16f0f2faf8d7a0d14c09","651c1dd7a70859f21f006961","null","null","<p style=""font-size: 60px; font-family: BACS"">DhCPdRA</p>","","","","","","","","","",""
"html-keyboard-response","384","492386","0.0-16.0-0.52","616eb493bb7e4ab4fa1de8d4","650c16f0f2faf8d7a0d14c09","651c1dd7a70859f21f006961","null","null","<p style=""font-size: 60px; font-family: BACS"">DhCPdRA</p>","","","","","","","","","",""
"html-keyboard-response","385","493401","0.0-16.0-0.53","616eb493bb7e4ab4fa1de8d4","650c16f0f2faf8d7a0d14c09","651c1dd7a70859f21f006961","null","null","<p style=""font-size: 60px; font-family: BACS"">DhCPdRA</p>","","","","","","","","","",""
"html-keyboard-response","386","494402","0.0-16.0-0.54","616eb493bb7e4ab4fa1de8d4","650c16f0f2faf8d7a0d14c09","651c1dd7a70859f21f006961","null","null","<p style=""font-size: 60px; font-family: BACS"">DhCPdRA</p>","","","","","","","","","",""
"html-keyboard-response","387","495417","0.0-16.0-0.55","616eb493bb7e4ab4fa1de8d4","650c16f0f2faf8d7a0d14c09","651c1dd7a70859f21f006961","null","null","<p style=""font-size: 60px; font-family: BACS"">DhCPdRA</p>","","","","","","","","","",""
"html-keyboard-response","388","496419","0.0-16.0-0.56","616eb493bb7e4ab4fa1de8d4","650c16f0f2faf8d7a0d14c09","651c1dd7a70859f21f006961","null","null","<p style=""font-size: 60px; font-family: BACS"">DhCPdRA</p>","","","","","","","","","",""
"html-keyboard-response","389","497433","0.0-16.0-0.57","616eb493bb7e4ab4fa1de8d4","650c16f0f2faf8d7a0d14c09","651c1dd7a70859f21f006961","null","null","<p style=""font-size: 60px; font-family: BACS"">DhCPdRA</p>","","","","","","","","","",""
"html-keyboard-response","390","498449","0.0-16.0-0.58","616eb493bb7e4ab4fa1de8d4","650c16f0f2faf8d7a0d14c09","651c1dd7a70859f21f006961","null","null","<p style=""font-size: 60px; font-family: BACS"">DhCPdRA</p>","","","","","","","","","",""
"html-keyboard-response","391","499466","0.0-16.0-0.59","616eb493bb7e4ab4fa1de8d4","650c16f0f2faf8d7a0d14c09","651c1dd7a70859f21f006961","null","null","<p style=""font-size: 60px; font-family: BACS"">DhCPdRA</p>","","","","","","","","","",""
"html-keyboard-response","392","500481","0.0-16.0-0.60","616eb493bb7e4ab4fa1de8d4","650c16f0f2faf8d7a0d14c09","651c1dd7a70859f21f006961","null","null","<p style=""font-size: 60px; font-family: BACS"">DhCPdRA</p>","","","","","","","","","",""
"html-keyboard-response","393","501483","0.0-16.0-0.61","616eb493bb7e4ab4fa1de8d4","650c16f0f2faf8d7a0d14c09","651c1dd7a70859f21f006961","null","null","<p style=""font-size: 60px; font-family: BACS"">DhCPdRA</p>","","","","","","","","","",""
