"trial_type","trial_index","time_elapsed","internal_node_id","subject_id","study_id","session_id","rt","response","stimulus","success","item","task","correct_response","testing_condition","correct","target","confound","name","view_history"
"pavlovia","0","2098","0.0-0.0","601951245f481e000980504f","650c16f0f2faf8d7a0d14c09","651c1a97fb5d45e10e20543a","","","","","","","","","","","","",""
"survey-html-form","1","54082","0.0-1.0","601951245f481e000980504f","650c16f0f2faf8d7a0d14c09","651c1a97fb5d45e10e20543a","51957","{""ID"":""601951245f481e000980504f""}","","","","","","","","","","",""
"html-keyboard-response","2","74843","0.0-2.0","601951245f481e000980504f","650c16f0f2faf8d7a0d14c09","651c1a97fb5d45e10e20543a","20759"," ","<p style=""font-size: 15px;"">Before beginning, we ask that you read the consent information and confirm your agreement to participate in the experiment.</p>
      <p style=""font-size: 15px;""> We ask that you remember that this is a research project and that your participation is entirely voluntary. You can stop your participation at any time, without needing to provide any explanation. The study we're asking you to participate in aims at examining how readers process written words. You will be engaged in a session of apprximately 20 minutes, followed by a brief questionnaire. You will have the opportunity to take a few breaks during the experiment. You will be paid £4 for your participation, corresponding to a rate of £8/hour. While this experiment looks at cognitive faculties, this experiment doesn't constitute clinical proof of eventual pathologies.</p>
      <p style=""font-size: 15px;"">All of the information collected thanks to yours and others' participation will be held in a secure password-protected server, and will not be shared with anyone not authorised to view it. Your personal information will be kept with an arbitrary participant ID. Thanks to this data anonymity process, any researcher analysing the data won't be able to track the information back to a specific participant. Therefore, this process will make identifying you impossibile, even when results from the study will be published in scientific reviews, presented at congresses, or at any other public forum. More generally, the collected data will be treated in accordance with the laws on privacy and conformity to the Legislative Degree n. 196 ""Code regarding the protection of personal data"" of the 30th of June 2003 and to the European Regulation 2016/670 (General Data Protection Regulation - GDPR). The Data Protection Officer is Avv. Valentina Carollo, who can be contacted at the following email addresses: <a href=""mailto:dpo@sissa.it"">dpo@sissa.it</a> or <a href=""mailto:rpd@sissa.it"">rpd@sissa.it</a> - PEC: <a href=""mailto:protocollo@pec.sissa.it"">protocollo@pec.sissa.it</a>.</p>
      <p style=""font-size: 15px;""> Before expressing your consent to participate, we would like to remind you again that in case you need explanations on any aspect of the experimental procedure, the researcher is at your disposition (<a href=""mailto:aliebelt@sissa.it"">aliebelt@sissa.it</a>, <a href=""mailto:davide.crepaldi@sissa.it"">davide.crepaldi@sissa.it</a>).</p>
      <p style=""font-size: 15px;"">If you would like to download the informed consent form, you can do so here: <a href=""BASL-Informed_Consent.pdf"" download>informed consent form</a>.</p>
      <p style=""font-size: 15px;"">We ask that you press the spacebar to proceed to the consent section.</p>","","","","","","","","","",""
"survey-html-form","3","124807","0.0-3.0","601951245f481e000980504f","650c16f0f2faf8d7a0d14c09","651c1a97fb5d45e10e20543a","49961","{""consent1"":""YES"",""consent2"":""YES"",""consent3"":""YES"",""consent4"":""YES"",""consent5"":""YES"",""consent6"":""YES""}","","","","","","","","","","",""
"fullscreen","4","133169","0.0-4.0","601951245f481e000980504f","650c16f0f2faf8d7a0d14c09","651c1a97fb5d45e10e20543a","","","","true","","","","","","","","",""
"html-keyboard-response","5","194602","0.0-5.0","601951245f481e000980504f","650c16f0f2faf8d7a0d14c09","651c1a97fb5d45e10e20543a","61431"," ","<p>Welcome, and thank you very much for your time!</p>
      <p>In this experiment, you'll be a language expert who's been asked to take a look at words that Earth has received in its first communication with aliens. Your task, in this first part of the experiment, is to pay close attention to the words you'll be shown; later, world leaders will ask you questions on what you saw. The words will be shown to you quite quickly; it seems that the aliens were in a hurry :-)</p>
      <p>Press the spacebar to continue.<p>","","","","","","","","","",""
"html-keyboard-response","6","194655","0.0-6.0","601951245f481e000980504f","650c16f0f2faf8d7a0d14c09","651c1a97fb5d45e10e20543a","null","null","<p style=""font-size: 120px; font-family: BACS""> </p>","","","","","","","","","",""
"html-keyboard-response","7","203169","0.0-7.0","601951245f481e000980504f","650c16f0f2faf8d7a0d14c09","651c1a97fb5d45e10e20543a","8512"," ","<p>Here is an example of the words you'll see:</p>
      <img src='esempio.png' height='400px'>
      <p>When you're ready to begin, press the spacebar.</p></div>","","","","","","","","","",""
"html-keyboard-response","8","204180","0.0-8.0-0.0","601951245f481e000980504f","650c16f0f2faf8d7a0d14c09","651c1a97fb5d45e10e20543a","null","null","<p style=""font-size: 60px; font-family: BACS"">EMYKDOk</p>","","","","","","","","","",""
"html-keyboard-response","9","205195","0.0-8.0-0.1","601951245f481e000980504f","650c16f0f2faf8d7a0d14c09","651c1a97fb5d45e10e20543a","null","null","<p style=""font-size: 60px; font-family: BACS"">dKDthMKmY</p>","","","","","","","","","",""
"html-keyboard-response","10","206206","0.0-8.0-0.2","601951245f481e000980504f","650c16f0f2faf8d7a0d14c09","651c1a97fb5d45e10e20543a","null","null","<p style=""font-size: 60px; font-family: BACS"">amJmuda</p>","","","","","","","","","",""
"html-keyboard-response","11","207219","0.0-8.0-0.3","601951245f481e000980504f","650c16f0f2faf8d7a0d14c09","651c1a97fb5d45e10e20543a","null","null","<p style=""font-size: 60px; font-family: BACS"">NvYJYUYa</p>","","","","","","","","","",""
"html-keyboard-response","12","208224","0.0-8.0-0.4","601951245f481e000980504f","650c16f0f2faf8d7a0d14c09","651c1a97fb5d45e10e20543a","null","null","<p style=""font-size: 60px; font-family: BACS"">OAmAdCMdP</p>","","","","","","","","","",""
"html-keyboard-response","13","209228","0.0-8.0-0.5","601951245f481e000980504f","650c16f0f2faf8d7a0d14c09","651c1a97fb5d45e10e20543a","null","null","<p style=""font-size: 60px; font-family: BACS"">kbmZOLcO</p>","","","","","","","","","",""
"html-keyboard-response","14","210238","0.0-8.0-0.6","601951245f481e000980504f","650c16f0f2faf8d7a0d14c09","651c1a97fb5d45e10e20543a","null","null","<p style=""font-size: 60px; font-family: BACS"">hlctEMKmY</p>","","","","","","","","","",""
"html-keyboard-response","15","211254","0.0-8.0-0.7","601951245f481e000980504f","650c16f0f2faf8d7a0d14c09","651c1a97fb5d45e10e20543a","null","null","<p style=""font-size: 60px; font-family: BACS"">QLrOJrNlZ</p>","","","","","","","","","",""
"html-keyboard-response","16","212259","0.0-8.0-0.8","601951245f481e000980504f","650c16f0f2faf8d7a0d14c09","651c1a97fb5d45e10e20543a","null","null","<p style=""font-size: 60px; font-family: BACS"">rvAJYNu</p>","","","","","","","","","",""
"html-keyboard-response","17","213274","0.0-8.0-0.9","601951245f481e000980504f","650c16f0f2faf8d7a0d14c09","651c1a97fb5d45e10e20543a","null","null","<p style=""font-size: 60px; font-family: BACS"">YJkbYUYa</p>","","","","","","","","","",""
"html-keyboard-response","18","214285","0.0-8.0-0.10","601951245f481e000980504f","650c16f0f2faf8d7a0d14c09","651c1a97fb5d45e10e20543a","null","null","<p style=""font-size: 60px; font-family: BACS"">mBYlDOk</p>","","","","","","","","","",""
"html-keyboard-response","19","215294","0.0-8.0-0.11","601951245f481e000980504f","650c16f0f2faf8d7a0d14c09","651c1a97fb5d45e10e20543a","null","null","<p style=""font-size: 60px; font-family: BACS"">YJkbLcO</p>","","","","","","","","","",""
"html-keyboard-response","20","216298","0.0-8.0-0.12","601951245f481e000980504f","650c16f0f2faf8d7a0d14c09","651c1a97fb5d45e10e20543a","null","null","<p style=""font-size: 60px; font-family: BACS"">OAmAdMKmY</p>","","","","","","","","","",""
"html-keyboard-response","21","217302","0.0-8.0-0.13","601951245f481e000980504f","650c16f0f2faf8d7a0d14c09","651c1a97fb5d45e10e20543a","null","null","<p style=""font-size: 60px; font-family: BACS"">CchtdPMYm</p>","","","","","","","","","",""
"html-keyboard-response","22","218313","0.0-8.0-0.14","601951245f481e000980504f","650c16f0f2faf8d7a0d14c09","651c1a97fb5d45e10e20543a","null","null","<p style=""font-size: 60px; font-family: BACS"">dKDthmAM</p>","","","","","","","","","",""
"html-keyboard-response","23","219318","0.0-8.0-0.15","601951245f481e000980504f","650c16f0f2faf8d7a0d14c09","651c1a97fb5d45e10e20543a","null","null","<p style=""font-size: 60px; font-family: BACS"">advYOuda</p>","","","","","","","","","",""
"html-keyboard-response","24","220326","0.0-8.0-0.16","601951245f481e000980504f","650c16f0f2faf8d7a0d14c09","651c1a97fb5d45e10e20543a","null","null","<p style=""font-size: 60px; font-family: BACS"">YNrAmrNlZ</p>","","","","","","","","","",""
"html-keyboard-response","25","221337","0.0-8.0-0.17","601951245f481e000980504f","650c16f0f2faf8d7a0d14c09","651c1a97fb5d45e10e20543a","null","null","<p style=""font-size: 60px; font-family: BACS"">OAmAdPMYm</p>","","","","","","","","","",""
"html-keyboard-response","26","222353","0.0-8.0-0.18","601951245f481e000980504f","650c16f0f2faf8d7a0d14c09","651c1a97fb5d45e10e20543a","null","null","<p style=""font-size: 60px; font-family: BACS"">NvYJYNu</p>","","","","","","","","","",""
"html-keyboard-response","27","223357","0.0-8.0-0.19","601951245f481e000980504f","650c16f0f2faf8d7a0d14c09","651c1a97fb5d45e10e20543a","null","null","<p style=""font-size: 60px; font-family: BACS"">PcBTDOk</p>","","","","","","","","","",""
"html-keyboard-response","28","224372","0.0-8.0-0.20","601951245f481e000980504f","650c16f0f2faf8d7a0d14c09","651c1a97fb5d45e10e20543a","null","null","<p style=""font-size: 60px; font-family: BACS"">kbmZOuda</p>","","","","","","","","","",""
"html-keyboard-response","29","225377","0.0-8.0-0.21","601951245f481e000980504f","650c16f0f2faf8d7a0d14c09","651c1a97fb5d45e10e20543a","null","null","<p style=""font-size: 60px; font-family: BACS"">LvuOGYNu</p>","","","","","","","","","",""
"html-keyboard-response","30","226381","0.0-8.0-0.22","601951245f481e000980504f","650c16f0f2faf8d7a0d14c09","651c1a97fb5d45e10e20543a","null","null","<p style=""font-size: 60px; font-family: BACS"">dRhtMKmY</p>","","","","","","","","","",""
"html-keyboard-response","31","227396","0.0-8.0-0.23","601951245f481e000980504f","650c16f0f2faf8d7a0d14c09","651c1a97fb5d45e10e20543a","null","null","<p style=""font-size: 60px; font-family: BACS"">hlctECMdP</p>","","","","","","","","","",""
"html-keyboard-response","32","228412","0.0-8.0-0.24","601951245f481e000980504f","650c16f0f2faf8d7a0d14c09","651c1a97fb5d45e10e20543a","null","null","<p style=""font-size: 60px; font-family: BACS"">dKDthPMYm</p>","","","","","","","","","",""
"html-keyboard-response","33","229416","0.0-8.0-0.25","601951245f481e000980504f","650c16f0f2faf8d7a0d14c09","651c1a97fb5d45e10e20543a","null","null","<p style=""font-size: 60px; font-family: BACS"">mBYlmAM</p>","","","","","","","","","",""
"html-keyboard-response","34","230431","0.0-8.0-0.26","601951245f481e000980504f","650c16f0f2faf8d7a0d14c09","651c1a97fb5d45e10e20543a","null","null","<p style=""font-size: 60px; font-family: BACS"">QLrOJYNu</p>","","","","","","","","","",""
"html-keyboard-response","35","231436","0.0-8.0-0.27","601951245f481e000980504f","650c16f0f2faf8d7a0d14c09","651c1a97fb5d45e10e20543a","null","null","<p style=""font-size: 60px; font-family: BACS"">EMYKmAM</p>","","","","","","","","","",""
"html-keyboard-response","36","232448","0.0-8.0-0.28","601951245f481e000980504f","650c16f0f2faf8d7a0d14c09","651c1a97fb5d45e10e20543a","null","null","<p style=""font-size: 60px; font-family: BACS"">mBYlMKmY</p>","","","","","","","","","",""
"html-keyboard-response","37","233464","0.0-8.0-0.29","601951245f481e000980504f","650c16f0f2faf8d7a0d14c09","651c1a97fb5d45e10e20543a","null","null","<p style=""font-size: 60px; font-family: BACS"">PcBTmAM</p>","","","","","","","","","",""
"html-keyboard-response","38","234471","0.0-8.0-0.30","601951245f481e000980504f","650c16f0f2faf8d7a0d14c09","651c1a97fb5d45e10e20543a","null","null","<p style=""font-size: 60px; font-family: BACS"">EMYKCMdP</p>","","","","","","","","","",""
"html-keyboard-response","39","235475","0.0-8.0-0.31","601951245f481e000980504f","650c16f0f2faf8d7a0d14c09","651c1a97fb5d45e10e20543a","null","null","<p style=""font-size: 60px; font-family: BACS"">QLrOJYUYa</p>","","","","","","","","","",""
"html-keyboard-response","40","236491","0.0-8.0-0.32","601951245f481e000980504f","650c16f0f2faf8d7a0d14c09","651c1a97fb5d45e10e20543a","null","null","<p style=""font-size: 60px; font-family: BACS"">NvYJLcO</p>","","","","","","","","","",""
"html-keyboard-response","41","237495","0.0-8.0-0.33","601951245f481e000980504f","650c16f0f2faf8d7a0d14c09","651c1a97fb5d45e10e20543a","null","null","<p style=""font-size: 60px; font-family: BACS"">ObOQluda</p>","","","","","","","","","",""
"html-keyboard-response","42","238510","0.0-8.0-0.34","601951245f481e000980504f","650c16f0f2faf8d7a0d14c09","651c1a97fb5d45e10e20543a","null","null","<p style=""font-size: 60px; font-family: BACS"">PcBTMKmY</p>","","","","","","","","","",""
"html-keyboard-response","43","239514","0.0-8.0-0.35","601951245f481e000980504f","650c16f0f2faf8d7a0d14c09","651c1a97fb5d45e10e20543a","null","null","<p style=""font-size: 60px; font-family: BACS"">bmdABPMYm</p>","","","","","","","","","",""
"html-keyboard-response","44","240531","0.0-8.0-0.36","601951245f481e000980504f","650c16f0f2faf8d7a0d14c09","651c1a97fb5d45e10e20543a","null","null","<p style=""font-size: 60px; font-family: BACS"">rvAJrNlZ</p>","","","","","","","","","",""
"html-keyboard-response","45","241534","0.0-8.0-0.37","601951245f481e000980504f","650c16f0f2faf8d7a0d14c09","651c1a97fb5d45e10e20543a","null","null","<p style=""font-size: 60px; font-family: BACS"">ACcODOk</p>","","","","","","","","","",""
"html-keyboard-response","46","242550","0.0-8.0-0.38","601951245f481e000980504f","650c16f0f2faf8d7a0d14c09","651c1a97fb5d45e10e20543a","null","null","<p style=""font-size: 60px; font-family: BACS"">LvuOGrNlZ</p>","","","","","","","","","",""
"html-keyboard-response","47","243554","0.0-8.0-0.39","601951245f481e000980504f","650c16f0f2faf8d7a0d14c09","651c1a97fb5d45e10e20543a","null","null","<p style=""font-size: 60px; font-family: BACS"">PcBTPMYm</p>","","","","","","","","","",""
"html-keyboard-response","48","244569","0.0-8.0-0.40","601951245f481e000980504f","650c16f0f2faf8d7a0d14c09","651c1a97fb5d45e10e20543a","null","null","<p style=""font-size: 60px; font-family: BACS"">YJkbYNu</p>","","","","","","","","","",""
"html-keyboard-response","49","245573","0.0-8.0-0.41","601951245f481e000980504f","650c16f0f2faf8d7a0d14c09","651c1a97fb5d45e10e20543a","null","null","<p style=""font-size: 60px; font-family: BACS"">CchtdmAM</p>","","","","","","","","","",""
"html-keyboard-response","50","246589","0.0-8.0-0.42","601951245f481e000980504f","650c16f0f2faf8d7a0d14c09","651c1a97fb5d45e10e20543a","null","null","<p style=""font-size: 60px; font-family: BACS"">LvuOGuda</p>","","","","","","","","","",""
"html-keyboard-response","51","247593","0.0-8.0-0.43","601951245f481e000980504f","650c16f0f2faf8d7a0d14c09","651c1a97fb5d45e10e20543a","null","null","<p style=""font-size: 60px; font-family: BACS"">amJmYNu</p>","","","","","","","","","",""
"html-keyboard-response","52","248609","0.0-8.0-0.44","601951245f481e000980504f","650c16f0f2faf8d7a0d14c09","651c1a97fb5d45e10e20543a","null","null","<p style=""font-size: 60px; font-family: BACS"">YJkbuda</p>","","","","","","","","","",""
"html-keyboard-response","53","249613","0.0-8.0-0.45","601951245f481e000980504f","650c16f0f2faf8d7a0d14c09","651c1a97fb5d45e10e20543a","null","null","<p style=""font-size: 60px; font-family: BACS"">ACcOCMdP</p>","","","","","","","","","",""
"html-keyboard-response","54","250629","0.0-8.0-0.46","601951245f481e000980504f","650c16f0f2faf8d7a0d14c09","651c1a97fb5d45e10e20543a","null","null","<p style=""font-size: 60px; font-family: BACS"">EMYKPMYm</p>","","","","","","","","","",""
"html-keyboard-response","55","251632","0.0-8.0-0.47","601951245f481e000980504f","650c16f0f2faf8d7a0d14c09","651c1a97fb5d45e10e20543a","null","null","<p style=""font-size: 60px; font-family: BACS"">kbmZOYUYa</p>","","","","","","","","","",""
"html-keyboard-response","56","252641","0.0-8.0-0.48","601951245f481e000980504f","650c16f0f2faf8d7a0d14c09","651c1a97fb5d45e10e20543a","null","null","<p style=""font-size: 60px; font-family: BACS"">CchtdMKmY</p>","","","","","","","","","",""
"html-keyboard-response","57","253654","0.0-8.0-0.49","601951245f481e000980504f","650c16f0f2faf8d7a0d14c09","651c1a97fb5d45e10e20543a","null","null","<p style=""font-size: 60px; font-family: BACS"">rvAJLcO</p>","","","","","","","","","",""
"html-keyboard-response","58","254666","0.0-8.0-0.50","601951245f481e000980504f","650c16f0f2faf8d7a0d14c09","651c1a97fb5d45e10e20543a","null","null","<p style=""font-size: 60px; font-family: BACS"">LvuOGYUYa</p>","","","","","","","","","",""
"html-keyboard-response","59","255672","0.0-8.0-0.51","601951245f481e000980504f","650c16f0f2faf8d7a0d14c09","651c1a97fb5d45e10e20543a","null","null","<p style=""font-size: 60px; font-family: BACS"">kbmZOYNu</p>","","","","","","","","","",""
"html-keyboard-response","60","256687","0.0-8.0-0.52","601951245f481e000980504f","650c16f0f2faf8d7a0d14c09","651c1a97fb5d45e10e20543a","null","null","<p style=""font-size: 60px; font-family: BACS"">ACcOmAM</p>","","","","","","","","","",""
"html-keyboard-response","61","257692","0.0-8.0-0.53","601951245f481e000980504f","650c16f0f2faf8d7a0d14c09","651c1a97fb5d45e10e20543a","null","null","<p style=""font-size: 60px; font-family: BACS"">dRhtCMdP</p>","","","","","","","","","",""
"html-keyboard-response","62","258707","0.0-8.0-0.54","601951245f481e000980504f","650c16f0f2faf8d7a0d14c09","651c1a97fb5d45e10e20543a","null","null","<p style=""font-size: 60px; font-family: BACS"">amJmrNlZ</p>","","","","","","","","","",""
"html-keyboard-response","63","259711","0.0-8.0-0.55","601951245f481e000980504f","650c16f0f2faf8d7a0d14c09","651c1a97fb5d45e10e20543a","null","null","<p style=""font-size: 60px; font-family: BACS"">dRhtDOk</p>","","","","","","","","","",""
"html-keyboard-response","64","260727","0.0-8.0-0.56","601951245f481e000980504f","650c16f0f2faf8d7a0d14c09","651c1a97fb5d45e10e20543a","null","null","<p style=""font-size: 60px; font-family: BACS"">rvAJuda</p>","","","","","","","","","",""
"html-keyboard-response","65","261740","0.0-8.0-0.57","601951245f481e000980504f","650c16f0f2faf8d7a0d14c09","651c1a97fb5d45e10e20543a","null","null","<p style=""font-size: 60px; font-family: BACS"">hlctEmAM</p>","","","","","","","","","",""
"html-keyboard-response","66","262751","0.0-8.0-0.58","601951245f481e000980504f","650c16f0f2faf8d7a0d14c09","651c1a97fb5d45e10e20543a","null","null","<p style=""font-size: 60px; font-family: BACS"">QLrOJLcO</p>","","","","","","","","","",""
"html-keyboard-response","67","263766","0.0-8.0-0.59","601951245f481e000980504f","650c16f0f2faf8d7a0d14c09","651c1a97fb5d45e10e20543a","null","null","<p style=""font-size: 60px; font-family: BACS"">YNrAmuda</p>","","","","","","","","","",""
"html-keyboard-response","68","264770","0.0-8.0-0.60","601951245f481e000980504f","650c16f0f2faf8d7a0d14c09","651c1a97fb5d45e10e20543a","null","null","<p style=""font-size: 60px; font-family: BACS"">mBYlCMdP</p>","","","","","","","","","",""
"html-keyboard-response","69","265786","0.0-8.0-0.61","601951245f481e000980504f","650c16f0f2faf8d7a0d14c09","651c1a97fb5d45e10e20543a","null","null","<p style=""font-size: 60px; font-family: BACS"">advYOYUYa</p>","","","","","","","","","",""
"html-keyboard-response","70","266790","0.0-8.0-0.62","601951245f481e000980504f","650c16f0f2faf8d7a0d14c09","651c1a97fb5d45e10e20543a","null","null","<p style=""font-size: 60px; font-family: BACS"">bmdABmAM</p>","","","","","","","","","",""
"html-keyboard-response","71","267805","0.0-8.0-0.63","601951245f481e000980504f","650c16f0f2faf8d7a0d14c09","651c1a97fb5d45e10e20543a","null","null","<p style=""font-size: 60px; font-family: BACS"">advYOLcO</p>","","","","","","","","","",""
"html-keyboard-response","72","268810","0.0-8.0-0.64","601951245f481e000980504f","650c16f0f2faf8d7a0d14c09","651c1a97fb5d45e10e20543a","null","null","<p style=""font-size: 60px; font-family: BACS"">hlctEDOk</p>","","","","","","","","","",""
"html-keyboard-response","73","269825","0.0-8.0-0.65","601951245f481e000980504f","650c16f0f2faf8d7a0d14c09","651c1a97fb5d45e10e20543a","null","null","<p style=""font-size: 60px; font-family: BACS"">YNrAmYNu</p>","","","","","","","","","",""
"html-keyboard-response","74","270829","0.0-8.0-0.66","601951245f481e000980504f","650c16f0f2faf8d7a0d14c09","651c1a97fb5d45e10e20543a","null","null","<p style=""font-size: 60px; font-family: BACS"">CchtdCMdP</p>","","","","","","","","","",""
"html-keyboard-response","75","271845","0.0-8.0-0.67","601951245f481e000980504f","650c16f0f2faf8d7a0d14c09","651c1a97fb5d45e10e20543a","null","null","<p style=""font-size: 60px; font-family: BACS"">advYOrNlZ</p>","","","","","","","","","",""
"html-keyboard-response","76","272849","0.0-8.0-0.68","601951245f481e000980504f","650c16f0f2faf8d7a0d14c09","651c1a97fb5d45e10e20543a","null","null","<p style=""font-size: 60px; font-family: BACS"">ACcOPMYm</p>","","","","","","","","","",""
"html-keyboard-response","77","273864","0.0-8.0-0.69","601951245f481e000980504f","650c16f0f2faf8d7a0d14c09","651c1a97fb5d45e10e20543a","null","null","<p style=""font-size: 60px; font-family: BACS"">bmdABDOk</p>","","","","","","","","","",""
"html-keyboard-response","78","274869","0.0-8.0-0.70","601951245f481e000980504f","650c16f0f2faf8d7a0d14c09","651c1a97fb5d45e10e20543a","null","null","<p style=""font-size: 60px; font-family: BACS"">ObOQlYUYa</p>","","","","","","","","","",""
"html-keyboard-response","79","275884","0.0-8.0-0.71","601951245f481e000980504f","650c16f0f2faf8d7a0d14c09","651c1a97fb5d45e10e20543a","null","null","<p style=""font-size: 60px; font-family: BACS"">dKDthCMdP</p>","","","","","","","","","",""
"html-keyboard-response","80","276888","0.0-8.0-0.72","601951245f481e000980504f","650c16f0f2faf8d7a0d14c09","651c1a97fb5d45e10e20543a","null","null","<p style=""font-size: 60px; font-family: BACS"">NvYJrNlZ</p>","","","","","","","","","",""
"html-keyboard-response","81","277904","0.0-8.0-0.73","601951245f481e000980504f","650c16f0f2faf8d7a0d14c09","651c1a97fb5d45e10e20543a","null","null","<p style=""font-size: 60px; font-family: BACS"">bmdABMKmY</p>","","","","","","","","","",""
"html-keyboard-response","82","278908","0.0-8.0-0.74","601951245f481e000980504f","650c16f0f2faf8d7a0d14c09","651c1a97fb5d45e10e20543a","null","null","<p style=""font-size: 60px; font-family: BACS"">amJmLcO</p>","","","","","","","","","",""
"html-keyboard-response","83","279924","0.0-8.0-0.75","601951245f481e000980504f","650c16f0f2faf8d7a0d14c09","651c1a97fb5d45e10e20543a","null","null","<p style=""font-size: 60px; font-family: BACS"">dRhtPMYm</p>","","","","","","","","","",""
"html-keyboard-response","84","280928","0.0-8.0-0.76","601951245f481e000980504f","650c16f0f2faf8d7a0d14c09","651c1a97fb5d45e10e20543a","null","null","<p style=""font-size: 60px; font-family: BACS"">OAmAdDOk</p>","","","","","","","","","",""
"html-keyboard-response","85","281943","0.0-8.0-0.77","601951245f481e000980504f","650c16f0f2faf8d7a0d14c09","651c1a97fb5d45e10e20543a","null","null","<p style=""font-size: 60px; font-family: BACS"">ObOQlrNlZ</p>","","","","","","","","","",""
"html-keyboard-response","86","282948","0.0-8.0-0.78","601951245f481e000980504f","650c16f0f2faf8d7a0d14c09","651c1a97fb5d45e10e20543a","null","null","<p style=""font-size: 60px; font-family: BACS"">YNrAmYUYa</p>","","","","","","","","","",""
"html-keyboard-response","87","283963","0.0-8.0-0.79","601951245f481e000980504f","650c16f0f2faf8d7a0d14c09","651c1a97fb5d45e10e20543a","null","null","<p style=""font-size: 60px; font-family: BACS"">ObOQlLcO</p>","","","","","","","","","",""
"html-keyboard-response","88","481028","0.0-9.0","601951245f481e000980504f","650c16f0f2faf8d7a0d14c09","651c1a97fb5d45e10e20543a","197063"," ","<p>Great, you've seen the first block of words. You may now take a short break.</p>
      <p>Press the spacebar when you're ready to continue.</p>","","","","","","","","","",""
"html-keyboard-response","89","482037","0.0-10.0-0.0","601951245f481e000980504f","650c16f0f2faf8d7a0d14c09","651c1a97fb5d45e10e20543a","null","null","<p style=""font-size: 60px; font-family: BACS"">dRhtCMdP</p>","","","","","","","","","",""
"html-keyboard-response","90","483052","0.0-10.0-0.1","601951245f481e000980504f","650c16f0f2faf8d7a0d14c09","651c1a97fb5d45e10e20543a","null","null","<p style=""font-size: 60px; font-family: BACS"">ACcODOk</p>","","","","","","","","","",""
"html-keyboard-response","91","484056","0.0-10.0-0.2","601951245f481e000980504f","650c16f0f2faf8d7a0d14c09","651c1a97fb5d45e10e20543a","null","null","<p style=""font-size: 60px; font-family: BACS"">PcBTMKmY</p>","","","","","","","","","",""
"html-keyboard-response","92","485058","0.0-10.0-0.3","601951245f481e000980504f","650c16f0f2faf8d7a0d14c09","651c1a97fb5d45e10e20543a","null","null","<p style=""font-size: 60px; font-family: BACS"">QLrOJYNu</p>","","","","","","","","","",""
"html-keyboard-response","93","486072","0.0-10.0-0.4","601951245f481e000980504f","650c16f0f2faf8d7a0d14c09","651c1a97fb5d45e10e20543a","null","null","<p style=""font-size: 60px; font-family: BACS"">hlctECMdP</p>","","","","","","","","","",""
"html-keyboard-response","94","487076","0.0-10.0-0.5","601951245f481e000980504f","650c16f0f2faf8d7a0d14c09","651c1a97fb5d45e10e20543a","null","null","<p style=""font-size: 60px; font-family: BACS"">dKDthMKmY</p>","","","","","","","","","",""
"html-keyboard-response","95","488080","0.0-10.0-0.6","601951245f481e000980504f","650c16f0f2faf8d7a0d14c09","651c1a97fb5d45e10e20543a","null","null","<p style=""font-size: 60px; font-family: BACS"">CchtdPMYm</p>","","","","","","","","","",""
"html-keyboard-response","96","489091","0.0-10.0-0.7","601951245f481e000980504f","650c16f0f2faf8d7a0d14c09","651c1a97fb5d45e10e20543a","null","null","<p style=""font-size: 60px; font-family: BACS"">mBYlDOk</p>","","","","","","","","","",""
"html-keyboard-response","97","490096","0.0-10.0-0.8","601951245f481e000980504f","650c16f0f2faf8d7a0d14c09","651c1a97fb5d45e10e20543a","null","null","<p style=""font-size: 60px; font-family: BACS"">PcBTPMYm</p>","","","","","","","","","",""
"html-keyboard-response","98","491111","0.0-10.0-0.9","601951245f481e000980504f","650c16f0f2faf8d7a0d14c09","651c1a97fb5d45e10e20543a","null","null","<p style=""font-size: 60px; font-family: BACS"">advYOrNlZ</p>","","","","","","","","","",""
"html-keyboard-response","99","492116","0.0-10.0-0.10","601951245f481e000980504f","650c16f0f2faf8d7a0d14c09","651c1a97fb5d45e10e20543a","null","null","<p style=""font-size: 60px; font-family: BACS"">CchtdmAM</p>","","","","","","","","","",""
"html-keyboard-response","100","493131","0.0-10.0-0.11","601951245f481e000980504f","650c16f0f2faf8d7a0d14c09","651c1a97fb5d45e10e20543a","null","null","<p style=""font-size: 60px; font-family: BACS"">advYOYUYa</p>","","","","","","","","","",""
"html-keyboard-response","101","494135","0.0-10.0-0.12","601951245f481e000980504f","650c16f0f2faf8d7a0d14c09","651c1a97fb5d45e10e20543a","null","null","<p style=""font-size: 60px; font-family: BACS"">bmdABPMYm</p>","","","","","","","","","",""
"html-keyboard-response","102","495150","0.0-10.0-0.13","601951245f481e000980504f","650c16f0f2faf8d7a0d14c09","651c1a97fb5d45e10e20543a","null","null","<p style=""font-size: 60px; font-family: BACS"">dRhtDOk</p>","","","","","","","","","",""
"html-keyboard-response","103","496155","0.0-10.0-0.14","601951245f481e000980504f","650c16f0f2faf8d7a0d14c09","651c1a97fb5d45e10e20543a","null","null","<p style=""font-size: 60px; font-family: BACS"">advYOuda</p>","","","","","","","","","",""
"html-keyboard-response","104","497170","0.0-10.0-0.15","601951245f481e000980504f","650c16f0f2faf8d7a0d14c09","651c1a97fb5d45e10e20543a","null","null","<p style=""font-size: 60px; font-family: BACS"">amJmYNu</p>","","","","","","","","","",""
"html-keyboard-response","105","498175","0.0-10.0-0.16","601951245f481e000980504f","650c16f0f2faf8d7a0d14c09","651c1a97fb5d45e10e20543a","null","null","<p style=""font-size: 60px; font-family: BACS"">kbmZOLcO</p>","","","","","","","","","",""
"html-keyboard-response","106","499189","0.0-10.0-0.17","601951245f481e000980504f","650c16f0f2faf8d7a0d14c09","651c1a97fb5d45e10e20543a","null","null","<p style=""font-size: 60px; font-family: BACS"">YNrAmYUYa</p>","","","","","","","","","",""
"html-keyboard-response","107","500194","0.0-10.0-0.18","601951245f481e000980504f","650c16f0f2faf8d7a0d14c09","651c1a97fb5d45e10e20543a","null","null","<p style=""font-size: 60px; font-family: BACS"">amJmLcO</p>","","","","","","","","","",""
"html-keyboard-response","108","501209","0.0-10.0-0.19","601951245f481e000980504f","650c16f0f2faf8d7a0d14c09","651c1a97fb5d45e10e20543a","null","null","<p style=""font-size: 60px; font-family: BACS"">QLrOJrNlZ</p>","","","","","","","","","",""
"html-keyboard-response","109","502215","0.0-10.0-0.20","601951245f481e000980504f","650c16f0f2faf8d7a0d14c09","651c1a97fb5d45e10e20543a","null","null","<p style=""font-size: 60px; font-family: BACS"">mBYlMKmY</p>","","","","","","","","","",""
"html-keyboard-response","110","503228","0.0-10.0-0.21","601951245f481e000980504f","650c16f0f2faf8d7a0d14c09","651c1a97fb5d45e10e20543a","null","null","<p style=""font-size: 60px; font-family: BACS"">QLrOJYUYa</p>","","","","","","","","","",""
"html-keyboard-response","111","504233","0.0-10.0-0.22","601951245f481e000980504f","650c16f0f2faf8d7a0d14c09","651c1a97fb5d45e10e20543a","null","null","<p style=""font-size: 60px; font-family: BACS"">EMYKmAM</p>","","","","","","","","","",""
"html-keyboard-response","112","505249","0.0-10.0-0.23","601951245f481e000980504f","650c16f0f2faf8d7a0d14c09","651c1a97fb5d45e10e20543a","null","null","<p style=""font-size: 60px; font-family: BACS"">OAmAdMKmY</p>","","","","","","","","","",""
"html-keyboard-response","113","506253","0.0-10.0-0.24","601951245f481e000980504f","650c16f0f2faf8d7a0d14c09","651c1a97fb5d45e10e20543a","null","null","<p style=""font-size: 60px; font-family: BACS"">CchtdCMdP</p>","","","","","","","","","",""
"html-keyboard-response","114","507268","0.0-10.0-0.25","601951245f481e000980504f","650c16f0f2faf8d7a0d14c09","651c1a97fb5d45e10e20543a","null","null","<p style=""font-size: 60px; font-family: BACS"">dKDthmAM</p>","","","","","","","","","",""
"html-keyboard-response","115","508272","0.0-10.0-0.26","601951245f481e000980504f","650c16f0f2faf8d7a0d14c09","651c1a97fb5d45e10e20543a","null","null","<p style=""font-size: 60px; font-family: BACS"">NvYJYUYa</p>","","","","","","","","","",""
"html-keyboard-response","116","509279","0.0-10.0-0.27","601951245f481e000980504f","650c16f0f2faf8d7a0d14c09","651c1a97fb5d45e10e20543a","null","null","<p style=""font-size: 60px; font-family: BACS"">YNrAmYNu</p>","","","","","","","","","",""
"html-keyboard-response","117","510288","0.0-10.0-0.28","601951245f481e000980504f","650c16f0f2faf8d7a0d14c09","651c1a97fb5d45e10e20543a","null","null","<p style=""font-size: 60px; font-family: BACS"">PcBTmAM</p>","","","","","","","","","",""
"html-keyboard-response","118","511291","0.0-10.0-0.29","601951245f481e000980504f","650c16f0f2faf8d7a0d14c09","651c1a97fb5d45e10e20543a","null","null","<p style=""font-size: 60px; font-family: BACS"">YJkbLcO</p>","","","","","","","","","",""
"html-keyboard-response","119","512307","0.0-10.0-0.30","601951245f481e000980504f","650c16f0f2faf8d7a0d14c09","651c1a97fb5d45e10e20543a","null","null","<p style=""font-size: 60px; font-family: BACS"">hlctEmAM</p>","","","","","","","","","",""
"html-keyboard-response","120","513311","0.0-10.0-0.31","601951245f481e000980504f","650c16f0f2faf8d7a0d14c09","651c1a97fb5d45e10e20543a","null","null","<p style=""font-size: 60px; font-family: BACS"">OAmAdDOk</p>","","","","","","","","","",""
"html-keyboard-response","121","514327","0.0-10.0-0.32","601951245f481e000980504f","650c16f0f2faf8d7a0d14c09","651c1a97fb5d45e10e20543a","null","null","<p style=""font-size: 60px; font-family: BACS"">ObOQlLcO</p>","","","","","","","","","",""
"html-keyboard-response","122","515331","0.0-10.0-0.33","601951245f481e000980504f","650c16f0f2faf8d7a0d14c09","651c1a97fb5d45e10e20543a","null","null","<p style=""font-size: 60px; font-family: BACS"">ACcOPMYm</p>","","","","","","","","","",""
"html-keyboard-response","123","516348","0.0-10.0-0.34","601951245f481e000980504f","650c16f0f2faf8d7a0d14c09","651c1a97fb5d45e10e20543a","null","null","<p style=""font-size: 60px; font-family: BACS"">LvuOGYUYa</p>","","","","","","","","","",""
"html-keyboard-response","124","517351","0.0-10.0-0.35","601951245f481e000980504f","650c16f0f2faf8d7a0d14c09","651c1a97fb5d45e10e20543a","null","null","<p style=""font-size: 60px; font-family: BACS"">dRhtPMYm</p>","","","","","","","","","",""
"html-keyboard-response","125","518367","0.0-10.0-0.36","601951245f481e000980504f","650c16f0f2faf8d7a0d14c09","651c1a97fb5d45e10e20543a","null","null","<p style=""font-size: 60px; font-family: BACS"">NvYJLcO</p>","","","","","","","","","",""
"html-keyboard-response","126","519371","0.0-10.0-0.37","601951245f481e000980504f","650c16f0f2faf8d7a0d14c09","651c1a97fb5d45e10e20543a","null","null","<p style=""font-size: 60px; font-family: BACS"">dRhtMKmY</p>","","","","","","","","","",""
"html-keyboard-response","127","520386","0.0-10.0-0.38","601951245f481e000980504f","650c16f0f2faf8d7a0d14c09","651c1a97fb5d45e10e20543a","null","null","<p style=""font-size: 60px; font-family: BACS"">rvAJuda</p>","","","","","","","","","",""
"html-keyboard-response","128","521391","0.0-10.0-0.39","601951245f481e000980504f","650c16f0f2faf8d7a0d14c09","651c1a97fb5d45e10e20543a","null","null","<p style=""font-size: 60px; font-family: BACS"">bmdABMKmY</p>","","","","","","","","","",""
"html-keyboard-response","129","522405","0.0-10.0-0.40","601951245f481e000980504f","650c16f0f2faf8d7a0d14c09","651c1a97fb5d45e10e20543a","null","null","<p style=""font-size: 60px; font-family: BACS"">EMYKDOk</p>","","","","","","","","","",""
"html-keyboard-response","130","523410","0.0-10.0-0.41","601951245f481e000980504f","650c16f0f2faf8d7a0d14c09","651c1a97fb5d45e10e20543a","null","null","<p style=""font-size: 60px; font-family: BACS"">dKDthPMYm</p>","","","","","","","","","",""
"html-keyboard-response","131","524425","0.0-10.0-0.42","601951245f481e000980504f","650c16f0f2faf8d7a0d14c09","651c1a97fb5d45e10e20543a","null","null","<p style=""font-size: 60px; font-family: BACS"">YJkbYUYa</p>","","","","","","","","","",""
"html-keyboard-response","132","525429","0.0-10.0-0.43","601951245f481e000980504f","650c16f0f2faf8d7a0d14c09","651c1a97fb5d45e10e20543a","null","null","<p style=""font-size: 60px; font-family: BACS"">kbmZOYNu</p>","","","","","","","","","",""
"html-keyboard-response","133","526446","0.0-10.0-0.44","601951245f481e000980504f","650c16f0f2faf8d7a0d14c09","651c1a97fb5d45e10e20543a","null","null","<p style=""font-size: 60px; font-family: BACS"">ACcOmAM</p>","","","","","","","","","",""
"html-keyboard-response","134","527450","0.0-10.0-0.45","601951245f481e000980504f","650c16f0f2faf8d7a0d14c09","651c1a97fb5d45e10e20543a","null","null","<p style=""font-size: 60px; font-family: BACS"">NvYJYNu</p>","","","","","","","","","",""
"html-keyboard-response","135","528466","0.0-10.0-0.46","601951245f481e000980504f","650c16f0f2faf8d7a0d14c09","651c1a97fb5d45e10e20543a","null","null","<p style=""font-size: 60px; font-family: BACS"">OAmAdPMYm</p>","","","","","","","","","",""
"html-keyboard-response","136","529469","0.0-10.0-0.47","601951245f481e000980504f","650c16f0f2faf8d7a0d14c09","651c1a97fb5d45e10e20543a","null","null","<p style=""font-size: 60px; font-family: BACS"">PcBTDOk</p>","","","","","","","","","",""
"html-keyboard-response","137","530471","0.0-10.0-0.48","601951245f481e000980504f","650c16f0f2faf8d7a0d14c09","651c1a97fb5d45e10e20543a","null","null","<p style=""font-size: 60px; font-family: BACS"">kbmZOYUYa</p>","","","","","","","","","",""
"html-keyboard-response","138","531484","0.0-10.0-0.49","601951245f481e000980504f","650c16f0f2faf8d7a0d14c09","651c1a97fb5d45e10e20543a","null","null","<p style=""font-size: 60px; font-family: BACS"">mBYlCMdP</p>","","","","","","","","","",""
"html-keyboard-response","139","532488","0.0-10.0-0.50","601951245f481e000980504f","650c16f0f2faf8d7a0d14c09","651c1a97fb5d45e10e20543a","null","null","<p style=""font-size: 60px; font-family: BACS"">rvAJrNlZ</p>","","","","","","","","","",""
"html-keyboard-response","140","533504","0.0-10.0-0.51","601951245f481e000980504f","650c16f0f2faf8d7a0d14c09","651c1a97fb5d45e10e20543a","null","null","<p style=""font-size: 60px; font-family: BACS"">OAmAdCMdP</p>","","","","","","","","","",""
"html-keyboard-response","141","534510","0.0-10.0-0.52","601951245f481e000980504f","650c16f0f2faf8d7a0d14c09","651c1a97fb5d45e10e20543a","null","null","<p style=""font-size: 60px; font-family: BACS"">LvuOGuda</p>","","","","","","","","","",""
"html-keyboard-response","142","535523","0.0-10.0-0.53","601951245f481e000980504f","650c16f0f2faf8d7a0d14c09","651c1a97fb5d45e10e20543a","null","null","<p style=""font-size: 60px; font-family: BACS"">CchtdMKmY</p>","","","","","","","","","",""
"html-keyboard-response","143","536528","0.0-10.0-0.54","601951245f481e000980504f","650c16f0f2faf8d7a0d14c09","651c1a97fb5d45e10e20543a","null","null","<p style=""font-size: 60px; font-family: BACS"">NvYJrNlZ</p>","","","","","","","","","",""
"html-keyboard-response","144","537544","0.0-10.0-0.55","601951245f481e000980504f","650c16f0f2faf8d7a0d14c09","651c1a97fb5d45e10e20543a","null","null","<p style=""font-size: 60px; font-family: BACS"">QLrOJLcO</p>","","","","","","","","","",""
"html-keyboard-response","145","538549","0.0-10.0-0.56","601951245f481e000980504f","650c16f0f2faf8d7a0d14c09","651c1a97fb5d45e10e20543a","null","null","<p style=""font-size: 60px; font-family: BACS"">YJkbYNu</p>","","","","","","","","","",""
"html-keyboard-response","146","539564","0.0-10.0-0.57","601951245f481e000980504f","650c16f0f2faf8d7a0d14c09","651c1a97fb5d45e10e20543a","null","null","<p style=""font-size: 60px; font-family: BACS"">ACcOCMdP</p>","","","","","","","","","",""
"html-keyboard-response","147","540569","0.0-10.0-0.58","601951245f481e000980504f","650c16f0f2faf8d7a0d14c09","651c1a97fb5d45e10e20543a","null","null","<p style=""font-size: 60px; font-family: BACS"">LvuOGrNlZ</p>","","","","","","","","","",""
"html-keyboard-response","148","541583","0.0-10.0-0.59","601951245f481e000980504f","650c16f0f2faf8d7a0d14c09","651c1a97fb5d45e10e20543a","null","null","<p style=""font-size: 60px; font-family: BACS"">bmdABmAM</p>","","","","","","","","","",""
"html-keyboard-response","149","542588","0.0-10.0-0.60","601951245f481e000980504f","650c16f0f2faf8d7a0d14c09","651c1a97fb5d45e10e20543a","null","null","<p style=""font-size: 60px; font-family: BACS"">YNrAmrNlZ</p>","","","","","","","","","",""
"html-keyboard-response","150","543603","0.0-10.0-0.61","601951245f481e000980504f","650c16f0f2faf8d7a0d14c09","651c1a97fb5d45e10e20543a","null","null","<p style=""font-size: 60px; font-family: BACS"">rvAJLcO</p>","","","","","","","","","",""
"html-keyboard-response","151","544607","0.0-10.0-0.62","601951245f481e000980504f","650c16f0f2faf8d7a0d14c09","651c1a97fb5d45e10e20543a","null","null","<p style=""font-size: 60px; font-family: BACS"">LvuOGYNu</p>","","","","","","","","","",""
"html-keyboard-response","152","545622","0.0-10.0-0.63","601951245f481e000980504f","650c16f0f2faf8d7a0d14c09","651c1a97fb5d45e10e20543a","null","null","<p style=""font-size: 60px; font-family: BACS"">amJmrNlZ</p>","","","","","","","","","",""
"html-keyboard-response","153","546626","0.0-10.0-0.64","601951245f481e000980504f","650c16f0f2faf8d7a0d14c09","651c1a97fb5d45e10e20543a","null","null","<p style=""font-size: 60px; font-family: BACS"">YJkbuda</p>","","","","","","","","","",""
"html-keyboard-response","154","547642","0.0-10.0-0.65","601951245f481e000980504f","650c16f0f2faf8d7a0d14c09","651c1a97fb5d45e10e20543a","null","null","<p style=""font-size: 60px; font-family: BACS"">hlctEMKmY</p>","","","","","","","","","",""
"html-keyboard-response","155","548647","0.0-10.0-0.66","601951245f481e000980504f","650c16f0f2faf8d7a0d14c09","651c1a97fb5d45e10e20543a","null","null","<p style=""font-size: 60px; font-family: BACS"">EMYKCMdP</p>","","","","","","","","","",""
"html-keyboard-response","156","549662","0.0-10.0-0.67","601951245f481e000980504f","650c16f0f2faf8d7a0d14c09","651c1a97fb5d45e10e20543a","null","null","<p style=""font-size: 60px; font-family: BACS"">YNrAmuda</p>","","","","","","","","","",""
"html-keyboard-response","157","550666","0.0-10.0-0.68","601951245f481e000980504f","650c16f0f2faf8d7a0d14c09","651c1a97fb5d45e10e20543a","null","null","<p style=""font-size: 60px; font-family: BACS"">hlctEDOk</p>","","","","","","","","","",""
"html-keyboard-response","158","551682","0.0-10.0-0.69","601951245f481e000980504f","650c16f0f2faf8d7a0d14c09","651c1a97fb5d45e10e20543a","null","null","<p style=""font-size: 60px; font-family: BACS"">amJmuda</p>","","","","","","","","","",""
"html-keyboard-response","159","552686","0.0-10.0-0.70","601951245f481e000980504f","650c16f0f2faf8d7a0d14c09","651c1a97fb5d45e10e20543a","null","null","<p style=""font-size: 60px; font-family: BACS"">ObOQlrNlZ</p>","","","","","","","","","",""
"html-keyboard-response","160","553701","0.0-10.0-0.71","601951245f481e000980504f","650c16f0f2faf8d7a0d14c09","651c1a97fb5d45e10e20543a","null","null","<p style=""font-size: 60px; font-family: BACS"">kbmZOuda</p>","","","","","","","","","",""
"html-keyboard-response","161","554713","0.0-10.0-0.72","601951245f481e000980504f","650c16f0f2faf8d7a0d14c09","651c1a97fb5d45e10e20543a","null","null","<p style=""font-size: 60px; font-family: BACS"">advYOLcO</p>","","","","","","","","","",""
"html-keyboard-response","162","555726","0.0-10.0-0.73","601951245f481e000980504f","650c16f0f2faf8d7a0d14c09","651c1a97fb5d45e10e20543a","null","null","<p style=""font-size: 60px; font-family: BACS"">dKDthCMdP</p>","","","","","","","","","",""
"html-keyboard-response","163","556740","0.0-10.0-0.74","601951245f481e000980504f","650c16f0f2faf8d7a0d14c09","651c1a97fb5d45e10e20543a","null","null","<p style=""font-size: 60px; font-family: BACS"">ObOQluda</p>","","","","","","","","","",""
"html-keyboard-response","164","557745","0.0-10.0-0.75","601951245f481e000980504f","650c16f0f2faf8d7a0d14c09","651c1a97fb5d45e10e20543a","null","null","<p style=""font-size: 60px; font-family: BACS"">mBYlmAM</p>","","","","","","","","","",""
"html-keyboard-response","165","558761","0.0-10.0-0.76","601951245f481e000980504f","650c16f0f2faf8d7a0d14c09","651c1a97fb5d45e10e20543a","null","null","<p style=""font-size: 60px; font-family: BACS"">rvAJYNu</p>","","","","","","","","","",""
"html-keyboard-response","166","559764","0.0-10.0-0.77","601951245f481e000980504f","650c16f0f2faf8d7a0d14c09","651c1a97fb5d45e10e20543a","null","null","<p style=""font-size: 60px; font-family: BACS"">ObOQlYUYa</p>","","","","","","","","","",""
"html-keyboard-response","167","560780","0.0-10.0-0.78","601951245f481e000980504f","650c16f0f2faf8d7a0d14c09","651c1a97fb5d45e10e20543a","null","null","<p style=""font-size: 60px; font-family: BACS"">bmdABDOk</p>","","","","","","","","","",""
"html-keyboard-response","168","561785","0.0-10.0-0.79","601951245f481e000980504f","650c16f0f2faf8d7a0d14c09","651c1a97fb5d45e10e20543a","null","null","<p style=""font-size: 60px; font-family: BACS"">EMYKPMYm</p>","","","","","","","","","",""
"html-keyboard-response","169","610966","0.0-11.0","601951245f481e000980504f","650c16f0f2faf8d7a0d14c09","651c1a97fb5d45e10e20543a","49191"," ","<p>Great, you've seen the second block of words. You may now take a short break.</p>
      <p>Press the spacebar when you're ready to continue.</p>","","","","","","","","","",""
"html-keyboard-response","170","611971","0.0-12.0-0.0","601951245f481e000980504f","650c16f0f2faf8d7a0d14c09","651c1a97fb5d45e10e20543a","null","null","<p style=""font-size: 60px; font-family: BACS"">bmdABMKmY</p>","","","","","","","","","",""
"html-keyboard-response","171","612983","0.0-12.0-0.1","601951245f481e000980504f","650c16f0f2faf8d7a0d14c09","651c1a97fb5d45e10e20543a","null","null","<p style=""font-size: 60px; font-family: BACS"">ACcOCMdP</p>","","","","","","","","","",""
"html-keyboard-response","172","613986","0.0-12.0-0.2","601951245f481e000980504f","650c16f0f2faf8d7a0d14c09","651c1a97fb5d45e10e20543a","null","null","<p style=""font-size: 60px; font-family: BACS"">dKDthPMYm</p>","","","","","","","","","",""
"html-keyboard-response","173","614989","0.0-12.0-0.3","601951245f481e000980504f","650c16f0f2faf8d7a0d14c09","651c1a97fb5d45e10e20543a","null","null","<p style=""font-size: 60px; font-family: BACS"">YJkbYUYa</p>","","","","","","","","","",""
"html-keyboard-response","174","616001","0.0-12.0-0.4","601951245f481e000980504f","650c16f0f2faf8d7a0d14c09","651c1a97fb5d45e10e20543a","null","null","<p style=""font-size: 60px; font-family: BACS"">bmdABPMYm</p>","","","","","","","","","",""
"html-keyboard-response","175","617005","0.0-12.0-0.5","601951245f481e000980504f","650c16f0f2faf8d7a0d14c09","651c1a97fb5d45e10e20543a","null","null","<p style=""font-size: 60px; font-family: BACS"">QLrOJYUYa</p>","","","","","","","","","",""
"html-keyboard-response","176","618020","0.0-12.0-0.6","601951245f481e000980504f","650c16f0f2faf8d7a0d14c09","651c1a97fb5d45e10e20543a","null","null","<p style=""font-size: 60px; font-family: BACS"">hlctEMKmY</p>","","","","","","","","","",""
"html-keyboard-response","177","619025","0.0-12.0-0.7","601951245f481e000980504f","650c16f0f2faf8d7a0d14c09","651c1a97fb5d45e10e20543a","null","null","<p style=""font-size: 60px; font-family: BACS"">ACcOPMYm</p>","","","","","","","","","",""
"html-keyboard-response","178","620040","0.0-12.0-0.8","601951245f481e000980504f","650c16f0f2faf8d7a0d14c09","651c1a97fb5d45e10e20543a","null","null","<p style=""font-size: 60px; font-family: BACS"">YJkbYNu</p>","","","","","","","","","",""
"html-keyboard-response","179","621045","0.0-12.0-0.9","601951245f481e000980504f","650c16f0f2faf8d7a0d14c09","651c1a97fb5d45e10e20543a","null","null","<p style=""font-size: 60px; font-family: BACS"">PcBTMKmY</p>","","","","","","","","","",""
"html-keyboard-response","180","622059","0.0-12.0-0.10","601951245f481e000980504f","650c16f0f2faf8d7a0d14c09","651c1a97fb5d45e10e20543a","null","null","<p style=""font-size: 60px; font-family: BACS"">QLrOJYNu</p>","","","","","","","","","",""
"html-keyboard-response","181","623063","0.0-12.0-0.11","601951245f481e000980504f","650c16f0f2faf8d7a0d14c09","651c1a97fb5d45e10e20543a","null","null","<p style=""font-size: 60px; font-family: BACS"">ACcODOk</p>","","","","","","","","","",""
"html-keyboard-response","182","624079","0.0-12.0-0.12","601951245f481e000980504f","650c16f0f2faf8d7a0d14c09","651c1a97fb5d45e10e20543a","null","null","<p style=""font-size: 60px; font-family: BACS"">OAmAdPMYm</p>","","","","","","","","","",""
"html-keyboard-response","183","625084","0.0-12.0-0.13","601951245f481e000980504f","650c16f0f2faf8d7a0d14c09","651c1a97fb5d45e10e20543a","null","null","<p style=""font-size: 60px; font-family: BACS"">advYOuda</p>","","","","","","","","","",""
"html-keyboard-response","184","626099","0.0-12.0-0.14","601951245f481e000980504f","650c16f0f2faf8d7a0d14c09","651c1a97fb5d45e10e20543a","null","null","<p style=""font-size: 60px; font-family: BACS"">kbmZOYUYa</p>","","","","","","","","","",""
"html-keyboard-response","185","627104","0.0-12.0-0.15","601951245f481e000980504f","650c16f0f2faf8d7a0d14c09","651c1a97fb5d45e10e20543a","null","null","<p style=""font-size: 60px; font-family: BACS"">ObOQlrNlZ</p>","","","","","","","","","",""
"html-keyboard-response","186","628108","0.0-12.0-0.16","601951245f481e000980504f","650c16f0f2faf8d7a0d14c09","651c1a97fb5d45e10e20543a","null","null","<p style=""font-size: 60px; font-family: BACS"">NvYJYNu</p>","","","","","","","","","",""
"html-keyboard-response","187","629123","0.0-12.0-0.17","601951245f481e000980504f","650c16f0f2faf8d7a0d14c09","651c1a97fb5d45e10e20543a","null","null","<p style=""font-size: 60px; font-family: BACS"">ObOQlYUYa</p>","","","","","","","","","",""
"html-keyboard-response","188","630139","0.0-12.0-0.18","601951245f481e000980504f","650c16f0f2faf8d7a0d14c09","651c1a97fb5d45e10e20543a","null","null","<p style=""font-size: 60px; font-family: BACS"">amJmYNu</p>","","","","","","","","","",""
"html-keyboard-response","189","631144","0.0-12.0-0.19","601951245f481e000980504f","650c16f0f2faf8d7a0d14c09","651c1a97fb5d45e10e20543a","null","null","<p style=""font-size: 60px; font-family: BACS"">dKDthmAM</p>","","","","","","","","","",""
"html-keyboard-response","190","632158","0.0-12.0-0.20","601951245f481e000980504f","650c16f0f2faf8d7a0d14c09","651c1a97fb5d45e10e20543a","null","null","<p style=""font-size: 60px; font-family: BACS"">rvAJYNu</p>","","","","","","","","","",""
"html-keyboard-response","191","633163","0.0-12.0-0.21","601951245f481e000980504f","650c16f0f2faf8d7a0d14c09","651c1a97fb5d45e10e20543a","null","null","<p style=""font-size: 60px; font-family: BACS"">YJkbuda</p>","","","","","","","","","",""
"html-keyboard-response","192","634178","0.0-12.0-0.22","601951245f481e000980504f","650c16f0f2faf8d7a0d14c09","651c1a97fb5d45e10e20543a","null","null","<p style=""font-size: 60px; font-family: BACS"">bmdABmAM</p>","","","","","","","","","",""
"html-keyboard-response","193","635182","0.0-12.0-0.23","601951245f481e000980504f","650c16f0f2faf8d7a0d14c09","651c1a97fb5d45e10e20543a","null","null","<p style=""font-size: 60px; font-family: BACS"">LvuOGYNu</p>","","","","","","","","","",""
"html-keyboard-response","194","636198","0.0-12.0-0.24","601951245f481e000980504f","650c16f0f2faf8d7a0d14c09","651c1a97fb5d45e10e20543a","null","null","<p style=""font-size: 60px; font-family: BACS"">hlctECMdP</p>","","","","","","","","","",""
"html-keyboard-response","195","637202","0.0-12.0-0.25","601951245f481e000980504f","650c16f0f2faf8d7a0d14c09","651c1a97fb5d45e10e20543a","null","null","<p style=""font-size: 60px; font-family: BACS"">advYOrNlZ</p>","","","","","","","","","",""
"html-keyboard-response","196","638218","0.0-12.0-0.26","601951245f481e000980504f","650c16f0f2faf8d7a0d14c09","651c1a97fb5d45e10e20543a","null","null","<p style=""font-size: 60px; font-family: BACS"">PcBTDOk</p>","","","","","","","","","",""
"html-keyboard-response","197","639222","0.0-12.0-0.27","601951245f481e000980504f","650c16f0f2faf8d7a0d14c09","651c1a97fb5d45e10e20543a","null","null","<p style=""font-size: 60px; font-family: BACS"">mBYlmAM</p>","","","","","","","","","",""
"html-keyboard-response","198","640238","0.0-12.0-0.28","601951245f481e000980504f","650c16f0f2faf8d7a0d14c09","651c1a97fb5d45e10e20543a","null","null","<p style=""font-size: 60px; font-family: BACS"">LvuOGrNlZ</p>","","","","","","","","","",""
"html-keyboard-response","199","641241","0.0-12.0-0.29","601951245f481e000980504f","650c16f0f2faf8d7a0d14c09","651c1a97fb5d45e10e20543a","null","null","<p style=""font-size: 60px; font-family: BACS"">ObOQlLcO</p>","","","","","","","","","",""
"html-keyboard-response","200","642250","0.0-12.0-0.30","601951245f481e000980504f","650c16f0f2faf8d7a0d14c09","651c1a97fb5d45e10e20543a","null","null","<p style=""font-size: 60px; font-family: BACS"">rvAJrNlZ</p>","","","","","","","","","",""
"html-keyboard-response","201","643261","0.0-12.0-0.31","601951245f481e000980504f","650c16f0f2faf8d7a0d14c09","651c1a97fb5d45e10e20543a","null","null","<p style=""font-size: 60px; font-family: BACS"">CchtdCMdP</p>","","","","","","","","","",""
"html-keyboard-response","202","644265","0.0-12.0-0.32","601951245f481e000980504f","650c16f0f2faf8d7a0d14c09","651c1a97fb5d45e10e20543a","null","null","<p style=""font-size: 60px; font-family: BACS"">NvYJLcO</p>","","","","","","","","","",""
"html-keyboard-response","203","645276","0.0-12.0-0.33","601951245f481e000980504f","650c16f0f2faf8d7a0d14c09","651c1a97fb5d45e10e20543a","null","null","<p style=""font-size: 60px; font-family: BACS"">ACcOmAM</p>","","","","","","","","","",""
"html-keyboard-response","204","646281","0.0-12.0-0.34","601951245f481e000980504f","650c16f0f2faf8d7a0d14c09","651c1a97fb5d45e10e20543a","null","null","<p style=""font-size: 60px; font-family: BACS"">QLrOJrNlZ</p>","","","","","","","","","",""
"html-keyboard-response","205","647295","0.0-12.0-0.35","601951245f481e000980504f","650c16f0f2faf8d7a0d14c09","651c1a97fb5d45e10e20543a","null","null","<p style=""font-size: 60px; font-family: BACS"">rvAJLcO</p>","","","","","","","","","",""
"html-keyboard-response","206","648300","0.0-12.0-0.36","601951245f481e000980504f","650c16f0f2faf8d7a0d14c09","651c1a97fb5d45e10e20543a","null","null","<p style=""font-size: 60px; font-family: BACS"">NvYJrNlZ</p>","","","","","","","","","",""
"html-keyboard-response","207","649316","0.0-12.0-0.37","601951245f481e000980504f","650c16f0f2faf8d7a0d14c09","651c1a97fb5d45e10e20543a","null","null","<p style=""font-size: 60px; font-family: BACS"">amJmuda</p>","","","","","","","","","",""
"html-keyboard-response","208","650326","0.0-12.0-0.38","601951245f481e000980504f","650c16f0f2faf8d7a0d14c09","651c1a97fb5d45e10e20543a","null","null","<p style=""font-size: 60px; font-family: BACS"">dKDthMKmY</p>","","","","","","","","","",""
"html-keyboard-response","209","651342","0.0-12.0-0.39","601951245f481e000980504f","650c16f0f2faf8d7a0d14c09","651c1a97fb5d45e10e20543a","null","null","<p style=""font-size: 60px; font-family: BACS"">OAmAdCMdP</p>","","","","","","","","","",""
"html-keyboard-response","210","652358","0.0-12.0-0.40","601951245f481e000980504f","650c16f0f2faf8d7a0d14c09","651c1a97fb5d45e10e20543a","null","null","<p style=""font-size: 60px; font-family: BACS"">advYOYUYa</p>","","","","","","","","","",""
"html-keyboard-response","211","653375","0.0-12.0-0.41","601951245f481e000980504f","650c16f0f2faf8d7a0d14c09","651c1a97fb5d45e10e20543a","null","null","<p style=""font-size: 60px; font-family: BACS"">OAmAdMKmY</p>","","","","","","","","","",""
"html-keyboard-response","212","654384","0.0-12.0-0.42","601951245f481e000980504f","650c16f0f2faf8d7a0d14c09","651c1a97fb5d45e10e20543a","null","null","<p style=""font-size: 60px; font-family: BACS"">YNrAmuda</p>","","","","","","","","","",""
"html-keyboard-response","213","655395","0.0-12.0-0.43","601951245f481e000980504f","650c16f0f2faf8d7a0d14c09","651c1a97fb5d45e10e20543a","null","null","<p style=""font-size: 60px; font-family: BACS"">bmdABDOk</p>","","","","","","","","","",""
"html-keyboard-response","214","656399","0.0-12.0-0.44","601951245f481e000980504f","650c16f0f2faf8d7a0d14c09","651c1a97fb5d45e10e20543a","null","null","<p style=""font-size: 60px; font-family: BACS"">dKDthCMdP</p>","","","","","","","","","",""
"html-keyboard-response","215","657414","0.0-12.0-0.45","601951245f481e000980504f","650c16f0f2faf8d7a0d14c09","651c1a97fb5d45e10e20543a","null","null","<p style=""font-size: 60px; font-family: BACS"">dRhtPMYm</p>","","","","","","","","","",""
"html-keyboard-response","216","658419","0.0-12.0-0.46","601951245f481e000980504f","650c16f0f2faf8d7a0d14c09","651c1a97fb5d45e10e20543a","null","null","<p style=""font-size: 60px; font-family: BACS"">kbmZOuda</p>","","","","","","","","","",""
"html-keyboard-response","217","659423","0.0-12.0-0.47","601951245f481e000980504f","650c16f0f2faf8d7a0d14c09","651c1a97fb5d45e10e20543a","null","null","<p style=""font-size: 60px; font-family: BACS"">PcBTPMYm</p>","","","","","","","","","",""
"html-keyboard-response","218","660434","0.0-12.0-0.48","601951245f481e000980504f","650c16f0f2faf8d7a0d14c09","651c1a97fb5d45e10e20543a","null","null","<p style=""font-size: 60px; font-family: BACS"">hlctEmAM</p>","","","","","","","","","",""
"html-keyboard-response","219","661438","0.0-12.0-0.49","601951245f481e000980504f","650c16f0f2faf8d7a0d14c09","651c1a97fb5d45e10e20543a","null","null","<p style=""font-size: 60px; font-family: BACS"">amJmrNlZ</p>","","","","","","","","","",""
"html-keyboard-response","220","662454","0.0-12.0-0.50","601951245f481e000980504f","650c16f0f2faf8d7a0d14c09","651c1a97fb5d45e10e20543a","null","null","<p style=""font-size: 60px; font-family: BACS"">hlctEDOk</p>","","","","","","","","","",""
"html-keyboard-response","221","663458","0.0-12.0-0.51","601951245f481e000980504f","650c16f0f2faf8d7a0d14c09","651c1a97fb5d45e10e20543a","null","null","<p style=""font-size: 60px; font-family: BACS"">kbmZOYNu</p>","","","","","","","","","",""
"html-keyboard-response","222","664467","0.0-12.0-0.52","601951245f481e000980504f","650c16f0f2faf8d7a0d14c09","651c1a97fb5d45e10e20543a","null","null","<p style=""font-size: 60px; font-family: BACS"">YJkbLcO</p>","","","","","","","","","",""
"html-keyboard-response","223","665482","0.0-12.0-0.53","601951245f481e000980504f","650c16f0f2faf8d7a0d14c09","651c1a97fb5d45e10e20543a","null","null","<p style=""font-size: 60px; font-family: BACS"">CchtdMKmY</p>","","","","","","","","","",""
"html-keyboard-response","224","666493","0.0-12.0-0.54","601951245f481e000980504f","650c16f0f2faf8d7a0d14c09","651c1a97fb5d45e10e20543a","null","null","<p style=""font-size: 60px; font-family: BACS"">mBYlCMdP</p>","","","","","","","","","",""
"html-keyboard-response","225","667497","0.0-12.0-0.55","601951245f481e000980504f","650c16f0f2faf8d7a0d14c09","651c1a97fb5d45e10e20543a","null","null","<p style=""font-size: 60px; font-family: BACS"">kbmZOLcO</p>","","","","","","","","","",""
"html-keyboard-response","226","668513","0.0-12.0-0.56","601951245f481e000980504f","650c16f0f2faf8d7a0d14c09","651c1a97fb5d45e10e20543a","null","null","<p style=""font-size: 60px; font-family: BACS"">mBYlDOk</p>","","","","","","","","","",""
"html-keyboard-response","227","669517","0.0-12.0-0.57","601951245f481e000980504f","650c16f0f2faf8d7a0d14c09","651c1a97fb5d45e10e20543a","null","null","<p style=""font-size: 60px; font-family: BACS"">QLrOJLcO</p>","","","","","","","","","",""
"html-keyboard-response","228","670533","0.0-12.0-0.58","601951245f481e000980504f","650c16f0f2faf8d7a0d14c09","651c1a97fb5d45e10e20543a","null","null","<p style=""font-size: 60px; font-family: BACS"">dRhtCMdP</p>","","","","","","","","","",""
"html-keyboard-response","229","671547","0.0-12.0-0.59","601951245f481e000980504f","650c16f0f2faf8d7a0d14c09","651c1a97fb5d45e10e20543a","null","null","<p style=""font-size: 60px; font-family: BACS"">NvYJYUYa</p>","","","","","","","","","",""
"html-keyboard-response","230","672563","0.0-12.0-0.60","601951245f481e000980504f","650c16f0f2faf8d7a0d14c09","651c1a97fb5d45e10e20543a","null","null","<p style=""font-size: 60px; font-family: BACS"">LvuOGuda</p>","","","","","","","","","",""
"html-keyboard-response","231","673572","0.0-12.0-0.61","601951245f481e000980504f","650c16f0f2faf8d7a0d14c09","651c1a97fb5d45e10e20543a","null","null","<p style=""font-size: 60px; font-family: BACS"">CchtdPMYm</p>","","","","","","","","","",""
"html-keyboard-response","232","674583","0.0-12.0-0.62","601951245f481e000980504f","650c16f0f2faf8d7a0d14c09","651c1a97fb5d45e10e20543a","null","null","<p style=""font-size: 60px; font-family: BACS"">LvuOGYUYa</p>","","","","","","","","","",""
"html-keyboard-response","233","675587","0.0-12.0-0.63","601951245f481e000980504f","650c16f0f2faf8d7a0d14c09","651c1a97fb5d45e10e20543a","null","null","<p style=""font-size: 60px; font-family: BACS"">amJmLcO</p>","","","","","","","","","",""
"html-keyboard-response","234","676602","0.0-12.0-0.64","601951245f481e000980504f","650c16f0f2faf8d7a0d14c09","651c1a97fb5d45e10e20543a","null","null","<p style=""font-size: 60px; font-family: BACS"">ObOQluda</p>","","","","","","","","","",""
"html-keyboard-response","235","677607","0.0-12.0-0.65","601951245f481e000980504f","650c16f0f2faf8d7a0d14c09","651c1a97fb5d45e10e20543a","null","null","<p style=""font-size: 60px; font-family: BACS"">EMYKDOk</p>","","","","","","","","","",""
"html-keyboard-response","236","678622","0.0-12.0-0.66","601951245f481e000980504f","650c16f0f2faf8d7a0d14c09","651c1a97fb5d45e10e20543a","null","null","<p style=""font-size: 60px; font-family: BACS"">mBYlMKmY</p>","","","","","","","","","",""
"html-keyboard-response","237","679630","0.0-12.0-0.67","601951245f481e000980504f","650c16f0f2faf8d7a0d14c09","651c1a97fb5d45e10e20543a","null","null","<p style=""font-size: 60px; font-family: BACS"">EMYKCMdP</p>","","","","","","","","","",""
"html-keyboard-response","238","680632","0.0-12.0-0.68","601951245f481e000980504f","650c16f0f2faf8d7a0d14c09","651c1a97fb5d45e10e20543a","null","null","<p style=""font-size: 60px; font-family: BACS"">PcBTmAM</p>","","","","","","","","","",""
"html-keyboard-response","239","681641","0.0-12.0-0.69","601951245f481e000980504f","650c16f0f2faf8d7a0d14c09","651c1a97fb5d45e10e20543a","null","null","<p style=""font-size: 60px; font-family: BACS"">YNrAmYUYa</p>","","","","","","","","","",""
"html-keyboard-response","240","682653","0.0-12.0-0.70","601951245f481e000980504f","650c16f0f2faf8d7a0d14c09","651c1a97fb5d45e10e20543a","null","null","<p style=""font-size: 60px; font-family: BACS"">dRhtMKmY</p>","","","","","","","","","",""
"html-keyboard-response","241","683655","0.0-12.0-0.71","601951245f481e000980504f","650c16f0f2faf8d7a0d14c09","651c1a97fb5d45e10e20543a","null","null","<p style=""font-size: 60px; font-family: BACS"">YNrAmYNu</p>","","","","","","","","","",""
"html-keyboard-response","242","684670","0.0-12.0-0.72","601951245f481e000980504f","650c16f0f2faf8d7a0d14c09","651c1a97fb5d45e10e20543a","null","null","<p style=""font-size: 60px; font-family: BACS"">advYOLcO</p>","","","","","","","","","",""
"html-keyboard-response","243","685685","0.0-12.0-0.73","601951245f481e000980504f","650c16f0f2faf8d7a0d14c09","651c1a97fb5d45e10e20543a","null","null","<p style=""font-size: 60px; font-family: BACS"">EMYKmAM</p>","","","","","","","","","",""
"html-keyboard-response","244","686689","0.0-12.0-0.74","601951245f481e000980504f","650c16f0f2faf8d7a0d14c09","651c1a97fb5d45e10e20543a","null","null","<p style=""font-size: 60px; font-family: BACS"">rvAJuda</p>","","","","","","","","","",""
"html-keyboard-response","245","687691","0.0-12.0-0.75","601951245f481e000980504f","650c16f0f2faf8d7a0d14c09","651c1a97fb5d45e10e20543a","null","null","<p style=""font-size: 60px; font-family: BACS"">CchtdmAM</p>","","","","","","","","","",""
"html-keyboard-response","246","688701","0.0-12.0-0.76","601951245f481e000980504f","650c16f0f2faf8d7a0d14c09","651c1a97fb5d45e10e20543a","null","null","<p style=""font-size: 60px; font-family: BACS"">EMYKPMYm</p>","","","","","","","","","",""
"html-keyboard-response","247","689705","0.0-12.0-0.77","601951245f481e000980504f","650c16f0f2faf8d7a0d14c09","651c1a97fb5d45e10e20543a","null","null","<p style=""font-size: 60px; font-family: BACS"">OAmAdDOk</p>","","","","","","","","","",""
"html-keyboard-response","248","690720","0.0-12.0-0.78","601951245f481e000980504f","650c16f0f2faf8d7a0d14c09","651c1a97fb5d45e10e20543a","null","null","<p style=""font-size: 60px; font-family: BACS"">YNrAmrNlZ</p>","","","","","","","","","",""
"html-keyboard-response","249","691724","0.0-12.0-0.79","601951245f481e000980504f","650c16f0f2faf8d7a0d14c09","651c1a97fb5d45e10e20543a","null","null","<p style=""font-size: 60px; font-family: BACS"">dRhtDOk</p>","","","","","","","","","",""
"html-keyboard-response","250","753072","0.0-13.0","601951245f481e000980504f","650c16f0f2faf8d7a0d14c09","651c1a97fb5d45e10e20543a","61348"," ","<p>Great, you've seen the third block of words. You may now take a short break.</p>
      <p>Press the spacebar when you're ready to continue.</p>","","","","","","","","","",""
"html-keyboard-response","251","754078","0.0-14.0-0.0","601951245f481e000980504f","650c16f0f2faf8d7a0d14c09","651c1a97fb5d45e10e20543a","null","null","<p style=""font-size: 60px; font-family: BACS"">ACcOmAM</p>","","","","","","","","","",""
"html-keyboard-response","252","755089","0.0-14.0-0.1","601951245f481e000980504f","650c16f0f2faf8d7a0d14c09","651c1a97fb5d45e10e20543a","null","null","<p style=""font-size: 60px; font-family: BACS"">PcBTDOk</p>","","","","","","","","","",""
"html-keyboard-response","253","756094","0.0-14.0-0.2","601951245f481e000980504f","650c16f0f2faf8d7a0d14c09","651c1a97fb5d45e10e20543a","null","null","<p style=""font-size: 60px; font-family: BACS"">ObOQluda</p>","","","","","","","","","",""
"html-keyboard-response","254","757099","0.0-14.0-0.3","601951245f481e000980504f","650c16f0f2faf8d7a0d14c09","651c1a97fb5d45e10e20543a","null","null","<p style=""font-size: 60px; font-family: BACS"">QLrOJYNu</p>","","","","","","","","","",""
"html-keyboard-response","255","758109","0.0-14.0-0.4","601951245f481e000980504f","650c16f0f2faf8d7a0d14c09","651c1a97fb5d45e10e20543a","null","null","<p style=""font-size: 60px; font-family: BACS"">YNrAmrNlZ</p>","","","","","","","","","",""
"html-keyboard-response","256","759120","0.0-14.0-0.5","601951245f481e000980504f","650c16f0f2faf8d7a0d14c09","651c1a97fb5d45e10e20543a","null","null","<p style=""font-size: 60px; font-family: BACS"">dKDthmAM</p>","","","","","","","","","",""
"html-keyboard-response","257","760133","0.0-14.0-0.6","601951245f481e000980504f","650c16f0f2faf8d7a0d14c09","651c1a97fb5d45e10e20543a","null","null","<p style=""font-size: 60px; font-family: BACS"">dRhtDOk</p>","","","","","","","","","",""
"html-keyboard-response","258","761148","0.0-14.0-0.7","601951245f481e000980504f","650c16f0f2faf8d7a0d14c09","651c1a97fb5d45e10e20543a","null","null","<p style=""font-size: 60px; font-family: BACS"">dKDthPMYm</p>","","","","","","","","","",""
"html-keyboard-response","259","762153","0.0-14.0-0.8","601951245f481e000980504f","650c16f0f2faf8d7a0d14c09","651c1a97fb5d45e10e20543a","null","null","<p style=""font-size: 60px; font-family: BACS"">ObOQlrNlZ</p>","","","","","","","","","",""
"html-keyboard-response","260","763169","0.0-14.0-0.9","601951245f481e000980504f","650c16f0f2faf8d7a0d14c09","651c1a97fb5d45e10e20543a","null","null","<p style=""font-size: 60px; font-family: BACS"">dRhtMKmY</p>","","","","","","","","","",""
"html-keyboard-response","261","764172","0.0-14.0-0.10","601951245f481e000980504f","650c16f0f2faf8d7a0d14c09","651c1a97fb5d45e10e20543a","null","null","<p style=""font-size: 60px; font-family: BACS"">CchtdCMdP</p>","","","","","","","","","",""
"html-keyboard-response","262","765188","0.0-14.0-0.11","601951245f481e000980504f","650c16f0f2faf8d7a0d14c09","651c1a97fb5d45e10e20543a","null","null","<p style=""font-size: 60px; font-family: BACS"">LvuOGYNu</p>","","","","","","","","","",""
"html-keyboard-response","263","766203","0.0-14.0-0.12","601951245f481e000980504f","650c16f0f2faf8d7a0d14c09","651c1a97fb5d45e10e20543a","null","null","<p style=""font-size: 60px; font-family: BACS"">QLrOJLcO</p>","","","","","","","","","",""
"html-keyboard-response","264","767206","0.0-14.0-0.13","601951245f481e000980504f","650c16f0f2faf8d7a0d14c09","651c1a97fb5d45e10e20543a","null","null","<p style=""font-size: 60px; font-family: BACS"">hlctECMdP</p>","","","","","","","","","",""
"html-keyboard-response","265","768211","0.0-14.0-0.14","601951245f481e000980504f","650c16f0f2faf8d7a0d14c09","651c1a97fb5d45e10e20543a","null","null","<p style=""font-size: 60px; font-family: BACS"">OAmAdDOk</p>","","","","","","","","","",""
"html-keyboard-response","266","769227","0.0-14.0-0.15","601951245f481e000980504f","650c16f0f2faf8d7a0d14c09","651c1a97fb5d45e10e20543a","null","null","<p style=""font-size: 60px; font-family: BACS"">kbmZOYNu</p>","","","","","","","","","",""
"html-keyboard-response","267","770231","0.0-14.0-0.16","601951245f481e000980504f","650c16f0f2faf8d7a0d14c09","651c1a97fb5d45e10e20543a","null","null","<p style=""font-size: 60px; font-family: BACS"">bmdABPMYm</p>","","","","","","","","","",""
"html-keyboard-response","268","771235","0.0-14.0-0.17","601951245f481e000980504f","650c16f0f2faf8d7a0d14c09","651c1a97fb5d45e10e20543a","null","null","<p style=""font-size: 60px; font-family: BACS"">CchtdMKmY</p>","","","","","","","","","",""
"html-keyboard-response","269","772251","0.0-14.0-0.18","601951245f481e000980504f","650c16f0f2faf8d7a0d14c09","651c1a97fb5d45e10e20543a","null","null","<p style=""font-size: 60px; font-family: BACS"">PcBTmAM</p>","","","","","","","","","",""
"html-keyboard-response","270","773266","0.0-14.0-0.19","601951245f481e000980504f","650c16f0f2faf8d7a0d14c09","651c1a97fb5d45e10e20543a","null","null","<p style=""font-size: 60px; font-family: BACS"">YJkbLcO</p>","","","","","","","","","",""
"html-keyboard-response","271","774270","0.0-14.0-0.20","601951245f481e000980504f","650c16f0f2faf8d7a0d14c09","651c1a97fb5d45e10e20543a","null","null","<p style=""font-size: 60px; font-family: BACS"">NvYJrNlZ</p>","","","","","","","","","",""
"html-keyboard-response","272","775286","0.0-14.0-0.21","601951245f481e000980504f","650c16f0f2faf8d7a0d14c09","651c1a97fb5d45e10e20543a","null","null","<p style=""font-size: 60px; font-family: BACS"">YNrAmuda</p>","","","","","","","","","",""
"html-keyboard-response","273","776295","0.0-14.0-0.22","601951245f481e000980504f","650c16f0f2faf8d7a0d14c09","651c1a97fb5d45e10e20543a","null","null","<p style=""font-size: 60px; font-family: BACS"">ObOQlLcO</p>","","","","","","","","","",""
"html-keyboard-response","274","777306","0.0-14.0-0.23","601951245f481e000980504f","650c16f0f2faf8d7a0d14c09","651c1a97fb5d45e10e20543a","null","null","<p style=""font-size: 60px; font-family: BACS"">rvAJYNu</p>","","","","","","","","","",""
"html-keyboard-response","275","778310","0.0-14.0-0.24","601951245f481e000980504f","650c16f0f2faf8d7a0d14c09","651c1a97fb5d45e10e20543a","null","null","<p style=""font-size: 60px; font-family: BACS"">advYOuda</p>","","","","","","","","","",""
"html-keyboard-response","276","779325","0.0-14.0-0.25","601951245f481e000980504f","650c16f0f2faf8d7a0d14c09","651c1a97fb5d45e10e20543a","null","null","<p style=""font-size: 60px; font-family: BACS"">QLrOJrNlZ</p>","","","","","","","","","",""
"html-keyboard-response","277","780330","0.0-14.0-0.26","601951245f481e000980504f","650c16f0f2faf8d7a0d14c09","651c1a97fb5d45e10e20543a","null","null","<p style=""font-size: 60px; font-family: BACS"">dRhtPMYm</p>","","","","","","","","","",""
"html-keyboard-response","278","781338","0.0-14.0-0.27","601951245f481e000980504f","650c16f0f2faf8d7a0d14c09","651c1a97fb5d45e10e20543a","null","null","<p style=""font-size: 60px; font-family: BACS"">amJmuda</p>","","","","","","","","","",""
"html-keyboard-response","279","782349","0.0-14.0-0.28","601951245f481e000980504f","650c16f0f2faf8d7a0d14c09","651c1a97fb5d45e10e20543a","null","null","<p style=""font-size: 60px; font-family: BACS"">OAmAdPMYm</p>","","","","","","","","","",""
"html-keyboard-response","280","783366","0.0-14.0-0.29","601951245f481e000980504f","650c16f0f2faf8d7a0d14c09","651c1a97fb5d45e10e20543a","null","null","<p style=""font-size: 60px; font-family: BACS"">YJkbYNu</p>","","","","","","","","","",""
"html-keyboard-response","281","784375","0.0-14.0-0.30","601951245f481e000980504f","650c16f0f2faf8d7a0d14c09","651c1a97fb5d45e10e20543a","null","null","<p style=""font-size: 60px; font-family: BACS"">mBYlDOk</p>","","","","","","","","","",""
"html-keyboard-response","282","785384","0.0-14.0-0.31","601951245f481e000980504f","650c16f0f2faf8d7a0d14c09","651c1a97fb5d45e10e20543a","null","null","<p style=""font-size: 60px; font-family: BACS"">LvuOGYUYa</p>","","","","","","","","","",""
"html-keyboard-response","283","786388","0.0-14.0-0.32","601951245f481e000980504f","650c16f0f2faf8d7a0d14c09","651c1a97fb5d45e10e20543a","null","null","<p style=""font-size: 60px; font-family: BACS"">YJkbuda</p>","","","","","","","","","",""
"html-keyboard-response","284","787406","0.0-14.0-0.33","601951245f481e000980504f","650c16f0f2faf8d7a0d14c09","651c1a97fb5d45e10e20543a","null","null","<p style=""font-size: 60px; font-family: BACS"">bmdABDOk</p>","","","","","","","","","",""
"html-keyboard-response","285","788408","0.0-14.0-0.34","601951245f481e000980504f","650c16f0f2faf8d7a0d14c09","651c1a97fb5d45e10e20543a","null","null","<p style=""font-size: 60px; font-family: BACS"">dKDthMKmY</p>","","","","","","","","","",""
"html-keyboard-response","286","789424","0.0-14.0-0.35","601951245f481e000980504f","650c16f0f2faf8d7a0d14c09","651c1a97fb5d45e10e20543a","null","null","<p style=""font-size: 60px; font-family: BACS"">amJmLcO</p>","","","","","","","","","",""
"html-keyboard-response","287","790428","0.0-14.0-0.36","601951245f481e000980504f","650c16f0f2faf8d7a0d14c09","651c1a97fb5d45e10e20543a","null","null","<p style=""font-size: 60px; font-family: BACS"">rvAJrNlZ</p>","","","","","","","","","",""
"html-keyboard-response","288","791443","0.0-14.0-0.37","601951245f481e000980504f","650c16f0f2faf8d7a0d14c09","651c1a97fb5d45e10e20543a","null","null","<p style=""font-size: 60px; font-family: BACS"">ACcODOk</p>","","","","","","","","","",""
"html-keyboard-response","289","792458","0.0-14.0-0.38","601951245f481e000980504f","650c16f0f2faf8d7a0d14c09","651c1a97fb5d45e10e20543a","null","null","<p style=""font-size: 60px; font-family: BACS"">CchtdmAM</p>","","","","","","","","","",""
"html-keyboard-response","290","793467","0.0-14.0-0.39","601951245f481e000980504f","650c16f0f2faf8d7a0d14c09","651c1a97fb5d45e10e20543a","null","null","<p style=""font-size: 60px; font-family: BACS"">bmdABMKmY</p>","","","","","","","","","",""
"html-keyboard-response","291","794472","0.0-14.0-0.40","601951245f481e000980504f","650c16f0f2faf8d7a0d14c09","651c1a97fb5d45e10e20543a","null","null","<p style=""font-size: 60px; font-family: BACS"">ACcOCMdP</p>","","","","","","","","","",""
"html-keyboard-response","292","795483","0.0-14.0-0.41","601951245f481e000980504f","650c16f0f2faf8d7a0d14c09","651c1a97fb5d45e10e20543a","null","null","<p style=""font-size: 60px; font-family: BACS"">advYOYUYa</p>","","","","","","","","","",""
"html-keyboard-response","293","796487","0.0-14.0-0.42","601951245f481e000980504f","650c16f0f2faf8d7a0d14c09","651c1a97fb5d45e10e20543a","null","null","<p style=""font-size: 60px; font-family: BACS"">bmdABmAM</p>","","","","","","","","","",""
"html-keyboard-response","294","797490","0.0-14.0-0.43","601951245f481e000980504f","650c16f0f2faf8d7a0d14c09","651c1a97fb5d45e10e20543a","null","null","<p style=""font-size: 60px; font-family: BACS"">kbmZOLcO</p>","","","","","","","","","",""
"html-keyboard-response","295","798502","0.0-14.0-0.44","601951245f481e000980504f","650c16f0f2faf8d7a0d14c09","651c1a97fb5d45e10e20543a","null","null","<p style=""font-size: 60px; font-family: BACS"">PcBTMKmY</p>","","","","","","","","","",""
"html-keyboard-response","296","799508","0.0-14.0-0.45","601951245f481e000980504f","650c16f0f2faf8d7a0d14c09","651c1a97fb5d45e10e20543a","null","null","<p style=""font-size: 60px; font-family: BACS"">LvuOGrNlZ</p>","","","","","","","","","",""
"html-keyboard-response","297","800529","0.0-14.0-0.46","601951245f481e000980504f","650c16f0f2faf8d7a0d14c09","651c1a97fb5d45e10e20543a","null","null","<p style=""font-size: 60px; font-family: BACS"">kbmZOYUYa</p>","","","","","","","","","",""
"html-keyboard-response","298","801549","0.0-14.0-0.47","601951245f481e000980504f","650c16f0f2faf8d7a0d14c09","651c1a97fb5d45e10e20543a","null","null","<p style=""font-size: 60px; font-family: BACS"">rvAJuda</p>","","","","","","","","","",""
"html-keyboard-response","299","802569","0.0-14.0-0.48","601951245f481e000980504f","650c16f0f2faf8d7a0d14c09","651c1a97fb5d45e10e20543a","null","null","<p style=""font-size: 60px; font-family: BACS"">mBYlCMdP</p>","","","","","","","","","",""
"html-keyboard-response","300","803583","0.0-14.0-0.49","601951245f481e000980504f","650c16f0f2faf8d7a0d14c09","651c1a97fb5d45e10e20543a","null","null","<p style=""font-size: 60px; font-family: BACS"">EMYKmAM</p>","","","","","","","","","",""
"html-keyboard-response","301","804592","0.0-14.0-0.50","601951245f481e000980504f","650c16f0f2faf8d7a0d14c09","651c1a97fb5d45e10e20543a","null","null","<p style=""font-size: 60px; font-family: BACS"">ACcOPMYm</p>","","","","","","","","","",""
"html-keyboard-response","302","805607","0.0-14.0-0.51","601951245f481e000980504f","650c16f0f2faf8d7a0d14c09","651c1a97fb5d45e10e20543a","null","null","<p style=""font-size: 60px; font-family: BACS"">dRhtCMdP</p>","","","","","","","","","",""
"html-keyboard-response","303","806622","0.0-14.0-0.52","601951245f481e000980504f","650c16f0f2faf8d7a0d14c09","651c1a97fb5d45e10e20543a","null","null","<p style=""font-size: 60px; font-family: BACS"">hlctEmAM</p>","","","","","","","","","",""
"html-keyboard-response","304","807626","0.0-14.0-0.53","601951245f481e000980504f","650c16f0f2faf8d7a0d14c09","651c1a97fb5d45e10e20543a","null","null","<p style=""font-size: 60px; font-family: BACS"">OAmAdCMdP</p>","","","","","","","","","",""
"html-keyboard-response","305","808632","0.0-14.0-0.54","601951245f481e000980504f","650c16f0f2faf8d7a0d14c09","651c1a97fb5d45e10e20543a","null","null","<p style=""font-size: 60px; font-family: BACS"">CchtdPMYm</p>","","","","","","","","","",""
"html-keyboard-response","306","809648","0.0-14.0-0.55","601951245f481e000980504f","650c16f0f2faf8d7a0d14c09","651c1a97fb5d45e10e20543a","null","null","<p style=""font-size: 60px; font-family: BACS"">amJmrNlZ</p>","","","","","","","","","",""
"html-keyboard-response","307","810662","0.0-14.0-0.56","601951245f481e000980504f","650c16f0f2faf8d7a0d14c09","651c1a97fb5d45e10e20543a","null","null","<p style=""font-size: 60px; font-family: BACS"">rvAJLcO</p>","","","","","","","","","",""
"html-keyboard-response","308","811666","0.0-14.0-0.57","601951245f481e000980504f","650c16f0f2faf8d7a0d14c09","651c1a97fb5d45e10e20543a","null","null","<p style=""font-size: 60px; font-family: BACS"">amJmYNu</p>","","","","","","","","","",""
"html-keyboard-response","309","812681","0.0-14.0-0.58","601951245f481e000980504f","650c16f0f2faf8d7a0d14c09","651c1a97fb5d45e10e20543a","null","null","<p style=""font-size: 60px; font-family: BACS"">ObOQlYUYa</p>","","","","","","","","","",""
"html-keyboard-response","310","813698","0.0-14.0-0.59","601951245f481e000980504f","650c16f0f2faf8d7a0d14c09","651c1a97fb5d45e10e20543a","null","null","<p style=""font-size: 60px; font-family: BACS"">mBYlMKmY</p>","","","","","","","","","",""
"html-keyboard-response","311","814701","0.0-14.0-0.60","601951245f481e000980504f","650c16f0f2faf8d7a0d14c09","651c1a97fb5d45e10e20543a","null","null","<p style=""font-size: 60px; font-family: BACS"">LvuOGuda</p>","","","","","","","","","",""
"html-keyboard-response","312","815705","0.0-14.0-0.61","601951245f481e000980504f","650c16f0f2faf8d7a0d14c09","651c1a97fb5d45e10e20543a","null","null","<p style=""font-size: 60px; font-family: BACS"">PcBTPMYm</p>","","","","","","","","","",""
"html-keyboard-response","313","816721","0.0-14.0-0.62","601951245f481e000980504f","650c16f0f2faf8d7a0d14c09","651c1a97fb5d45e10e20543a","null","null","<p style=""font-size: 60px; font-family: BACS"">NvYJLcO</p>","","","","","","","","","",""
"html-keyboard-response","314","817725","0.0-14.0-0.63","601951245f481e000980504f","650c16f0f2faf8d7a0d14c09","651c1a97fb5d45e10e20543a","null","null","<p style=""font-size: 60px; font-family: BACS"">EMYKCMdP</p>","","","","","","","","","",""
"html-keyboard-response","315","818740","0.0-14.0-0.64","601951245f481e000980504f","650c16f0f2faf8d7a0d14c09","651c1a97fb5d45e10e20543a","null","null","<p style=""font-size: 60px; font-family: BACS"">hlctEDOk</p>","","","","","","","","","",""
"html-keyboard-response","316","819745","0.0-14.0-0.65","601951245f481e000980504f","650c16f0f2faf8d7a0d14c09","651c1a97fb5d45e10e20543a","null","null","<p style=""font-size: 60px; font-family: BACS"">NvYJYNu</p>","","","","","","","","","",""
"html-keyboard-response","317","820759","0.0-14.0-0.66","601951245f481e000980504f","650c16f0f2faf8d7a0d14c09","651c1a97fb5d45e10e20543a","null","null","<p style=""font-size: 60px; font-family: BACS"">QLrOJYUYa</p>","","","","","","","","","",""
"html-keyboard-response","318","821761","0.0-14.0-0.67","601951245f481e000980504f","650c16f0f2faf8d7a0d14c09","651c1a97fb5d45e10e20543a","null","null","<p style=""font-size: 60px; font-family: BACS"">dKDthCMdP</p>","","","","","","","","","",""
"html-keyboard-response","319","822764","0.0-14.0-0.68","601951245f481e000980504f","650c16f0f2faf8d7a0d14c09","651c1a97fb5d45e10e20543a","null","null","<p style=""font-size: 60px; font-family: BACS"">YJkbYUYa</p>","","","","","","","","","",""
"html-keyboard-response","320","823780","0.0-14.0-0.69","601951245f481e000980504f","650c16f0f2faf8d7a0d14c09","651c1a97fb5d45e10e20543a","null","null","<p style=""font-size: 60px; font-family: BACS"">OAmAdMKmY</p>","","","","","","","","","",""
"html-keyboard-response","321","824784","0.0-14.0-0.70","601951245f481e000980504f","650c16f0f2faf8d7a0d14c09","651c1a97fb5d45e10e20543a","null","null","<p style=""font-size: 60px; font-family: BACS"">kbmZOuda</p>","","","","","","","","","",""
"html-keyboard-response","322","825799","0.0-14.0-0.71","601951245f481e000980504f","650c16f0f2faf8d7a0d14c09","651c1a97fb5d45e10e20543a","null","null","<p style=""font-size: 60px; font-family: BACS"">YNrAmYNu</p>","","","","","","","","","",""
"html-keyboard-response","323","826803","0.0-14.0-0.72","601951245f481e000980504f","650c16f0f2faf8d7a0d14c09","651c1a97fb5d45e10e20543a","null","null","<p style=""font-size: 60px; font-family: BACS"">advYOLcO</p>","","","","","","","","","",""
"html-keyboard-response","324","827819","0.0-14.0-0.73","601951245f481e000980504f","650c16f0f2faf8d7a0d14c09","651c1a97fb5d45e10e20543a","null","null","<p style=""font-size: 60px; font-family: BACS"">NvYJYUYa</p>","","","","","","","","","",""
"html-keyboard-response","325","828823","0.0-14.0-0.74","601951245f481e000980504f","650c16f0f2faf8d7a0d14c09","651c1a97fb5d45e10e20543a","null","null","<p style=""font-size: 60px; font-family: BACS"">EMYKPMYm</p>","","","","","","","","","",""
"html-keyboard-response","326","829832","0.0-14.0-0.75","601951245f481e000980504f","650c16f0f2faf8d7a0d14c09","651c1a97fb5d45e10e20543a","null","null","<p style=""font-size: 60px; font-family: BACS"">hlctEMKmY</p>","","","","","","","","","",""
"html-keyboard-response","327","830844","0.0-14.0-0.76","601951245f481e000980504f","650c16f0f2faf8d7a0d14c09","651c1a97fb5d45e10e20543a","null","null","<p style=""font-size: 60px; font-family: BACS"">YNrAmYUYa</p>","","","","","","","","","",""
"html-keyboard-response","328","831858","0.0-14.0-0.77","601951245f481e000980504f","650c16f0f2faf8d7a0d14c09","651c1a97fb5d45e10e20543a","null","null","<p style=""font-size: 60px; font-family: BACS"">EMYKDOk</p>","","","","","","","","","",""
"html-keyboard-response","329","832863","0.0-14.0-0.78","601951245f481e000980504f","650c16f0f2faf8d7a0d14c09","651c1a97fb5d45e10e20543a","null","null","<p style=""font-size: 60px; font-family: BACS"">advYOrNlZ</p>","","","","","","","","","",""
"html-keyboard-response","330","833878","0.0-14.0-0.79","601951245f481e000980504f","650c16f0f2faf8d7a0d14c09","651c1a97fb5d45e10e20543a","null","null","<p style=""font-size: 60px; font-family: BACS"">mBYlmAM</p>","","","","","","","","","",""
"html-keyboard-response","331","873177","0.0-15.0","601951245f481e000980504f","650c16f0f2faf8d7a0d14c09","651c1a97fb5d45e10e20543a","39307"," ","<p>Great, you've seen the fourth block of words. You may now take a short break.</p>
      <p>Press the spacebar when you're ready to continue.</p>","","","","","","","","","",""
"html-keyboard-response","332","874178","0.0-16.0-0.0","601951245f481e000980504f","650c16f0f2faf8d7a0d14c09","651c1a97fb5d45e10e20543a","null","null","<p style=""font-size: 60px; font-family: BACS"">ObOQlLcO</p>","","","","","","","","","",""
"html-keyboard-response","333","875186","0.0-16.0-0.1","601951245f481e000980504f","650c16f0f2faf8d7a0d14c09","651c1a97fb5d45e10e20543a","null","null","<p style=""font-size: 60px; font-family: BACS"">ObOQlLcO</p>","","","","","","","","","",""
"html-keyboard-response","334","876202","0.0-16.0-0.2","601951245f481e000980504f","650c16f0f2faf8d7a0d14c09","651c1a97fb5d45e10e20543a","null","null","<p style=""font-size: 60px; font-family: BACS"">ObOQlLcO</p>","","","","","","","","","",""
"html-keyboard-response","335","877213","0.0-16.0-0.3","601951245f481e000980504f","650c16f0f2faf8d7a0d14c09","651c1a97fb5d45e10e20543a","null","null","<p style=""font-size: 60px; font-family: BACS"">ObOQlLcO</p>","","","","","","","","","",""
"html-keyboard-response","336","878222","0.0-16.0-0.4","601951245f481e000980504f","650c16f0f2faf8d7a0d14c09","651c1a97fb5d45e10e20543a","null","null","<p style=""font-size: 60px; font-family: BACS"">ObOQlLcO</p>","","","","","","","","","",""
"html-keyboard-response","337","879239","0.0-16.0-0.5","601951245f481e000980504f","650c16f0f2faf8d7a0d14c09","651c1a97fb5d45e10e20543a","null","null","<p style=""font-size: 60px; font-family: BACS"">ObOQlLcO</p>","","","","","","","","","",""
"html-keyboard-response","338","880246","0.0-16.0-0.6","601951245f481e000980504f","650c16f0f2faf8d7a0d14c09","651c1a97fb5d45e10e20543a","null","null","<p style=""font-size: 60px; font-family: BACS"">ObOQlLcO</p>","","","","","","","","","",""
"html-keyboard-response","339","881255","0.0-16.0-0.7","601951245f481e000980504f","650c16f0f2faf8d7a0d14c09","651c1a97fb5d45e10e20543a","null","null","<p style=""font-size: 60px; font-family: BACS"">ObOQlLcO</p>","","","","","","","","","",""
"html-keyboard-response","340","882267","0.0-16.0-0.8","601951245f481e000980504f","650c16f0f2faf8d7a0d14c09","651c1a97fb5d45e10e20543a","null","null","<p style=""font-size: 60px; font-family: BACS"">ObOQlLcO</p>","","","","","","","","","",""
"html-keyboard-response","341","883281","0.0-16.0-0.9","601951245f481e000980504f","650c16f0f2faf8d7a0d14c09","651c1a97fb5d45e10e20543a","null","null","<p style=""font-size: 60px; font-family: BACS"">ObOQlLcO</p>","","","","","","","","","",""
"html-keyboard-response","342","884286","0.0-16.0-0.10","601951245f481e000980504f","650c16f0f2faf8d7a0d14c09","651c1a97fb5d45e10e20543a","null","null","<p style=""font-size: 60px; font-family: BACS"">ObOQlLcO</p>","","","","","","","","","",""
"html-keyboard-response","343","885301","0.0-16.0-0.11","601951245f481e000980504f","650c16f0f2faf8d7a0d14c09","651c1a97fb5d45e10e20543a","null","null","<p style=""font-size: 60px; font-family: BACS"">ObOQlLcO</p>","","","","","","","","","",""
"html-keyboard-response","344","886306","0.0-16.0-0.12","601951245f481e000980504f","650c16f0f2faf8d7a0d14c09","651c1a97fb5d45e10e20543a","null","null","<p style=""font-size: 60px; font-family: BACS"">ObOQlLcO</p>","","","","","","","","","",""
"html-keyboard-response","345","887310","0.0-16.0-0.13","601951245f481e000980504f","650c16f0f2faf8d7a0d14c09","651c1a97fb5d45e10e20543a","null","null","<p style=""font-size: 60px; font-family: BACS"">ObOQlLcO</p>","","","","","","","","","",""
"html-keyboard-response","346","888325","0.0-16.0-0.14","601951245f481e000980504f","650c16f0f2faf8d7a0d14c09","651c1a97fb5d45e10e20543a","null","null","<p style=""font-size: 60px; font-family: BACS"">ObOQlLcO</p>","","","","","","","","","",""
"html-keyboard-response","347","889341","0.0-16.0-0.15","601951245f481e000980504f","650c16f0f2faf8d7a0d14c09","651c1a97fb5d45e10e20543a","null","null","<p style=""font-size: 60px; font-family: BACS"">ObOQlLcO</p>","","","","","","","","","",""
"html-keyboard-response","348","890344","0.0-16.0-0.16","601951245f481e000980504f","650c16f0f2faf8d7a0d14c09","651c1a97fb5d45e10e20543a","null","null","<p style=""font-size: 60px; font-family: BACS"">ObOQlLcO</p>","","","","","","","","","",""
"html-keyboard-response","349","891360","0.0-16.0-0.17","601951245f481e000980504f","650c16f0f2faf8d7a0d14c09","651c1a97fb5d45e10e20543a","null","null","<p style=""font-size: 60px; font-family: BACS"">ObOQlLcO</p>","","","","","","","","","",""
"html-keyboard-response","350","892364","0.0-16.0-0.18","601951245f481e000980504f","650c16f0f2faf8d7a0d14c09","651c1a97fb5d45e10e20543a","null","null","<p style=""font-size: 60px; font-family: BACS"">ObOQlLcO</p>","","","","","","","","","",""
"html-keyboard-response","351","893379","0.0-16.0-0.19","601951245f481e000980504f","650c16f0f2faf8d7a0d14c09","651c1a97fb5d45e10e20543a","null","null","<p style=""font-size: 60px; font-family: BACS"">ObOQlLcO</p>","","","","","","","","","",""
"html-keyboard-response","352","894384","0.0-16.0-0.20","601951245f481e000980504f","650c16f0f2faf8d7a0d14c09","651c1a97fb5d45e10e20543a","null","null","<p style=""font-size: 60px; font-family: BACS"">ObOQlLcO</p>","","","","","","","","","",""
"html-keyboard-response","353","895400","0.0-16.0-0.21","601951245f481e000980504f","650c16f0f2faf8d7a0d14c09","651c1a97fb5d45e10e20543a","null","null","<p style=""font-size: 60px; font-family: BACS"">ObOQlLcO</p>","","","","","","","","","",""
"html-keyboard-response","354","896407","0.0-16.0-0.22","601951245f481e000980504f","650c16f0f2faf8d7a0d14c09","651c1a97fb5d45e10e20543a","null","null","<p style=""font-size: 60px; font-family: BACS"">ObOQlLcO</p>","","","","","","","","","",""
"html-keyboard-response","355","897419","0.0-16.0-0.23","601951245f481e000980504f","650c16f0f2faf8d7a0d14c09","651c1a97fb5d45e10e20543a","null","null","<p style=""font-size: 60px; font-family: BACS"">ObOQlLcO</p>","","","","","","","","","",""
"html-keyboard-response","356","898423","0.0-16.0-0.24","601951245f481e000980504f","650c16f0f2faf8d7a0d14c09","651c1a97fb5d45e10e20543a","null","null","<p style=""font-size: 60px; font-family: BACS"">ObOQlLcO</p>","","","","","","","","","",""
"html-keyboard-response","357","899439","0.0-16.0-0.25","601951245f481e000980504f","650c16f0f2faf8d7a0d14c09","651c1a97fb5d45e10e20543a","null","null","<p style=""font-size: 60px; font-family: BACS"">ObOQlLcO</p>","","","","","","","","","",""
"html-keyboard-response","358","900443","0.0-16.0-0.26","601951245f481e000980504f","650c16f0f2faf8d7a0d14c09","651c1a97fb5d45e10e20543a","null","null","<p style=""font-size: 60px; font-family: BACS"">ObOQlLcO</p>","","","","","","","","","",""
"html-keyboard-response","359","901455","0.0-16.0-0.27","601951245f481e000980504f","650c16f0f2faf8d7a0d14c09","651c1a97fb5d45e10e20543a","null","null","<p style=""font-size: 60px; font-family: BACS"">ObOQlLcO</p>","","","","","","","","","",""
"html-keyboard-response","360","902462","0.0-16.0-0.28","601951245f481e000980504f","650c16f0f2faf8d7a0d14c09","651c1a97fb5d45e10e20543a","null","null","<p style=""font-size: 60px; font-family: BACS"">ObOQlLcO</p>","","","","","","","","","",""
"html-keyboard-response","361","903470","0.0-16.0-0.29","601951245f481e000980504f","650c16f0f2faf8d7a0d14c09","651c1a97fb5d45e10e20543a","null","null","<p style=""font-size: 60px; font-family: BACS"">ObOQlLcO</p>","","","","","","","","","",""
"html-keyboard-response","362","904478","0.0-16.0-0.30","601951245f481e000980504f","650c16f0f2faf8d7a0d14c09","651c1a97fb5d45e10e20543a","null","null","<p style=""font-size: 60px; font-family: BACS"">ObOQlLcO</p>","","","","","","","","","",""
"html-keyboard-response","363","905482","0.0-16.0-0.31","601951245f481e000980504f","650c16f0f2faf8d7a0d14c09","651c1a97fb5d45e10e20543a","null","null","<p style=""font-size: 60px; font-family: BACS"">ObOQlLcO</p>","","","","","","","","","",""
"html-keyboard-response","364","906497","0.0-16.0-0.32","601951245f481e000980504f","650c16f0f2faf8d7a0d14c09","651c1a97fb5d45e10e20543a","null","null","<p style=""font-size: 60px; font-family: BACS"">ObOQlLcO</p>","","","","","","","","","",""
"html-keyboard-response","365","907506","0.0-16.0-0.33","601951245f481e000980504f","650c16f0f2faf8d7a0d14c09","651c1a97fb5d45e10e20543a","null","null","<p style=""font-size: 60px; font-family: BACS"">ObOQlLcO</p>","","","","","","","","","",""
"html-keyboard-response","366","908517","0.0-16.0-0.34","601951245f481e000980504f","650c16f0f2faf8d7a0d14c09","651c1a97fb5d45e10e20543a","null","null","<p style=""font-size: 60px; font-family: BACS"">ObOQlLcO</p>","","","","","","","","","",""
"html-keyboard-response","367","909521","0.0-16.0-0.35","601951245f481e000980504f","650c16f0f2faf8d7a0d14c09","651c1a97fb5d45e10e20543a","null","null","<p style=""font-size: 60px; font-family: BACS"">ObOQlLcO</p>","","","","","","","","","",""
"html-keyboard-response","368","910537","0.0-16.0-0.36","601951245f481e000980504f","650c16f0f2faf8d7a0d14c09","651c1a97fb5d45e10e20543a","null","null","<p style=""font-size: 60px; font-family: BACS"">ObOQlLcO</p>","","","","","","","","","",""
"html-keyboard-response","369","911541","0.0-16.0-0.37","601951245f481e000980504f","650c16f0f2faf8d7a0d14c09","651c1a97fb5d45e10e20543a","null","null","<p style=""font-size: 60px; font-family: BACS"">ObOQlLcO</p>","","","","","","","","","",""
"html-keyboard-response","370","912557","0.0-16.0-0.38","601951245f481e000980504f","650c16f0f2faf8d7a0d14c09","651c1a97fb5d45e10e20543a","null","null","<p style=""font-size: 60px; font-family: BACS"">ObOQlLcO</p>","","","","","","","","","",""
"html-keyboard-response","371","913567","0.0-16.0-0.39","601951245f481e000980504f","650c16f0f2faf8d7a0d14c09","651c1a97fb5d45e10e20543a","null","null","<p style=""font-size: 60px; font-family: BACS"">ObOQlLcO</p>","","","","","","","","","",""
"html-keyboard-response","372","914581","0.0-16.0-0.40","601951245f481e000980504f","650c16f0f2faf8d7a0d14c09","651c1a97fb5d45e10e20543a","null","null","<p style=""font-size: 60px; font-family: BACS"">ObOQlLcO</p>","","","","","","","","","",""
"html-keyboard-response","373","915601","0.0-16.0-0.41","601951245f481e000980504f","650c16f0f2faf8d7a0d14c09","651c1a97fb5d45e10e20543a","null","null","<p style=""font-size: 60px; font-family: BACS"">ObOQlLcO</p>","","","","","","","","","",""
"html-keyboard-response","374","916611","0.0-16.0-0.42","601951245f481e000980504f","650c16f0f2faf8d7a0d14c09","651c1a97fb5d45e10e20543a","null","null","<p style=""font-size: 60px; font-family: BACS"">ObOQlLcO</p>","","","","","","","","","",""
"html-keyboard-response","375","917620","0.0-16.0-0.43","601951245f481e000980504f","650c16f0f2faf8d7a0d14c09","651c1a97fb5d45e10e20543a","null","null","<p style=""font-size: 60px; font-family: BACS"">ObOQlLcO</p>","","","","","","","","","",""
"html-keyboard-response","376","918635","0.0-16.0-0.44","601951245f481e000980504f","650c16f0f2faf8d7a0d14c09","651c1a97fb5d45e10e20543a","null","null","<p style=""font-size: 60px; font-family: BACS"">ObOQlLcO</p>","","","","","","","","","",""
"html-keyboard-response","377","919644","0.0-16.0-0.45","601951245f481e000980504f","650c16f0f2faf8d7a0d14c09","651c1a97fb5d45e10e20543a","null","null","<p style=""font-size: 60px; font-family: BACS"">ObOQlLcO</p>","","","","","","","","","",""
"html-keyboard-response","378","920662","0.0-16.0-0.46","601951245f481e000980504f","650c16f0f2faf8d7a0d14c09","651c1a97fb5d45e10e20543a","null","null","<p style=""font-size: 60px; font-family: BACS"">ObOQlLcO</p>","","","","","","","","","",""
"html-keyboard-response","379","921675","0.0-16.0-0.47","601951245f481e000980504f","650c16f0f2faf8d7a0d14c09","651c1a97fb5d45e10e20543a","null","null","<p style=""font-size: 60px; font-family: BACS"">ObOQlLcO</p>","","","","","","","","","",""
"html-keyboard-response","380","922680","0.0-16.0-0.48","601951245f481e000980504f","650c16f0f2faf8d7a0d14c09","651c1a97fb5d45e10e20543a","null","null","<p style=""font-size: 60px; font-family: BACS"">ObOQlLcO</p>","","","","","","","","","",""
"html-keyboard-response","381","923695","0.0-16.0-0.49","601951245f481e000980504f","650c16f0f2faf8d7a0d14c09","651c1a97fb5d45e10e20543a","null","null","<p style=""font-size: 60px; font-family: BACS"">ObOQlLcO</p>","","","","","","","","","",""
"html-keyboard-response","382","924699","0.0-16.0-0.50","601951245f481e000980504f","650c16f0f2faf8d7a0d14c09","651c1a97fb5d45e10e20543a","null","null","<p style=""font-size: 60px; font-family: BACS"">ObOQlLcO</p>","","","","","","","","","",""
"html-keyboard-response","383","925715","0.0-16.0-0.51","601951245f481e000980504f","650c16f0f2faf8d7a0d14c09","651c1a97fb5d45e10e20543a","null","null","<p style=""font-size: 60px; font-family: BACS"">ObOQlLcO</p>","","","","","","","","","",""
"html-keyboard-response","384","926718","0.0-16.0-0.52","601951245f481e000980504f","650c16f0f2faf8d7a0d14c09","651c1a97fb5d45e10e20543a","null","null","<p style=""font-size: 60px; font-family: BACS"">ObOQlLcO</p>","","","","","","","","","",""
"html-keyboard-response","385","927723","0.0-16.0-0.53","601951245f481e000980504f","650c16f0f2faf8d7a0d14c09","651c1a97fb5d45e10e20543a","null","null","<p style=""font-size: 60px; font-family: BACS"">ObOQlLcO</p>","","","","","","","","","",""
"html-keyboard-response","386","928734","0.0-16.0-0.54","601951245f481e000980504f","650c16f0f2faf8d7a0d14c09","651c1a97fb5d45e10e20543a","null","null","<p style=""font-size: 60px; font-family: BACS"">ObOQlLcO</p>","","","","","","","","","",""
"html-keyboard-response","387","929738","0.0-16.0-0.55","601951245f481e000980504f","650c16f0f2faf8d7a0d14c09","651c1a97fb5d45e10e20543a","null","null","<p style=""font-size: 60px; font-family: BACS"">ObOQlLcO</p>","","","","","","","","","",""
"html-keyboard-response","388","930754","0.0-16.0-0.56","601951245f481e000980504f","650c16f0f2faf8d7a0d14c09","651c1a97fb5d45e10e20543a","null","null","<p style=""font-size: 60px; font-family: BACS"">ObOQlLcO</p>","","","","","","","","","",""
"html-keyboard-response","389","931757","0.0-16.0-0.57","601951245f481e000980504f","650c16f0f2faf8d7a0d14c09","651c1a97fb5d45e10e20543a","null","null","<p style=""font-size: 60px; font-family: BACS"">ObOQlLcO</p>","","","","","","","","","",""
"html-keyboard-response","390","932761","0.0-16.0-0.58","601951245f481e000980504f","650c16f0f2faf8d7a0d14c09","651c1a97fb5d45e10e20543a","null","null","<p style=""font-size: 60px; font-family: BACS"">ObOQlLcO</p>","","","","","","","","","",""
"html-keyboard-response","391","933782","0.0-16.0-0.59","601951245f481e000980504f","650c16f0f2faf8d7a0d14c09","651c1a97fb5d45e10e20543a","null","null","<p style=""font-size: 60px; font-family: BACS"">ObOQlLcO</p>","","","","","","","","","",""
"html-keyboard-response","392","934787","0.0-16.0-0.60","601951245f481e000980504f","650c16f0f2faf8d7a0d14c09","651c1a97fb5d45e10e20543a","null","null","<p style=""font-size: 60px; font-family: BACS"">ObOQlLcO</p>","","","","","","","","","",""
"html-keyboard-response","393","935802","0.0-16.0-0.61","601951245f481e000980504f","650c16f0f2faf8d7a0d14c09","651c1a97fb5d45e10e20543a","null","null","<p style=""font-size: 60px; font-family: BACS"">ObOQlLcO</p>","","","","","","","","","",""
