"trial_type","trial_index","time_elapsed","internal_node_id","subject_id","study_id","session_id","rt","response","stimulus","success","item","task","correct_response","testing_condition","correct","target","confound","name","view_history"
"pavlovia","0","813","0.0-0.0","5fd69a0014c3b25ee539f66b","650c16f0f2faf8d7a0d14c09","651c1de65d995bbf6471eff6","","","","","","","","","","","","",""
"survey-html-form","1","7690","0.0-1.0","5fd69a0014c3b25ee539f66b","650c16f0f2faf8d7a0d14c09","651c1de65d995bbf6471eff6","6875","{""ID"":""5fd69a0014c3b25ee539f66b""}","","","","","","","","","","",""
"html-keyboard-response","2","50457","0.0-2.0","5fd69a0014c3b25ee539f66b","650c16f0f2faf8d7a0d14c09","651c1de65d995bbf6471eff6","42766"," ","<p style=""font-size: 15px;"">Before beginning, we ask that you read the consent information and confirm your agreement to participate in the experiment.</p>
      <p style=""font-size: 15px;""> We ask that you remember that this is a research project and that your participation is entirely voluntary. You can stop your participation at any time, without needing to provide any explanation. The study we're asking you to participate in aims at examining how readers process written words. You will be engaged in a session of apprximately 20 minutes, followed by a brief questionnaire. You will have the opportunity to take a few breaks during the experiment. You will be paid £4 for your participation, corresponding to a rate of £8/hour. While this experiment looks at cognitive faculties, this experiment doesn't constitute clinical proof of eventual pathologies.</p>
      <p style=""font-size: 15px;"">All of the information collected thanks to yours and others' participation will be held in a secure password-protected server, and will not be shared with anyone not authorised to view it. Your personal information will be kept with an arbitrary participant ID. Thanks to this data anonymity process, any researcher analysing the data won't be able to track the information back to a specific participant. Therefore, this process will make identifying you impossibile, even when results from the study will be published in scientific reviews, presented at congresses, or at any other public forum. More generally, the collected data will be treated in accordance with the laws on privacy and conformity to the Legislative Degree n. 196 ""Code regarding the protection of personal data"" of the 30th of June 2003 and to the European Regulation 2016/670 (General Data Protection Regulation - GDPR). The Data Protection Officer is Avv. Valentina Carollo, who can be contacted at the following email addresses: <a href=""mailto:dpo@sissa.it"">dpo@sissa.it</a> or <a href=""mailto:rpd@sissa.it"">rpd@sissa.it</a> - PEC: <a href=""mailto:protocollo@pec.sissa.it"">protocollo@pec.sissa.it</a>.</p>
      <p style=""font-size: 15px;""> Before expressing your consent to participate, we would like to remind you again that in case you need explanations on any aspect of the experimental procedure, the researcher is at your disposition (<a href=""mailto:aliebelt@sissa.it"">aliebelt@sissa.it</a>, <a href=""mailto:davide.crepaldi@sissa.it"">davide.crepaldi@sissa.it</a>).</p>
      <p style=""font-size: 15px;"">If you would like to download the informed consent form, you can do so here: <a href=""BASL-Informed_Consent.pdf"" download>informed consent form</a>.</p>
      <p style=""font-size: 15px;"">We ask that you press the spacebar to proceed to the consent section.</p>","","","","","","","","","",""
"survey-html-form","3","76473","0.0-3.0","5fd69a0014c3b25ee539f66b","650c16f0f2faf8d7a0d14c09","651c1de65d995bbf6471eff6","26014","{""consent1"":""YES"",""consent2"":""YES"",""consent3"":""YES"",""consent4"":""YES"",""consent5"":""YES"",""consent6"":""YES""}","","","","","","","","","","",""
"fullscreen","4","84136","0.0-4.0","5fd69a0014c3b25ee539f66b","650c16f0f2faf8d7a0d14c09","651c1de65d995bbf6471eff6","","","","true","","","","","","","","",""
"html-keyboard-response","5","91456","0.0-5.0","5fd69a0014c3b25ee539f66b","650c16f0f2faf8d7a0d14c09","651c1de65d995bbf6471eff6","7317"," ","<p>Welcome, and thank you very much for your time!</p>
      <p>In this experiment, you'll be a language expert who's been asked to take a look at words that Earth has received in its first communication with aliens. Your task, in this first part of the experiment, is to pay close attention to the words you'll be shown; later, world leaders will ask you questions on what you saw. The words will be shown to you quite quickly; it seems that the aliens were in a hurry :-)</p>
      <p>Press the spacebar to continue.<p>","","","","","","","","","",""
"html-keyboard-response","6","91514","0.0-6.0","5fd69a0014c3b25ee539f66b","650c16f0f2faf8d7a0d14c09","651c1de65d995bbf6471eff6","null","null","<p style=""font-size: 120px; font-family: BACS""> </p>","","","","","","","","","",""
"html-keyboard-response","7","98993","0.0-7.0","5fd69a0014c3b25ee539f66b","650c16f0f2faf8d7a0d14c09","651c1de65d995bbf6471eff6","7479"," ","<p>Here is an example of the words you'll see:</p>
      <img src='esempio.png' height='400px'>
      <p>When you're ready to begin, press the spacebar.</p></div>","","","","","","","","","",""
"html-keyboard-response","8","99997","0.0-8.0-0.0","5fd69a0014c3b25ee539f66b","650c16f0f2faf8d7a0d14c09","651c1de65d995bbf6471eff6","null","null","<p style=""font-size: 60px; font-family: BACS"">damYbLaA</p>","","","","","","","","","",""
"html-keyboard-response","9","101016","0.0-8.0-0.1","5fd69a0014c3b25ee539f66b","650c16f0f2faf8d7a0d14c09","651c1de65d995bbf6471eff6","null","null","<p style=""font-size: 60px; font-family: BACS"">QLrOJZAUu</p>","","","","","","","","","",""
"html-keyboard-response","10","102038","0.0-8.0-0.2","5fd69a0014c3b25ee539f66b","650c16f0f2faf8d7a0d14c09","651c1de65d995bbf6471eff6","null","null","<p style=""font-size: 60px; font-family: BACS"">lRCBYBO</p>","","","","","","","","","",""
"html-keyboard-response","11","103046","0.0-8.0-0.3","5fd69a0014c3b25ee539f66b","650c16f0f2faf8d7a0d14c09","651c1de65d995bbf6471eff6","null","null","<p style=""font-size: 60px; font-family: BACS"">DcPTckMEC</p>","","","","","","","","","",""
"html-keyboard-response","12","104051","0.0-8.0-0.4","5fd69a0014c3b25ee539f66b","650c16f0f2faf8d7a0d14c09","651c1de65d995bbf6471eff6","null","null","<p style=""font-size: 60px; font-family: BACS"">LGkAYmb</p>","","","","","","","","","",""
"html-keyboard-response","13","105066","0.0-8.0-0.5","5fd69a0014c3b25ee539f66b","650c16f0f2faf8d7a0d14c09","651c1de65d995bbf6471eff6","null","null","<p style=""font-size: 60px; font-family: BACS"">dmZvmNac</p>","","","","","","","","","",""
"html-keyboard-response","14","106077","0.0-8.0-0.6","5fd69a0014c3b25ee539f66b","650c16f0f2faf8d7a0d14c09","651c1de65d995bbf6471eff6","null","null","<p style=""font-size: 60px; font-family: BACS"">lhCTCDKP</p>","","","","","","","","","",""
"html-keyboard-response","15","107096","0.0-8.0-0.7","5fd69a0014c3b25ee539f66b","650c16f0f2faf8d7a0d14c09","651c1de65d995bbf6471eff6","null","null","<p style=""font-size: 60px; font-family: BACS"">DlDdYbBT</p>","","","","","","","","","",""
"html-keyboard-response","16","108098","0.0-8.0-0.8","5fd69a0014c3b25ee539f66b","650c16f0f2faf8d7a0d14c09","651c1de65d995bbf6471eff6","null","null","<p style=""font-size: 60px; font-family: BACS"">LGkALaA</p>","","","","","","","","","",""
"html-keyboard-response","17","109116","0.0-8.0-0.9","5fd69a0014c3b25ee539f66b","650c16f0f2faf8d7a0d14c09","651c1de65d995bbf6471eff6","null","null","<p style=""font-size: 60px; font-family: BACS"">NvuGrZAUu</p>","","","","","","","","","",""
"html-keyboard-response","18","110126","0.0-8.0-0.10","5fd69a0014c3b25ee539f66b","650c16f0f2faf8d7a0d14c09","651c1de65d995bbf6471eff6","null","null","<p style=""font-size: 60px; font-family: BACS"">DlDdDKP</p>","","","","","","","","","",""
"html-keyboard-response","19","111146","0.0-8.0-0.11","5fd69a0014c3b25ee539f66b","650c16f0f2faf8d7a0d14c09","651c1de65d995bbf6471eff6","null","null","<p style=""font-size: 60px; font-family: BACS"">QLrOJYmb</p>","","","","","","","","","",""
"html-keyboard-response","20","112166","0.0-8.0-0.12","5fd69a0014c3b25ee539f66b","650c16f0f2faf8d7a0d14c09","651c1de65d995bbf6471eff6","null","null","<p style=""font-size: 60px; font-family: BACS"">DcPTcEAO</p>","","","","","","","","","",""
"html-keyboard-response","21","113186","0.0-8.0-0.13","5fd69a0014c3b25ee539f66b","650c16f0f2faf8d7a0d14c09","651c1de65d995bbf6471eff6","null","null","<p style=""font-size: 60px; font-family: BACS"">bvkrYaOk</p>","","","","","","","","","",""
"html-keyboard-response","22","114196","0.0-8.0-0.14","5fd69a0014c3b25ee539f66b","650c16f0f2faf8d7a0d14c09","651c1de65d995bbf6471eff6","null","null","<p style=""font-size: 60px; font-family: BACS"">QcladZAUu</p>","","","","","","","","","",""
"html-keyboard-response","23","115216","0.0-8.0-0.15","5fd69a0014c3b25ee539f66b","650c16f0f2faf8d7a0d14c09","651c1de65d995bbf6471eff6","null","null","<p style=""font-size: 60px; font-family: BACS"">damYbNac</p>","","","","","","","","","",""
"html-keyboard-response","24","116236","0.0-8.0-0.16","5fd69a0014c3b25ee539f66b","650c16f0f2faf8d7a0d14c09","651c1de65d995bbf6471eff6","null","null","<p style=""font-size: 60px; font-family: BACS"">ZJLmrYmb</p>","","","","","","","","","",""
"html-keyboard-response","25","117246","0.0-8.0-0.17","5fd69a0014c3b25ee539f66b","650c16f0f2faf8d7a0d14c09","651c1de65d995bbf6471eff6","null","null","<p style=""font-size: 60px; font-family: BACS"">chAhkMEC</p>","","","","","","","","","",""
"html-keyboard-response","26","118266","0.0-8.0-0.18","5fd69a0014c3b25ee539f66b","650c16f0f2faf8d7a0d14c09","651c1de65d995bbf6471eff6","null","null","<p style=""font-size: 60px; font-family: BACS"">DhMtYbBT</p>","","","","","","","","","",""
"html-keyboard-response","27","119286","0.0-8.0-0.19","5fd69a0014c3b25ee539f66b","650c16f0f2faf8d7a0d14c09","651c1de65d995bbf6471eff6","null","null","<p style=""font-size: 60px; font-family: BACS"">DcPTcDKP</p>","","","","","","","","","",""
"html-keyboard-response","28","120305","0.0-8.0-0.20","5fd69a0014c3b25ee539f66b","650c16f0f2faf8d7a0d14c09","651c1de65d995bbf6471eff6","null","null","<p style=""font-size: 60px; font-family: BACS"">chAhYBO</p>","","","","","","","","","",""
"html-keyboard-response","29","121316","0.0-8.0-0.21","5fd69a0014c3b25ee539f66b","650c16f0f2faf8d7a0d14c09","651c1de65d995bbf6471eff6","null","null","<p style=""font-size: 60px; font-family: BACS"">DcPTcYbBT</p>","","","","","","","","","",""
"html-keyboard-response","30","122336","0.0-8.0-0.22","5fd69a0014c3b25ee539f66b","650c16f0f2faf8d7a0d14c09","651c1de65d995bbf6471eff6","null","null","<p style=""font-size: 60px; font-family: BACS"">bvkrZAUu</p>","","","","","","","","","",""
"html-keyboard-response","31","123346","0.0-8.0-0.23","5fd69a0014c3b25ee539f66b","650c16f0f2faf8d7a0d14c09","651c1de65d995bbf6471eff6","null","null","<p style=""font-size: 60px; font-family: BACS"">EMYKkMEC</p>","","","","","","","","","",""
"html-keyboard-response","32","124366","0.0-8.0-0.24","5fd69a0014c3b25ee539f66b","650c16f0f2faf8d7a0d14c09","651c1de65d995bbf6471eff6","null","null","<p style=""font-size: 60px; font-family: BACS"">lRCBEAO</p>","","","","","","","","","",""
"html-keyboard-response","33","125386","0.0-8.0-0.25","5fd69a0014c3b25ee539f66b","650c16f0f2faf8d7a0d14c09","651c1de65d995bbf6471eff6","null","null","<p style=""font-size: 60px; font-family: BACS"">bdUNuYmb</p>","","","","","","","","","",""
"html-keyboard-response","34","126406","0.0-8.0-0.26","5fd69a0014c3b25ee539f66b","650c16f0f2faf8d7a0d14c09","651c1de65d995bbf6471eff6","null","null","<p style=""font-size: 60px; font-family: BACS"">LGkAZAUu</p>","","","","","","","","","",""
"html-keyboard-response","35","127412","0.0-8.0-0.27","5fd69a0014c3b25ee539f66b","650c16f0f2faf8d7a0d14c09","651c1de65d995bbf6471eff6","null","null","<p style=""font-size: 60px; font-family: BACS"">NvuGrYaOk</p>","","","","","","","","","",""
"html-keyboard-response","36","128432","0.0-8.0-0.28","5fd69a0014c3b25ee539f66b","650c16f0f2faf8d7a0d14c09","651c1de65d995bbf6471eff6","null","null","<p style=""font-size: 60px; font-family: BACS"">DlDdYBO</p>","","","","","","","","","",""
"html-keyboard-response","37","129436","0.0-8.0-0.29","5fd69a0014c3b25ee539f66b","650c16f0f2faf8d7a0d14c09","651c1de65d995bbf6471eff6","null","null","<p style=""font-size: 60px; font-family: BACS"">dmZvmYmb</p>","","","","","","","","","",""
"html-keyboard-response","38","130456","0.0-8.0-0.30","5fd69a0014c3b25ee539f66b","650c16f0f2faf8d7a0d14c09","651c1de65d995bbf6471eff6","null","null","<p style=""font-size: 60px; font-family: BACS"">EMYKDKP</p>","","","","","","","","","",""
"html-keyboard-response","39","131466","0.0-8.0-0.31","5fd69a0014c3b25ee539f66b","650c16f0f2faf8d7a0d14c09","651c1de65d995bbf6471eff6","null","null","<p style=""font-size: 60px; font-family: BACS"">lRCBYbBT</p>","","","","","","","","","",""
"html-keyboard-response","40","132486","0.0-8.0-0.32","5fd69a0014c3b25ee539f66b","650c16f0f2faf8d7a0d14c09","651c1de65d995bbf6471eff6","null","null","<p style=""font-size: 60px; font-family: BACS"">DhMtEAO</p>","","","","","","","","","",""
"html-keyboard-response","41","133506","0.0-8.0-0.33","5fd69a0014c3b25ee539f66b","650c16f0f2faf8d7a0d14c09","651c1de65d995bbf6471eff6","null","null","<p style=""font-size: 60px; font-family: BACS"">dmZvmLaA</p>","","","","","","","","","",""
"html-keyboard-response","42","134526","0.0-8.0-0.34","5fd69a0014c3b25ee539f66b","650c16f0f2faf8d7a0d14c09","651c1de65d995bbf6471eff6","null","null","<p style=""font-size: 60px; font-family: BACS"">chAhDKP</p>","","","","","","","","","",""
"html-keyboard-response","43","135536","0.0-8.0-0.35","5fd69a0014c3b25ee539f66b","650c16f0f2faf8d7a0d14c09","651c1de65d995bbf6471eff6","null","null","<p style=""font-size: 60px; font-family: BACS"">CmcOYBO</p>","","","","","","","","","",""
"html-keyboard-response","44","136556","0.0-8.0-0.36","5fd69a0014c3b25ee539f66b","650c16f0f2faf8d7a0d14c09","651c1de65d995bbf6471eff6","null","null","<p style=""font-size: 60px; font-family: BACS"">bdUNuYaOk</p>","","","","","","","","","",""
"html-keyboard-response","45","137576","0.0-8.0-0.37","5fd69a0014c3b25ee539f66b","650c16f0f2faf8d7a0d14c09","651c1de65d995bbf6471eff6","null","null","<p style=""font-size: 60px; font-family: BACS"">uQkrdZAUu</p>","","","","","","","","","",""
"html-keyboard-response","46","138596","0.0-8.0-0.38","5fd69a0014c3b25ee539f66b","650c16f0f2faf8d7a0d14c09","651c1de65d995bbf6471eff6","null","null","<p style=""font-size: 60px; font-family: BACS"">QcladYaOk</p>","","","","","","","","","",""
"html-keyboard-response","47","139606","0.0-8.0-0.39","5fd69a0014c3b25ee539f66b","650c16f0f2faf8d7a0d14c09","651c1de65d995bbf6471eff6","null","null","<p style=""font-size: 60px; font-family: BACS"">ZJLmrZAUu</p>","","","","","","","","","",""
"html-keyboard-response","48","140626","0.0-8.0-0.40","5fd69a0014c3b25ee539f66b","650c16f0f2faf8d7a0d14c09","651c1de65d995bbf6471eff6","null","null","<p style=""font-size: 60px; font-family: BACS"">bvkrLaA</p>","","","","","","","","","",""
"html-keyboard-response","49","141636","0.0-8.0-0.41","5fd69a0014c3b25ee539f66b","650c16f0f2faf8d7a0d14c09","651c1de65d995bbf6471eff6","null","null","<p style=""font-size: 60px; font-family: BACS"">CkBOPDKP</p>","","","","","","","","","",""
"html-keyboard-response","50","142656","0.0-8.0-0.42","5fd69a0014c3b25ee539f66b","650c16f0f2faf8d7a0d14c09","651c1de65d995bbf6471eff6","null","null","<p style=""font-size: 60px; font-family: BACS"">dmZvmZAUu</p>","","","","","","","","","",""
"html-keyboard-response","51","143666","0.0-8.0-0.43","5fd69a0014c3b25ee539f66b","650c16f0f2faf8d7a0d14c09","651c1de65d995bbf6471eff6","null","null","<p style=""font-size: 60px; font-family: BACS"">NvuGrYmb</p>","","","","","","","","","",""
"html-keyboard-response","52","144676","0.0-8.0-0.44","5fd69a0014c3b25ee539f66b","650c16f0f2faf8d7a0d14c09","651c1de65d995bbf6471eff6","null","null","<p style=""font-size: 60px; font-family: BACS"">CkBOPEAO</p>","","","","","","","","","",""
"html-keyboard-response","53","145696","0.0-8.0-0.45","5fd69a0014c3b25ee539f66b","650c16f0f2faf8d7a0d14c09","651c1de65d995bbf6471eff6","null","null","<p style=""font-size: 60px; font-family: BACS"">DhMtkMEC</p>","","","","","","","","","",""
"html-keyboard-response","54","146706","0.0-8.0-0.46","5fd69a0014c3b25ee539f66b","650c16f0f2faf8d7a0d14c09","651c1de65d995bbf6471eff6","null","null","<p style=""font-size: 60px; font-family: BACS"">damYbYaOk</p>","","","","","","","","","",""
"html-keyboard-response","55","147726","0.0-8.0-0.47","5fd69a0014c3b25ee539f66b","650c16f0f2faf8d7a0d14c09","651c1de65d995bbf6471eff6","null","null","<p style=""font-size: 60px; font-family: BACS"">CkBOPkMEC</p>","","","","","","","","","",""
"html-keyboard-response","56","148746","0.0-8.0-0.48","5fd69a0014c3b25ee539f66b","650c16f0f2faf8d7a0d14c09","651c1de65d995bbf6471eff6","null","null","<p style=""font-size: 60px; font-family: BACS"">QLrOJYaOk</p>","","","","","","","","","",""
"html-keyboard-response","57","149756","0.0-8.0-0.49","5fd69a0014c3b25ee539f66b","650c16f0f2faf8d7a0d14c09","651c1de65d995bbf6471eff6","null","null","<p style=""font-size: 60px; font-family: BACS"">bdUNuNac</p>","","","","","","","","","",""
"html-keyboard-response","58","150776","0.0-8.0-0.50","5fd69a0014c3b25ee539f66b","650c16f0f2faf8d7a0d14c09","651c1de65d995bbf6471eff6","null","null","<p style=""font-size: 60px; font-family: BACS"">uQkrdYaOk</p>","","","","","","","","","",""
"html-keyboard-response","59","151796","0.0-8.0-0.51","5fd69a0014c3b25ee539f66b","650c16f0f2faf8d7a0d14c09","651c1de65d995bbf6471eff6","null","null","<p style=""font-size: 60px; font-family: BACS"">RlAKcYbBT</p>","","","","","","","","","",""
"html-keyboard-response","60","152816","0.0-8.0-0.52","5fd69a0014c3b25ee539f66b","650c16f0f2faf8d7a0d14c09","651c1de65d995bbf6471eff6","null","null","<p style=""font-size: 60px; font-family: BACS"">CmcOkMEC</p>","","","","","","","","","",""
"html-keyboard-response","61","153826","0.0-8.0-0.53","5fd69a0014c3b25ee539f66b","650c16f0f2faf8d7a0d14c09","651c1de65d995bbf6471eff6","null","null","<p style=""font-size: 60px; font-family: BACS"">ZJLmrYaOk</p>","","","","","","","","","",""
"html-keyboard-response","62","154844","0.0-8.0-0.54","5fd69a0014c3b25ee539f66b","650c16f0f2faf8d7a0d14c09","651c1de65d995bbf6471eff6","null","null","<p style=""font-size: 60px; font-family: BACS"">NvuGrNac</p>","","","","","","","","","",""
"html-keyboard-response","63","155866","0.0-8.0-0.55","5fd69a0014c3b25ee539f66b","650c16f0f2faf8d7a0d14c09","651c1de65d995bbf6471eff6","null","null","<p style=""font-size: 60px; font-family: BACS"">DhMtYBO</p>","","","","","","","","","",""
"html-keyboard-response","64","156876","0.0-8.0-0.56","5fd69a0014c3b25ee539f66b","650c16f0f2faf8d7a0d14c09","651c1de65d995bbf6471eff6","null","null","<p style=""font-size: 60px; font-family: BACS"">ZJLmrLaA</p>","","","","","","","","","",""
"html-keyboard-response","65","157891","0.0-8.0-0.57","5fd69a0014c3b25ee539f66b","650c16f0f2faf8d7a0d14c09","651c1de65d995bbf6471eff6","null","null","<p style=""font-size: 60px; font-family: BACS"">EMYKYbBT</p>","","","","","","","","","",""
"html-keyboard-response","66","158896","0.0-8.0-0.58","5fd69a0014c3b25ee539f66b","650c16f0f2faf8d7a0d14c09","651c1de65d995bbf6471eff6","null","null","<p style=""font-size: 60px; font-family: BACS"">DlDdEAO</p>","","","","","","","","","",""
"html-keyboard-response","67","159916","0.0-8.0-0.59","5fd69a0014c3b25ee539f66b","650c16f0f2faf8d7a0d14c09","651c1de65d995bbf6471eff6","null","null","<p style=""font-size: 60px; font-family: BACS"">bdUNuLaA</p>","","","","","","","","","",""
"html-keyboard-response","68","160926","0.0-8.0-0.60","5fd69a0014c3b25ee539f66b","650c16f0f2faf8d7a0d14c09","651c1de65d995bbf6471eff6","null","null","<p style=""font-size: 60px; font-family: BACS"">lhCTCYBO</p>","","","","","","","","","",""
"html-keyboard-response","69","161946","0.0-8.0-0.61","5fd69a0014c3b25ee539f66b","650c16f0f2faf8d7a0d14c09","651c1de65d995bbf6471eff6","null","null","<p style=""font-size: 60px; font-family: BACS"">chAhEAO</p>","","","","","","","","","",""
"html-keyboard-response","70","162966","0.0-8.0-0.62","5fd69a0014c3b25ee539f66b","650c16f0f2faf8d7a0d14c09","651c1de65d995bbf6471eff6","null","null","<p style=""font-size: 60px; font-family: BACS"">uQkrdNac</p>","","","","","","","","","",""
"html-keyboard-response","71","163976","0.0-8.0-0.63","5fd69a0014c3b25ee539f66b","650c16f0f2faf8d7a0d14c09","651c1de65d995bbf6471eff6","null","null","<p style=""font-size: 60px; font-family: BACS"">QLrOJLaA</p>","","","","","","","","","",""
"html-keyboard-response","72","164996","0.0-8.0-0.64","5fd69a0014c3b25ee539f66b","650c16f0f2faf8d7a0d14c09","651c1de65d995bbf6471eff6","null","null","<p style=""font-size: 60px; font-family: BACS"">damYbYmb</p>","","","","","","","","","",""
"html-keyboard-response","73","166016","0.0-8.0-0.65","5fd69a0014c3b25ee539f66b","650c16f0f2faf8d7a0d14c09","651c1de65d995bbf6471eff6","null","null","<p style=""font-size: 60px; font-family: BACS"">RlAKcDKP</p>","","","","","","","","","",""
"html-keyboard-response","74","167018","0.0-8.0-0.66","5fd69a0014c3b25ee539f66b","650c16f0f2faf8d7a0d14c09","651c1de65d995bbf6471eff6","null","null","<p style=""font-size: 60px; font-family: BACS"">lhCTCEAO</p>","","","","","","","","","",""
"html-keyboard-response","75","168019","0.0-8.0-0.67","5fd69a0014c3b25ee539f66b","650c16f0f2faf8d7a0d14c09","651c1de65d995bbf6471eff6","null","null","<p style=""font-size: 60px; font-family: BACS"">QcladNac</p>","","","","","","","","","",""
"html-keyboard-response","76","169036","0.0-8.0-0.68","5fd69a0014c3b25ee539f66b","650c16f0f2faf8d7a0d14c09","651c1de65d995bbf6471eff6","null","null","<p style=""font-size: 60px; font-family: BACS"">CkBOPYbBT</p>","","","","","","","","","",""
"html-keyboard-response","77","170056","0.0-8.0-0.69","5fd69a0014c3b25ee539f66b","650c16f0f2faf8d7a0d14c09","651c1de65d995bbf6471eff6","null","null","<p style=""font-size: 60px; font-family: BACS"">RlAKcYBO</p>","","","","","","","","","",""
"html-keyboard-response","78","171063","0.0-8.0-0.70","5fd69a0014c3b25ee539f66b","650c16f0f2faf8d7a0d14c09","651c1de65d995bbf6471eff6","null","null","<p style=""font-size: 60px; font-family: BACS"">QcladYmb</p>","","","","","","","","","",""
"html-keyboard-response","79","172086","0.0-8.0-0.71","5fd69a0014c3b25ee539f66b","650c16f0f2faf8d7a0d14c09","651c1de65d995bbf6471eff6","null","null","<p style=""font-size: 60px; font-family: BACS"">uQkrdLaA</p>","","","","","","","","","",""
"html-keyboard-response","80","173096","0.0-8.0-0.72","5fd69a0014c3b25ee539f66b","650c16f0f2faf8d7a0d14c09","651c1de65d995bbf6471eff6","null","null","<p style=""font-size: 60px; font-family: BACS"">CmcOEAO</p>","","","","","","","","","",""
"html-keyboard-response","81","174106","0.0-8.0-0.73","5fd69a0014c3b25ee539f66b","650c16f0f2faf8d7a0d14c09","651c1de65d995bbf6471eff6","null","null","<p style=""font-size: 60px; font-family: BACS"">lhCTCkMEC</p>","","","","","","","","","",""
"html-keyboard-response","82","175126","0.0-8.0-0.74","5fd69a0014c3b25ee539f66b","650c16f0f2faf8d7a0d14c09","651c1de65d995bbf6471eff6","null","null","<p style=""font-size: 60px; font-family: BACS"">LGkANac</p>","","","","","","","","","",""
"html-keyboard-response","83","176146","0.0-8.0-0.75","5fd69a0014c3b25ee539f66b","650c16f0f2faf8d7a0d14c09","651c1de65d995bbf6471eff6","null","null","<p style=""font-size: 60px; font-family: BACS"">CmcOYbBT</p>","","","","","","","","","",""
"html-keyboard-response","84","177166","0.0-8.0-0.76","5fd69a0014c3b25ee539f66b","650c16f0f2faf8d7a0d14c09","651c1de65d995bbf6471eff6","null","null","<p style=""font-size: 60px; font-family: BACS"">bvkrNac</p>","","","","","","","","","",""
"html-keyboard-response","85","178186","0.0-8.0-0.77","5fd69a0014c3b25ee539f66b","650c16f0f2faf8d7a0d14c09","651c1de65d995bbf6471eff6","null","null","<p style=""font-size: 60px; font-family: BACS"">EMYKYBO</p>","","","","","","","","","",""
"html-keyboard-response","86","179206","0.0-8.0-0.78","5fd69a0014c3b25ee539f66b","650c16f0f2faf8d7a0d14c09","651c1de65d995bbf6471eff6","null","null","<p style=""font-size: 60px; font-family: BACS"">lRCBDKP</p>","","","","","","","","","",""
"html-keyboard-response","87","180221","0.0-8.0-0.79","5fd69a0014c3b25ee539f66b","650c16f0f2faf8d7a0d14c09","651c1de65d995bbf6471eff6","null","null","<p style=""font-size: 60px; font-family: BACS"">RlAKckMEC</p>","","","","","","","","","",""
"html-keyboard-response","88","186119","0.0-9.0","5fd69a0014c3b25ee539f66b","650c16f0f2faf8d7a0d14c09","651c1de65d995bbf6471eff6","5897"," ","<p>Great, you've seen the first block of words. You may now take a short break.</p>
      <p>Press the spacebar when you're ready to continue.</p>","","","","","","","","","",""
"html-keyboard-response","89","187136","0.0-10.0-0.0","5fd69a0014c3b25ee539f66b","650c16f0f2faf8d7a0d14c09","651c1de65d995bbf6471eff6","null","null","<p style=""font-size: 60px; font-family: BACS"">QLrOJYmb</p>","","","","","","","","","",""
"html-keyboard-response","90","188156","0.0-10.0-0.1","5fd69a0014c3b25ee539f66b","650c16f0f2faf8d7a0d14c09","651c1de65d995bbf6471eff6","null","null","<p style=""font-size: 60px; font-family: BACS"">RlAKcYBO</p>","","","","","","","","","",""
"html-keyboard-response","91","189166","0.0-10.0-0.2","5fd69a0014c3b25ee539f66b","650c16f0f2faf8d7a0d14c09","651c1de65d995bbf6471eff6","null","null","<p style=""font-size: 60px; font-family: BACS"">CkBOPEAO</p>","","","","","","","","","",""
"html-keyboard-response","92","190186","0.0-10.0-0.3","5fd69a0014c3b25ee539f66b","650c16f0f2faf8d7a0d14c09","651c1de65d995bbf6471eff6","null","null","<p style=""font-size: 60px; font-family: BACS"">RlAKcYbBT</p>","","","","","","","","","",""
"html-keyboard-response","93","191206","0.0-10.0-0.4","5fd69a0014c3b25ee539f66b","650c16f0f2faf8d7a0d14c09","651c1de65d995bbf6471eff6","null","null","<p style=""font-size: 60px; font-family: BACS"">CmcOYBO</p>","","","","","","","","","",""
"html-keyboard-response","94","192226","0.0-10.0-0.5","5fd69a0014c3b25ee539f66b","650c16f0f2faf8d7a0d14c09","651c1de65d995bbf6471eff6","null","null","<p style=""font-size: 60px; font-family: BACS"">bdUNuYmb</p>","","","","","","","","","",""
"html-keyboard-response","95","193236","0.0-10.0-0.6","5fd69a0014c3b25ee539f66b","650c16f0f2faf8d7a0d14c09","651c1de65d995bbf6471eff6","null","null","<p style=""font-size: 60px; font-family: BACS"">ZJLmrLaA</p>","","","","","","","","","",""
"html-keyboard-response","96","194256","0.0-10.0-0.7","5fd69a0014c3b25ee539f66b","650c16f0f2faf8d7a0d14c09","651c1de65d995bbf6471eff6","null","null","<p style=""font-size: 60px; font-family: BACS"">damYbNac</p>","","","","","","","","","",""
"html-keyboard-response","97","195276","0.0-10.0-0.8","5fd69a0014c3b25ee539f66b","650c16f0f2faf8d7a0d14c09","651c1de65d995bbf6471eff6","null","null","<p style=""font-size: 60px; font-family: BACS"">NvuGrYmb</p>","","","","","","","","","",""
"html-keyboard-response","98","196286","0.0-10.0-0.9","5fd69a0014c3b25ee539f66b","650c16f0f2faf8d7a0d14c09","651c1de65d995bbf6471eff6","null","null","<p style=""font-size: 60px; font-family: BACS"">LGkAZAUu</p>","","","","","","","","","",""
"html-keyboard-response","99","197306","0.0-10.0-0.10","5fd69a0014c3b25ee539f66b","650c16f0f2faf8d7a0d14c09","651c1de65d995bbf6471eff6","null","null","<p style=""font-size: 60px; font-family: BACS"">lRCBEAO</p>","","","","","","","","","",""
"html-keyboard-response","100","198326","0.0-10.0-0.11","5fd69a0014c3b25ee539f66b","650c16f0f2faf8d7a0d14c09","651c1de65d995bbf6471eff6","null","null","<p style=""font-size: 60px; font-family: BACS"">LGkANac</p>","","","","","","","","","",""
"html-keyboard-response","101","199336","0.0-10.0-0.12","5fd69a0014c3b25ee539f66b","650c16f0f2faf8d7a0d14c09","651c1de65d995bbf6471eff6","null","null","<p style=""font-size: 60px; font-family: BACS"">EMYKYbBT</p>","","","","","","","","","",""
"html-keyboard-response","102","200356","0.0-10.0-0.13","5fd69a0014c3b25ee539f66b","650c16f0f2faf8d7a0d14c09","651c1de65d995bbf6471eff6","null","null","<p style=""font-size: 60px; font-family: BACS"">QcladNac</p>","","","","","","","","","",""
"html-keyboard-response","103","201376","0.0-10.0-0.14","5fd69a0014c3b25ee539f66b","650c16f0f2faf8d7a0d14c09","651c1de65d995bbf6471eff6","null","null","<p style=""font-size: 60px; font-family: BACS"">DhMtkMEC</p>","","","","","","","","","",""
"html-keyboard-response","104","202396","0.0-10.0-0.15","5fd69a0014c3b25ee539f66b","650c16f0f2faf8d7a0d14c09","651c1de65d995bbf6471eff6","null","null","<p style=""font-size: 60px; font-family: BACS"">DcPTcEAO</p>","","","","","","","","","",""
"html-keyboard-response","105","203416","0.0-10.0-0.16","5fd69a0014c3b25ee539f66b","650c16f0f2faf8d7a0d14c09","651c1de65d995bbf6471eff6","null","null","<p style=""font-size: 60px; font-family: BACS"">lhCTCYBO</p>","","","","","","","","","",""
"html-keyboard-response","106","204426","0.0-10.0-0.17","5fd69a0014c3b25ee539f66b","650c16f0f2faf8d7a0d14c09","651c1de65d995bbf6471eff6","null","null","<p style=""font-size: 60px; font-family: BACS"">QLrOJZAUu</p>","","","","","","","","","",""
"html-keyboard-response","107","205446","0.0-10.0-0.18","5fd69a0014c3b25ee539f66b","650c16f0f2faf8d7a0d14c09","651c1de65d995bbf6471eff6","null","null","<p style=""font-size: 60px; font-family: BACS"">DcPTcDKP</p>","","","","","","","","","",""
"html-keyboard-response","108","206466","0.0-10.0-0.19","5fd69a0014c3b25ee539f66b","650c16f0f2faf8d7a0d14c09","651c1de65d995bbf6471eff6","null","null","<p style=""font-size: 60px; font-family: BACS"">dmZvmLaA</p>","","","","","","","","","",""
"html-keyboard-response","109","207476","0.0-10.0-0.20","5fd69a0014c3b25ee539f66b","650c16f0f2faf8d7a0d14c09","651c1de65d995bbf6471eff6","null","null","<p style=""font-size: 60px; font-family: BACS"">ZJLmrYaOk</p>","","","","","","","","","",""
"html-keyboard-response","110","208496","0.0-10.0-0.21","5fd69a0014c3b25ee539f66b","650c16f0f2faf8d7a0d14c09","651c1de65d995bbf6471eff6","null","null","<p style=""font-size: 60px; font-family: BACS"">RlAKckMEC</p>","","","","","","","","","",""
"html-keyboard-response","111","209501","0.0-10.0-0.22","5fd69a0014c3b25ee539f66b","650c16f0f2faf8d7a0d14c09","651c1de65d995bbf6471eff6","null","null","<p style=""font-size: 60px; font-family: BACS"">NvuGrZAUu</p>","","","","","","","","","",""
"html-keyboard-response","112","210516","0.0-10.0-0.23","5fd69a0014c3b25ee539f66b","650c16f0f2faf8d7a0d14c09","651c1de65d995bbf6471eff6","null","null","<p style=""font-size: 60px; font-family: BACS"">chAhkMEC</p>","","","","","","","","","",""
"html-keyboard-response","113","211526","0.0-10.0-0.24","5fd69a0014c3b25ee539f66b","650c16f0f2faf8d7a0d14c09","651c1de65d995bbf6471eff6","null","null","<p style=""font-size: 60px; font-family: BACS"">dmZvmYmb</p>","","","","","","","","","",""
"html-keyboard-response","114","212546","0.0-10.0-0.25","5fd69a0014c3b25ee539f66b","650c16f0f2faf8d7a0d14c09","651c1de65d995bbf6471eff6","null","null","<p style=""font-size: 60px; font-family: BACS"">CkBOPYbBT</p>","","","","","","","","","",""
"html-keyboard-response","115","213566","0.0-10.0-0.26","5fd69a0014c3b25ee539f66b","650c16f0f2faf8d7a0d14c09","651c1de65d995bbf6471eff6","null","null","<p style=""font-size: 60px; font-family: BACS"">damYbYaOk</p>","","","","","","","","","",""
"html-keyboard-response","116","214586","0.0-10.0-0.27","5fd69a0014c3b25ee539f66b","650c16f0f2faf8d7a0d14c09","651c1de65d995bbf6471eff6","null","null","<p style=""font-size: 60px; font-family: BACS"">CkBOPkMEC</p>","","","","","","","","","",""
"html-keyboard-response","117","215596","0.0-10.0-0.28","5fd69a0014c3b25ee539f66b","650c16f0f2faf8d7a0d14c09","651c1de65d995bbf6471eff6","null","null","<p style=""font-size: 60px; font-family: BACS"">QLrOJLaA</p>","","","","","","","","","",""
"html-keyboard-response","118","216615","0.0-10.0-0.29","5fd69a0014c3b25ee539f66b","650c16f0f2faf8d7a0d14c09","651c1de65d995bbf6471eff6","null","null","<p style=""font-size: 60px; font-family: BACS"">damYbYmb</p>","","","","","","","","","",""
"html-keyboard-response","119","217626","0.0-10.0-0.30","5fd69a0014c3b25ee539f66b","650c16f0f2faf8d7a0d14c09","651c1de65d995bbf6471eff6","null","null","<p style=""font-size: 60px; font-family: BACS"">bvkrNac</p>","","","","","","","","","",""
"html-keyboard-response","120","218646","0.0-10.0-0.31","5fd69a0014c3b25ee539f66b","650c16f0f2faf8d7a0d14c09","651c1de65d995bbf6471eff6","null","null","<p style=""font-size: 60px; font-family: BACS"">chAhDKP</p>","","","","","","","","","",""
"html-keyboard-response","121","219665","0.0-10.0-0.32","5fd69a0014c3b25ee539f66b","650c16f0f2faf8d7a0d14c09","651c1de65d995bbf6471eff6","null","null","<p style=""font-size: 60px; font-family: BACS"">QLrOJYaOk</p>","","","","","","","","","",""
"html-keyboard-response","122","220686","0.0-10.0-0.33","5fd69a0014c3b25ee539f66b","650c16f0f2faf8d7a0d14c09","651c1de65d995bbf6471eff6","null","null","<p style=""font-size: 60px; font-family: BACS"">lhCTCDKP</p>","","","","","","","","","",""
"html-keyboard-response","123","221696","0.0-10.0-0.34","5fd69a0014c3b25ee539f66b","650c16f0f2faf8d7a0d14c09","651c1de65d995bbf6471eff6","null","null","<p style=""font-size: 60px; font-family: BACS"">NvuGrNac</p>","","","","","","","","","",""
"html-keyboard-response","124","222716","0.0-10.0-0.35","5fd69a0014c3b25ee539f66b","650c16f0f2faf8d7a0d14c09","651c1de65d995bbf6471eff6","null","null","<p style=""font-size: 60px; font-family: BACS"">uQkrdLaA</p>","","","","","","","","","",""
"html-keyboard-response","125","223736","0.0-10.0-0.36","5fd69a0014c3b25ee539f66b","650c16f0f2faf8d7a0d14c09","651c1de65d995bbf6471eff6","null","null","<p style=""font-size: 60px; font-family: BACS"">QcladYmb</p>","","","","","","","","","",""
"html-keyboard-response","126","224746","0.0-10.0-0.37","5fd69a0014c3b25ee539f66b","650c16f0f2faf8d7a0d14c09","651c1de65d995bbf6471eff6","null","null","<p style=""font-size: 60px; font-family: BACS"">bdUNuYaOk</p>","","","","","","","","","",""
"html-keyboard-response","127","225766","0.0-10.0-0.38","5fd69a0014c3b25ee539f66b","650c16f0f2faf8d7a0d14c09","651c1de65d995bbf6471eff6","null","null","<p style=""font-size: 60px; font-family: BACS"">CmcOYbBT</p>","","","","","","","","","",""
"html-keyboard-response","128","226786","0.0-10.0-0.39","5fd69a0014c3b25ee539f66b","650c16f0f2faf8d7a0d14c09","651c1de65d995bbf6471eff6","null","null","<p style=""font-size: 60px; font-family: BACS"">bvkrZAUu</p>","","","","","","","","","",""
"html-keyboard-response","129","227806","0.0-10.0-0.40","5fd69a0014c3b25ee539f66b","650c16f0f2faf8d7a0d14c09","651c1de65d995bbf6471eff6","null","null","<p style=""font-size: 60px; font-family: BACS"">lRCBYBO</p>","","","","","","","","","",""
"html-keyboard-response","130","228816","0.0-10.0-0.41","5fd69a0014c3b25ee539f66b","650c16f0f2faf8d7a0d14c09","651c1de65d995bbf6471eff6","null","null","<p style=""font-size: 60px; font-family: BACS"">DlDdEAO</p>","","","","","","","","","",""
"html-keyboard-response","131","229836","0.0-10.0-0.42","5fd69a0014c3b25ee539f66b","650c16f0f2faf8d7a0d14c09","651c1de65d995bbf6471eff6","null","null","<p style=""font-size: 60px; font-family: BACS"">CkBOPDKP</p>","","","","","","","","","",""
"html-keyboard-response","132","230855","0.0-10.0-0.43","5fd69a0014c3b25ee539f66b","650c16f0f2faf8d7a0d14c09","651c1de65d995bbf6471eff6","null","null","<p style=""font-size: 60px; font-family: BACS"">lRCBYbBT</p>","","","","","","","","","",""
"html-keyboard-response","133","231866","0.0-10.0-0.44","5fd69a0014c3b25ee539f66b","650c16f0f2faf8d7a0d14c09","651c1de65d995bbf6471eff6","null","null","<p style=""font-size: 60px; font-family: BACS"">dmZvmNac</p>","","","","","","","","","",""
"html-keyboard-response","134","232886","0.0-10.0-0.45","5fd69a0014c3b25ee539f66b","650c16f0f2faf8d7a0d14c09","651c1de65d995bbf6471eff6","null","null","<p style=""font-size: 60px; font-family: BACS"">DhMtYbBT</p>","","","","","","","","","",""
"html-keyboard-response","135","233906","0.0-10.0-0.46","5fd69a0014c3b25ee539f66b","650c16f0f2faf8d7a0d14c09","651c1de65d995bbf6471eff6","null","null","<p style=""font-size: 60px; font-family: BACS"">LGkAYmb</p>","","","","","","","","","",""
"html-keyboard-response","136","234915","0.0-10.0-0.47","5fd69a0014c3b25ee539f66b","650c16f0f2faf8d7a0d14c09","651c1de65d995bbf6471eff6","null","null","<p style=""font-size: 60px; font-family: BACS"">damYbLaA</p>","","","","","","","","","",""
"html-keyboard-response","137","235936","0.0-10.0-0.48","5fd69a0014c3b25ee539f66b","650c16f0f2faf8d7a0d14c09","651c1de65d995bbf6471eff6","null","null","<p style=""font-size: 60px; font-family: BACS"">chAhYBO</p>","","","","","","","","","",""
"html-keyboard-response","138","236956","0.0-10.0-0.49","5fd69a0014c3b25ee539f66b","650c16f0f2faf8d7a0d14c09","651c1de65d995bbf6471eff6","null","null","<p style=""font-size: 60px; font-family: BACS"">lhCTCEAO</p>","","","","","","","","","",""
"html-keyboard-response","139","237976","0.0-10.0-0.50","5fd69a0014c3b25ee539f66b","650c16f0f2faf8d7a0d14c09","651c1de65d995bbf6471eff6","null","null","<p style=""font-size: 60px; font-family: BACS"">RlAKcDKP</p>","","","","","","","","","",""
"html-keyboard-response","140","238986","0.0-10.0-0.51","5fd69a0014c3b25ee539f66b","650c16f0f2faf8d7a0d14c09","651c1de65d995bbf6471eff6","null","null","<p style=""font-size: 60px; font-family: BACS"">DcPTcYbBT</p>","","","","","","","","","",""
"html-keyboard-response","141","240005","0.0-10.0-0.52","5fd69a0014c3b25ee539f66b","650c16f0f2faf8d7a0d14c09","651c1de65d995bbf6471eff6","null","null","<p style=""font-size: 60px; font-family: BACS"">lRCBDKP</p>","","","","","","","","","",""
"html-keyboard-response","142","241015","0.0-10.0-0.53","5fd69a0014c3b25ee539f66b","650c16f0f2faf8d7a0d14c09","651c1de65d995bbf6471eff6","null","null","<p style=""font-size: 60px; font-family: BACS"">DlDdYbBT</p>","","","","","","","","","",""
"html-keyboard-response","143","242026","0.0-10.0-0.54","5fd69a0014c3b25ee539f66b","650c16f0f2faf8d7a0d14c09","651c1de65d995bbf6471eff6","null","null","<p style=""font-size: 60px; font-family: BACS"">dmZvmZAUu</p>","","","","","","","","","",""
"html-keyboard-response","144","243036","0.0-10.0-0.55","5fd69a0014c3b25ee539f66b","650c16f0f2faf8d7a0d14c09","651c1de65d995bbf6471eff6","null","null","<p style=""font-size: 60px; font-family: BACS"">DlDdYBO</p>","","","","","","","","","",""
"html-keyboard-response","145","244051","0.0-10.0-0.56","5fd69a0014c3b25ee539f66b","650c16f0f2faf8d7a0d14c09","651c1de65d995bbf6471eff6","null","null","<p style=""font-size: 60px; font-family: BACS"">lhCTCkMEC</p>","","","","","","","","","",""
"html-keyboard-response","146","245052","0.0-10.0-0.57","5fd69a0014c3b25ee539f66b","650c16f0f2faf8d7a0d14c09","651c1de65d995bbf6471eff6","null","null","<p style=""font-size: 60px; font-family: BACS"">bvkrYaOk</p>","","","","","","","","","",""
"html-keyboard-response","147","246053","0.0-10.0-0.58","5fd69a0014c3b25ee539f66b","650c16f0f2faf8d7a0d14c09","651c1de65d995bbf6471eff6","null","null","<p style=""font-size: 60px; font-family: BACS"">ZJLmrYmb</p>","","","","","","","","","",""
"html-keyboard-response","148","247075","0.0-10.0-0.59","5fd69a0014c3b25ee539f66b","650c16f0f2faf8d7a0d14c09","651c1de65d995bbf6471eff6","null","null","<p style=""font-size: 60px; font-family: BACS"">NvuGrYaOk</p>","","","","","","","","","",""
"html-keyboard-response","149","248086","0.0-10.0-0.60","5fd69a0014c3b25ee539f66b","650c16f0f2faf8d7a0d14c09","651c1de65d995bbf6471eff6","null","null","<p style=""font-size: 60px; font-family: BACS"">LGkALaA</p>","","","","","","","","","",""
"html-keyboard-response","150","249106","0.0-10.0-0.61","5fd69a0014c3b25ee539f66b","650c16f0f2faf8d7a0d14c09","651c1de65d995bbf6471eff6","null","null","<p style=""font-size: 60px; font-family: BACS"">QcladZAUu</p>","","","","","","","","","",""
"html-keyboard-response","151","250126","0.0-10.0-0.62","5fd69a0014c3b25ee539f66b","650c16f0f2faf8d7a0d14c09","651c1de65d995bbf6471eff6","null","null","<p style=""font-size: 60px; font-family: BACS"">bvkrLaA</p>","","","","","","","","","",""
"html-keyboard-response","152","251135","0.0-10.0-0.63","5fd69a0014c3b25ee539f66b","650c16f0f2faf8d7a0d14c09","651c1de65d995bbf6471eff6","null","null","<p style=""font-size: 60px; font-family: BACS"">uQkrdNac</p>","","","","","","","","","",""
"html-keyboard-response","153","252156","0.0-10.0-0.64","5fd69a0014c3b25ee539f66b","650c16f0f2faf8d7a0d14c09","651c1de65d995bbf6471eff6","null","null","<p style=""font-size: 60px; font-family: BACS"">EMYKDKP</p>","","","","","","","","","",""
"html-keyboard-response","154","253175","0.0-10.0-0.65","5fd69a0014c3b25ee539f66b","650c16f0f2faf8d7a0d14c09","651c1de65d995bbf6471eff6","null","null","<p style=""font-size: 60px; font-family: BACS"">CmcOEAO</p>","","","","","","","","","",""
"html-keyboard-response","155","254195","0.0-10.0-0.66","5fd69a0014c3b25ee539f66b","650c16f0f2faf8d7a0d14c09","651c1de65d995bbf6471eff6","null","null","<p style=""font-size: 60px; font-family: BACS"">EMYKkMEC</p>","","","","","","","","","",""
"html-keyboard-response","156","255205","0.0-10.0-0.67","5fd69a0014c3b25ee539f66b","650c16f0f2faf8d7a0d14c09","651c1de65d995bbf6471eff6","null","null","<p style=""font-size: 60px; font-family: BACS"">uQkrdZAUu</p>","","","","","","","","","",""
"html-keyboard-response","157","256225","0.0-10.0-0.68","5fd69a0014c3b25ee539f66b","650c16f0f2faf8d7a0d14c09","651c1de65d995bbf6471eff6","null","null","<p style=""font-size: 60px; font-family: BACS"">bdUNuLaA</p>","","","","","","","","","",""
"html-keyboard-response","158","257245","0.0-10.0-0.69","5fd69a0014c3b25ee539f66b","650c16f0f2faf8d7a0d14c09","651c1de65d995bbf6471eff6","null","null","<p style=""font-size: 60px; font-family: BACS"">ZJLmrZAUu</p>","","","","","","","","","",""
"html-keyboard-response","159","258264","0.0-10.0-0.70","5fd69a0014c3b25ee539f66b","650c16f0f2faf8d7a0d14c09","651c1de65d995bbf6471eff6","null","null","<p style=""font-size: 60px; font-family: BACS"">DcPTckMEC</p>","","","","","","","","","",""
"html-keyboard-response","160","259276","0.0-10.0-0.71","5fd69a0014c3b25ee539f66b","650c16f0f2faf8d7a0d14c09","651c1de65d995bbf6471eff6","null","null","<p style=""font-size: 60px; font-family: BACS"">uQkrdYaOk</p>","","","","","","","","","",""
"html-keyboard-response","161","260296","0.0-10.0-0.72","5fd69a0014c3b25ee539f66b","650c16f0f2faf8d7a0d14c09","651c1de65d995bbf6471eff6","null","null","<p style=""font-size: 60px; font-family: BACS"">DhMtEAO</p>","","","","","","","","","",""
"html-keyboard-response","162","261306","0.0-10.0-0.73","5fd69a0014c3b25ee539f66b","650c16f0f2faf8d7a0d14c09","651c1de65d995bbf6471eff6","null","null","<p style=""font-size: 60px; font-family: BACS"">CmcOkMEC</p>","","","","","","","","","",""
"html-keyboard-response","163","262326","0.0-10.0-0.74","5fd69a0014c3b25ee539f66b","650c16f0f2faf8d7a0d14c09","651c1de65d995bbf6471eff6","null","null","<p style=""font-size: 60px; font-family: BACS"">chAhEAO</p>","","","","","","","","","",""
"html-keyboard-response","164","263336","0.0-10.0-0.75","5fd69a0014c3b25ee539f66b","650c16f0f2faf8d7a0d14c09","651c1de65d995bbf6471eff6","null","null","<p style=""font-size: 60px; font-family: BACS"">bdUNuNac</p>","","","","","","","","","",""
"html-keyboard-response","165","264345","0.0-10.0-0.76","5fd69a0014c3b25ee539f66b","650c16f0f2faf8d7a0d14c09","651c1de65d995bbf6471eff6","null","null","<p style=""font-size: 60px; font-family: BACS"">QcladYaOk</p>","","","","","","","","","",""
"html-keyboard-response","166","265366","0.0-10.0-0.77","5fd69a0014c3b25ee539f66b","650c16f0f2faf8d7a0d14c09","651c1de65d995bbf6471eff6","null","null","<p style=""font-size: 60px; font-family: BACS"">DhMtYBO</p>","","","","","","","","","",""
"html-keyboard-response","167","266385","0.0-10.0-0.78","5fd69a0014c3b25ee539f66b","650c16f0f2faf8d7a0d14c09","651c1de65d995bbf6471eff6","null","null","<p style=""font-size: 60px; font-family: BACS"">DlDdDKP</p>","","","","","","","","","",""
"html-keyboard-response","168","267395","0.0-10.0-0.79","5fd69a0014c3b25ee539f66b","650c16f0f2faf8d7a0d14c09","651c1de65d995bbf6471eff6","null","null","<p style=""font-size: 60px; font-family: BACS"">EMYKYBO</p>","","","","","","","","","",""
"html-keyboard-response","169","271880","0.0-11.0","5fd69a0014c3b25ee539f66b","650c16f0f2faf8d7a0d14c09","651c1de65d995bbf6471eff6","4483"," ","<p>Great, you've seen the second block of words. You may now take a short break.</p>
      <p>Press the spacebar when you're ready to continue.</p>","","","","","","","","","",""
"html-keyboard-response","170","272882","0.0-12.0-0.0","5fd69a0014c3b25ee539f66b","650c16f0f2faf8d7a0d14c09","651c1de65d995bbf6471eff6","null","null","<p style=""font-size: 60px; font-family: BACS"">bvkrYaOk</p>","","","","","","","","","",""
"html-keyboard-response","171","273895","0.0-12.0-0.1","5fd69a0014c3b25ee539f66b","650c16f0f2faf8d7a0d14c09","651c1de65d995bbf6471eff6","null","null","<p style=""font-size: 60px; font-family: BACS"">damYbYmb</p>","","","","","","","","","",""
"html-keyboard-response","172","274916","0.0-12.0-0.2","5fd69a0014c3b25ee539f66b","650c16f0f2faf8d7a0d14c09","651c1de65d995bbf6471eff6","null","null","<p style=""font-size: 60px; font-family: BACS"">LGkAZAUu</p>","","","","","","","","","",""
"html-keyboard-response","173","275936","0.0-12.0-0.3","5fd69a0014c3b25ee539f66b","650c16f0f2faf8d7a0d14c09","651c1de65d995bbf6471eff6","null","null","<p style=""font-size: 60px; font-family: BACS"">damYbLaA</p>","","","","","","","","","",""
"html-keyboard-response","174","276945","0.0-12.0-0.4","5fd69a0014c3b25ee539f66b","650c16f0f2faf8d7a0d14c09","651c1de65d995bbf6471eff6","null","null","<p style=""font-size: 60px; font-family: BACS"">DlDdYbBT</p>","","","","","","","","","",""
"html-keyboard-response","175","277965","0.0-12.0-0.5","5fd69a0014c3b25ee539f66b","650c16f0f2faf8d7a0d14c09","651c1de65d995bbf6471eff6","null","null","<p style=""font-size: 60px; font-family: BACS"">lhCTCDKP</p>","","","","","","","","","",""
"html-keyboard-response","176","278985","0.0-12.0-0.6","5fd69a0014c3b25ee539f66b","650c16f0f2faf8d7a0d14c09","651c1de65d995bbf6471eff6","null","null","<p style=""font-size: 60px; font-family: BACS"">EMYKYBO</p>","","","","","","","","","",""
"html-keyboard-response","177","279995","0.0-12.0-0.7","5fd69a0014c3b25ee539f66b","650c16f0f2faf8d7a0d14c09","651c1de65d995bbf6471eff6","null","null","<p style=""font-size: 60px; font-family: BACS"">DlDdEAO</p>","","","","","","","","","",""
"html-keyboard-response","178","281015","0.0-12.0-0.8","5fd69a0014c3b25ee539f66b","650c16f0f2faf8d7a0d14c09","651c1de65d995bbf6471eff6","null","null","<p style=""font-size: 60px; font-family: BACS"">EMYKDKP</p>","","","","","","","","","",""
"html-keyboard-response","179","282036","0.0-12.0-0.9","5fd69a0014c3b25ee539f66b","650c16f0f2faf8d7a0d14c09","651c1de65d995bbf6471eff6","null","null","<p style=""font-size: 60px; font-family: BACS"">LGkALaA</p>","","","","","","","","","",""
"html-keyboard-response","180","283055","0.0-12.0-0.10","5fd69a0014c3b25ee539f66b","650c16f0f2faf8d7a0d14c09","651c1de65d995bbf6471eff6","null","null","<p style=""font-size: 60px; font-family: BACS"">DhMtkMEC</p>","","","","","","","","","",""
"html-keyboard-response","181","284065","0.0-12.0-0.11","5fd69a0014c3b25ee539f66b","650c16f0f2faf8d7a0d14c09","651c1de65d995bbf6471eff6","null","null","<p style=""font-size: 60px; font-family: BACS"">CkBOPDKP</p>","","","","","","","","","",""
"html-keyboard-response","182","285086","0.0-12.0-0.12","5fd69a0014c3b25ee539f66b","650c16f0f2faf8d7a0d14c09","651c1de65d995bbf6471eff6","null","null","<p style=""font-size: 60px; font-family: BACS"">DlDdYBO</p>","","","","","","","","","",""
"html-keyboard-response","183","286096","0.0-12.0-0.13","5fd69a0014c3b25ee539f66b","650c16f0f2faf8d7a0d14c09","651c1de65d995bbf6471eff6","null","null","<p style=""font-size: 60px; font-family: BACS"">chAhEAO</p>","","","","","","","","","",""
"html-keyboard-response","184","287105","0.0-12.0-0.14","5fd69a0014c3b25ee539f66b","650c16f0f2faf8d7a0d14c09","651c1de65d995bbf6471eff6","null","null","<p style=""font-size: 60px; font-family: BACS"">NvuGrYaOk</p>","","","","","","","","","",""
"html-keyboard-response","185","288115","0.0-12.0-0.15","5fd69a0014c3b25ee539f66b","650c16f0f2faf8d7a0d14c09","651c1de65d995bbf6471eff6","null","null","<p style=""font-size: 60px; font-family: BACS"">RlAKcYBO</p>","","","","","","","","","",""
"html-keyboard-response","186","289135","0.0-12.0-0.16","5fd69a0014c3b25ee539f66b","650c16f0f2faf8d7a0d14c09","651c1de65d995bbf6471eff6","null","null","<p style=""font-size: 60px; font-family: BACS"">uQkrdYaOk</p>","","","","","","","","","",""
"html-keyboard-response","187","290155","0.0-12.0-0.17","5fd69a0014c3b25ee539f66b","650c16f0f2faf8d7a0d14c09","651c1de65d995bbf6471eff6","null","null","<p style=""font-size: 60px; font-family: BACS"">CkBOPEAO</p>","","","","","","","","","",""
"html-keyboard-response","188","291165","0.0-12.0-0.18","5fd69a0014c3b25ee539f66b","650c16f0f2faf8d7a0d14c09","651c1de65d995bbf6471eff6","null","null","<p style=""font-size: 60px; font-family: BACS"">DhMtYBO</p>","","","","","","","","","",""
"html-keyboard-response","189","292186","0.0-12.0-0.19","5fd69a0014c3b25ee539f66b","650c16f0f2faf8d7a0d14c09","651c1de65d995bbf6471eff6","null","null","<p style=""font-size: 60px; font-family: BACS"">dmZvmLaA</p>","","","","","","","","","",""
"html-keyboard-response","190","293195","0.0-12.0-0.20","5fd69a0014c3b25ee539f66b","650c16f0f2faf8d7a0d14c09","651c1de65d995bbf6471eff6","null","null","<p style=""font-size: 60px; font-family: BACS"">CmcOEAO</p>","","","","","","","","","",""
"html-keyboard-response","191","294204","0.0-12.0-0.21","5fd69a0014c3b25ee539f66b","650c16f0f2faf8d7a0d14c09","651c1de65d995bbf6471eff6","null","null","<p style=""font-size: 60px; font-family: BACS"">QcladYmb</p>","","","","","","","","","",""
"html-keyboard-response","192","295205","0.0-12.0-0.22","5fd69a0014c3b25ee539f66b","650c16f0f2faf8d7a0d14c09","651c1de65d995bbf6471eff6","null","null","<p style=""font-size: 60px; font-family: BACS"">CkBOPYbBT</p>","","","","","","","","","",""
"html-keyboard-response","193","296215","0.0-12.0-0.23","5fd69a0014c3b25ee539f66b","650c16f0f2faf8d7a0d14c09","651c1de65d995bbf6471eff6","null","null","<p style=""font-size: 60px; font-family: BACS"">CmcOkMEC</p>","","","","","","","","","",""
"html-keyboard-response","194","297225","0.0-12.0-0.24","5fd69a0014c3b25ee539f66b","650c16f0f2faf8d7a0d14c09","651c1de65d995bbf6471eff6","null","null","<p style=""font-size: 60px; font-family: BACS"">bvkrZAUu</p>","","","","","","","","","",""
"html-keyboard-response","195","298235","0.0-12.0-0.25","5fd69a0014c3b25ee539f66b","650c16f0f2faf8d7a0d14c09","651c1de65d995bbf6471eff6","null","null","<p style=""font-size: 60px; font-family: BACS"">bdUNuYaOk</p>","","","","","","","","","",""
"html-keyboard-response","196","299255","0.0-12.0-0.26","5fd69a0014c3b25ee539f66b","650c16f0f2faf8d7a0d14c09","651c1de65d995bbf6471eff6","null","null","<p style=""font-size: 60px; font-family: BACS"">lRCBYBO</p>","","","","","","","","","",""
"html-keyboard-response","197","300265","0.0-12.0-0.27","5fd69a0014c3b25ee539f66b","650c16f0f2faf8d7a0d14c09","651c1de65d995bbf6471eff6","null","null","<p style=""font-size: 60px; font-family: BACS"">DhMtYbBT</p>","","","","","","","","","",""
"html-keyboard-response","198","301285","0.0-12.0-0.28","5fd69a0014c3b25ee539f66b","650c16f0f2faf8d7a0d14c09","651c1de65d995bbf6471eff6","null","null","<p style=""font-size: 60px; font-family: BACS"">ZJLmrYaOk</p>","","","","","","","","","",""
"html-keyboard-response","199","302297","0.0-12.0-0.29","5fd69a0014c3b25ee539f66b","650c16f0f2faf8d7a0d14c09","651c1de65d995bbf6471eff6","null","null","<p style=""font-size: 60px; font-family: BACS"">QLrOJYmb</p>","","","","","","","","","",""
"html-keyboard-response","200","303306","0.0-12.0-0.30","5fd69a0014c3b25ee539f66b","650c16f0f2faf8d7a0d14c09","651c1de65d995bbf6471eff6","null","null","<p style=""font-size: 60px; font-family: BACS"">lhCTCYBO</p>","","","","","","","","","",""
"html-keyboard-response","201","304325","0.0-12.0-0.31","5fd69a0014c3b25ee539f66b","650c16f0f2faf8d7a0d14c09","651c1de65d995bbf6471eff6","null","null","<p style=""font-size: 60px; font-family: BACS"">QLrOJYaOk</p>","","","","","","","","","",""
"html-keyboard-response","202","305335","0.0-12.0-0.32","5fd69a0014c3b25ee539f66b","650c16f0f2faf8d7a0d14c09","651c1de65d995bbf6471eff6","null","null","<p style=""font-size: 60px; font-family: BACS"">RlAKckMEC</p>","","","","","","","","","",""
"html-keyboard-response","203","306340","0.0-12.0-0.33","5fd69a0014c3b25ee539f66b","650c16f0f2faf8d7a0d14c09","651c1de65d995bbf6471eff6","null","null","<p style=""font-size: 60px; font-family: BACS"">uQkrdNac</p>","","","","","","","","","",""
"html-keyboard-response","204","307345","0.0-12.0-0.34","5fd69a0014c3b25ee539f66b","650c16f0f2faf8d7a0d14c09","651c1de65d995bbf6471eff6","null","null","<p style=""font-size: 60px; font-family: BACS"">DcPTcEAO</p>","","","","","","","","","",""
"html-keyboard-response","205","308355","0.0-12.0-0.35","5fd69a0014c3b25ee539f66b","650c16f0f2faf8d7a0d14c09","651c1de65d995bbf6471eff6","null","null","<p style=""font-size: 60px; font-family: BACS"">dmZvmYmb</p>","","","","","","","","","",""
"html-keyboard-response","206","309375","0.0-12.0-0.36","5fd69a0014c3b25ee539f66b","650c16f0f2faf8d7a0d14c09","651c1de65d995bbf6471eff6","null","null","<p style=""font-size: 60px; font-family: BACS"">lRCBDKP</p>","","","","","","","","","",""
"html-keyboard-response","207","310395","0.0-12.0-0.37","5fd69a0014c3b25ee539f66b","650c16f0f2faf8d7a0d14c09","651c1de65d995bbf6471eff6","null","null","<p style=""font-size: 60px; font-family: BACS"">DcPTckMEC</p>","","","","","","","","","",""
"html-keyboard-response","208","311405","0.0-12.0-0.38","5fd69a0014c3b25ee539f66b","650c16f0f2faf8d7a0d14c09","651c1de65d995bbf6471eff6","null","null","<p style=""font-size: 60px; font-family: BACS"">chAhDKP</p>","","","","","","","","","",""
"html-keyboard-response","209","312423","0.0-12.0-0.39","5fd69a0014c3b25ee539f66b","650c16f0f2faf8d7a0d14c09","651c1de65d995bbf6471eff6","null","null","<p style=""font-size: 60px; font-family: BACS"">LGkAYmb</p>","","","","","","","","","",""
"html-keyboard-response","210","313445","0.0-12.0-0.40","5fd69a0014c3b25ee539f66b","650c16f0f2faf8d7a0d14c09","651c1de65d995bbf6471eff6","null","null","<p style=""font-size: 60px; font-family: BACS"">uQkrdLaA</p>","","","","","","","","","",""
"html-keyboard-response","211","314465","0.0-12.0-0.41","5fd69a0014c3b25ee539f66b","650c16f0f2faf8d7a0d14c09","651c1de65d995bbf6471eff6","null","null","<p style=""font-size: 60px; font-family: BACS"">QcladZAUu</p>","","","","","","","","","",""
"html-keyboard-response","212","315475","0.0-12.0-0.42","5fd69a0014c3b25ee539f66b","650c16f0f2faf8d7a0d14c09","651c1de65d995bbf6471eff6","null","null","<p style=""font-size: 60px; font-family: BACS"">lhCTCEAO</p>","","","","","","","","","",""
"html-keyboard-response","213","316485","0.0-12.0-0.43","5fd69a0014c3b25ee539f66b","650c16f0f2faf8d7a0d14c09","651c1de65d995bbf6471eff6","null","null","<p style=""font-size: 60px; font-family: BACS"">QLrOJLaA</p>","","","","","","","","","",""
"html-keyboard-response","214","317495","0.0-12.0-0.44","5fd69a0014c3b25ee539f66b","650c16f0f2faf8d7a0d14c09","651c1de65d995bbf6471eff6","null","null","<p style=""font-size: 60px; font-family: BACS"">lRCBYbBT</p>","","","","","","","","","",""
"html-keyboard-response","215","318515","0.0-12.0-0.45","5fd69a0014c3b25ee539f66b","650c16f0f2faf8d7a0d14c09","651c1de65d995bbf6471eff6","null","null","<p style=""font-size: 60px; font-family: BACS"">CmcOYBO</p>","","","","","","","","","",""
"html-keyboard-response","216","319525","0.0-12.0-0.46","5fd69a0014c3b25ee539f66b","650c16f0f2faf8d7a0d14c09","651c1de65d995bbf6471eff6","null","null","<p style=""font-size: 60px; font-family: BACS"">bdUNuLaA</p>","","","","","","","","","",""
"html-keyboard-response","217","320545","0.0-12.0-0.47","5fd69a0014c3b25ee539f66b","650c16f0f2faf8d7a0d14c09","651c1de65d995bbf6471eff6","null","null","<p style=""font-size: 60px; font-family: BACS"">lhCTCkMEC</p>","","","","","","","","","",""
"html-keyboard-response","218","321565","0.0-12.0-0.48","5fd69a0014c3b25ee539f66b","650c16f0f2faf8d7a0d14c09","651c1de65d995bbf6471eff6","null","null","<p style=""font-size: 60px; font-family: BACS"">dmZvmNac</p>","","","","","","","","","",""
"html-keyboard-response","219","322575","0.0-12.0-0.49","5fd69a0014c3b25ee539f66b","650c16f0f2faf8d7a0d14c09","651c1de65d995bbf6471eff6","null","null","<p style=""font-size: 60px; font-family: BACS"">NvuGrYmb</p>","","","","","","","","","",""
"html-keyboard-response","220","323595","0.0-12.0-0.50","5fd69a0014c3b25ee539f66b","650c16f0f2faf8d7a0d14c09","651c1de65d995bbf6471eff6","null","null","<p style=""font-size: 60px; font-family: BACS"">chAhkMEC</p>","","","","","","","","","",""
"html-keyboard-response","221","324610","0.0-12.0-0.51","5fd69a0014c3b25ee539f66b","650c16f0f2faf8d7a0d14c09","651c1de65d995bbf6471eff6","null","null","<p style=""font-size: 60px; font-family: BACS"">damYbNac</p>","","","","","","","","","",""
"html-keyboard-response","222","325615","0.0-12.0-0.52","5fd69a0014c3b25ee539f66b","650c16f0f2faf8d7a0d14c09","651c1de65d995bbf6471eff6","null","null","<p style=""font-size: 60px; font-family: BACS"">ZJLmrLaA</p>","","","","","","","","","",""
"html-keyboard-response","223","326625","0.0-12.0-0.53","5fd69a0014c3b25ee539f66b","650c16f0f2faf8d7a0d14c09","651c1de65d995bbf6471eff6","null","null","<p style=""font-size: 60px; font-family: BACS"">QcladNac</p>","","","","","","","","","",""
"html-keyboard-response","224","327635","0.0-12.0-0.54","5fd69a0014c3b25ee539f66b","650c16f0f2faf8d7a0d14c09","651c1de65d995bbf6471eff6","null","null","<p style=""font-size: 60px; font-family: BACS"">CkBOPkMEC</p>","","","","","","","","","",""
"html-keyboard-response","225","328641","0.0-12.0-0.55","5fd69a0014c3b25ee539f66b","650c16f0f2faf8d7a0d14c09","651c1de65d995bbf6471eff6","null","null","<p style=""font-size: 60px; font-family: BACS"">lRCBEAO</p>","","","","","","","","","",""
"html-keyboard-response","226","329665","0.0-12.0-0.56","5fd69a0014c3b25ee539f66b","650c16f0f2faf8d7a0d14c09","651c1de65d995bbf6471eff6","null","null","<p style=""font-size: 60px; font-family: BACS"">QLrOJZAUu</p>","","","","","","","","","",""
"html-keyboard-response","227","330685","0.0-12.0-0.57","5fd69a0014c3b25ee539f66b","650c16f0f2faf8d7a0d14c09","651c1de65d995bbf6471eff6","null","null","<p style=""font-size: 60px; font-family: BACS"">ZJLmrYmb</p>","","","","","","","","","",""
"html-keyboard-response","228","331705","0.0-12.0-0.58","5fd69a0014c3b25ee539f66b","650c16f0f2faf8d7a0d14c09","651c1de65d995bbf6471eff6","null","null","<p style=""font-size: 60px; font-family: BACS"">bvkrNac</p>","","","","","","","","","",""
"html-keyboard-response","229","332715","0.0-12.0-0.59","5fd69a0014c3b25ee539f66b","650c16f0f2faf8d7a0d14c09","651c1de65d995bbf6471eff6","null","null","<p style=""font-size: 60px; font-family: BACS"">bdUNuYmb</p>","","","","","","","","","",""
"html-keyboard-response","230","333735","0.0-12.0-0.60","5fd69a0014c3b25ee539f66b","650c16f0f2faf8d7a0d14c09","651c1de65d995bbf6471eff6","null","null","<p style=""font-size: 60px; font-family: BACS"">EMYKYbBT</p>","","","","","","","","","",""
"html-keyboard-response","231","334745","0.0-12.0-0.61","5fd69a0014c3b25ee539f66b","650c16f0f2faf8d7a0d14c09","651c1de65d995bbf6471eff6","null","null","<p style=""font-size: 60px; font-family: BACS"">RlAKcDKP</p>","","","","","","","","","",""
"html-keyboard-response","232","335765","0.0-12.0-0.62","5fd69a0014c3b25ee539f66b","650c16f0f2faf8d7a0d14c09","651c1de65d995bbf6471eff6","null","null","<p style=""font-size: 60px; font-family: BACS"">EMYKkMEC</p>","","","","","","","","","",""
"html-keyboard-response","233","336785","0.0-12.0-0.63","5fd69a0014c3b25ee539f66b","650c16f0f2faf8d7a0d14c09","651c1de65d995bbf6471eff6","null","null","<p style=""font-size: 60px; font-family: BACS"">DlDdDKP</p>","","","","","","","","","",""
"html-keyboard-response","234","337806","0.0-12.0-0.64","5fd69a0014c3b25ee539f66b","650c16f0f2faf8d7a0d14c09","651c1de65d995bbf6471eff6","null","null","<p style=""font-size: 60px; font-family: BACS"">QcladYaOk</p>","","","","","","","","","",""
"html-keyboard-response","235","338815","0.0-12.0-0.65","5fd69a0014c3b25ee539f66b","650c16f0f2faf8d7a0d14c09","651c1de65d995bbf6471eff6","null","null","<p style=""font-size: 60px; font-family: BACS"">LGkANac</p>","","","","","","","","","",""
"html-keyboard-response","236","339835","0.0-12.0-0.66","5fd69a0014c3b25ee539f66b","650c16f0f2faf8d7a0d14c09","651c1de65d995bbf6471eff6","null","null","<p style=""font-size: 60px; font-family: BACS"">DhMtEAO</p>","","","","","","","","","",""
"html-keyboard-response","237","340853","0.0-12.0-0.67","5fd69a0014c3b25ee539f66b","650c16f0f2faf8d7a0d14c09","651c1de65d995bbf6471eff6","null","null","<p style=""font-size: 60px; font-family: BACS"">chAhYBO</p>","","","","","","","","","",""
"html-keyboard-response","238","341865","0.0-12.0-0.68","5fd69a0014c3b25ee539f66b","650c16f0f2faf8d7a0d14c09","651c1de65d995bbf6471eff6","null","null","<p style=""font-size: 60px; font-family: BACS"">bdUNuNac</p>","","","","","","","","","",""
"html-keyboard-response","239","342885","0.0-12.0-0.69","5fd69a0014c3b25ee539f66b","650c16f0f2faf8d7a0d14c09","651c1de65d995bbf6471eff6","null","null","<p style=""font-size: 60px; font-family: BACS"">DcPTcDKP</p>","","","","","","","","","",""
"html-keyboard-response","240","343905","0.0-12.0-0.70","5fd69a0014c3b25ee539f66b","650c16f0f2faf8d7a0d14c09","651c1de65d995bbf6471eff6","null","null","<p style=""font-size: 60px; font-family: BACS"">bvkrLaA</p>","","","","","","","","","",""
"html-keyboard-response","241","344915","0.0-12.0-0.71","5fd69a0014c3b25ee539f66b","650c16f0f2faf8d7a0d14c09","651c1de65d995bbf6471eff6","null","null","<p style=""font-size: 60px; font-family: BACS"">NvuGrNac</p>","","","","","","","","","",""
"html-keyboard-response","242","345935","0.0-12.0-0.72","5fd69a0014c3b25ee539f66b","650c16f0f2faf8d7a0d14c09","651c1de65d995bbf6471eff6","null","null","<p style=""font-size: 60px; font-family: BACS"">uQkrdZAUu</p>","","","","","","","","","",""
"html-keyboard-response","243","346955","0.0-12.0-0.73","5fd69a0014c3b25ee539f66b","650c16f0f2faf8d7a0d14c09","651c1de65d995bbf6471eff6","null","null","<p style=""font-size: 60px; font-family: BACS"">damYbYaOk</p>","","","","","","","","","",""
"html-keyboard-response","244","347961","0.0-12.0-0.74","5fd69a0014c3b25ee539f66b","650c16f0f2faf8d7a0d14c09","651c1de65d995bbf6471eff6","null","null","<p style=""font-size: 60px; font-family: BACS"">DcPTcYbBT</p>","","","","","","","","","",""
"html-keyboard-response","245","348963","0.0-12.0-0.75","5fd69a0014c3b25ee539f66b","650c16f0f2faf8d7a0d14c09","651c1de65d995bbf6471eff6","null","null","<p style=""font-size: 60px; font-family: BACS"">ZJLmrZAUu</p>","","","","","","","","","",""
"html-keyboard-response","246","349975","0.0-12.0-0.76","5fd69a0014c3b25ee539f66b","650c16f0f2faf8d7a0d14c09","651c1de65d995bbf6471eff6","null","null","<p style=""font-size: 60px; font-family: BACS"">RlAKcYbBT</p>","","","","","","","","","",""
"html-keyboard-response","247","350985","0.0-12.0-0.77","5fd69a0014c3b25ee539f66b","650c16f0f2faf8d7a0d14c09","651c1de65d995bbf6471eff6","null","null","<p style=""font-size: 60px; font-family: BACS"">dmZvmZAUu</p>","","","","","","","","","",""
"html-keyboard-response","248","352005","0.0-12.0-0.78","5fd69a0014c3b25ee539f66b","650c16f0f2faf8d7a0d14c09","651c1de65d995bbf6471eff6","null","null","<p style=""font-size: 60px; font-family: BACS"">CmcOYbBT</p>","","","","","","","","","",""
"html-keyboard-response","249","353025","0.0-12.0-0.79","5fd69a0014c3b25ee539f66b","650c16f0f2faf8d7a0d14c09","651c1de65d995bbf6471eff6","null","null","<p style=""font-size: 60px; font-family: BACS"">NvuGrZAUu</p>","","","","","","","","","",""
"html-keyboard-response","250","356814","0.0-13.0","5fd69a0014c3b25ee539f66b","650c16f0f2faf8d7a0d14c09","651c1de65d995bbf6471eff6","3788"," ","<p>Great, you've seen the third block of words. You may now take a short break.</p>
      <p>Press the spacebar when you're ready to continue.</p>","","","","","","","","","",""
"html-keyboard-response","251","357825","0.0-14.0-0.0","5fd69a0014c3b25ee539f66b","650c16f0f2faf8d7a0d14c09","651c1de65d995bbf6471eff6","null","null","<p style=""font-size: 60px; font-family: BACS"">RlAKcYBO</p>","","","","","","","","","",""
"html-keyboard-response","252","358835","0.0-14.0-0.1","5fd69a0014c3b25ee539f66b","650c16f0f2faf8d7a0d14c09","651c1de65d995bbf6471eff6","null","null","<p style=""font-size: 60px; font-family: BACS"">CkBOPEAO</p>","","","","","","","","","",""
"html-keyboard-response","253","359845","0.0-14.0-0.2","5fd69a0014c3b25ee539f66b","650c16f0f2faf8d7a0d14c09","651c1de65d995bbf6471eff6","null","null","<p style=""font-size: 60px; font-family: BACS"">EMYKDKP</p>","","","","","","","","","",""
"html-keyboard-response","254","360855","0.0-14.0-0.3","5fd69a0014c3b25ee539f66b","650c16f0f2faf8d7a0d14c09","651c1de65d995bbf6471eff6","null","null","<p style=""font-size: 60px; font-family: BACS"">CmcOYbBT</p>","","","","","","","","","",""
"html-keyboard-response","255","361875","0.0-14.0-0.4","5fd69a0014c3b25ee539f66b","650c16f0f2faf8d7a0d14c09","651c1de65d995bbf6471eff6","null","null","<p style=""font-size: 60px; font-family: BACS"">bdUNuLaA</p>","","","","","","","","","",""
"html-keyboard-response","256","362895","0.0-14.0-0.5","5fd69a0014c3b25ee539f66b","650c16f0f2faf8d7a0d14c09","651c1de65d995bbf6471eff6","null","null","<p style=""font-size: 60px; font-family: BACS"">DhMtYBO</p>","","","","","","","","","",""
"html-keyboard-response","257","363915","0.0-14.0-0.6","5fd69a0014c3b25ee539f66b","650c16f0f2faf8d7a0d14c09","651c1de65d995bbf6471eff6","null","null","<p style=""font-size: 60px; font-family: BACS"">CkBOPkMEC</p>","","","","","","","","","",""
"html-keyboard-response","258","364925","0.0-14.0-0.7","5fd69a0014c3b25ee539f66b","650c16f0f2faf8d7a0d14c09","651c1de65d995bbf6471eff6","null","null","<p style=""font-size: 60px; font-family: BACS"">LGkAZAUu</p>","","","","","","","","","",""
"html-keyboard-response","259","365945","0.0-14.0-0.8","5fd69a0014c3b25ee539f66b","650c16f0f2faf8d7a0d14c09","651c1de65d995bbf6471eff6","null","null","<p style=""font-size: 60px; font-family: BACS"">damYbYmb</p>","","","","","","","","","",""
"html-keyboard-response","260","366965","0.0-14.0-0.9","5fd69a0014c3b25ee539f66b","650c16f0f2faf8d7a0d14c09","651c1de65d995bbf6471eff6","null","null","<p style=""font-size: 60px; font-family: BACS"">lRCBDKP</p>","","","","","","","","","",""
"html-keyboard-response","261","367975","0.0-14.0-0.10","5fd69a0014c3b25ee539f66b","650c16f0f2faf8d7a0d14c09","651c1de65d995bbf6471eff6","null","null","<p style=""font-size: 60px; font-family: BACS"">EMYKkMEC</p>","","","","","","","","","",""
"html-keyboard-response","262","368995","0.0-14.0-0.11","5fd69a0014c3b25ee539f66b","650c16f0f2faf8d7a0d14c09","651c1de65d995bbf6471eff6","null","null","<p style=""font-size: 60px; font-family: BACS"">DlDdYBO</p>","","","","","","","","","",""
"html-keyboard-response","263","370015","0.0-14.0-0.12","5fd69a0014c3b25ee539f66b","650c16f0f2faf8d7a0d14c09","651c1de65d995bbf6471eff6","null","null","<p style=""font-size: 60px; font-family: BACS"">LGkANac</p>","","","","","","","","","",""
"html-keyboard-response","264","371025","0.0-14.0-0.13","5fd69a0014c3b25ee539f66b","650c16f0f2faf8d7a0d14c09","651c1de65d995bbf6471eff6","null","null","<p style=""font-size: 60px; font-family: BACS"">DhMtEAO</p>","","","","","","","","","",""
"html-keyboard-response","265","372040","0.0-14.0-0.14","5fd69a0014c3b25ee539f66b","650c16f0f2faf8d7a0d14c09","651c1de65d995bbf6471eff6","null","null","<p style=""font-size: 60px; font-family: BACS"">LGkALaA</p>","","","","","","","","","",""
"html-keyboard-response","266","373045","0.0-14.0-0.15","5fd69a0014c3b25ee539f66b","650c16f0f2faf8d7a0d14c09","651c1de65d995bbf6471eff6","null","null","<p style=""font-size: 60px; font-family: BACS"">chAhkMEC</p>","","","","","","","","","",""
"html-keyboard-response","267","374065","0.0-14.0-0.16","5fd69a0014c3b25ee539f66b","650c16f0f2faf8d7a0d14c09","651c1de65d995bbf6471eff6","null","null","<p style=""font-size: 60px; font-family: BACS"">dmZvmNac</p>","","","","","","","","","",""
"html-keyboard-response","268","375075","0.0-14.0-0.17","5fd69a0014c3b25ee539f66b","650c16f0f2faf8d7a0d14c09","651c1de65d995bbf6471eff6","null","null","<p style=""font-size: 60px; font-family: BACS"">ZJLmrYaOk</p>","","","","","","","","","",""
"html-keyboard-response","269","376092","0.0-14.0-0.18","5fd69a0014c3b25ee539f66b","650c16f0f2faf8d7a0d14c09","651c1de65d995bbf6471eff6","null","null","<p style=""font-size: 60px; font-family: BACS"">QcladNac</p>","","","","","","","","","",""
"html-keyboard-response","270","377115","0.0-14.0-0.19","5fd69a0014c3b25ee539f66b","650c16f0f2faf8d7a0d14c09","651c1de65d995bbf6471eff6","null","null","<p style=""font-size: 60px; font-family: BACS"">dmZvmLaA</p>","","","","","","","","","",""
"html-keyboard-response","271","378125","0.0-14.0-0.20","5fd69a0014c3b25ee539f66b","650c16f0f2faf8d7a0d14c09","651c1de65d995bbf6471eff6","null","null","<p style=""font-size: 60px; font-family: BACS"">ZJLmrYmb</p>","","","","","","","","","",""
"html-keyboard-response","272","379145","0.0-14.0-0.21","5fd69a0014c3b25ee539f66b","650c16f0f2faf8d7a0d14c09","651c1de65d995bbf6471eff6","null","null","<p style=""font-size: 60px; font-family: BACS"">QcladZAUu</p>","","","","","","","","","",""
"html-keyboard-response","273","380165","0.0-14.0-0.22","5fd69a0014c3b25ee539f66b","650c16f0f2faf8d7a0d14c09","651c1de65d995bbf6471eff6","null","null","<p style=""font-size: 60px; font-family: BACS"">chAhDKP</p>","","","","","","","","","",""
"html-keyboard-response","274","381185","0.0-14.0-0.23","5fd69a0014c3b25ee539f66b","650c16f0f2faf8d7a0d14c09","651c1de65d995bbf6471eff6","null","null","<p style=""font-size: 60px; font-family: BACS"">bdUNuNac</p>","","","","","","","","","",""
"html-keyboard-response","275","382195","0.0-14.0-0.24","5fd69a0014c3b25ee539f66b","650c16f0f2faf8d7a0d14c09","651c1de65d995bbf6471eff6","null","null","<p style=""font-size: 60px; font-family: BACS"">dmZvmYmb</p>","","","","","","","","","",""
"html-keyboard-response","276","383215","0.0-14.0-0.25","5fd69a0014c3b25ee539f66b","650c16f0f2faf8d7a0d14c09","651c1de65d995bbf6471eff6","null","null","<p style=""font-size: 60px; font-family: BACS"">DcPTcYbBT</p>","","","","","","","","","",""
"html-keyboard-response","277","384235","0.0-14.0-0.26","5fd69a0014c3b25ee539f66b","650c16f0f2faf8d7a0d14c09","651c1de65d995bbf6471eff6","null","null","<p style=""font-size: 60px; font-family: BACS"">DlDdDKP</p>","","","","","","","","","",""
"html-keyboard-response","278","385245","0.0-14.0-0.27","5fd69a0014c3b25ee539f66b","650c16f0f2faf8d7a0d14c09","651c1de65d995bbf6471eff6","null","null","<p style=""font-size: 60px; font-family: BACS"">bvkrLaA</p>","","","","","","","","","",""
"html-keyboard-response","279","386265","0.0-14.0-0.28","5fd69a0014c3b25ee539f66b","650c16f0f2faf8d7a0d14c09","651c1de65d995bbf6471eff6","null","null","<p style=""font-size: 60px; font-family: BACS"">ZJLmrZAUu</p>","","","","","","","","","",""
"html-keyboard-response","280","387285","0.0-14.0-0.29","5fd69a0014c3b25ee539f66b","650c16f0f2faf8d7a0d14c09","651c1de65d995bbf6471eff6","null","null","<p style=""font-size: 60px; font-family: BACS"">CkBOPDKP</p>","","","","","","","","","",""
"html-keyboard-response","281","388295","0.0-14.0-0.30","5fd69a0014c3b25ee539f66b","650c16f0f2faf8d7a0d14c09","651c1de65d995bbf6471eff6","null","null","<p style=""font-size: 60px; font-family: BACS"">uQkrdZAUu</p>","","","","","","","","","",""
"html-keyboard-response","282","389315","0.0-14.0-0.31","5fd69a0014c3b25ee539f66b","650c16f0f2faf8d7a0d14c09","651c1de65d995bbf6471eff6","null","null","<p style=""font-size: 60px; font-family: BACS"">CkBOPYbBT</p>","","","","","","","","","",""
"html-keyboard-response","283","390335","0.0-14.0-0.32","5fd69a0014c3b25ee539f66b","650c16f0f2faf8d7a0d14c09","651c1de65d995bbf6471eff6","null","null","<p style=""font-size: 60px; font-family: BACS"">QLrOJYaOk</p>","","","","","","","","","",""
"html-keyboard-response","284","391355","0.0-14.0-0.33","5fd69a0014c3b25ee539f66b","650c16f0f2faf8d7a0d14c09","651c1de65d995bbf6471eff6","null","null","<p style=""font-size: 60px; font-family: BACS"">DcPTckMEC</p>","","","","","","","","","",""
"html-keyboard-response","285","392365","0.0-14.0-0.34","5fd69a0014c3b25ee539f66b","650c16f0f2faf8d7a0d14c09","651c1de65d995bbf6471eff6","null","null","<p style=""font-size: 60px; font-family: BACS"">RlAKcYbBT</p>","","","","","","","","","",""
"html-keyboard-response","286","393375","0.0-14.0-0.35","5fd69a0014c3b25ee539f66b","650c16f0f2faf8d7a0d14c09","651c1de65d995bbf6471eff6","null","null","<p style=""font-size: 60px; font-family: BACS"">DhMtkMEC</p>","","","","","","","","","",""
"html-keyboard-response","287","394385","0.0-14.0-0.36","5fd69a0014c3b25ee539f66b","650c16f0f2faf8d7a0d14c09","651c1de65d995bbf6471eff6","null","null","<p style=""font-size: 60px; font-family: BACS"">QLrOJYmb</p>","","","","","","","","","",""
"html-keyboard-response","288","395405","0.0-14.0-0.37","5fd69a0014c3b25ee539f66b","650c16f0f2faf8d7a0d14c09","651c1de65d995bbf6471eff6","null","null","<p style=""font-size: 60px; font-family: BACS"">lhCTCYBO</p>","","","","","","","","","",""
"html-keyboard-response","289","396415","0.0-14.0-0.38","5fd69a0014c3b25ee539f66b","650c16f0f2faf8d7a0d14c09","651c1de65d995bbf6471eff6","null","null","<p style=""font-size: 60px; font-family: BACS"">damYbYaOk</p>","","","","","","","","","",""
"html-keyboard-response","290","397435","0.0-14.0-0.39","5fd69a0014c3b25ee539f66b","650c16f0f2faf8d7a0d14c09","651c1de65d995bbf6471eff6","null","null","<p style=""font-size: 60px; font-family: BACS"">bdUNuYmb</p>","","","","","","","","","",""
"html-keyboard-response","291","398455","0.0-14.0-0.40","5fd69a0014c3b25ee539f66b","650c16f0f2faf8d7a0d14c09","651c1de65d995bbf6471eff6","null","null","<p style=""font-size: 60px; font-family: BACS"">RlAKcDKP</p>","","","","","","","","","",""
"html-keyboard-response","292","399465","0.0-14.0-0.41","5fd69a0014c3b25ee539f66b","650c16f0f2faf8d7a0d14c09","651c1de65d995bbf6471eff6","null","null","<p style=""font-size: 60px; font-family: BACS"">bvkrZAUu</p>","","","","","","","","","",""
"html-keyboard-response","293","400485","0.0-14.0-0.42","5fd69a0014c3b25ee539f66b","650c16f0f2faf8d7a0d14c09","651c1de65d995bbf6471eff6","null","null","<p style=""font-size: 60px; font-family: BACS"">DhMtYbBT</p>","","","","","","","","","",""
"html-keyboard-response","294","401505","0.0-14.0-0.43","5fd69a0014c3b25ee539f66b","650c16f0f2faf8d7a0d14c09","651c1de65d995bbf6471eff6","null","null","<p style=""font-size: 60px; font-family: BACS"">QLrOJZAUu</p>","","","","","","","","","",""
"html-keyboard-response","295","402515","0.0-14.0-0.44","5fd69a0014c3b25ee539f66b","650c16f0f2faf8d7a0d14c09","651c1de65d995bbf6471eff6","null","null","<p style=""font-size: 60px; font-family: BACS"">chAhEAO</p>","","","","","","","","","",""
"html-keyboard-response","296","403525","0.0-14.0-0.45","5fd69a0014c3b25ee539f66b","650c16f0f2faf8d7a0d14c09","651c1de65d995bbf6471eff6","null","null","<p style=""font-size: 60px; font-family: BACS"">uQkrdYaOk</p>","","","","","","","","","",""
"html-keyboard-response","297","404530","0.0-14.0-0.46","5fd69a0014c3b25ee539f66b","650c16f0f2faf8d7a0d14c09","651c1de65d995bbf6471eff6","null","null","<p style=""font-size: 60px; font-family: BACS"">lRCBYBO</p>","","","","","","","","","",""
"html-keyboard-response","298","405555","0.0-14.0-0.47","5fd69a0014c3b25ee539f66b","650c16f0f2faf8d7a0d14c09","651c1de65d995bbf6471eff6","null","null","<p style=""font-size: 60px; font-family: BACS"">dmZvmZAUu</p>","","","","","","","","","",""
"html-keyboard-response","299","406575","0.0-14.0-0.48","5fd69a0014c3b25ee539f66b","650c16f0f2faf8d7a0d14c09","651c1de65d995bbf6471eff6","null","null","<p style=""font-size: 60px; font-family: BACS"">NvuGrYaOk</p>","","","","","","","","","",""
"html-keyboard-response","300","407595","0.0-14.0-0.49","5fd69a0014c3b25ee539f66b","650c16f0f2faf8d7a0d14c09","651c1de65d995bbf6471eff6","null","null","<p style=""font-size: 60px; font-family: BACS"">DlDdEAO</p>","","","","","","","","","",""
"html-keyboard-response","301","408604","0.0-14.0-0.50","5fd69a0014c3b25ee539f66b","650c16f0f2faf8d7a0d14c09","651c1de65d995bbf6471eff6","null","null","<p style=""font-size: 60px; font-family: BACS"">bvkrNac</p>","","","","","","","","","",""
"html-keyboard-response","302","409624","0.0-14.0-0.51","5fd69a0014c3b25ee539f66b","650c16f0f2faf8d7a0d14c09","651c1de65d995bbf6471eff6","null","null","<p style=""font-size: 60px; font-family: BACS"">lhCTCEAO</p>","","","","","","","","","",""
"html-keyboard-response","303","410635","0.0-14.0-0.52","5fd69a0014c3b25ee539f66b","650c16f0f2faf8d7a0d14c09","651c1de65d995bbf6471eff6","null","null","<p style=""font-size: 60px; font-family: BACS"">chAhYBO</p>","","","","","","","","","",""
"html-keyboard-response","304","411655","0.0-14.0-0.53","5fd69a0014c3b25ee539f66b","650c16f0f2faf8d7a0d14c09","651c1de65d995bbf6471eff6","null","null","<p style=""font-size: 60px; font-family: BACS"">lRCBYbBT</p>","","","","","","","","","",""
"html-keyboard-response","305","412675","0.0-14.0-0.54","5fd69a0014c3b25ee539f66b","650c16f0f2faf8d7a0d14c09","651c1de65d995bbf6471eff6","null","null","<p style=""font-size: 60px; font-family: BACS"">ZJLmrLaA</p>","","","","","","","","","",""
"html-keyboard-response","306","413685","0.0-14.0-0.55","5fd69a0014c3b25ee539f66b","650c16f0f2faf8d7a0d14c09","651c1de65d995bbf6471eff6","null","null","<p style=""font-size: 60px; font-family: BACS"">DlDdYbBT</p>","","","","","","","","","",""
"html-keyboard-response","307","414695","0.0-14.0-0.56","5fd69a0014c3b25ee539f66b","650c16f0f2faf8d7a0d14c09","651c1de65d995bbf6471eff6","null","null","<p style=""font-size: 60px; font-family: BACS"">NvuGrNac</p>","","","","","","","","","",""
"html-keyboard-response","308","415705","0.0-14.0-0.57","5fd69a0014c3b25ee539f66b","650c16f0f2faf8d7a0d14c09","651c1de65d995bbf6471eff6","null","null","<p style=""font-size: 60px; font-family: BACS"">CmcOkMEC</p>","","","","","","","","","",""
"html-keyboard-response","309","416725","0.0-14.0-0.58","5fd69a0014c3b25ee539f66b","650c16f0f2faf8d7a0d14c09","651c1de65d995bbf6471eff6","null","null","<p style=""font-size: 60px; font-family: BACS"">EMYKYBO</p>","","","","","","","","","",""
"html-keyboard-response","310","417744","0.0-14.0-0.59","5fd69a0014c3b25ee539f66b","650c16f0f2faf8d7a0d14c09","651c1de65d995bbf6471eff6","null","null","<p style=""font-size: 60px; font-family: BACS"">lhCTCDKP</p>","","","","","","","","","",""
"html-keyboard-response","311","418756","0.0-14.0-0.60","5fd69a0014c3b25ee539f66b","650c16f0f2faf8d7a0d14c09","651c1de65d995bbf6471eff6","null","null","<p style=""font-size: 60px; font-family: BACS"">bvkrYaOk</p>","","","","","","","","","",""
"html-keyboard-response","312","419775","0.0-14.0-0.61","5fd69a0014c3b25ee539f66b","650c16f0f2faf8d7a0d14c09","651c1de65d995bbf6471eff6","null","null","<p style=""font-size: 60px; font-family: BACS"">EMYKYbBT</p>","","","","","","","","","",""
"html-keyboard-response","313","420795","0.0-14.0-0.62","5fd69a0014c3b25ee539f66b","650c16f0f2faf8d7a0d14c09","651c1de65d995bbf6471eff6","null","null","<p style=""font-size: 60px; font-family: BACS"">uQkrdNac</p>","","","","","","","","","",""
"html-keyboard-response","314","421805","0.0-14.0-0.63","5fd69a0014c3b25ee539f66b","650c16f0f2faf8d7a0d14c09","651c1de65d995bbf6471eff6","null","null","<p style=""font-size: 60px; font-family: BACS"">QcladYmb</p>","","","","","","","","","",""
"html-keyboard-response","315","422825","0.0-14.0-0.64","5fd69a0014c3b25ee539f66b","650c16f0f2faf8d7a0d14c09","651c1de65d995bbf6471eff6","null","null","<p style=""font-size: 60px; font-family: BACS"">RlAKckMEC</p>","","","","","","","","","",""
"html-keyboard-response","316","423845","0.0-14.0-0.65","5fd69a0014c3b25ee539f66b","650c16f0f2faf8d7a0d14c09","651c1de65d995bbf6471eff6","null","null","<p style=""font-size: 60px; font-family: BACS"">CmcOYBO</p>","","","","","","","","","",""
"html-keyboard-response","317","424865","0.0-14.0-0.66","5fd69a0014c3b25ee539f66b","650c16f0f2faf8d7a0d14c09","651c1de65d995bbf6471eff6","null","null","<p style=""font-size: 60px; font-family: BACS"">bdUNuYaOk</p>","","","","","","","","","",""
"html-keyboard-response","318","425875","0.0-14.0-0.67","5fd69a0014c3b25ee539f66b","650c16f0f2faf8d7a0d14c09","651c1de65d995bbf6471eff6","null","null","<p style=""font-size: 60px; font-family: BACS"">QLrOJLaA</p>","","","","","","","","","",""
"html-keyboard-response","319","426885","0.0-14.0-0.68","5fd69a0014c3b25ee539f66b","650c16f0f2faf8d7a0d14c09","651c1de65d995bbf6471eff6","null","null","<p style=""font-size: 60px; font-family: BACS"">damYbNac</p>","","","","","","","","","",""
"html-keyboard-response","320","427895","0.0-14.0-0.69","5fd69a0014c3b25ee539f66b","650c16f0f2faf8d7a0d14c09","651c1de65d995bbf6471eff6","null","null","<p style=""font-size: 60px; font-family: BACS"">LGkAYmb</p>","","","","","","","","","",""
"html-keyboard-response","321","428915","0.0-14.0-0.70","5fd69a0014c3b25ee539f66b","650c16f0f2faf8d7a0d14c09","651c1de65d995bbf6471eff6","null","null","<p style=""font-size: 60px; font-family: BACS"">lhCTCkMEC</p>","","","","","","","","","",""
"html-keyboard-response","322","429935","0.0-14.0-0.71","5fd69a0014c3b25ee539f66b","650c16f0f2faf8d7a0d14c09","651c1de65d995bbf6471eff6","null","null","<p style=""font-size: 60px; font-family: BACS"">NvuGrYmb</p>","","","","","","","","","",""
"html-keyboard-response","323","430945","0.0-14.0-0.72","5fd69a0014c3b25ee539f66b","650c16f0f2faf8d7a0d14c09","651c1de65d995bbf6471eff6","null","null","<p style=""font-size: 60px; font-family: BACS"">uQkrdLaA</p>","","","","","","","","","",""
"html-keyboard-response","324","431955","0.0-14.0-0.73","5fd69a0014c3b25ee539f66b","650c16f0f2faf8d7a0d14c09","651c1de65d995bbf6471eff6","null","null","<p style=""font-size: 60px; font-family: BACS"">DcPTcEAO</p>","","","","","","","","","",""
"html-keyboard-response","325","432965","0.0-14.0-0.74","5fd69a0014c3b25ee539f66b","650c16f0f2faf8d7a0d14c09","651c1de65d995bbf6471eff6","null","null","<p style=""font-size: 60px; font-family: BACS"">NvuGrZAUu</p>","","","","","","","","","",""
"html-keyboard-response","326","433975","0.0-14.0-0.75","5fd69a0014c3b25ee539f66b","650c16f0f2faf8d7a0d14c09","651c1de65d995bbf6471eff6","null","null","<p style=""font-size: 60px; font-family: BACS"">damYbLaA</p>","","","","","","","","","",""
"html-keyboard-response","327","434995","0.0-14.0-0.76","5fd69a0014c3b25ee539f66b","650c16f0f2faf8d7a0d14c09","651c1de65d995bbf6471eff6","null","null","<p style=""font-size: 60px; font-family: BACS"">lRCBEAO</p>","","","","","","","","","",""
"html-keyboard-response","328","436015","0.0-14.0-0.77","5fd69a0014c3b25ee539f66b","650c16f0f2faf8d7a0d14c09","651c1de65d995bbf6471eff6","null","null","<p style=""font-size: 60px; font-family: BACS"">DcPTcDKP</p>","","","","","","","","","",""
"html-keyboard-response","329","437035","0.0-14.0-0.78","5fd69a0014c3b25ee539f66b","650c16f0f2faf8d7a0d14c09","651c1de65d995bbf6471eff6","null","null","<p style=""font-size: 60px; font-family: BACS"">CmcOEAO</p>","","","","","","","","","",""
"html-keyboard-response","330","438045","0.0-14.0-0.79","5fd69a0014c3b25ee539f66b","650c16f0f2faf8d7a0d14c09","651c1de65d995bbf6471eff6","null","null","<p style=""font-size: 60px; font-family: BACS"">QcladYaOk</p>","","","","","","","","","",""
"html-keyboard-response","331","441063","0.0-15.0","5fd69a0014c3b25ee539f66b","650c16f0f2faf8d7a0d14c09","651c1de65d995bbf6471eff6","3018"," ","<p>Great, you've seen the fourth block of words. You may now take a short break.</p>
      <p>Press the spacebar when you're ready to continue.</p>","","","","","","","","","",""
"html-keyboard-response","332","442065","0.0-16.0-0.0","5fd69a0014c3b25ee539f66b","650c16f0f2faf8d7a0d14c09","651c1de65d995bbf6471eff6","null","null","<p style=""font-size: 60px; font-family: BACS"">RlAKckMEC</p>","","","","","","","","","",""
"html-keyboard-response","333","443085","0.0-16.0-0.1","5fd69a0014c3b25ee539f66b","650c16f0f2faf8d7a0d14c09","651c1de65d995bbf6471eff6","null","null","<p style=""font-size: 60px; font-family: BACS"">RlAKckMEC</p>","","","","","","","","","",""
"html-keyboard-response","334","444095","0.0-16.0-0.2","5fd69a0014c3b25ee539f66b","650c16f0f2faf8d7a0d14c09","651c1de65d995bbf6471eff6","null","null","<p style=""font-size: 60px; font-family: BACS"">RlAKckMEC</p>","","","","","","","","","",""
"html-keyboard-response","335","445115","0.0-16.0-0.3","5fd69a0014c3b25ee539f66b","650c16f0f2faf8d7a0d14c09","651c1de65d995bbf6471eff6","null","null","<p style=""font-size: 60px; font-family: BACS"">RlAKckMEC</p>","","","","","","","","","",""
"html-keyboard-response","336","446135","0.0-16.0-0.4","5fd69a0014c3b25ee539f66b","650c16f0f2faf8d7a0d14c09","651c1de65d995bbf6471eff6","null","null","<p style=""font-size: 60px; font-family: BACS"">RlAKckMEC</p>","","","","","","","","","",""
"html-keyboard-response","337","447155","0.0-16.0-0.5","5fd69a0014c3b25ee539f66b","650c16f0f2faf8d7a0d14c09","651c1de65d995bbf6471eff6","null","null","<p style=""font-size: 60px; font-family: BACS"">RlAKckMEC</p>","","","","","","","","","",""
"html-keyboard-response","338","448165","0.0-16.0-0.6","5fd69a0014c3b25ee539f66b","650c16f0f2faf8d7a0d14c09","651c1de65d995bbf6471eff6","null","null","<p style=""font-size: 60px; font-family: BACS"">RlAKckMEC</p>","","","","","","","","","",""
"html-keyboard-response","339","449185","0.0-16.0-0.7","5fd69a0014c3b25ee539f66b","650c16f0f2faf8d7a0d14c09","651c1de65d995bbf6471eff6","null","null","<p style=""font-size: 60px; font-family: BACS"">RlAKckMEC</p>","","","","","","","","","",""
"html-keyboard-response","340","450205","0.0-16.0-0.8","5fd69a0014c3b25ee539f66b","650c16f0f2faf8d7a0d14c09","651c1de65d995bbf6471eff6","null","null","<p style=""font-size: 60px; font-family: BACS"">RlAKckMEC</p>","","","","","","","","","",""
"html-keyboard-response","341","451214","0.0-16.0-0.9","5fd69a0014c3b25ee539f66b","650c16f0f2faf8d7a0d14c09","651c1de65d995bbf6471eff6","null","null","<p style=""font-size: 60px; font-family: BACS"">RlAKckMEC</p>","","","","","","","","","",""
"html-keyboard-response","342","452235","0.0-16.0-0.10","5fd69a0014c3b25ee539f66b","650c16f0f2faf8d7a0d14c09","651c1de65d995bbf6471eff6","null","null","<p style=""font-size: 60px; font-family: BACS"">RlAKckMEC</p>","","","","","","","","","",""
"html-keyboard-response","343","453255","0.0-16.0-0.11","5fd69a0014c3b25ee539f66b","650c16f0f2faf8d7a0d14c09","651c1de65d995bbf6471eff6","null","null","<p style=""font-size: 60px; font-family: BACS"">RlAKckMEC</p>","","","","","","","","","",""
"html-keyboard-response","344","454275","0.0-16.0-0.12","5fd69a0014c3b25ee539f66b","650c16f0f2faf8d7a0d14c09","651c1de65d995bbf6471eff6","null","null","<p style=""font-size: 60px; font-family: BACS"">RlAKckMEC</p>","","","","","","","","","",""
"html-keyboard-response","345","455284","0.0-16.0-0.13","5fd69a0014c3b25ee539f66b","650c16f0f2faf8d7a0d14c09","651c1de65d995bbf6471eff6","null","null","<p style=""font-size: 60px; font-family: BACS"">RlAKckMEC</p>","","","","","","","","","",""
"html-keyboard-response","346","456305","0.0-16.0-0.14","5fd69a0014c3b25ee539f66b","650c16f0f2faf8d7a0d14c09","651c1de65d995bbf6471eff6","null","null","<p style=""font-size: 60px; font-family: BACS"">RlAKckMEC</p>","","","","","","","","","",""
"html-keyboard-response","347","457324","0.0-16.0-0.15","5fd69a0014c3b25ee539f66b","650c16f0f2faf8d7a0d14c09","651c1de65d995bbf6471eff6","null","null","<p style=""font-size: 60px; font-family: BACS"">RlAKckMEC</p>","","","","","","","","","",""
"html-keyboard-response","348","458335","0.0-16.0-0.16","5fd69a0014c3b25ee539f66b","650c16f0f2faf8d7a0d14c09","651c1de65d995bbf6471eff6","null","null","<p style=""font-size: 60px; font-family: BACS"">RlAKckMEC</p>","","","","","","","","","",""
"html-keyboard-response","349","459350","0.0-16.0-0.17","5fd69a0014c3b25ee539f66b","650c16f0f2faf8d7a0d14c09","651c1de65d995bbf6471eff6","null","null","<p style=""font-size: 60px; font-family: BACS"">RlAKckMEC</p>","","","","","","","","","",""
"html-keyboard-response","350","460355","0.0-16.0-0.18","5fd69a0014c3b25ee539f66b","650c16f0f2faf8d7a0d14c09","651c1de65d995bbf6471eff6","null","null","<p style=""font-size: 60px; font-family: BACS"">RlAKckMEC</p>","","","","","","","","","",""
"html-keyboard-response","351","461375","0.0-16.0-0.19","5fd69a0014c3b25ee539f66b","650c16f0f2faf8d7a0d14c09","651c1de65d995bbf6471eff6","null","null","<p style=""font-size: 60px; font-family: BACS"">RlAKckMEC</p>","","","","","","","","","",""
"html-keyboard-response","352","462385","0.0-16.0-0.20","5fd69a0014c3b25ee539f66b","650c16f0f2faf8d7a0d14c09","651c1de65d995bbf6471eff6","null","null","<p style=""font-size: 60px; font-family: BACS"">RlAKckMEC</p>","","","","","","","","","",""
"html-keyboard-response","353","463404","0.0-16.0-0.21","5fd69a0014c3b25ee539f66b","650c16f0f2faf8d7a0d14c09","651c1de65d995bbf6471eff6","null","null","<p style=""font-size: 60px; font-family: BACS"">RlAKckMEC</p>","","","","","","","","","",""
"html-keyboard-response","354","464425","0.0-16.0-0.22","5fd69a0014c3b25ee539f66b","650c16f0f2faf8d7a0d14c09","651c1de65d995bbf6471eff6","null","null","<p style=""font-size: 60px; font-family: BACS"">RlAKckMEC</p>","","","","","","","","","",""
"html-keyboard-response","355","465435","0.0-16.0-0.23","5fd69a0014c3b25ee539f66b","650c16f0f2faf8d7a0d14c09","651c1de65d995bbf6471eff6","null","null","<p style=""font-size: 60px; font-family: BACS"">RlAKckMEC</p>","","","","","","","","","",""
"html-keyboard-response","356","466455","0.0-16.0-0.24","5fd69a0014c3b25ee539f66b","650c16f0f2faf8d7a0d14c09","651c1de65d995bbf6471eff6","null","null","<p style=""font-size: 60px; font-family: BACS"">RlAKckMEC</p>","","","","","","","","","",""
"html-keyboard-response","357","467475","0.0-16.0-0.25","5fd69a0014c3b25ee539f66b","650c16f0f2faf8d7a0d14c09","651c1de65d995bbf6471eff6","null","null","<p style=""font-size: 60px; font-family: BACS"">RlAKckMEC</p>","","","","","","","","","",""
"html-keyboard-response","358","468495","0.0-16.0-0.26","5fd69a0014c3b25ee539f66b","650c16f0f2faf8d7a0d14c09","651c1de65d995bbf6471eff6","null","null","<p style=""font-size: 60px; font-family: BACS"">RlAKckMEC</p>","","","","","","","","","",""
"html-keyboard-response","359","469503","0.0-16.0-0.27","5fd69a0014c3b25ee539f66b","650c16f0f2faf8d7a0d14c09","651c1de65d995bbf6471eff6","null","null","<p style=""font-size: 60px; font-family: BACS"">RlAKckMEC</p>","","","","","","","","","",""
"html-keyboard-response","360","470519","0.0-16.0-0.28","5fd69a0014c3b25ee539f66b","650c16f0f2faf8d7a0d14c09","651c1de65d995bbf6471eff6","null","null","<p style=""font-size: 60px; font-family: BACS"">RlAKckMEC</p>","","","","","","","","","",""
"html-keyboard-response","361","471525","0.0-16.0-0.29","5fd69a0014c3b25ee539f66b","650c16f0f2faf8d7a0d14c09","651c1de65d995bbf6471eff6","null","null","<p style=""font-size: 60px; font-family: BACS"">RlAKckMEC</p>","","","","","","","","","",""
"html-keyboard-response","362","472544","0.0-16.0-0.30","5fd69a0014c3b25ee539f66b","650c16f0f2faf8d7a0d14c09","651c1de65d995bbf6471eff6","null","null","<p style=""font-size: 60px; font-family: BACS"">RlAKckMEC</p>","","","","","","","","","",""
"html-keyboard-response","363","473565","0.0-16.0-0.31","5fd69a0014c3b25ee539f66b","650c16f0f2faf8d7a0d14c09","651c1de65d995bbf6471eff6","null","null","<p style=""font-size: 60px; font-family: BACS"">RlAKckMEC</p>","","","","","","","","","",""
"html-keyboard-response","364","474575","0.0-16.0-0.32","5fd69a0014c3b25ee539f66b","650c16f0f2faf8d7a0d14c09","651c1de65d995bbf6471eff6","null","null","<p style=""font-size: 60px; font-family: BACS"">RlAKckMEC</p>","","","","","","","","","",""
"html-keyboard-response","365","475595","0.0-16.0-0.33","5fd69a0014c3b25ee539f66b","650c16f0f2faf8d7a0d14c09","651c1de65d995bbf6471eff6","null","null","<p style=""font-size: 60px; font-family: BACS"">RlAKckMEC</p>","","","","","","","","","",""
"html-keyboard-response","366","476612","0.0-16.0-0.34","5fd69a0014c3b25ee539f66b","650c16f0f2faf8d7a0d14c09","651c1de65d995bbf6471eff6","null","null","<p style=""font-size: 60px; font-family: BACS"">RlAKckMEC</p>","","","","","","","","","",""
"html-keyboard-response","367","477625","0.0-16.0-0.35","5fd69a0014c3b25ee539f66b","650c16f0f2faf8d7a0d14c09","651c1de65d995bbf6471eff6","null","null","<p style=""font-size: 60px; font-family: BACS"">RlAKckMEC</p>","","","","","","","","","",""
"html-keyboard-response","368","478645","0.0-16.0-0.36","5fd69a0014c3b25ee539f66b","650c16f0f2faf8d7a0d14c09","651c1de65d995bbf6471eff6","null","null","<p style=""font-size: 60px; font-family: BACS"">RlAKckMEC</p>","","","","","","","","","",""
"html-keyboard-response","369","479665","0.0-16.0-0.37","5fd69a0014c3b25ee539f66b","650c16f0f2faf8d7a0d14c09","651c1de65d995bbf6471eff6","null","null","<p style=""font-size: 60px; font-family: BACS"">RlAKckMEC</p>","","","","","","","","","",""
"html-keyboard-response","370","480675","0.0-16.0-0.38","5fd69a0014c3b25ee539f66b","650c16f0f2faf8d7a0d14c09","651c1de65d995bbf6471eff6","null","null","<p style=""font-size: 60px; font-family: BACS"">RlAKckMEC</p>","","","","","","","","","",""
"html-keyboard-response","371","481695","0.0-16.0-0.39","5fd69a0014c3b25ee539f66b","650c16f0f2faf8d7a0d14c09","651c1de65d995bbf6471eff6","null","null","<p style=""font-size: 60px; font-family: BACS"">RlAKckMEC</p>","","","","","","","","","",""
"html-keyboard-response","372","482715","0.0-16.0-0.40","5fd69a0014c3b25ee539f66b","650c16f0f2faf8d7a0d14c09","651c1de65d995bbf6471eff6","null","null","<p style=""font-size: 60px; font-family: BACS"">RlAKckMEC</p>","","","","","","","","","",""
"html-keyboard-response","373","483735","0.0-16.0-0.41","5fd69a0014c3b25ee539f66b","650c16f0f2faf8d7a0d14c09","651c1de65d995bbf6471eff6","null","null","<p style=""font-size: 60px; font-family: BACS"">RlAKckMEC</p>","","","","","","","","","",""
"html-keyboard-response","374","484744","0.0-16.0-0.42","5fd69a0014c3b25ee539f66b","650c16f0f2faf8d7a0d14c09","651c1de65d995bbf6471eff6","null","null","<p style=""font-size: 60px; font-family: BACS"">RlAKckMEC</p>","","","","","","","","","",""
"html-keyboard-response","375","485764","0.0-16.0-0.43","5fd69a0014c3b25ee539f66b","650c16f0f2faf8d7a0d14c09","651c1de65d995bbf6471eff6","null","null","<p style=""font-size: 60px; font-family: BACS"">RlAKckMEC</p>","","","","","","","","","",""
"html-keyboard-response","376","486785","0.0-16.0-0.44","5fd69a0014c3b25ee539f66b","650c16f0f2faf8d7a0d14c09","651c1de65d995bbf6471eff6","null","null","<p style=""font-size: 60px; font-family: BACS"">RlAKckMEC</p>","","","","","","","","","",""
"html-keyboard-response","377","487795","0.0-16.0-0.45","5fd69a0014c3b25ee539f66b","650c16f0f2faf8d7a0d14c09","651c1de65d995bbf6471eff6","null","null","<p style=""font-size: 60px; font-family: BACS"">RlAKckMEC</p>","","","","","","","","","",""
"html-keyboard-response","378","488810","0.0-16.0-0.46","5fd69a0014c3b25ee539f66b","650c16f0f2faf8d7a0d14c09","651c1de65d995bbf6471eff6","null","null","<p style=""font-size: 60px; font-family: BACS"">RlAKckMEC</p>","","","","","","","","","",""
"html-keyboard-response","379","489831","0.0-16.0-0.47","5fd69a0014c3b25ee539f66b","650c16f0f2faf8d7a0d14c09","651c1de65d995bbf6471eff6","null","null","<p style=""font-size: 60px; font-family: BACS"">RlAKckMEC</p>","","","","","","","","","",""
"html-keyboard-response","380","490844","0.0-16.0-0.48","5fd69a0014c3b25ee539f66b","650c16f0f2faf8d7a0d14c09","651c1de65d995bbf6471eff6","null","null","<p style=""font-size: 60px; font-family: BACS"">RlAKckMEC</p>","","","","","","","","","",""
"html-keyboard-response","381","491864","0.0-16.0-0.49","5fd69a0014c3b25ee539f66b","650c16f0f2faf8d7a0d14c09","651c1de65d995bbf6471eff6","null","null","<p style=""font-size: 60px; font-family: BACS"">RlAKckMEC</p>","","","","","","","","","",""
"html-keyboard-response","382","492885","0.0-16.0-0.50","5fd69a0014c3b25ee539f66b","650c16f0f2faf8d7a0d14c09","651c1de65d995bbf6471eff6","null","null","<p style=""font-size: 60px; font-family: BACS"">RlAKckMEC</p>","","","","","","","","","",""
"html-keyboard-response","383","493905","0.0-16.0-0.51","5fd69a0014c3b25ee539f66b","650c16f0f2faf8d7a0d14c09","651c1de65d995bbf6471eff6","null","null","<p style=""font-size: 60px; font-family: BACS"">RlAKckMEC</p>","","","","","","","","","",""
"html-keyboard-response","384","494915","0.0-16.0-0.52","5fd69a0014c3b25ee539f66b","650c16f0f2faf8d7a0d14c09","651c1de65d995bbf6471eff6","null","null","<p style=""font-size: 60px; font-family: BACS"">RlAKckMEC</p>","","","","","","","","","",""
"html-keyboard-response","385","495934","0.0-16.0-0.53","5fd69a0014c3b25ee539f66b","650c16f0f2faf8d7a0d14c09","651c1de65d995bbf6471eff6","null","null","<p style=""font-size: 60px; font-family: BACS"">RlAKckMEC</p>","","","","","","","","","",""
"html-keyboard-response","386","496945","0.0-16.0-0.54","5fd69a0014c3b25ee539f66b","650c16f0f2faf8d7a0d14c09","651c1de65d995bbf6471eff6","null","null","<p style=""font-size: 60px; font-family: BACS"">RlAKckMEC</p>","","","","","","","","","",""
"html-keyboard-response","387","497955","0.0-16.0-0.55","5fd69a0014c3b25ee539f66b","650c16f0f2faf8d7a0d14c09","651c1de65d995bbf6471eff6","null","null","<p style=""font-size: 60px; font-family: BACS"">RlAKckMEC</p>","","","","","","","","","",""
"html-keyboard-response","388","498965","0.0-16.0-0.56","5fd69a0014c3b25ee539f66b","650c16f0f2faf8d7a0d14c09","651c1de65d995bbf6471eff6","null","null","<p style=""font-size: 60px; font-family: BACS"">RlAKckMEC</p>","","","","","","","","","",""
"html-keyboard-response","389","499985","0.0-16.0-0.57","5fd69a0014c3b25ee539f66b","650c16f0f2faf8d7a0d14c09","651c1de65d995bbf6471eff6","null","null","<p style=""font-size: 60px; font-family: BACS"">RlAKckMEC</p>","","","","","","","","","",""
"html-keyboard-response","390","501004","0.0-16.0-0.58","5fd69a0014c3b25ee539f66b","650c16f0f2faf8d7a0d14c09","651c1de65d995bbf6471eff6","null","null","<p style=""font-size: 60px; font-family: BACS"">RlAKckMEC</p>","","","","","","","","","",""
"html-keyboard-response","391","502014","0.0-16.0-0.59","5fd69a0014c3b25ee539f66b","650c16f0f2faf8d7a0d14c09","651c1de65d995bbf6471eff6","null","null","<p style=""font-size: 60px; font-family: BACS"">RlAKckMEC</p>","","","","","","","","","",""
"html-keyboard-response","392","503035","0.0-16.0-0.60","5fd69a0014c3b25ee539f66b","650c16f0f2faf8d7a0d14c09","651c1de65d995bbf6471eff6","null","null","<p style=""font-size: 60px; font-family: BACS"">RlAKckMEC</p>","","","","","","","","","",""
"html-keyboard-response","393","504054","0.0-16.0-0.61","5fd69a0014c3b25ee539f66b","650c16f0f2faf8d7a0d14c09","651c1de65d995bbf6471eff6","null","null","<p style=""font-size: 60px; font-family: BACS"">RlAKckMEC</p>","","","","","","","","","",""
