"trial_type","trial_index","time_elapsed","internal_node_id","subject_id","study_id","session_id","rt","response","stimulus","success","item","task","correct_response","testing_condition","correct","target","confound","name"
"pavlovia","0","1327","0.0-0.0","5e87b28549538b0fdf96b318","650c16f0f2faf8d7a0d14c09","651c1c730bd3beb12c8cec76","","","","","","","","","","","",""
"survey-html-form","1","308580","0.0-1.0","5e87b28549538b0fdf96b318","650c16f0f2faf8d7a0d14c09","651c1c730bd3beb12c8cec76","307252","{""ID"":""5e87b28549538b0fdf96b318""}","","","","","","","","","",""
"html-keyboard-response","2","389225","0.0-2.0","5e87b28549538b0fdf96b318","650c16f0f2faf8d7a0d14c09","651c1c730bd3beb12c8cec76","80641"," ","<p style=""font-size: 15px;"">Before beginning, we ask that you read the consent information and confirm your agreement to participate in the experiment.</p>
      <p style=""font-size: 15px;""> We ask that you remember that this is a research project and that your participation is entirely voluntary. You can stop your participation at any time, without needing to provide any explanation. The study we're asking you to participate in aims at examining how readers process written words. You will be engaged in a session of apprximately 20 minutes, followed by a brief questionnaire. You will have the opportunity to take a few breaks during the experiment. You will be paid £4 for your participation, corresponding to a rate of £8/hour. While this experiment looks at cognitive faculties, this experiment doesn't constitute clinical proof of eventual pathologies.</p>
      <p style=""font-size: 15px;"">All of the information collected thanks to yours and others' participation will be held in a secure password-protected server, and will not be shared with anyone not authorised to view it. Your personal information will be kept with an arbitrary participant ID. Thanks to this data anonymity process, any researcher analysing the data won't be able to track the information back to a specific participant. Therefore, this process will make identifying you impossibile, even when results from the study will be published in scientific reviews, presented at congresses, or at any other public forum. More generally, the collected data will be treated in accordance with the laws on privacy and conformity to the Legislative Degree n. 196 ""Code regarding the protection of personal data"" of the 30th of June 2003 and to the European Regulation 2016/670 (General Data Protection Regulation - GDPR). The Data Protection Officer is Avv. Valentina Carollo, who can be contacted at the following email addresses: <a href=""mailto:dpo@sissa.it"">dpo@sissa.it</a> or <a href=""mailto:rpd@sissa.it"">rpd@sissa.it</a> - PEC: <a href=""mailto:protocollo@pec.sissa.it"">protocollo@pec.sissa.it</a>.</p>
      <p style=""font-size: 15px;""> Before expressing your consent to participate, we would like to remind you again that in case you need explanations on any aspect of the experimental procedure, the researcher is at your disposition (<a href=""mailto:aliebelt@sissa.it"">aliebelt@sissa.it</a>, <a href=""mailto:davide.crepaldi@sissa.it"">davide.crepaldi@sissa.it</a>).</p>
      <p style=""font-size: 15px;"">If you would like to download the informed consent form, you can do so here: <a href=""BASL-Informed_Consent.pdf"" download>informed consent form</a>.</p>
      <p style=""font-size: 15px;"">We ask that you press the spacebar to proceed to the consent section.</p>","","","","","","","","",""
"survey-html-form","3","416519","0.0-3.0","5e87b28549538b0fdf96b318","650c16f0f2faf8d7a0d14c09","651c1c730bd3beb12c8cec76","27293","{""consent1"":""YES"",""consent2"":""YES"",""consent3"":""YES"",""consent4"":""YES"",""consent5"":""YES"",""consent6"":""YES""}","","","","","","","","","",""
"fullscreen","4","424139","0.0-4.0","5e87b28549538b0fdf96b318","650c16f0f2faf8d7a0d14c09","651c1c730bd3beb12c8cec76","","","","true","","","","","","","",""
"html-keyboard-response","5","446992","0.0-5.0","5e87b28549538b0fdf96b318","650c16f0f2faf8d7a0d14c09","651c1c730bd3beb12c8cec76","22853"," ","<p>Welcome, and thank you very much for your time!</p>
      <p>In this experiment, you'll be a language expert who's been asked to take a look at words that Earth has received in its first communication with aliens. Your task, in this first part of the experiment, is to pay close attention to the words you'll be shown; later, world leaders will ask you questions on what you saw. The words will be shown to you quite quickly; it seems that the aliens were in a hurry :-)</p>
      <p>Press the spacebar to continue.<p>","","","","","","","","",""
"html-keyboard-response","6","447046","0.0-6.0","5e87b28549538b0fdf96b318","650c16f0f2faf8d7a0d14c09","651c1c730bd3beb12c8cec76","null","null","<p style=""font-size: 120px; font-family: BACS""> </p>","","","","","","","","",""
"html-keyboard-response","7","453129","0.0-7.0","5e87b28549538b0fdf96b318","650c16f0f2faf8d7a0d14c09","651c1c730bd3beb12c8cec76","6082"," ","<p>Here is an example of the words you'll see:</p>
      <img src='esempio.png' height='400px'>
      <p>When you're ready to begin, press the spacebar.</p></div>","","","","","","","","",""
"html-keyboard-response","8","454147","0.0-8.0-0.0","5e87b28549538b0fdf96b318","650c16f0f2faf8d7a0d14c09","651c1c730bd3beb12c8cec76","null","null","<p style=""font-size: 60px; font-family: BACS"">TdTDRCdc</p>","","","","","","","","",""
"html-keyboard-response","9","455155","0.0-8.0-0.1","5e87b28549538b0fdf96b318","650c16f0f2faf8d7a0d14c09","651c1c730bd3beb12c8cec76","null","null","<p style=""font-size: 60px; font-family: BACS"">alJYkGua</p>","","","","","","","","",""
"html-keyboard-response","10","456166","0.0-8.0-0.2","5e87b28549538b0fdf96b318","650c16f0f2faf8d7a0d14c09","651c1c730bd3beb12c8cec76","null","null","<p style=""font-size: 60px; font-family: BACS"">AYkEhBRDh</p>","","","","","","","","",""
"html-keyboard-response","11","457179","0.0-8.0-0.3","5e87b28549538b0fdf96b318","650c16f0f2faf8d7a0d14c09","651c1c730bd3beb12c8cec76","null","null","<p style=""font-size: 60px; font-family: BACS"">mrOdcYUv</p>","","","","","","","","",""
"html-keyboard-response","12","458181","0.0-8.0-0.4","5e87b28549538b0fdf96b318","650c16f0f2faf8d7a0d14c09","651c1c730bd3beb12c8cec76","null","null","<p style=""font-size: 60px; font-family: BACS"">tDPRkYDE</p>","","","","","","","","",""
"html-keyboard-response","13","459191","0.0-8.0-0.5","5e87b28549538b0fdf96b318","650c16f0f2faf8d7a0d14c09","651c1c730bd3beb12c8cec76","null","null","<p style=""font-size: 60px; font-family: BACS"">LcNUJOQAr</p>","","","","","","","","",""
"html-keyboard-response","14","460195","0.0-8.0-0.6","5e87b28549538b0fdf96b318","650c16f0f2faf8d7a0d14c09","651c1c730bd3beb12c8cec76","null","null","<p style=""font-size: 60px; font-family: BACS"">kZUbcYUv</p>","","","","","","","","",""
"html-keyboard-response","15","461211","0.0-8.0-0.7","5e87b28549538b0fdf96b318","650c16f0f2faf8d7a0d14c09","651c1c730bd3beb12c8cec76","null","null","<p style=""font-size: 60px; font-family: BACS"">OCmkRCdc</p>","","","","","","","","",""
"html-keyboard-response","16","462218","0.0-8.0-0.8","5e87b28549538b0fdf96b318","650c16f0f2faf8d7a0d14c09","651c1c730bd3beb12c8cec76","null","null","<p style=""font-size: 60px; font-family: BACS"">kZUbcUN</p>","","","","","","","","",""
"html-keyboard-response","17","463222","0.0-8.0-0.9","5e87b28549538b0fdf96b318","650c16f0f2faf8d7a0d14c09","651c1c730bd3beb12c8cec76","null","null","<p style=""font-size: 60px; font-family: BACS"">KABAdRA</p>","","","","","","","","",""
"html-keyboard-response","18","464237","0.0-8.0-0.10","5e87b28549538b0fdf96b318","650c16f0f2faf8d7a0d14c09","651c1c730bd3beb12c8cec76","null","null","<p style=""font-size: 60px; font-family: BACS"">OJGQcYUv</p>","","","","","","","","",""
"html-keyboard-response","19","465251","0.0-8.0-0.11","5e87b28549538b0fdf96b318","650c16f0f2faf8d7a0d14c09","651c1c730bd3beb12c8cec76","null","null","<p style=""font-size: 60px; font-family: BACS"">kCRmRCdc</p>","","","","","","","","",""
"html-keyboard-response","20","466264","0.0-8.0-0.12","5e87b28549538b0fdf96b318","650c16f0f2faf8d7a0d14c09","651c1c730bd3beb12c8cec76","null","null","<p style=""font-size: 60px; font-family: BACS"">AYkEhdRA</p>","","","","","","","","",""
"html-keyboard-response","21","467267","0.0-8.0-0.13","5e87b28549538b0fdf96b318","650c16f0f2faf8d7a0d14c09","651c1c730bd3beb12c8cec76","null","null","<p style=""font-size: 60px; font-family: BACS"">YadrOQAr</p>","","","","","","","","",""
"html-keyboard-response","22","468278","0.0-8.0-0.14","5e87b28549538b0fdf96b318","650c16f0f2faf8d7a0d14c09","651c1c730bd3beb12c8cec76","null","null","<p style=""font-size: 60px; font-family: BACS"">rvUbcbm</p>","","","","","","","","",""
"html-keyboard-response","23","469279","0.0-8.0-0.15","5e87b28549538b0fdf96b318","650c16f0f2faf8d7a0d14c09","651c1c730bd3beb12c8cec76","null","null","<p style=""font-size: 60px; font-family: BACS"">kCRmbTE</p>","","","","","","","","",""
"html-keyboard-response","24","470281","0.0-8.0-0.16","5e87b28549538b0fdf96b318","650c16f0f2faf8d7a0d14c09","651c1c730bd3beb12c8cec76","null","null","<p style=""font-size: 60px; font-family: BACS"">OCmkdRA</p>","","","","","","","","",""
"html-keyboard-response","25","471296","0.0-8.0-0.17","5e87b28549538b0fdf96b318","650c16f0f2faf8d7a0d14c09","651c1c730bd3beb12c8cec76","null","null","<p style=""font-size: 60px; font-family: BACS"">rGUAYcUN</p>","","","","","","","","",""
"html-keyboard-response","26","472310","0.0-8.0-0.18","5e87b28549538b0fdf96b318","650c16f0f2faf8d7a0d14c09","651c1c730bd3beb12c8cec76","null","null","<p style=""font-size: 60px; font-family: BACS"">kcCRtBRDh</p>","","","","","","","","",""
"html-keyboard-response","27","473327","0.0-8.0-0.19","5e87b28549538b0fdf96b318","650c16f0f2faf8d7a0d14c09","651c1c730bd3beb12c8cec76","null","null","<p style=""font-size: 60px; font-family: BACS"">rvUbcYUv</p>","","","","","","","","",""
"html-keyboard-response","28","474343","0.0-8.0-0.20","5e87b28549538b0fdf96b318","650c16f0f2faf8d7a0d14c09","651c1c730bd3beb12c8cec76","null","null","<p style=""font-size: 60px; font-family: BACS"">TdTDBRDh</p>","","","","","","","","",""
"html-keyboard-response","29","475360","0.0-8.0-0.21","5e87b28549538b0fdf96b318","650c16f0f2faf8d7a0d14c09","651c1c730bd3beb12c8cec76","null","null","<p style=""font-size: 60px; font-family: BACS"">KBKBEdRA</p>","","","","","","","","",""
"html-keyboard-response","30","476372","0.0-8.0-0.22","5e87b28549538b0fdf96b318","650c16f0f2faf8d7a0d14c09","651c1c730bd3beb12c8cec76","null","null","<p style=""font-size: 60px; font-family: BACS"">KABARCdc</p>","","","","","","","","",""
"html-keyboard-response","31","477374","0.0-8.0-0.23","5e87b28549538b0fdf96b318","650c16f0f2faf8d7a0d14c09","651c1c730bd3beb12c8cec76","null","null","<p style=""font-size: 60px; font-family: BACS"">rGUAYcYUv</p>","","","","","","","","",""
"html-keyboard-response","32","478388","0.0-8.0-0.24","5e87b28549538b0fdf96b318","650c16f0f2faf8d7a0d14c09","651c1c730bd3beb12c8cec76","null","null","<p style=""font-size: 60px; font-family: BACS"">alJYcbm</p>","","","","","","","","",""
"html-keyboard-response","33","479405","0.0-8.0-0.25","5e87b28549538b0fdf96b318","650c16f0f2faf8d7a0d14c09","651c1c730bd3beb12c8cec76","null","null","<p style=""font-size: 60px; font-family: BACS"">LcNUJcUN</p>","","","","","","","","",""
"html-keyboard-response","34","480421","0.0-8.0-0.26","5e87b28549538b0fdf96b318","650c16f0f2faf8d7a0d14c09","651c1c730bd3beb12c8cec76","null","null","<p style=""font-size: 60px; font-family: BACS"">YadrkGua</p>","","","","","","","","",""
"html-keyboard-response","35","481437","0.0-8.0-0.27","5e87b28549538b0fdf96b318","650c16f0f2faf8d7a0d14c09","651c1c730bd3beb12c8cec76","null","null","<p style=""font-size: 60px; font-family: BACS"">kcCRtRCdc</p>","","","","","","","","",""
"html-keyboard-response","36","482452","0.0-8.0-0.28","5e87b28549538b0fdf96b318","650c16f0f2faf8d7a0d14c09","651c1c730bd3beb12c8cec76","null","null","<p style=""font-size: 60px; font-family: BACS"">mrOdkGua</p>","","","","","","","","",""
"html-keyboard-response","37","483461","0.0-8.0-0.29","5e87b28549538b0fdf96b318","650c16f0f2faf8d7a0d14c09","651c1c730bd3beb12c8cec76","null","null","<p style=""font-size: 60px; font-family: BACS"">rvOvUcUN</p>","","","","","","","","",""
"html-keyboard-response","38","484466","0.0-8.0-0.30","5e87b28549538b0fdf96b318","650c16f0f2faf8d7a0d14c09","651c1c730bd3beb12c8cec76","null","null","<p style=""font-size: 60px; font-family: BACS"">tDPRkBRDh</p>","","","","","","","","",""
"html-keyboard-response","39","485468","0.0-8.0-0.31","5e87b28549538b0fdf96b318","650c16f0f2faf8d7a0d14c09","651c1c730bd3beb12c8cec76","null","null","<p style=""font-size: 60px; font-family: BACS"">KABAbTE</p>","","","","","","","","",""
"html-keyboard-response","40","486481","0.0-8.0-0.32","5e87b28549538b0fdf96b318","650c16f0f2faf8d7a0d14c09","651c1c730bd3beb12c8cec76","null","null","<p style=""font-size: 60px; font-family: BACS"">YadrcUN</p>","","","","","","","","",""
"html-keyboard-response","41","487483","0.0-8.0-0.33","5e87b28549538b0fdf96b318","650c16f0f2faf8d7a0d14c09","651c1c730bd3beb12c8cec76","null","null","<p style=""font-size: 60px; font-family: BACS"">rGUAYkGua</p>","","","","","","","","",""
"html-keyboard-response","42","488498","0.0-8.0-0.34","5e87b28549538b0fdf96b318","650c16f0f2faf8d7a0d14c09","651c1c730bd3beb12c8cec76","null","null","<p style=""font-size: 60px; font-family: BACS"">ZNLOvOQAr</p>","","","","","","","","",""
"html-keyboard-response","43","489504","0.0-8.0-0.35","5e87b28549538b0fdf96b318","650c16f0f2faf8d7a0d14c09","651c1c730bd3beb12c8cec76","null","null","<p style=""font-size: 60px; font-family: BACS"">BMEMABRDh</p>","","","","","","","","",""
"html-keyboard-response","44","490520","0.0-8.0-0.36","5e87b28549538b0fdf96b318","650c16f0f2faf8d7a0d14c09","651c1c730bd3beb12c8cec76","null","null","<p style=""font-size: 60px; font-family: BACS"">rvOvUcbm</p>","","","","","","","","",""
"html-keyboard-response","45","491533","0.0-8.0-0.37","5e87b28549538b0fdf96b318","650c16f0f2faf8d7a0d14c09","651c1c730bd3beb12c8cec76","null","null","<p style=""font-size: 60px; font-family: BACS"">kCRmdRA</p>","","","","","","","","",""
"html-keyboard-response","46","492543","0.0-8.0-0.38","5e87b28549538b0fdf96b318","650c16f0f2faf8d7a0d14c09","651c1c730bd3beb12c8cec76","null","null","<p style=""font-size: 60px; font-family: BACS"">dOYmlbTE</p>","","","","","","","","",""
"html-keyboard-response","47","493545","0.0-8.0-0.39","5e87b28549538b0fdf96b318","650c16f0f2faf8d7a0d14c09","651c1c730bd3beb12c8cec76","null","null","<p style=""font-size: 60px; font-family: BACS"">tDPRkRCdc</p>","","","","","","","","",""
"html-keyboard-response","48","494557","0.0-8.0-0.40","5e87b28549538b0fdf96b318","650c16f0f2faf8d7a0d14c09","651c1c730bd3beb12c8cec76","null","null","<p style=""font-size: 60px; font-family: BACS"">OJGQcUN</p>","","","","","","","","",""
"html-keyboard-response","49","495574","0.0-8.0-0.41","5e87b28549538b0fdf96b318","650c16f0f2faf8d7a0d14c09","651c1c730bd3beb12c8cec76","null","null","<p style=""font-size: 60px; font-family: BACS"">dOYmlBRDh</p>","","","","","","","","",""
"html-keyboard-response","50","496588","0.0-8.0-0.42","5e87b28549538b0fdf96b318","650c16f0f2faf8d7a0d14c09","651c1c730bd3beb12c8cec76","null","null","<p style=""font-size: 60px; font-family: BACS"">kZUbcbm</p>","","","","","","","","",""
"html-keyboard-response","51","497591","0.0-8.0-0.43","5e87b28549538b0fdf96b318","650c16f0f2faf8d7a0d14c09","651c1c730bd3beb12c8cec76","null","null","<p style=""font-size: 60px; font-family: BACS"">LcNUJkGua</p>","","","","","","","","",""
"html-keyboard-response","52","498602","0.0-8.0-0.44","5e87b28549538b0fdf96b318","650c16f0f2faf8d7a0d14c09","651c1c730bd3beb12c8cec76","null","null","<p style=""font-size: 60px; font-family: BACS"">rvOvUcYUv</p>","","","","","","","","",""
"html-keyboard-response","53","499605","0.0-8.0-0.45","5e87b28549538b0fdf96b318","650c16f0f2faf8d7a0d14c09","651c1c730bd3beb12c8cec76","null","null","<p style=""font-size: 60px; font-family: BACS"">AYkEhRCdc</p>","","","","","","","","",""
"html-keyboard-response","54","500620","0.0-8.0-0.46","5e87b28549538b0fdf96b318","650c16f0f2faf8d7a0d14c09","651c1c730bd3beb12c8cec76","null","null","<p style=""font-size: 60px; font-family: BACS"">KABAYDE</p>","","","","","","","","",""
"html-keyboard-response","55","501624","0.0-8.0-0.47","5e87b28549538b0fdf96b318","650c16f0f2faf8d7a0d14c09","651c1c730bd3beb12c8cec76","null","null","<p style=""font-size: 60px; font-family: BACS"">rGUAYcbm</p>","","","","","","","","",""
"html-keyboard-response","56","502626","0.0-8.0-0.48","5e87b28549538b0fdf96b318","650c16f0f2faf8d7a0d14c09","651c1c730bd3beb12c8cec76","null","null","<p style=""font-size: 60px; font-family: BACS"">KBKBEbTE</p>","","","","","","","","",""
"html-keyboard-response","57","503632","0.0-8.0-0.49","5e87b28549538b0fdf96b318","650c16f0f2faf8d7a0d14c09","651c1c730bd3beb12c8cec76","null","null","<p style=""font-size: 60px; font-family: BACS"">AYkEhYDE</p>","","","","","","","","",""
"html-keyboard-response","58","504648","0.0-8.0-0.50","5e87b28549538b0fdf96b318","650c16f0f2faf8d7a0d14c09","651c1c730bd3beb12c8cec76","null","null","<p style=""font-size: 60px; font-family: BACS"">KBKBEBRDh</p>","","","","","","","","",""
"html-keyboard-response","59","505651","0.0-8.0-0.51","5e87b28549538b0fdf96b318","650c16f0f2faf8d7a0d14c09","651c1c730bd3beb12c8cec76","null","null","<p style=""font-size: 60px; font-family: BACS"">dOYmldRA</p>","","","","","","","","",""
"html-keyboard-response","60","506664","0.0-8.0-0.52","5e87b28549538b0fdf96b318","650c16f0f2faf8d7a0d14c09","651c1c730bd3beb12c8cec76","null","null","<p style=""font-size: 60px; font-family: BACS"">mrOdOQAr</p>","","","","","","","","",""
"html-keyboard-response","61","507670","0.0-8.0-0.53","5e87b28549538b0fdf96b318","650c16f0f2faf8d7a0d14c09","651c1c730bd3beb12c8cec76","null","null","<p style=""font-size: 60px; font-family: BACS"">Yadrcbm</p>","","","","","","","","",""
"html-keyboard-response","62","508679","0.0-8.0-0.54","5e87b28549538b0fdf96b318","650c16f0f2faf8d7a0d14c09","651c1c730bd3beb12c8cec76","null","null","<p style=""font-size: 60px; font-family: BACS"">OCmkYDE</p>","","","","","","","","",""
"html-keyboard-response","63","509692","0.0-8.0-0.55","5e87b28549538b0fdf96b318","650c16f0f2faf8d7a0d14c09","651c1c730bd3beb12c8cec76","null","null","<p style=""font-size: 60px; font-family: BACS"">alJYcYUv</p>","","","","","","","","",""
"html-keyboard-response","64","510709","0.0-8.0-0.56","5e87b28549538b0fdf96b318","650c16f0f2faf8d7a0d14c09","651c1c730bd3beb12c8cec76","null","null","<p style=""font-size: 60px; font-family: BACS"">kCRmBRDh</p>","","","","","","","","",""
"html-keyboard-response","65","511724","0.0-8.0-0.57","5e87b28549538b0fdf96b318","650c16f0f2faf8d7a0d14c09","651c1c730bd3beb12c8cec76","null","null","<p style=""font-size: 60px; font-family: BACS"">ZNLOvkGua</p>","","","","","","","","",""
"html-keyboard-response","66","512727","0.0-8.0-0.58","5e87b28549538b0fdf96b318","650c16f0f2faf8d7a0d14c09","651c1c730bd3beb12c8cec76","null","null","<p style=""font-size: 60px; font-family: BACS"">LcNUJcYUv</p>","","","","","","","","",""
"html-keyboard-response","67","513740","0.0-8.0-0.59","5e87b28549538b0fdf96b318","650c16f0f2faf8d7a0d14c09","651c1c730bd3beb12c8cec76","null","null","<p style=""font-size: 60px; font-family: BACS"">rvUbkGua</p>","","","","","","","","",""
"html-keyboard-response","68","514756","0.0-8.0-0.60","5e87b28549538b0fdf96b318","650c16f0f2faf8d7a0d14c09","651c1c730bd3beb12c8cec76","null","null","<p style=""font-size: 60px; font-family: BACS"">OJGQOQAr</p>","","","","","","","","",""
"html-keyboard-response","69","515773","0.0-8.0-0.61","5e87b28549538b0fdf96b318","650c16f0f2faf8d7a0d14c09","651c1c730bd3beb12c8cec76","null","null","<p style=""font-size: 60px; font-family: BACS"">BMEMAYDE</p>","","","","","","","","",""
"html-keyboard-response","70","516789","0.0-8.0-0.62","5e87b28549538b0fdf96b318","650c16f0f2faf8d7a0d14c09","651c1c730bd3beb12c8cec76","null","null","<p style=""font-size: 60px; font-family: BACS"">alJYOQAr</p>","","","","","","","","",""
"html-keyboard-response","71","517804","0.0-8.0-0.63","5e87b28549538b0fdf96b318","650c16f0f2faf8d7a0d14c09","651c1c730bd3beb12c8cec76","null","null","<p style=""font-size: 60px; font-family: BACS"">kcCRtbTE</p>","","","","","","","","",""
"html-keyboard-response","72","518808","0.0-8.0-0.64","5e87b28549538b0fdf96b318","650c16f0f2faf8d7a0d14c09","651c1c730bd3beb12c8cec76","null","null","<p style=""font-size: 60px; font-family: BACS"">ZNLOvcUN</p>","","","","","","","","",""
"html-keyboard-response","73","519820","0.0-8.0-0.65","5e87b28549538b0fdf96b318","650c16f0f2faf8d7a0d14c09","651c1c730bd3beb12c8cec76","null","null","<p style=""font-size: 60px; font-family: BACS"">OJGQkGua</p>","","","","","","","","",""
"html-keyboard-response","74","520826","0.0-8.0-0.66","5e87b28549538b0fdf96b318","650c16f0f2faf8d7a0d14c09","651c1c730bd3beb12c8cec76","null","null","<p style=""font-size: 60px; font-family: BACS"">rvOvUOQAr</p>","","","","","","","","",""
"html-keyboard-response","75","521841","0.0-8.0-0.67","5e87b28549538b0fdf96b318","650c16f0f2faf8d7a0d14c09","651c1c730bd3beb12c8cec76","null","null","<p style=""font-size: 60px; font-family: BACS"">TdTDYDE</p>","","","","","","","","",""
"html-keyboard-response","76","522847","0.0-8.0-0.68","5e87b28549538b0fdf96b318","650c16f0f2faf8d7a0d14c09","651c1c730bd3beb12c8cec76","null","null","<p style=""font-size: 60px; font-family: BACS"">OCmkbTE</p>","","","","","","","","",""
"html-keyboard-response","77","523849","0.0-8.0-0.69","5e87b28549538b0fdf96b318","650c16f0f2faf8d7a0d14c09","651c1c730bd3beb12c8cec76","null","null","<p style=""font-size: 60px; font-family: BACS"">TdTDdRA</p>","","","","","","","","",""
"html-keyboard-response","78","524865","0.0-8.0-0.70","5e87b28549538b0fdf96b318","650c16f0f2faf8d7a0d14c09","651c1c730bd3beb12c8cec76","null","null","<p style=""font-size: 60px; font-family: BACS"">mrOdcbm</p>","","","","","","","","",""
"html-keyboard-response","79","525868","0.0-8.0-0.71","5e87b28549538b0fdf96b318","650c16f0f2faf8d7a0d14c09","651c1c730bd3beb12c8cec76","null","null","<p style=""font-size: 60px; font-family: BACS"">BMEMAdRA</p>","","","","","","","","",""
"html-keyboard-response","80","526879","0.0-8.0-0.72","5e87b28549538b0fdf96b318","650c16f0f2faf8d7a0d14c09","651c1c730bd3beb12c8cec76","null","null","<p style=""font-size: 60px; font-family: BACS"">dOYmlRCdc</p>","","","","","","","","",""
"html-keyboard-response","81","527886","0.0-8.0-0.73","5e87b28549538b0fdf96b318","650c16f0f2faf8d7a0d14c09","651c1c730bd3beb12c8cec76","null","null","<p style=""font-size: 60px; font-family: BACS"">rvUbcUN</p>","","","","","","","","",""
"html-keyboard-response","82","528893","0.0-8.0-0.74","5e87b28549538b0fdf96b318","650c16f0f2faf8d7a0d14c09","651c1c730bd3beb12c8cec76","null","null","<p style=""font-size: 60px; font-family: BACS"">KBKBEYDE</p>","","","","","","","","",""
"html-keyboard-response","83","529908","0.0-8.0-0.75","5e87b28549538b0fdf96b318","650c16f0f2faf8d7a0d14c09","651c1c730bd3beb12c8cec76","null","null","<p style=""font-size: 60px; font-family: BACS"">BMEMAbTE</p>","","","","","","","","",""
"html-keyboard-response","84","530915","0.0-8.0-0.76","5e87b28549538b0fdf96b318","650c16f0f2faf8d7a0d14c09","651c1c730bd3beb12c8cec76","null","null","<p style=""font-size: 60px; font-family: BACS"">kZUbOQAr</p>","","","","","","","","",""
"html-keyboard-response","85","531921","0.0-8.0-0.77","5e87b28549538b0fdf96b318","650c16f0f2faf8d7a0d14c09","651c1c730bd3beb12c8cec76","null","null","<p style=""font-size: 60px; font-family: BACS"">tDPRkbTE</p>","","","","","","","","",""
"html-keyboard-response","86","532926","0.0-8.0-0.78","5e87b28549538b0fdf96b318","650c16f0f2faf8d7a0d14c09","651c1c730bd3beb12c8cec76","null","null","<p style=""font-size: 60px; font-family: BACS"">kcCRtYDE</p>","","","","","","","","",""
"html-keyboard-response","87","533928","0.0-8.0-0.79","5e87b28549538b0fdf96b318","650c16f0f2faf8d7a0d14c09","651c1c730bd3beb12c8cec76","null","null","<p style=""font-size: 60px; font-family: BACS"">ZNLOvcbm</p>","","","","","","","","",""
"html-keyboard-response","88","543520","0.0-9.0","5e87b28549538b0fdf96b318","650c16f0f2faf8d7a0d14c09","651c1c730bd3beb12c8cec76","9591"," ","<p>Great, you've seen the first block of words. You may now take a short break.</p>
      <p>Press the spacebar when you're ready to continue.</p>","","","","","","","","",""
"html-keyboard-response","89","544522","0.0-10.0-0.0","5e87b28549538b0fdf96b318","650c16f0f2faf8d7a0d14c09","651c1c730bd3beb12c8cec76","null","null","<p style=""font-size: 60px; font-family: BACS"">dOYmlBRDh</p>","","","","","","","","",""
"html-keyboard-response","90","545535","0.0-10.0-0.1","5e87b28549538b0fdf96b318","650c16f0f2faf8d7a0d14c09","651c1c730bd3beb12c8cec76","null","null","<p style=""font-size: 60px; font-family: BACS"">ZNLOvcUN</p>","","","","","","","","",""
"html-keyboard-response","91","546545","0.0-10.0-0.2","5e87b28549538b0fdf96b318","650c16f0f2faf8d7a0d14c09","651c1c730bd3beb12c8cec76","null","null","<p style=""font-size: 60px; font-family: BACS"">kcCRtRCdc</p>","","","","","","","","",""
"html-keyboard-response","92","547560","0.0-10.0-0.3","5e87b28549538b0fdf96b318","650c16f0f2faf8d7a0d14c09","651c1c730bd3beb12c8cec76","null","null","<p style=""font-size: 60px; font-family: BACS"">kZUbOQAr</p>","","","","","","","","",""
"html-keyboard-response","93","548573","0.0-10.0-0.4","5e87b28549538b0fdf96b318","650c16f0f2faf8d7a0d14c09","651c1c730bd3beb12c8cec76","null","null","<p style=""font-size: 60px; font-family: BACS"">OJGQcUN</p>","","","","","","","","",""
"html-keyboard-response","94","549575","0.0-10.0-0.5","5e87b28549538b0fdf96b318","650c16f0f2faf8d7a0d14c09","651c1c730bd3beb12c8cec76","null","null","<p style=""font-size: 60px; font-family: BACS"">KBKBEYDE</p>","","","","","","","","",""
"html-keyboard-response","95","550587","0.0-10.0-0.6","5e87b28549538b0fdf96b318","650c16f0f2faf8d7a0d14c09","651c1c730bd3beb12c8cec76","null","null","<p style=""font-size: 60px; font-family: BACS"">rGUAYcYUv</p>","","","","","","","","",""
"html-keyboard-response","96","551588","0.0-10.0-0.7","5e87b28549538b0fdf96b318","650c16f0f2faf8d7a0d14c09","651c1c730bd3beb12c8cec76","null","null","<p style=""font-size: 60px; font-family: BACS"">kCRmdRA</p>","","","","","","","","",""
"html-keyboard-response","97","552601","0.0-10.0-0.8","5e87b28549538b0fdf96b318","650c16f0f2faf8d7a0d14c09","651c1c730bd3beb12c8cec76","null","null","<p style=""font-size: 60px; font-family: BACS"">ZNLOvkGua</p>","","","","","","","","",""
"html-keyboard-response","98","553606","0.0-10.0-0.9","5e87b28549538b0fdf96b318","650c16f0f2faf8d7a0d14c09","651c1c730bd3beb12c8cec76","null","null","<p style=""font-size: 60px; font-family: BACS"">rvOvUcYUv</p>","","","","","","","","",""
"html-keyboard-response","99","554619","0.0-10.0-0.10","5e87b28549538b0fdf96b318","650c16f0f2faf8d7a0d14c09","651c1c730bd3beb12c8cec76","null","null","<p style=""font-size: 60px; font-family: BACS"">LcNUJkGua</p>","","","","","","","","",""
"html-keyboard-response","100","555636","0.0-10.0-0.11","5e87b28549538b0fdf96b318","650c16f0f2faf8d7a0d14c09","651c1c730bd3beb12c8cec76","null","null","<p style=""font-size: 60px; font-family: BACS"">rvOvUcUN</p>","","","","","","","","",""
"html-keyboard-response","101","556650","0.0-10.0-0.12","5e87b28549538b0fdf96b318","650c16f0f2faf8d7a0d14c09","651c1c730bd3beb12c8cec76","null","null","<p style=""font-size: 60px; font-family: BACS"">mrOdcYUv</p>","","","","","","","","",""
"html-keyboard-response","102","557651","0.0-10.0-0.13","5e87b28549538b0fdf96b318","650c16f0f2faf8d7a0d14c09","651c1c730bd3beb12c8cec76","null","null","<p style=""font-size: 60px; font-family: BACS"">OCmkdRA</p>","","","","","","","","",""
"html-keyboard-response","103","558665","0.0-10.0-0.14","5e87b28549538b0fdf96b318","650c16f0f2faf8d7a0d14c09","651c1c730bd3beb12c8cec76","null","null","<p style=""font-size: 60px; font-family: BACS"">rGUAYcUN</p>","","","","","","","","",""
"html-keyboard-response","104","559673","0.0-10.0-0.15","5e87b28549538b0fdf96b318","650c16f0f2faf8d7a0d14c09","651c1c730bd3beb12c8cec76","null","null","<p style=""font-size: 60px; font-family: BACS"">TdTDYDE</p>","","","","","","","","",""
"html-keyboard-response","105","560684","0.0-10.0-0.16","5e87b28549538b0fdf96b318","650c16f0f2faf8d7a0d14c09","651c1c730bd3beb12c8cec76","null","null","<p style=""font-size: 60px; font-family: BACS"">alJYcbm</p>","","","","","","","","",""
"html-keyboard-response","106","561697","0.0-10.0-0.17","5e87b28549538b0fdf96b318","650c16f0f2faf8d7a0d14c09","651c1c730bd3beb12c8cec76","null","null","<p style=""font-size: 60px; font-family: BACS"">kCRmBRDh</p>","","","","","","","","",""
"html-keyboard-response","107","562701","0.0-10.0-0.18","5e87b28549538b0fdf96b318","650c16f0f2faf8d7a0d14c09","651c1c730bd3beb12c8cec76","null","null","<p style=""font-size: 60px; font-family: BACS"">LcNUJcYUv</p>","","","","","","","","",""
"html-keyboard-response","108","563715","0.0-10.0-0.19","5e87b28549538b0fdf96b318","650c16f0f2faf8d7a0d14c09","651c1c730bd3beb12c8cec76","null","null","<p style=""font-size: 60px; font-family: BACS"">kCRmbTE</p>","","","","","","","","",""
"html-keyboard-response","109","564717","0.0-10.0-0.20","5e87b28549538b0fdf96b318","650c16f0f2faf8d7a0d14c09","651c1c730bd3beb12c8cec76","null","null","<p style=""font-size: 60px; font-family: BACS"">OJGQcYUv</p>","","","","","","","","",""
"html-keyboard-response","110","565724","0.0-10.0-0.21","5e87b28549538b0fdf96b318","650c16f0f2faf8d7a0d14c09","651c1c730bd3beb12c8cec76","null","null","<p style=""font-size: 60px; font-family: BACS"">AYkEhYDE</p>","","","","","","","","",""
"html-keyboard-response","111","566726","0.0-10.0-0.22","5e87b28549538b0fdf96b318","650c16f0f2faf8d7a0d14c09","651c1c730bd3beb12c8cec76","null","null","<p style=""font-size: 60px; font-family: BACS"">rGUAYkGua</p>","","","","","","","","",""
"html-keyboard-response","112","567731","0.0-10.0-0.23","5e87b28549538b0fdf96b318","650c16f0f2faf8d7a0d14c09","651c1c730bd3beb12c8cec76","null","null","<p style=""font-size: 60px; font-family: BACS"">OCmkRCdc</p>","","","","","","","","",""
"html-keyboard-response","113","568745","0.0-10.0-0.24","5e87b28549538b0fdf96b318","650c16f0f2faf8d7a0d14c09","651c1c730bd3beb12c8cec76","null","null","<p style=""font-size: 60px; font-family: BACS"">KABAbTE</p>","","","","","","","","",""
"html-keyboard-response","114","569757","0.0-10.0-0.25","5e87b28549538b0fdf96b318","650c16f0f2faf8d7a0d14c09","651c1c730bd3beb12c8cec76","null","null","<p style=""font-size: 60px; font-family: BACS"">kZUbcUN</p>","","","","","","","","",""
"html-keyboard-response","115","570772","0.0-10.0-0.26","5e87b28549538b0fdf96b318","650c16f0f2faf8d7a0d14c09","651c1c730bd3beb12c8cec76","null","null","<p style=""font-size: 60px; font-family: BACS"">mrOdOQAr</p>","","","","","","","","",""
"html-keyboard-response","116","571786","0.0-10.0-0.27","5e87b28549538b0fdf96b318","650c16f0f2faf8d7a0d14c09","651c1c730bd3beb12c8cec76","null","null","<p style=""font-size: 60px; font-family: BACS"">KABAdRA</p>","","","","","","","","",""
"html-keyboard-response","117","572792","0.0-10.0-0.28","5e87b28549538b0fdf96b318","650c16f0f2faf8d7a0d14c09","651c1c730bd3beb12c8cec76","null","null","<p style=""font-size: 60px; font-family: BACS"">YadrkGua</p>","","","","","","","","",""
"html-keyboard-response","118","573793","0.0-10.0-0.29","5e87b28549538b0fdf96b318","650c16f0f2faf8d7a0d14c09","651c1c730bd3beb12c8cec76","null","null","<p style=""font-size: 60px; font-family: BACS"">KABAYDE</p>","","","","","","","","",""
"html-keyboard-response","119","574798","0.0-10.0-0.30","5e87b28549538b0fdf96b318","650c16f0f2faf8d7a0d14c09","651c1c730bd3beb12c8cec76","null","null","<p style=""font-size: 60px; font-family: BACS"">alJYOQAr</p>","","","","","","","","",""
"html-keyboard-response","120","575800","0.0-10.0-0.31","5e87b28549538b0fdf96b318","650c16f0f2faf8d7a0d14c09","651c1c730bd3beb12c8cec76","null","null","<p style=""font-size: 60px; font-family: BACS"">kcCRtBRDh</p>","","","","","","","","",""
"html-keyboard-response","121","576815","0.0-10.0-0.32","5e87b28549538b0fdf96b318","650c16f0f2faf8d7a0d14c09","651c1c730bd3beb12c8cec76","null","null","<p style=""font-size: 60px; font-family: BACS"">KABARCdc</p>","","","","","","","","",""
"html-keyboard-response","122","577820","0.0-10.0-0.33","5e87b28549538b0fdf96b318","650c16f0f2faf8d7a0d14c09","651c1c730bd3beb12c8cec76","null","null","<p style=""font-size: 60px; font-family: BACS"">OCmkbTE</p>","","","","","","","","",""
"html-keyboard-response","123","578828","0.0-10.0-0.34","5e87b28549538b0fdf96b318","650c16f0f2faf8d7a0d14c09","651c1c730bd3beb12c8cec76","null","null","<p style=""font-size: 60px; font-family: BACS"">rvOvUOQAr</p>","","","","","","","","",""
"html-keyboard-response","124","579831","0.0-10.0-0.35","5e87b28549538b0fdf96b318","650c16f0f2faf8d7a0d14c09","651c1c730bd3beb12c8cec76","null","null","<p style=""font-size: 60px; font-family: BACS"">alJYcYUv</p>","","","","","","","","",""
"html-keyboard-response","125","580841","0.0-10.0-0.36","5e87b28549538b0fdf96b318","650c16f0f2faf8d7a0d14c09","651c1c730bd3beb12c8cec76","null","null","<p style=""font-size: 60px; font-family: BACS"">BMEMAdRA</p>","","","","","","","","",""
"html-keyboard-response","126","581858","0.0-10.0-0.37","5e87b28549538b0fdf96b318","650c16f0f2faf8d7a0d14c09","651c1c730bd3beb12c8cec76","null","null","<p style=""font-size: 60px; font-family: BACS"">AYkEhBRDh</p>","","","","","","","","",""
"html-keyboard-response","127","582866","0.0-10.0-0.38","5e87b28549538b0fdf96b318","650c16f0f2faf8d7a0d14c09","651c1c730bd3beb12c8cec76","null","null","<p style=""font-size: 60px; font-family: BACS"">rvUbkGua</p>","","","","","","","","",""
"html-keyboard-response","128","583874","0.0-10.0-0.39","5e87b28549538b0fdf96b318","650c16f0f2faf8d7a0d14c09","651c1c730bd3beb12c8cec76","null","null","<p style=""font-size: 60px; font-family: BACS"">KBKBEBRDh</p>","","","","","","","","",""
"html-keyboard-response","129","584890","0.0-10.0-0.40","5e87b28549538b0fdf96b318","650c16f0f2faf8d7a0d14c09","651c1c730bd3beb12c8cec76","null","null","<p style=""font-size: 60px; font-family: BACS"">BMEMAYDE</p>","","","","","","","","",""
"html-keyboard-response","130","585907","0.0-10.0-0.41","5e87b28549538b0fdf96b318","650c16f0f2faf8d7a0d14c09","651c1c730bd3beb12c8cec76","null","null","<p style=""font-size: 60px; font-family: BACS"">rvUbcUN</p>","","","","","","","","",""
"html-keyboard-response","131","586922","0.0-10.0-0.42","5e87b28549538b0fdf96b318","650c16f0f2faf8d7a0d14c09","651c1c730bd3beb12c8cec76","null","null","<p style=""font-size: 60px; font-family: BACS"">Yadrcbm</p>","","","","","","","","",""
"html-keyboard-response","132","587937","0.0-10.0-0.43","5e87b28549538b0fdf96b318","650c16f0f2faf8d7a0d14c09","651c1c730bd3beb12c8cec76","null","null","<p style=""font-size: 60px; font-family: BACS"">KBKBEbTE</p>","","","","","","","","",""
"html-keyboard-response","133","588945","0.0-10.0-0.44","5e87b28549538b0fdf96b318","650c16f0f2faf8d7a0d14c09","651c1c730bd3beb12c8cec76","null","null","<p style=""font-size: 60px; font-family: BACS"">OCmkYDE</p>","","","","","","","","",""
"html-keyboard-response","134","589957","0.0-10.0-0.45","5e87b28549538b0fdf96b318","650c16f0f2faf8d7a0d14c09","651c1c730bd3beb12c8cec76","null","null","<p style=""font-size: 60px; font-family: BACS"">mrOdkGua</p>","","","","","","","","",""
"html-keyboard-response","135","590968","0.0-10.0-0.46","5e87b28549538b0fdf96b318","650c16f0f2faf8d7a0d14c09","651c1c730bd3beb12c8cec76","null","null","<p style=""font-size: 60px; font-family: BACS"">rvOvUcbm</p>","","","","","","","","",""
"html-keyboard-response","136","591972","0.0-10.0-0.47","5e87b28549538b0fdf96b318","650c16f0f2faf8d7a0d14c09","651c1c730bd3beb12c8cec76","null","null","<p style=""font-size: 60px; font-family: BACS"">kCRmRCdc</p>","","","","","","","","",""
"html-keyboard-response","137","592982","0.0-10.0-0.48","5e87b28549538b0fdf96b318","650c16f0f2faf8d7a0d14c09","651c1c730bd3beb12c8cec76","null","null","<p style=""font-size: 60px; font-family: BACS"">LcNUJcUN</p>","","","","","","","","",""
"html-keyboard-response","138","593985","0.0-10.0-0.49","5e87b28549538b0fdf96b318","650c16f0f2faf8d7a0d14c09","651c1c730bd3beb12c8cec76","null","null","<p style=""font-size: 60px; font-family: BACS"">kcCRtbTE</p>","","","","","","","","",""
"html-keyboard-response","139","594988","0.0-10.0-0.50","5e87b28549538b0fdf96b318","650c16f0f2faf8d7a0d14c09","651c1c730bd3beb12c8cec76","null","null","<p style=""font-size: 60px; font-family: BACS"">tDPRkBRDh</p>","","","","","","","","",""
"html-keyboard-response","140","595996","0.0-10.0-0.51","5e87b28549538b0fdf96b318","650c16f0f2faf8d7a0d14c09","651c1c730bd3beb12c8cec76","null","null","<p style=""font-size: 60px; font-family: BACS"">KBKBEdRA</p>","","","","","","","","",""
"html-keyboard-response","141","597012","0.0-10.0-0.52","5e87b28549538b0fdf96b318","650c16f0f2faf8d7a0d14c09","651c1c730bd3beb12c8cec76","null","null","<p style=""font-size: 60px; font-family: BACS"">tDPRkYDE</p>","","","","","","","","",""
"html-keyboard-response","142","598018","0.0-10.0-0.53","5e87b28549538b0fdf96b318","650c16f0f2faf8d7a0d14c09","651c1c730bd3beb12c8cec76","null","null","<p style=""font-size: 60px; font-family: BACS"">mrOdcbm</p>","","","","","","","","",""
"html-keyboard-response","143","599027","0.0-10.0-0.54","5e87b28549538b0fdf96b318","650c16f0f2faf8d7a0d14c09","651c1c730bd3beb12c8cec76","null","null","<p style=""font-size: 60px; font-family: BACS"">alJYkGua</p>","","","","","","","","",""
"html-keyboard-response","144","600040","0.0-10.0-0.55","5e87b28549538b0fdf96b318","650c16f0f2faf8d7a0d14c09","651c1c730bd3beb12c8cec76","null","null","<p style=""font-size: 60px; font-family: BACS"">BMEMAbTE</p>","","","","","","","","",""
"html-keyboard-response","145","601042","0.0-10.0-0.56","5e87b28549538b0fdf96b318","650c16f0f2faf8d7a0d14c09","651c1c730bd3beb12c8cec76","null","null","<p style=""font-size: 60px; font-family: BACS"">rGUAYcbm</p>","","","","","","","","",""
"html-keyboard-response","146","602057","0.0-10.0-0.57","5e87b28549538b0fdf96b318","650c16f0f2faf8d7a0d14c09","651c1c730bd3beb12c8cec76","null","null","<p style=""font-size: 60px; font-family: BACS"">dOYmlRCdc</p>","","","","","","","","",""
"html-keyboard-response","147","603066","0.0-10.0-0.58","5e87b28549538b0fdf96b318","650c16f0f2faf8d7a0d14c09","651c1c730bd3beb12c8cec76","null","null","<p style=""font-size: 60px; font-family: BACS"">BMEMABRDh</p>","","","","","","","","",""
"html-keyboard-response","148","604074","0.0-10.0-0.59","5e87b28549538b0fdf96b318","650c16f0f2faf8d7a0d14c09","651c1c730bd3beb12c8cec76","null","null","<p style=""font-size: 60px; font-family: BACS"">kcCRtYDE</p>","","","","","","","","",""
"html-keyboard-response","149","605086","0.0-10.0-0.60","5e87b28549538b0fdf96b318","650c16f0f2faf8d7a0d14c09","651c1c730bd3beb12c8cec76","null","null","<p style=""font-size: 60px; font-family: BACS"">OJGQkGua</p>","","","","","","","","",""
"html-keyboard-response","150","606094","0.0-10.0-0.61","5e87b28549538b0fdf96b318","650c16f0f2faf8d7a0d14c09","651c1c730bd3beb12c8cec76","null","null","<p style=""font-size: 60px; font-family: BACS"">AYkEhRCdc</p>","","","","","","","","",""
"html-keyboard-response","151","607102","0.0-10.0-0.62","5e87b28549538b0fdf96b318","650c16f0f2faf8d7a0d14c09","651c1c730bd3beb12c8cec76","null","null","<p style=""font-size: 60px; font-family: BACS"">dOYmlbTE</p>","","","","","","","","",""
"html-keyboard-response","152","608118","0.0-10.0-0.63","5e87b28549538b0fdf96b318","650c16f0f2faf8d7a0d14c09","651c1c730bd3beb12c8cec76","null","null","<p style=""font-size: 60px; font-family: BACS"">ZNLOvOQAr</p>","","","","","","","","",""
"html-keyboard-response","153","609132","0.0-10.0-0.64","5e87b28549538b0fdf96b318","650c16f0f2faf8d7a0d14c09","651c1c730bd3beb12c8cec76","null","null","<p style=""font-size: 60px; font-family: BACS"">AYkEhdRA</p>","","","","","","","","",""
"html-keyboard-response","154","610140","0.0-10.0-0.65","5e87b28549538b0fdf96b318","650c16f0f2faf8d7a0d14c09","651c1c730bd3beb12c8cec76","null","null","<p style=""font-size: 60px; font-family: BACS"">rvUbcbm</p>","","","","","","","","",""
"html-keyboard-response","155","611155","0.0-10.0-0.66","5e87b28549538b0fdf96b318","650c16f0f2faf8d7a0d14c09","651c1c730bd3beb12c8cec76","null","null","<p style=""font-size: 60px; font-family: BACS"">kZUbcYUv</p>","","","","","","","","",""
"html-keyboard-response","156","612170","0.0-10.0-0.67","5e87b28549538b0fdf96b318","650c16f0f2faf8d7a0d14c09","651c1c730bd3beb12c8cec76","null","null","<p style=""font-size: 60px; font-family: BACS"">YadrcUN</p>","","","","","","","","",""
"html-keyboard-response","157","613182","0.0-10.0-0.68","5e87b28549538b0fdf96b318","650c16f0f2faf8d7a0d14c09","651c1c730bd3beb12c8cec76","null","null","<p style=""font-size: 60px; font-family: BACS"">OJGQOQAr</p>","","","","","","","","",""
"html-keyboard-response","158","614186","0.0-10.0-0.69","5e87b28549538b0fdf96b318","650c16f0f2faf8d7a0d14c09","651c1c730bd3beb12c8cec76","null","null","<p style=""font-size: 60px; font-family: BACS"">TdTDdRA</p>","","","","","","","","",""
"html-keyboard-response","159","615196","0.0-10.0-0.70","5e87b28549538b0fdf96b318","650c16f0f2faf8d7a0d14c09","651c1c730bd3beb12c8cec76","null","null","<p style=""font-size: 60px; font-family: BACS"">rvUbcYUv</p>","","","","","","","","",""
"html-keyboard-response","160","616199","0.0-10.0-0.71","5e87b28549538b0fdf96b318","650c16f0f2faf8d7a0d14c09","651c1c730bd3beb12c8cec76","null","null","<p style=""font-size: 60px; font-family: BACS"">TdTDRCdc</p>","","","","","","","","",""
"html-keyboard-response","161","617214","0.0-10.0-0.72","5e87b28549538b0fdf96b318","650c16f0f2faf8d7a0d14c09","651c1c730bd3beb12c8cec76","null","null","<p style=""font-size: 60px; font-family: BACS"">YadrOQAr</p>","","","","","","","","",""
"html-keyboard-response","162","618228","0.0-10.0-0.73","5e87b28549538b0fdf96b318","650c16f0f2faf8d7a0d14c09","651c1c730bd3beb12c8cec76","null","null","<p style=""font-size: 60px; font-family: BACS"">tDPRkRCdc</p>","","","","","","","","",""
"html-keyboard-response","163","619237","0.0-10.0-0.74","5e87b28549538b0fdf96b318","650c16f0f2faf8d7a0d14c09","651c1c730bd3beb12c8cec76","null","null","<p style=""font-size: 60px; font-family: BACS"">ZNLOvcbm</p>","","","","","","","","",""
"html-keyboard-response","164","620243","0.0-10.0-0.75","5e87b28549538b0fdf96b318","650c16f0f2faf8d7a0d14c09","651c1c730bd3beb12c8cec76","null","null","<p style=""font-size: 60px; font-family: BACS"">tDPRkbTE</p>","","","","","","","","",""
"html-keyboard-response","165","621245","0.0-10.0-0.76","5e87b28549538b0fdf96b318","650c16f0f2faf8d7a0d14c09","651c1c730bd3beb12c8cec76","null","null","<p style=""font-size: 60px; font-family: BACS"">dOYmldRA</p>","","","","","","","","",""
"html-keyboard-response","166","622250","0.0-10.0-0.77","5e87b28549538b0fdf96b318","650c16f0f2faf8d7a0d14c09","651c1c730bd3beb12c8cec76","null","null","<p style=""font-size: 60px; font-family: BACS"">LcNUJOQAr</p>","","","","","","","","",""
"html-keyboard-response","167","623264","0.0-10.0-0.78","5e87b28549538b0fdf96b318","650c16f0f2faf8d7a0d14c09","651c1c730bd3beb12c8cec76","null","null","<p style=""font-size: 60px; font-family: BACS"">TdTDBRDh</p>","","","","","","","","",""
"html-keyboard-response","168","624269","0.0-10.0-0.79","5e87b28549538b0fdf96b318","650c16f0f2faf8d7a0d14c09","651c1c730bd3beb12c8cec76","null","null","<p style=""font-size: 60px; font-family: BACS"">kZUbcbm</p>","","","","","","","","",""
"html-keyboard-response","169","671805","0.0-11.0","5e87b28549538b0fdf96b318","650c16f0f2faf8d7a0d14c09","651c1c730bd3beb12c8cec76","47544"," ","<p>Great, you've seen the second block of words. You may now take a short break.</p>
      <p>Press the spacebar when you're ready to continue.</p>","","","","","","","","",""
"html-keyboard-response","170","672819","0.0-12.0-0.0","5e87b28549538b0fdf96b318","650c16f0f2faf8d7a0d14c09","651c1c730bd3beb12c8cec76","null","null","<p style=""font-size: 60px; font-family: BACS"">kZUbcYUv</p>","","","","","","","","",""
"html-keyboard-response","171","673832","0.0-12.0-0.1","5e87b28549538b0fdf96b318","650c16f0f2faf8d7a0d14c09","651c1c730bd3beb12c8cec76","null","null","<p style=""font-size: 60px; font-family: BACS"">OJGQOQAr</p>","","","","","","","","",""
"html-keyboard-response","172","674847","0.0-12.0-0.2","5e87b28549538b0fdf96b318","650c16f0f2faf8d7a0d14c09","651c1c730bd3beb12c8cec76","null","null","<p style=""font-size: 60px; font-family: BACS"">alJYcYUv</p>","","","","","","","","",""
"html-keyboard-response","173","675848","0.0-12.0-0.3","5e87b28549538b0fdf96b318","650c16f0f2faf8d7a0d14c09","651c1c730bd3beb12c8cec76","null","null","<p style=""font-size: 60px; font-family: BACS"">tDPRkRCdc</p>","","","","","","","","",""
"html-keyboard-response","174","676864","0.0-12.0-0.4","5e87b28549538b0fdf96b318","650c16f0f2faf8d7a0d14c09","651c1c730bd3beb12c8cec76","null","null","<p style=""font-size: 60px; font-family: BACS"">kZUbcUN</p>","","","","","","","","",""
"html-keyboard-response","175","677876","0.0-12.0-0.5","5e87b28549538b0fdf96b318","650c16f0f2faf8d7a0d14c09","651c1c730bd3beb12c8cec76","null","null","<p style=""font-size: 60px; font-family: BACS"">TdTDRCdc</p>","","","","","","","","",""
"html-keyboard-response","176","678892","0.0-12.0-0.6","5e87b28549538b0fdf96b318","650c16f0f2faf8d7a0d14c09","651c1c730bd3beb12c8cec76","null","null","<p style=""font-size: 60px; font-family: BACS"">rvOvUcYUv</p>","","","","","","","","",""
"html-keyboard-response","177","679898","0.0-12.0-0.7","5e87b28549538b0fdf96b318","650c16f0f2faf8d7a0d14c09","651c1c730bd3beb12c8cec76","null","null","<p style=""font-size: 60px; font-family: BACS"">tDPRkBRDh</p>","","","","","","","","",""
"html-keyboard-response","178","680908","0.0-12.0-0.8","5e87b28549538b0fdf96b318","650c16f0f2faf8d7a0d14c09","651c1c730bd3beb12c8cec76","null","null","<p style=""font-size: 60px; font-family: BACS"">mrOdOQAr</p>","","","","","","","","",""
"html-keyboard-response","179","681912","0.0-12.0-0.9","5e87b28549538b0fdf96b318","650c16f0f2faf8d7a0d14c09","651c1c730bd3beb12c8cec76","null","null","<p style=""font-size: 60px; font-family: BACS"">AYkEhYDE</p>","","","","","","","","",""
"html-keyboard-response","180","682928","0.0-12.0-0.10","5e87b28549538b0fdf96b318","650c16f0f2faf8d7a0d14c09","651c1c730bd3beb12c8cec76","null","null","<p style=""font-size: 60px; font-family: BACS"">OCmkdRA</p>","","","","","","","","",""
"html-keyboard-response","181","683939","0.0-12.0-0.11","5e87b28549538b0fdf96b318","650c16f0f2faf8d7a0d14c09","651c1c730bd3beb12c8cec76","null","null","<p style=""font-size: 60px; font-family: BACS"">KABARCdc</p>","","","","","","","","",""
"html-keyboard-response","182","684944","0.0-12.0-0.12","5e87b28549538b0fdf96b318","650c16f0f2faf8d7a0d14c09","651c1c730bd3beb12c8cec76","null","null","<p style=""font-size: 60px; font-family: BACS"">LcNUJcUN</p>","","","","","","","","",""
"html-keyboard-response","183","685954","0.0-12.0-0.13","5e87b28549538b0fdf96b318","650c16f0f2faf8d7a0d14c09","651c1c730bd3beb12c8cec76","null","null","<p style=""font-size: 60px; font-family: BACS"">KBKBEbTE</p>","","","","","","","","",""
"html-keyboard-response","184","686959","0.0-12.0-0.14","5e87b28549538b0fdf96b318","650c16f0f2faf8d7a0d14c09","651c1c730bd3beb12c8cec76","null","null","<p style=""font-size: 60px; font-family: BACS"">mrOdcbm</p>","","","","","","","","",""
"html-keyboard-response","185","687974","0.0-12.0-0.15","5e87b28549538b0fdf96b318","650c16f0f2faf8d7a0d14c09","651c1c730bd3beb12c8cec76","null","null","<p style=""font-size: 60px; font-family: BACS"">TdTDdRA</p>","","","","","","","","",""
"html-keyboard-response","186","688984","0.0-12.0-0.16","5e87b28549538b0fdf96b318","650c16f0f2faf8d7a0d14c09","651c1c730bd3beb12c8cec76","null","null","<p style=""font-size: 60px; font-family: BACS"">kCRmBRDh</p>","","","","","","","","",""
"html-keyboard-response","187","689999","0.0-12.0-0.17","5e87b28549538b0fdf96b318","650c16f0f2faf8d7a0d14c09","651c1c730bd3beb12c8cec76","null","null","<p style=""font-size: 60px; font-family: BACS"">rGUAYkGua</p>","","","","","","","","",""
"html-keyboard-response","188","691003","0.0-12.0-0.18","5e87b28549538b0fdf96b318","650c16f0f2faf8d7a0d14c09","651c1c730bd3beb12c8cec76","null","null","<p style=""font-size: 60px; font-family: BACS"">TdTDBRDh</p>","","","","","","","","",""
"html-keyboard-response","189","692006","0.0-12.0-0.19","5e87b28549538b0fdf96b318","650c16f0f2faf8d7a0d14c09","651c1c730bd3beb12c8cec76","null","null","<p style=""font-size: 60px; font-family: BACS"">dOYmlbTE</p>","","","","","","","","",""
"html-keyboard-response","190","693014","0.0-12.0-0.20","5e87b28549538b0fdf96b318","650c16f0f2faf8d7a0d14c09","651c1c730bd3beb12c8cec76","null","null","<p style=""font-size: 60px; font-family: BACS"">AYkEhRCdc</p>","","","","","","","","",""
"html-keyboard-response","191","694020","0.0-12.0-0.21","5e87b28549538b0fdf96b318","650c16f0f2faf8d7a0d14c09","651c1c730bd3beb12c8cec76","null","null","<p style=""font-size: 60px; font-family: BACS"">YadrOQAr</p>","","","","","","","","",""
"html-keyboard-response","192","695034","0.0-12.0-0.22","5e87b28549538b0fdf96b318","650c16f0f2faf8d7a0d14c09","651c1c730bd3beb12c8cec76","null","null","<p style=""font-size: 60px; font-family: BACS"">kcCRtBRDh</p>","","","","","","","","",""
"html-keyboard-response","193","696048","0.0-12.0-0.23","5e87b28549538b0fdf96b318","650c16f0f2faf8d7a0d14c09","651c1c730bd3beb12c8cec76","null","null","<p style=""font-size: 60px; font-family: BACS"">rvUbcYUv</p>","","","","","","","","",""
"html-keyboard-response","194","697060","0.0-12.0-0.24","5e87b28549538b0fdf96b318","650c16f0f2faf8d7a0d14c09","651c1c730bd3beb12c8cec76","null","null","<p style=""font-size: 60px; font-family: BACS"">BMEMABRDh</p>","","","","","","","","",""
"html-keyboard-response","195","698074","0.0-12.0-0.25","5e87b28549538b0fdf96b318","650c16f0f2faf8d7a0d14c09","651c1c730bd3beb12c8cec76","null","null","<p style=""font-size: 60px; font-family: BACS"">tDPRkYDE</p>","","","","","","","","",""
"html-keyboard-response","196","699081","0.0-12.0-0.26","5e87b28549538b0fdf96b318","650c16f0f2faf8d7a0d14c09","651c1c730bd3beb12c8cec76","null","null","<p style=""font-size: 60px; font-family: BACS"">rvUbcUN</p>","","","","","","","","",""
"html-keyboard-response","197","700096","0.0-12.0-0.27","5e87b28549538b0fdf96b318","650c16f0f2faf8d7a0d14c09","651c1c730bd3beb12c8cec76","null","null","<p style=""font-size: 60px; font-family: BACS"">OJGQcYUv</p>","","","","","","","","",""
"html-keyboard-response","198","701111","0.0-12.0-0.28","5e87b28549538b0fdf96b318","650c16f0f2faf8d7a0d14c09","651c1c730bd3beb12c8cec76","null","null","<p style=""font-size: 60px; font-family: BACS"">KABAYDE</p>","","","","","","","","",""
"html-keyboard-response","199","702126","0.0-12.0-0.29","5e87b28549538b0fdf96b318","650c16f0f2faf8d7a0d14c09","651c1c730bd3beb12c8cec76","null","null","<p style=""font-size: 60px; font-family: BACS"">Yadrcbm</p>","","","","","","","","",""
"html-keyboard-response","200","703137","0.0-12.0-0.30","5e87b28549538b0fdf96b318","650c16f0f2faf8d7a0d14c09","651c1c730bd3beb12c8cec76","null","null","<p style=""font-size: 60px; font-family: BACS"">mrOdkGua</p>","","","","","","","","",""
"html-keyboard-response","201","704151","0.0-12.0-0.31","5e87b28549538b0fdf96b318","650c16f0f2faf8d7a0d14c09","651c1c730bd3beb12c8cec76","null","null","<p style=""font-size: 60px; font-family: BACS"">LcNUJcYUv</p>","","","","","","","","",""
"html-keyboard-response","202","705167","0.0-12.0-0.32","5e87b28549538b0fdf96b318","650c16f0f2faf8d7a0d14c09","651c1c730bd3beb12c8cec76","null","null","<p style=""font-size: 60px; font-family: BACS"">rvUbcbm</p>","","","","","","","","",""
"html-keyboard-response","203","706183","0.0-12.0-0.33","5e87b28549538b0fdf96b318","650c16f0f2faf8d7a0d14c09","651c1c730bd3beb12c8cec76","null","null","<p style=""font-size: 60px; font-family: BACS"">dOYmlRCdc</p>","","","","","","","","",""
"html-keyboard-response","204","707197","0.0-12.0-0.34","5e87b28549538b0fdf96b318","650c16f0f2faf8d7a0d14c09","651c1c730bd3beb12c8cec76","null","null","<p style=""font-size: 60px; font-family: BACS"">rGUAYcbm</p>","","","","","","","","",""
"html-keyboard-response","205","708202","0.0-12.0-0.35","5e87b28549538b0fdf96b318","650c16f0f2faf8d7a0d14c09","651c1c730bd3beb12c8cec76","null","null","<p style=""font-size: 60px; font-family: BACS"">OCmkbTE</p>","","","","","","","","",""
"html-keyboard-response","206","709212","0.0-12.0-0.36","5e87b28549538b0fdf96b318","650c16f0f2faf8d7a0d14c09","651c1c730bd3beb12c8cec76","null","null","<p style=""font-size: 60px; font-family: BACS"">kcCRtRCdc</p>","","","","","","","","",""
"html-keyboard-response","207","710226","0.0-12.0-0.37","5e87b28549538b0fdf96b318","650c16f0f2faf8d7a0d14c09","651c1c730bd3beb12c8cec76","null","null","<p style=""font-size: 60px; font-family: BACS"">rvOvUcUN</p>","","","","","","","","",""
"html-keyboard-response","208","711231","0.0-12.0-0.38","5e87b28549538b0fdf96b318","650c16f0f2faf8d7a0d14c09","651c1c730bd3beb12c8cec76","null","null","<p style=""font-size: 60px; font-family: BACS"">YadrkGua</p>","","","","","","","","",""
"html-keyboard-response","209","712245","0.0-12.0-0.39","5e87b28549538b0fdf96b318","650c16f0f2faf8d7a0d14c09","651c1c730bd3beb12c8cec76","null","null","<p style=""font-size: 60px; font-family: BACS"">ZNLOvcUN</p>","","","","","","","","",""
"html-keyboard-response","210","713259","0.0-12.0-0.40","5e87b28549538b0fdf96b318","650c16f0f2faf8d7a0d14c09","651c1c730bd3beb12c8cec76","null","null","<p style=""font-size: 60px; font-family: BACS"">alJYcbm</p>","","","","","","","","",""
"html-keyboard-response","211","714274","0.0-12.0-0.41","5e87b28549538b0fdf96b318","650c16f0f2faf8d7a0d14c09","651c1c730bd3beb12c8cec76","null","null","<p style=""font-size: 60px; font-family: BACS"">rGUAYcUN</p>","","","","","","","","",""
"html-keyboard-response","212","715287","0.0-12.0-0.42","5e87b28549538b0fdf96b318","650c16f0f2faf8d7a0d14c09","651c1c730bd3beb12c8cec76","null","null","<p style=""font-size: 60px; font-family: BACS"">KBKBEYDE</p>","","","","","","","","",""
"html-keyboard-response","213","716303","0.0-12.0-0.43","5e87b28549538b0fdf96b318","650c16f0f2faf8d7a0d14c09","651c1c730bd3beb12c8cec76","null","null","<p style=""font-size: 60px; font-family: BACS"">OJGQcUN</p>","","","","","","","","",""
"html-keyboard-response","214","717304","0.0-12.0-0.44","5e87b28549538b0fdf96b318","650c16f0f2faf8d7a0d14c09","651c1c730bd3beb12c8cec76","null","null","<p style=""font-size: 60px; font-family: BACS"">OCmkRCdc</p>","","","","","","","","",""
"html-keyboard-response","215","718314","0.0-12.0-0.45","5e87b28549538b0fdf96b318","650c16f0f2faf8d7a0d14c09","651c1c730bd3beb12c8cec76","null","null","<p style=""font-size: 60px; font-family: BACS"">rGUAYcYUv</p>","","","","","","","","",""
"html-keyboard-response","216","719324","0.0-12.0-0.46","5e87b28549538b0fdf96b318","650c16f0f2faf8d7a0d14c09","651c1c730bd3beb12c8cec76","null","null","<p style=""font-size: 60px; font-family: BACS"">alJYkGua</p>","","","","","","","","",""
"html-keyboard-response","217","720327","0.0-12.0-0.47","5e87b28549538b0fdf96b318","650c16f0f2faf8d7a0d14c09","651c1c730bd3beb12c8cec76","null","null","<p style=""font-size: 60px; font-family: BACS"">tDPRkbTE</p>","","","","","","","","",""
"html-keyboard-response","218","721338","0.0-12.0-0.48","5e87b28549538b0fdf96b318","650c16f0f2faf8d7a0d14c09","651c1c730bd3beb12c8cec76","null","null","<p style=""font-size: 60px; font-family: BACS"">kCRmdRA</p>","","","","","","","","",""
"html-keyboard-response","219","722353","0.0-12.0-0.49","5e87b28549538b0fdf96b318","650c16f0f2faf8d7a0d14c09","651c1c730bd3beb12c8cec76","null","null","<p style=""font-size: 60px; font-family: BACS"">LcNUJkGua</p>","","","","","","","","",""
"html-keyboard-response","220","723358","0.0-12.0-0.50","5e87b28549538b0fdf96b318","650c16f0f2faf8d7a0d14c09","651c1c730bd3beb12c8cec76","null","null","<p style=""font-size: 60px; font-family: BACS"">BMEMAdRA</p>","","","","","","","","",""
"html-keyboard-response","221","724366","0.0-12.0-0.51","5e87b28549538b0fdf96b318","650c16f0f2faf8d7a0d14c09","651c1c730bd3beb12c8cec76","null","null","<p style=""font-size: 60px; font-family: BACS"">rvUbkGua</p>","","","","","","","","",""
"html-keyboard-response","222","725367","0.0-12.0-0.52","5e87b28549538b0fdf96b318","650c16f0f2faf8d7a0d14c09","651c1c730bd3beb12c8cec76","null","null","<p style=""font-size: 60px; font-family: BACS"">kCRmbTE</p>","","","","","","","","",""
"html-keyboard-response","223","726382","0.0-12.0-0.53","5e87b28549538b0fdf96b318","650c16f0f2faf8d7a0d14c09","651c1c730bd3beb12c8cec76","null","null","<p style=""font-size: 60px; font-family: BACS"">YadrcUN</p>","","","","","","","","",""
"html-keyboard-response","224","727396","0.0-12.0-0.54","5e87b28549538b0fdf96b318","650c16f0f2faf8d7a0d14c09","651c1c730bd3beb12c8cec76","null","null","<p style=""font-size: 60px; font-family: BACS"">KABAbTE</p>","","","","","","","","",""
"html-keyboard-response","225","728397","0.0-12.0-0.55","5e87b28549538b0fdf96b318","650c16f0f2faf8d7a0d14c09","651c1c730bd3beb12c8cec76","null","null","<p style=""font-size: 60px; font-family: BACS"">rvOvUcbm</p>","","","","","","","","",""
"html-keyboard-response","226","729412","0.0-12.0-0.56","5e87b28549538b0fdf96b318","650c16f0f2faf8d7a0d14c09","651c1c730bd3beb12c8cec76","null","null","<p style=""font-size: 60px; font-family: BACS"">BMEMAbTE</p>","","","","","","","","",""
"html-keyboard-response","227","730427","0.0-12.0-0.57","5e87b28549538b0fdf96b318","650c16f0f2faf8d7a0d14c09","651c1c730bd3beb12c8cec76","null","null","<p style=""font-size: 60px; font-family: BACS"">ZNLOvkGua</p>","","","","","","","","",""
"html-keyboard-response","228","731444","0.0-12.0-0.58","5e87b28549538b0fdf96b318","650c16f0f2faf8d7a0d14c09","651c1c730bd3beb12c8cec76","null","null","<p style=""font-size: 60px; font-family: BACS"">kcCRtbTE</p>","","","","","","","","",""
"html-keyboard-response","229","732457","0.0-12.0-0.59","5e87b28549538b0fdf96b318","650c16f0f2faf8d7a0d14c09","651c1c730bd3beb12c8cec76","null","null","<p style=""font-size: 60px; font-family: BACS"">kCRmRCdc</p>","","","","","","","","",""
"html-keyboard-response","230","733474","0.0-12.0-0.60","5e87b28549538b0fdf96b318","650c16f0f2faf8d7a0d14c09","651c1c730bd3beb12c8cec76","null","null","<p style=""font-size: 60px; font-family: BACS"">dOYmlBRDh</p>","","","","","","","","",""
"html-keyboard-response","231","734485","0.0-12.0-0.61","5e87b28549538b0fdf96b318","650c16f0f2faf8d7a0d14c09","651c1c730bd3beb12c8cec76","null","null","<p style=""font-size: 60px; font-family: BACS"">OCmkYDE</p>","","","","","","","","",""
"html-keyboard-response","232","735500","0.0-12.0-0.62","5e87b28549538b0fdf96b318","650c16f0f2faf8d7a0d14c09","651c1c730bd3beb12c8cec76","null","null","<p style=""font-size: 60px; font-family: BACS"">mrOdcYUv</p>","","","","","","","","",""
"html-keyboard-response","233","736517","0.0-12.0-0.63","5e87b28549538b0fdf96b318","650c16f0f2faf8d7a0d14c09","651c1c730bd3beb12c8cec76","null","null","<p style=""font-size: 60px; font-family: BACS"">BMEMAYDE</p>","","","","","","","","",""
"html-keyboard-response","234","737529","0.0-12.0-0.64","5e87b28549538b0fdf96b318","650c16f0f2faf8d7a0d14c09","651c1c730bd3beb12c8cec76","null","null","<p style=""font-size: 60px; font-family: BACS"">LcNUJOQAr</p>","","","","","","","","",""
"html-keyboard-response","235","738539","0.0-12.0-0.65","5e87b28549538b0fdf96b318","650c16f0f2faf8d7a0d14c09","651c1c730bd3beb12c8cec76","null","null","<p style=""font-size: 60px; font-family: BACS"">kZUbcbm</p>","","","","","","","","",""
"html-keyboard-response","236","739546","0.0-12.0-0.66","5e87b28549538b0fdf96b318","650c16f0f2faf8d7a0d14c09","651c1c730bd3beb12c8cec76","null","null","<p style=""font-size: 60px; font-family: BACS"">rvOvUOQAr</p>","","","","","","","","",""
"html-keyboard-response","237","740550","0.0-12.0-0.67","5e87b28549538b0fdf96b318","650c16f0f2faf8d7a0d14c09","651c1c730bd3beb12c8cec76","null","null","<p style=""font-size: 60px; font-family: BACS"">OJGQkGua</p>","","","","","","","","",""
"html-keyboard-response","238","741560","0.0-12.0-0.68","5e87b28549538b0fdf96b318","650c16f0f2faf8d7a0d14c09","651c1c730bd3beb12c8cec76","null","null","<p style=""font-size: 60px; font-family: BACS"">KBKBEBRDh</p>","","","","","","","","",""
"html-keyboard-response","239","742565","0.0-12.0-0.69","5e87b28549538b0fdf96b318","650c16f0f2faf8d7a0d14c09","651c1c730bd3beb12c8cec76","null","null","<p style=""font-size: 60px; font-family: BACS"">ZNLOvOQAr</p>","","","","","","","","",""
"html-keyboard-response","240","743572","0.0-12.0-0.70","5e87b28549538b0fdf96b318","650c16f0f2faf8d7a0d14c09","651c1c730bd3beb12c8cec76","null","null","<p style=""font-size: 60px; font-family: BACS"">AYkEhdRA</p>","","","","","","","","",""
"html-keyboard-response","241","744575","0.0-12.0-0.71","5e87b28549538b0fdf96b318","650c16f0f2faf8d7a0d14c09","651c1c730bd3beb12c8cec76","null","null","<p style=""font-size: 60px; font-family: BACS"">TdTDYDE</p>","","","","","","","","",""
"html-keyboard-response","242","745590","0.0-12.0-0.72","5e87b28549538b0fdf96b318","650c16f0f2faf8d7a0d14c09","651c1c730bd3beb12c8cec76","null","null","<p style=""font-size: 60px; font-family: BACS"">alJYOQAr</p>","","","","","","","","",""
"html-keyboard-response","243","746603","0.0-12.0-0.73","5e87b28549538b0fdf96b318","650c16f0f2faf8d7a0d14c09","651c1c730bd3beb12c8cec76","null","null","<p style=""font-size: 60px; font-family: BACS"">KBKBEdRA</p>","","","","","","","","",""
"html-keyboard-response","244","747608","0.0-12.0-0.74","5e87b28549538b0fdf96b318","650c16f0f2faf8d7a0d14c09","651c1c730bd3beb12c8cec76","null","null","<p style=""font-size: 60px; font-family: BACS"">kcCRtYDE</p>","","","","","","","","",""
"html-keyboard-response","245","748621","0.0-12.0-0.75","5e87b28549538b0fdf96b318","650c16f0f2faf8d7a0d14c09","651c1c730bd3beb12c8cec76","null","null","<p style=""font-size: 60px; font-family: BACS"">kZUbOQAr</p>","","","","","","","","",""
"html-keyboard-response","246","749636","0.0-12.0-0.76","5e87b28549538b0fdf96b318","650c16f0f2faf8d7a0d14c09","651c1c730bd3beb12c8cec76","null","null","<p style=""font-size: 60px; font-family: BACS"">AYkEhBRDh</p>","","","","","","","","",""
"html-keyboard-response","247","750653","0.0-12.0-0.77","5e87b28549538b0fdf96b318","650c16f0f2faf8d7a0d14c09","651c1c730bd3beb12c8cec76","null","null","<p style=""font-size: 60px; font-family: BACS"">dOYmldRA</p>","","","","","","","","",""
"html-keyboard-response","248","751668","0.0-12.0-0.78","5e87b28549538b0fdf96b318","650c16f0f2faf8d7a0d14c09","651c1c730bd3beb12c8cec76","null","null","<p style=""font-size: 60px; font-family: BACS"">ZNLOvcbm</p>","","","","","","","","",""
"html-keyboard-response","249","752684","0.0-12.0-0.79","5e87b28549538b0fdf96b318","650c16f0f2faf8d7a0d14c09","651c1c730bd3beb12c8cec76","null","null","<p style=""font-size: 60px; font-family: BACS"">KABAdRA</p>","","","","","","","","",""
"html-keyboard-response","250","799134","0.0-13.0","5e87b28549538b0fdf96b318","650c16f0f2faf8d7a0d14c09","651c1c730bd3beb12c8cec76","46450"," ","<p>Great, you've seen the third block of words. You may now take a short break.</p>
      <p>Press the spacebar when you're ready to continue.</p>","","","","","","","","",""
"html-keyboard-response","251","800145","0.0-14.0-0.0","5e87b28549538b0fdf96b318","650c16f0f2faf8d7a0d14c09","651c1c730bd3beb12c8cec76","null","null","<p style=""font-size: 60px; font-family: BACS"">rvOvUcYUv</p>","","","","","","","","",""
"html-keyboard-response","252","801151","0.0-14.0-0.1","5e87b28549538b0fdf96b318","650c16f0f2faf8d7a0d14c09","651c1c730bd3beb12c8cec76","null","null","<p style=""font-size: 60px; font-family: BACS"">BMEMAYDE</p>","","","","","","","","",""
"html-keyboard-response","253","802156","0.0-14.0-0.2","5e87b28549538b0fdf96b318","650c16f0f2faf8d7a0d14c09","651c1c730bd3beb12c8cec76","null","null","<p style=""font-size: 60px; font-family: BACS"">LcNUJcYUv</p>","","","","","","","","",""
"html-keyboard-response","254","803158","0.0-14.0-0.3","5e87b28549538b0fdf96b318","650c16f0f2faf8d7a0d14c09","651c1c730bd3beb12c8cec76","null","null","<p style=""font-size: 60px; font-family: BACS"">KABARCdc</p>","","","","","","","","",""
"html-keyboard-response","255","804164","0.0-14.0-0.4","5e87b28549538b0fdf96b318","650c16f0f2faf8d7a0d14c09","651c1c730bd3beb12c8cec76","null","null","<p style=""font-size: 60px; font-family: BACS"">LcNUJOQAr</p>","","","","","","","","",""
"html-keyboard-response","256","805167","0.0-14.0-0.5","5e87b28549538b0fdf96b318","650c16f0f2faf8d7a0d14c09","651c1c730bd3beb12c8cec76","null","null","<p style=""font-size: 60px; font-family: BACS"">kZUbcYUv</p>","","","","","","","","",""
"html-keyboard-response","257","806170","0.0-14.0-0.6","5e87b28549538b0fdf96b318","650c16f0f2faf8d7a0d14c09","651c1c730bd3beb12c8cec76","null","null","<p style=""font-size: 60px; font-family: BACS"">mrOdOQAr</p>","","","","","","","","",""
"html-keyboard-response","258","807181","0.0-14.0-0.7","5e87b28549538b0fdf96b318","650c16f0f2faf8d7a0d14c09","651c1c730bd3beb12c8cec76","null","null","<p style=""font-size: 60px; font-family: BACS"">kCRmbTE</p>","","","","","","","","",""
"html-keyboard-response","259","808182","0.0-14.0-0.8","5e87b28549538b0fdf96b318","650c16f0f2faf8d7a0d14c09","651c1c730bd3beb12c8cec76","null","null","<p style=""font-size: 60px; font-family: BACS"">rGUAYcYUv</p>","","","","","","","","",""
"html-keyboard-response","260","809201","0.0-14.0-0.9","5e87b28549538b0fdf96b318","650c16f0f2faf8d7a0d14c09","651c1c730bd3beb12c8cec76","null","null","<p style=""font-size: 60px; font-family: BACS"">OCmkRCdc</p>","","","","","","","","",""
"html-keyboard-response","261","810212","0.0-14.0-0.10","5e87b28549538b0fdf96b318","650c16f0f2faf8d7a0d14c09","651c1c730bd3beb12c8cec76","null","null","<p style=""font-size: 60px; font-family: BACS"">KBKBEbTE</p>","","","","","","","","",""
"html-keyboard-response","262","811215","0.0-14.0-0.11","5e87b28549538b0fdf96b318","650c16f0f2faf8d7a0d14c09","651c1c730bd3beb12c8cec76","null","null","<p style=""font-size: 60px; font-family: BACS"">dOYmlBRDh</p>","","","","","","","","",""
"html-keyboard-response","263","812230","0.0-14.0-0.12","5e87b28549538b0fdf96b318","650c16f0f2faf8d7a0d14c09","651c1c730bd3beb12c8cec76","null","null","<p style=""font-size: 60px; font-family: BACS"">LcNUJkGua</p>","","","","","","","","",""
"html-keyboard-response","264","813236","0.0-14.0-0.13","5e87b28549538b0fdf96b318","650c16f0f2faf8d7a0d14c09","651c1c730bd3beb12c8cec76","null","null","<p style=""font-size: 60px; font-family: BACS"">OJGQOQAr</p>","","","","","","","","",""
"html-keyboard-response","265","814253","0.0-14.0-0.14","5e87b28549538b0fdf96b318","650c16f0f2faf8d7a0d14c09","651c1c730bd3beb12c8cec76","null","null","<p style=""font-size: 60px; font-family: BACS"">TdTDRCdc</p>","","","","","","","","",""
"html-keyboard-response","266","815254","0.0-14.0-0.15","5e87b28549538b0fdf96b318","650c16f0f2faf8d7a0d14c09","651c1c730bd3beb12c8cec76","null","null","<p style=""font-size: 60px; font-family: BACS"">YadrOQAr</p>","","","","","","","","",""
"html-keyboard-response","267","816258","0.0-14.0-0.16","5e87b28549538b0fdf96b318","650c16f0f2faf8d7a0d14c09","651c1c730bd3beb12c8cec76","null","null","<p style=""font-size: 60px; font-family: BACS"">TdTDBRDh</p>","","","","","","","","",""
"html-keyboard-response","268","817268","0.0-14.0-0.17","5e87b28549538b0fdf96b318","650c16f0f2faf8d7a0d14c09","651c1c730bd3beb12c8cec76","null","null","<p style=""font-size: 60px; font-family: BACS"">alJYkGua</p>","","","","","","","","",""
"html-keyboard-response","269","818283","0.0-14.0-0.18","5e87b28549538b0fdf96b318","650c16f0f2faf8d7a0d14c09","651c1c730bd3beb12c8cec76","null","null","<p style=""font-size: 60px; font-family: BACS"">KABAYDE</p>","","","","","","","","",""
"html-keyboard-response","270","819287","0.0-14.0-0.19","5e87b28549538b0fdf96b318","650c16f0f2faf8d7a0d14c09","651c1c730bd3beb12c8cec76","null","null","<p style=""font-size: 60px; font-family: BACS"">TdTDdRA</p>","","","","","","","","",""
"html-keyboard-response","271","820298","0.0-14.0-0.20","5e87b28549538b0fdf96b318","650c16f0f2faf8d7a0d14c09","651c1c730bd3beb12c8cec76","null","null","<p style=""font-size: 60px; font-family: BACS"">ZNLOvOQAr</p>","","","","","","","","",""
"html-keyboard-response","272","821316","0.0-14.0-0.21","5e87b28549538b0fdf96b318","650c16f0f2faf8d7a0d14c09","651c1c730bd3beb12c8cec76","null","null","<p style=""font-size: 60px; font-family: BACS"">AYkEhdRA</p>","","","","","","","","",""
"html-keyboard-response","273","822331","0.0-14.0-0.22","5e87b28549538b0fdf96b318","650c16f0f2faf8d7a0d14c09","651c1c730bd3beb12c8cec76","null","null","<p style=""font-size: 60px; font-family: BACS"">kcCRtYDE</p>","","","","","","","","",""
"html-keyboard-response","274","823347","0.0-14.0-0.23","5e87b28549538b0fdf96b318","650c16f0f2faf8d7a0d14c09","651c1c730bd3beb12c8cec76","null","null","<p style=""font-size: 60px; font-family: BACS"">ZNLOvcUN</p>","","","","","","","","",""
"html-keyboard-response","275","824355","0.0-14.0-0.24","5e87b28549538b0fdf96b318","650c16f0f2faf8d7a0d14c09","651c1c730bd3beb12c8cec76","null","null","<p style=""font-size: 60px; font-family: BACS"">mrOdcbm</p>","","","","","","","","",""
"html-keyboard-response","276","825364","0.0-14.0-0.25","5e87b28549538b0fdf96b318","650c16f0f2faf8d7a0d14c09","651c1c730bd3beb12c8cec76","null","null","<p style=""font-size: 60px; font-family: BACS"">dOYmlRCdc</p>","","","","","","","","",""
"html-keyboard-response","277","826379","0.0-14.0-0.26","5e87b28549538b0fdf96b318","650c16f0f2faf8d7a0d14c09","651c1c730bd3beb12c8cec76","null","null","<p style=""font-size: 60px; font-family: BACS"">tDPRkBRDh</p>","","","","","","","","",""
"html-keyboard-response","278","827385","0.0-14.0-0.27","5e87b28549538b0fdf96b318","650c16f0f2faf8d7a0d14c09","651c1c730bd3beb12c8cec76","null","null","<p style=""font-size: 60px; font-family: BACS"">ZNLOvcbm</p>","","","","","","","","",""
"html-keyboard-response","279","828386","0.0-14.0-0.28","5e87b28549538b0fdf96b318","650c16f0f2faf8d7a0d14c09","651c1c730bd3beb12c8cec76","null","null","<p style=""font-size: 60px; font-family: BACS"">alJYcYUv</p>","","","","","","","","",""
"html-keyboard-response","280","829399","0.0-14.0-0.29","5e87b28549538b0fdf96b318","650c16f0f2faf8d7a0d14c09","651c1c730bd3beb12c8cec76","null","null","<p style=""font-size: 60px; font-family: BACS"">Yadrcbm</p>","","","","","","","","",""
"html-keyboard-response","281","830414","0.0-14.0-0.30","5e87b28549538b0fdf96b318","650c16f0f2faf8d7a0d14c09","651c1c730bd3beb12c8cec76","null","null","<p style=""font-size: 60px; font-family: BACS"">BMEMAdRA</p>","","","","","","","","",""
"html-keyboard-response","282","831430","0.0-14.0-0.31","5e87b28549538b0fdf96b318","650c16f0f2faf8d7a0d14c09","651c1c730bd3beb12c8cec76","null","null","<p style=""font-size: 60px; font-family: BACS"">YadrkGua</p>","","","","","","","","",""
"html-keyboard-response","283","832442","0.0-14.0-0.32","5e87b28549538b0fdf96b318","650c16f0f2faf8d7a0d14c09","651c1c730bd3beb12c8cec76","null","null","<p style=""font-size: 60px; font-family: BACS"">kcCRtbTE</p>","","","","","","","","",""
"html-keyboard-response","284","833458","0.0-14.0-0.33","5e87b28549538b0fdf96b318","650c16f0f2faf8d7a0d14c09","651c1c730bd3beb12c8cec76","null","null","<p style=""font-size: 60px; font-family: BACS"">kCRmdRA</p>","","","","","","","","",""
"html-keyboard-response","285","834475","0.0-14.0-0.34","5e87b28549538b0fdf96b318","650c16f0f2faf8d7a0d14c09","651c1c730bd3beb12c8cec76","null","null","<p style=""font-size: 60px; font-family: BACS"">rvOvUOQAr</p>","","","","","","","","",""
"html-keyboard-response","286","835479","0.0-14.0-0.35","5e87b28549538b0fdf96b318","650c16f0f2faf8d7a0d14c09","651c1c730bd3beb12c8cec76","null","null","<p style=""font-size: 60px; font-family: BACS"">OCmkdRA</p>","","","","","","","","",""
"html-keyboard-response","287","836486","0.0-14.0-0.36","5e87b28549538b0fdf96b318","650c16f0f2faf8d7a0d14c09","651c1c730bd3beb12c8cec76","null","null","<p style=""font-size: 60px; font-family: BACS"">dOYmlbTE</p>","","","","","","","","",""
"html-keyboard-response","288","837492","0.0-14.0-0.37","5e87b28549538b0fdf96b318","650c16f0f2faf8d7a0d14c09","651c1c730bd3beb12c8cec76","null","null","<p style=""font-size: 60px; font-family: BACS"">kCRmRCdc</p>","","","","","","","","",""
"html-keyboard-response","289","838501","0.0-14.0-0.38","5e87b28549538b0fdf96b318","650c16f0f2faf8d7a0d14c09","651c1c730bd3beb12c8cec76","null","null","<p style=""font-size: 60px; font-family: BACS"">alJYcbm</p>","","","","","","","","",""
"html-keyboard-response","290","839504","0.0-14.0-0.39","5e87b28549538b0fdf96b318","650c16f0f2faf8d7a0d14c09","651c1c730bd3beb12c8cec76","null","null","<p style=""font-size: 60px; font-family: BACS"">rvUbcUN</p>","","","","","","","","",""
"html-keyboard-response","291","840506","0.0-14.0-0.40","5e87b28549538b0fdf96b318","650c16f0f2faf8d7a0d14c09","651c1c730bd3beb12c8cec76","null","null","<p style=""font-size: 60px; font-family: BACS"">tDPRkYDE</p>","","","","","","","","",""
"html-keyboard-response","292","841520","0.0-14.0-0.41","5e87b28549538b0fdf96b318","650c16f0f2faf8d7a0d14c09","651c1c730bd3beb12c8cec76","null","null","<p style=""font-size: 60px; font-family: BACS"">kZUbcbm</p>","","","","","","","","",""
"html-keyboard-response","293","842522","0.0-14.0-0.42","5e87b28549538b0fdf96b318","650c16f0f2faf8d7a0d14c09","651c1c730bd3beb12c8cec76","null","null","<p style=""font-size: 60px; font-family: BACS"">KABAdRA</p>","","","","","","","","",""
"html-keyboard-response","294","843536","0.0-14.0-0.43","5e87b28549538b0fdf96b318","650c16f0f2faf8d7a0d14c09","651c1c730bd3beb12c8cec76","null","null","<p style=""font-size: 60px; font-family: BACS"">kcCRtRCdc</p>","","","","","","","","",""
"html-keyboard-response","295","844550","0.0-14.0-0.44","5e87b28549538b0fdf96b318","650c16f0f2faf8d7a0d14c09","651c1c730bd3beb12c8cec76","null","null","<p style=""font-size: 60px; font-family: BACS"">rvUbcbm</p>","","","","","","","","",""
"html-keyboard-response","296","845552","0.0-14.0-0.45","5e87b28549538b0fdf96b318","650c16f0f2faf8d7a0d14c09","651c1c730bd3beb12c8cec76","null","null","<p style=""font-size: 60px; font-family: BACS"">BMEMAbTE</p>","","","","","","","","",""
"html-keyboard-response","297","846567","0.0-14.0-0.46","5e87b28549538b0fdf96b318","650c16f0f2faf8d7a0d14c09","651c1c730bd3beb12c8cec76","null","null","<p style=""font-size: 60px; font-family: BACS"">YadrcUN</p>","","","","","","","","",""
"html-keyboard-response","298","847576","0.0-14.0-0.47","5e87b28549538b0fdf96b318","650c16f0f2faf8d7a0d14c09","651c1c730bd3beb12c8cec76","null","null","<p style=""font-size: 60px; font-family: BACS"">AYkEhYDE</p>","","","","","","","","",""
"html-keyboard-response","299","848592","0.0-14.0-0.48","5e87b28549538b0fdf96b318","650c16f0f2faf8d7a0d14c09","651c1c730bd3beb12c8cec76","null","null","<p style=""font-size: 60px; font-family: BACS"">KBKBEdRA</p>","","","","","","","","",""
"html-keyboard-response","300","849608","0.0-14.0-0.49","5e87b28549538b0fdf96b318","650c16f0f2faf8d7a0d14c09","651c1c730bd3beb12c8cec76","null","null","<p style=""font-size: 60px; font-family: BACS"">BMEMABRDh</p>","","","","","","","","",""
"html-keyboard-response","301","850622","0.0-14.0-0.50","5e87b28549538b0fdf96b318","650c16f0f2faf8d7a0d14c09","651c1c730bd3beb12c8cec76","null","null","<p style=""font-size: 60px; font-family: BACS"">rvUbcYUv</p>","","","","","","","","",""
"html-keyboard-response","302","851624","0.0-14.0-0.51","5e87b28549538b0fdf96b318","650c16f0f2faf8d7a0d14c09","651c1c730bd3beb12c8cec76","null","null","<p style=""font-size: 60px; font-family: BACS"">ZNLOvkGua</p>","","","","","","","","",""
"html-keyboard-response","303","852629","0.0-14.0-0.52","5e87b28549538b0fdf96b318","650c16f0f2faf8d7a0d14c09","651c1c730bd3beb12c8cec76","null","null","<p style=""font-size: 60px; font-family: BACS"">kcCRtBRDh</p>","","","","","","","","",""
"html-keyboard-response","304","853639","0.0-14.0-0.53","5e87b28549538b0fdf96b318","650c16f0f2faf8d7a0d14c09","651c1c730bd3beb12c8cec76","null","null","<p style=""font-size: 60px; font-family: BACS"">alJYOQAr</p>","","","","","","","","",""
"html-keyboard-response","305","854645","0.0-14.0-0.54","5e87b28549538b0fdf96b318","650c16f0f2faf8d7a0d14c09","651c1c730bd3beb12c8cec76","null","null","<p style=""font-size: 60px; font-family: BACS"">rGUAYcbm</p>","","","","","","","","",""
"html-keyboard-response","306","855652","0.0-14.0-0.55","5e87b28549538b0fdf96b318","650c16f0f2faf8d7a0d14c09","651c1c730bd3beb12c8cec76","null","null","<p style=""font-size: 60px; font-family: BACS"">tDPRkRCdc</p>","","","","","","","","",""
"html-keyboard-response","307","856668","0.0-14.0-0.56","5e87b28549538b0fdf96b318","650c16f0f2faf8d7a0d14c09","651c1c730bd3beb12c8cec76","null","null","<p style=""font-size: 60px; font-family: BACS"">mrOdcYUv</p>","","","","","","","","",""
"html-keyboard-response","308","857684","0.0-14.0-0.57","5e87b28549538b0fdf96b318","650c16f0f2faf8d7a0d14c09","651c1c730bd3beb12c8cec76","null","null","<p style=""font-size: 60px; font-family: BACS"">OJGQkGua</p>","","","","","","","","",""
"html-keyboard-response","309","858689","0.0-14.0-0.58","5e87b28549538b0fdf96b318","650c16f0f2faf8d7a0d14c09","651c1c730bd3beb12c8cec76","null","null","<p style=""font-size: 60px; font-family: BACS"">tDPRkbTE</p>","","","","","","","","",""
"html-keyboard-response","310","859701","0.0-14.0-0.59","5e87b28549538b0fdf96b318","650c16f0f2faf8d7a0d14c09","651c1c730bd3beb12c8cec76","null","null","<p style=""font-size: 60px; font-family: BACS"">rGUAYcUN</p>","","","","","","","","",""
"html-keyboard-response","311","860713","0.0-14.0-0.60","5e87b28549538b0fdf96b318","650c16f0f2faf8d7a0d14c09","651c1c730bd3beb12c8cec76","null","null","<p style=""font-size: 60px; font-family: BACS"">rvUbkGua</p>","","","","","","","","",""
"html-keyboard-response","312","861721","0.0-14.0-0.61","5e87b28549538b0fdf96b318","650c16f0f2faf8d7a0d14c09","651c1c730bd3beb12c8cec76","null","null","<p style=""font-size: 60px; font-family: BACS"">AYkEhRCdc</p>","","","","","","","","",""
"html-keyboard-response","313","862736","0.0-14.0-0.62","5e87b28549538b0fdf96b318","650c16f0f2faf8d7a0d14c09","651c1c730bd3beb12c8cec76","null","null","<p style=""font-size: 60px; font-family: BACS"">dOYmldRA</p>","","","","","","","","",""
"html-keyboard-response","314","863745","0.0-14.0-0.63","5e87b28549538b0fdf96b318","650c16f0f2faf8d7a0d14c09","651c1c730bd3beb12c8cec76","null","null","<p style=""font-size: 60px; font-family: BACS"">AYkEhBRDh</p>","","","","","","","","",""
"html-keyboard-response","315","864761","0.0-14.0-0.64","5e87b28549538b0fdf96b318","650c16f0f2faf8d7a0d14c09","651c1c730bd3beb12c8cec76","null","null","<p style=""font-size: 60px; font-family: BACS"">kZUbOQAr</p>","","","","","","","","",""
"html-keyboard-response","316","865765","0.0-14.0-0.65","5e87b28549538b0fdf96b318","650c16f0f2faf8d7a0d14c09","651c1c730bd3beb12c8cec76","null","null","<p style=""font-size: 60px; font-family: BACS"">rvOvUcbm</p>","","","","","","","","",""
"html-keyboard-response","317","866780","0.0-14.0-0.66","5e87b28549538b0fdf96b318","650c16f0f2faf8d7a0d14c09","651c1c730bd3beb12c8cec76","null","null","<p style=""font-size: 60px; font-family: BACS"">kZUbcUN</p>","","","","","","","","",""
"html-keyboard-response","318","867783","0.0-14.0-0.67","5e87b28549538b0fdf96b318","650c16f0f2faf8d7a0d14c09","651c1c730bd3beb12c8cec76","null","null","<p style=""font-size: 60px; font-family: BACS"">KBKBEYDE</p>","","","","","","","","",""
"html-keyboard-response","319","868790","0.0-14.0-0.68","5e87b28549538b0fdf96b318","650c16f0f2faf8d7a0d14c09","651c1c730bd3beb12c8cec76","null","null","<p style=""font-size: 60px; font-family: BACS"">mrOdkGua</p>","","","","","","","","",""
"html-keyboard-response","320","869804","0.0-14.0-0.69","5e87b28549538b0fdf96b318","650c16f0f2faf8d7a0d14c09","651c1c730bd3beb12c8cec76","null","null","<p style=""font-size: 60px; font-family: BACS"">LcNUJcUN</p>","","","","","","","","",""
"html-keyboard-response","321","870810","0.0-14.0-0.70","5e87b28549538b0fdf96b318","650c16f0f2faf8d7a0d14c09","651c1c730bd3beb12c8cec76","null","null","<p style=""font-size: 60px; font-family: BACS"">OCmkbTE</p>","","","","","","","","",""
"html-keyboard-response","322","871812","0.0-14.0-0.71","5e87b28549538b0fdf96b318","650c16f0f2faf8d7a0d14c09","651c1c730bd3beb12c8cec76","null","null","<p style=""font-size: 60px; font-family: BACS"">TdTDYDE</p>","","","","","","","","",""
"html-keyboard-response","323","872820","0.0-14.0-0.72","5e87b28549538b0fdf96b318","650c16f0f2faf8d7a0d14c09","651c1c730bd3beb12c8cec76","null","null","<p style=""font-size: 60px; font-family: BACS"">KABAbTE</p>","","","","","","","","",""
"html-keyboard-response","324","873837","0.0-14.0-0.73","5e87b28549538b0fdf96b318","650c16f0f2faf8d7a0d14c09","651c1c730bd3beb12c8cec76","null","null","<p style=""font-size: 60px; font-family: BACS"">rGUAYkGua</p>","","","","","","","","",""
"html-keyboard-response","325","874840","0.0-14.0-0.74","5e87b28549538b0fdf96b318","650c16f0f2faf8d7a0d14c09","651c1c730bd3beb12c8cec76","null","null","<p style=""font-size: 60px; font-family: BACS"">OJGQcYUv</p>","","","","","","","","",""
"html-keyboard-response","326","875851","0.0-14.0-0.75","5e87b28549538b0fdf96b318","650c16f0f2faf8d7a0d14c09","651c1c730bd3beb12c8cec76","null","null","<p style=""font-size: 60px; font-family: BACS"">KBKBEBRDh</p>","","","","","","","","",""
"html-keyboard-response","327","876863","0.0-14.0-0.76","5e87b28549538b0fdf96b318","650c16f0f2faf8d7a0d14c09","651c1c730bd3beb12c8cec76","null","null","<p style=""font-size: 60px; font-family: BACS"">rvOvUcUN</p>","","","","","","","","",""
"html-keyboard-response","328","877865","0.0-14.0-0.77","5e87b28549538b0fdf96b318","650c16f0f2faf8d7a0d14c09","651c1c730bd3beb12c8cec76","null","null","<p style=""font-size: 60px; font-family: BACS"">kCRmBRDh</p>","","","","","","","","",""
"html-keyboard-response","329","878870","0.0-14.0-0.78","5e87b28549538b0fdf96b318","650c16f0f2faf8d7a0d14c09","651c1c730bd3beb12c8cec76","null","null","<p style=""font-size: 60px; font-family: BACS"">OCmkYDE</p>","","","","","","","","",""
"html-keyboard-response","330","879884","0.0-14.0-0.79","5e87b28549538b0fdf96b318","650c16f0f2faf8d7a0d14c09","651c1c730bd3beb12c8cec76","null","null","<p style=""font-size: 60px; font-family: BACS"">OJGQcUN</p>","","","","","","","","",""
"html-keyboard-response","331","993938","0.0-15.0","5e87b28549538b0fdf96b318","650c16f0f2faf8d7a0d14c09","651c1c730bd3beb12c8cec76","114054"," ","<p>Great, you've seen the fourth block of words. You may now take a short break.</p>
      <p>Press the spacebar when you're ready to continue.</p>","","","","","","","","",""
"html-keyboard-response","332","994943","0.0-16.0-0.0","5e87b28549538b0fdf96b318","650c16f0f2faf8d7a0d14c09","651c1c730bd3beb12c8cec76","null","null","<p style=""font-size: 60px; font-family: BACS"">ZNLOvcbm</p>","","","","","","","","",""
"html-keyboard-response","333","995954","0.0-16.0-0.1","5e87b28549538b0fdf96b318","650c16f0f2faf8d7a0d14c09","651c1c730bd3beb12c8cec76","null","null","<p style=""font-size: 60px; font-family: BACS"">ZNLOvcbm</p>","","","","","","","","",""
"html-keyboard-response","334","996955","0.0-16.0-0.2","5e87b28549538b0fdf96b318","650c16f0f2faf8d7a0d14c09","651c1c730bd3beb12c8cec76","null","null","<p style=""font-size: 60px; font-family: BACS"">ZNLOvcbm</p>","","","","","","","","",""
"html-keyboard-response","335","997966","0.0-16.0-0.3","5e87b28549538b0fdf96b318","650c16f0f2faf8d7a0d14c09","651c1c730bd3beb12c8cec76","null","null","<p style=""font-size: 60px; font-family: BACS"">ZNLOvcbm</p>","","","","","","","","",""
"html-keyboard-response","336","998982","0.0-16.0-0.4","5e87b28549538b0fdf96b318","650c16f0f2faf8d7a0d14c09","651c1c730bd3beb12c8cec76","null","null","<p style=""font-size: 60px; font-family: BACS"">ZNLOvcbm</p>","","","","","","","","",""
"html-keyboard-response","337","999985","0.0-16.0-0.5","5e87b28549538b0fdf96b318","650c16f0f2faf8d7a0d14c09","651c1c730bd3beb12c8cec76","null","null","<p style=""font-size: 60px; font-family: BACS"">ZNLOvcbm</p>","","","","","","","","",""
"html-keyboard-response","338","1000999","0.0-16.0-0.6","5e87b28549538b0fdf96b318","650c16f0f2faf8d7a0d14c09","651c1c730bd3beb12c8cec76","null","null","<p style=""font-size: 60px; font-family: BACS"">ZNLOvcbm</p>","","","","","","","","",""
"html-keyboard-response","339","1002006","0.0-16.0-0.7","5e87b28549538b0fdf96b318","650c16f0f2faf8d7a0d14c09","651c1c730bd3beb12c8cec76","null","null","<p style=""font-size: 60px; font-family: BACS"">ZNLOvcbm</p>","","","","","","","","",""
"html-keyboard-response","340","1003011","0.0-16.0-0.8","5e87b28549538b0fdf96b318","650c16f0f2faf8d7a0d14c09","651c1c730bd3beb12c8cec76","null","null","<p style=""font-size: 60px; font-family: BACS"">ZNLOvcbm</p>","","","","","","","","",""
"html-keyboard-response","341","1004027","0.0-16.0-0.9","5e87b28549538b0fdf96b318","650c16f0f2faf8d7a0d14c09","651c1c730bd3beb12c8cec76","null","null","<p style=""font-size: 60px; font-family: BACS"">ZNLOvcbm</p>","","","","","","","","",""
"html-keyboard-response","342","1005035","0.0-16.0-0.10","5e87b28549538b0fdf96b318","650c16f0f2faf8d7a0d14c09","651c1c730bd3beb12c8cec76","null","null","<p style=""font-size: 60px; font-family: BACS"">ZNLOvcbm</p>","","","","","","","","",""
"html-keyboard-response","343","1006042","0.0-16.0-0.11","5e87b28549538b0fdf96b318","650c16f0f2faf8d7a0d14c09","651c1c730bd3beb12c8cec76","null","null","<p style=""font-size: 60px; font-family: BACS"">ZNLOvcbm</p>","","","","","","","","",""
"html-keyboard-response","344","1007050","0.0-16.0-0.12","5e87b28549538b0fdf96b318","650c16f0f2faf8d7a0d14c09","651c1c730bd3beb12c8cec76","null","null","<p style=""font-size: 60px; font-family: BACS"">ZNLOvcbm</p>","","","","","","","","",""
"html-keyboard-response","345","1008060","0.0-16.0-0.13","5e87b28549538b0fdf96b318","650c16f0f2faf8d7a0d14c09","651c1c730bd3beb12c8cec76","null","null","<p style=""font-size: 60px; font-family: BACS"">ZNLOvcbm</p>","","","","","","","","",""
"html-keyboard-response","346","1009063","0.0-16.0-0.14","5e87b28549538b0fdf96b318","650c16f0f2faf8d7a0d14c09","651c1c730bd3beb12c8cec76","null","null","<p style=""font-size: 60px; font-family: BACS"">ZNLOvcbm</p>","","","","","","","","",""
"html-keyboard-response","347","1010072","0.0-16.0-0.15","5e87b28549538b0fdf96b318","650c16f0f2faf8d7a0d14c09","651c1c730bd3beb12c8cec76","null","null","<p style=""font-size: 60px; font-family: BACS"">ZNLOvcbm</p>","","","","","","","","",""
"html-keyboard-response","348","1011086","0.0-16.0-0.16","5e87b28549538b0fdf96b318","650c16f0f2faf8d7a0d14c09","651c1c730bd3beb12c8cec76","null","null","<p style=""font-size: 60px; font-family: BACS"">ZNLOvcbm</p>","","","","","","","","",""
"html-keyboard-response","349","1012102","0.0-16.0-0.17","5e87b28549538b0fdf96b318","650c16f0f2faf8d7a0d14c09","651c1c730bd3beb12c8cec76","null","null","<p style=""font-size: 60px; font-family: BACS"">ZNLOvcbm</p>","","","","","","","","",""
"html-keyboard-response","350","1013109","0.0-16.0-0.18","5e87b28549538b0fdf96b318","650c16f0f2faf8d7a0d14c09","651c1c730bd3beb12c8cec76","null","null","<p style=""font-size: 60px; font-family: BACS"">ZNLOvcbm</p>","","","","","","","","",""
"html-keyboard-response","351","1014121","0.0-16.0-0.19","5e87b28549538b0fdf96b318","650c16f0f2faf8d7a0d14c09","651c1c730bd3beb12c8cec76","null","null","<p style=""font-size: 60px; font-family: BACS"">ZNLOvcbm</p>","","","","","","","","",""
"html-keyboard-response","352","1015124","0.0-16.0-0.20","5e87b28549538b0fdf96b318","650c16f0f2faf8d7a0d14c09","651c1c730bd3beb12c8cec76","null","null","<p style=""font-size: 60px; font-family: BACS"">ZNLOvcbm</p>","","","","","","","","",""
"html-keyboard-response","353","1016138","0.0-16.0-0.21","5e87b28549538b0fdf96b318","650c16f0f2faf8d7a0d14c09","651c1c730bd3beb12c8cec76","null","null","<p style=""font-size: 60px; font-family: BACS"">ZNLOvcbm</p>","","","","","","","","",""
"html-keyboard-response","354","1017148","0.0-16.0-0.22","5e87b28549538b0fdf96b318","650c16f0f2faf8d7a0d14c09","651c1c730bd3beb12c8cec76","null","null","<p style=""font-size: 60px; font-family: BACS"">ZNLOvcbm</p>","","","","","","","","",""
"html-keyboard-response","355","1018152","0.0-16.0-0.23","5e87b28549538b0fdf96b318","650c16f0f2faf8d7a0d14c09","651c1c730bd3beb12c8cec76","null","null","<p style=""font-size: 60px; font-family: BACS"">ZNLOvcbm</p>","","","","","","","","",""
"html-keyboard-response","356","1019154","0.0-16.0-0.24","5e87b28549538b0fdf96b318","650c16f0f2faf8d7a0d14c09","651c1c730bd3beb12c8cec76","null","null","<p style=""font-size: 60px; font-family: BACS"">ZNLOvcbm</p>","","","","","","","","",""
"html-keyboard-response","357","1020161","0.0-16.0-0.25","5e87b28549538b0fdf96b318","650c16f0f2faf8d7a0d14c09","651c1c730bd3beb12c8cec76","null","null","<p style=""font-size: 60px; font-family: BACS"">ZNLOvcbm</p>","","","","","","","","",""
"html-keyboard-response","358","1021168","0.0-16.0-0.26","5e87b28549538b0fdf96b318","650c16f0f2faf8d7a0d14c09","651c1c730bd3beb12c8cec76","null","null","<p style=""font-size: 60px; font-family: BACS"">ZNLOvcbm</p>","","","","","","","","",""
"html-keyboard-response","359","1022180","0.0-16.0-0.27","5e87b28549538b0fdf96b318","650c16f0f2faf8d7a0d14c09","651c1c730bd3beb12c8cec76","null","null","<p style=""font-size: 60px; font-family: BACS"">ZNLOvcbm</p>","","","","","","","","",""
"html-keyboard-response","360","1023198","0.0-16.0-0.28","5e87b28549538b0fdf96b318","650c16f0f2faf8d7a0d14c09","651c1c730bd3beb12c8cec76","null","null","<p style=""font-size: 60px; font-family: BACS"">ZNLOvcbm</p>","","","","","","","","",""
"html-keyboard-response","361","1024207","0.0-16.0-0.29","5e87b28549538b0fdf96b318","650c16f0f2faf8d7a0d14c09","651c1c730bd3beb12c8cec76","null","null","<p style=""font-size: 60px; font-family: BACS"">ZNLOvcbm</p>","","","","","","","","",""
"html-keyboard-response","362","1025212","0.0-16.0-0.30","5e87b28549538b0fdf96b318","650c16f0f2faf8d7a0d14c09","651c1c730bd3beb12c8cec76","null","null","<p style=""font-size: 60px; font-family: BACS"">ZNLOvcbm</p>","","","","","","","","",""
"html-keyboard-response","363","1026227","0.0-16.0-0.31","5e87b28549538b0fdf96b318","650c16f0f2faf8d7a0d14c09","651c1c730bd3beb12c8cec76","null","null","<p style=""font-size: 60px; font-family: BACS"">ZNLOvcbm</p>","","","","","","","","",""
"html-keyboard-response","364","1027242","0.0-16.0-0.32","5e87b28549538b0fdf96b318","650c16f0f2faf8d7a0d14c09","651c1c730bd3beb12c8cec76","null","null","<p style=""font-size: 60px; font-family: BACS"">ZNLOvcbm</p>","","","","","","","","",""
"html-keyboard-response","365","1028255","0.0-16.0-0.33","5e87b28549538b0fdf96b318","650c16f0f2faf8d7a0d14c09","651c1c730bd3beb12c8cec76","null","null","<p style=""font-size: 60px; font-family: BACS"">ZNLOvcbm</p>","","","","","","","","",""
"html-keyboard-response","366","1029268","0.0-16.0-0.34","5e87b28549538b0fdf96b318","650c16f0f2faf8d7a0d14c09","651c1c730bd3beb12c8cec76","null","null","<p style=""font-size: 60px; font-family: BACS"">ZNLOvcbm</p>","","","","","","","","",""
"html-keyboard-response","367","1030284","0.0-16.0-0.35","5e87b28549538b0fdf96b318","650c16f0f2faf8d7a0d14c09","651c1c730bd3beb12c8cec76","null","null","<p style=""font-size: 60px; font-family: BACS"">ZNLOvcbm</p>","","","","","","","","",""
"html-keyboard-response","368","1031287","0.0-16.0-0.36","5e87b28549538b0fdf96b318","650c16f0f2faf8d7a0d14c09","651c1c730bd3beb12c8cec76","null","null","<p style=""font-size: 60px; font-family: BACS"">ZNLOvcbm</p>","","","","","","","","",""
"html-keyboard-response","369","1032302","0.0-16.0-0.37","5e87b28549538b0fdf96b318","650c16f0f2faf8d7a0d14c09","651c1c730bd3beb12c8cec76","null","null","<p style=""font-size: 60px; font-family: BACS"">ZNLOvcbm</p>","","","","","","","","",""
"html-keyboard-response","370","1033313","0.0-16.0-0.38","5e87b28549538b0fdf96b318","650c16f0f2faf8d7a0d14c09","651c1c730bd3beb12c8cec76","null","null","<p style=""font-size: 60px; font-family: BACS"">ZNLOvcbm</p>","","","","","","","","",""
"html-keyboard-response","371","1034320","0.0-16.0-0.39","5e87b28549538b0fdf96b318","650c16f0f2faf8d7a0d14c09","651c1c730bd3beb12c8cec76","null","null","<p style=""font-size: 60px; font-family: BACS"">ZNLOvcbm</p>","","","","","","","","",""
"html-keyboard-response","372","1035331","0.0-16.0-0.40","5e87b28549538b0fdf96b318","650c16f0f2faf8d7a0d14c09","651c1c730bd3beb12c8cec76","null","null","<p style=""font-size: 60px; font-family: BACS"">ZNLOvcbm</p>","","","","","","","","",""
"html-keyboard-response","373","1036347","0.0-16.0-0.41","5e87b28549538b0fdf96b318","650c16f0f2faf8d7a0d14c09","651c1c730bd3beb12c8cec76","null","null","<p style=""font-size: 60px; font-family: BACS"">ZNLOvcbm</p>","","","","","","","","",""
"html-keyboard-response","374","1037352","0.0-16.0-0.42","5e87b28549538b0fdf96b318","650c16f0f2faf8d7a0d14c09","651c1c730bd3beb12c8cec76","null","null","<p style=""font-size: 60px; font-family: BACS"">ZNLOvcbm</p>","","","","","","","","",""
"html-keyboard-response","375","1038360","0.0-16.0-0.43","5e87b28549538b0fdf96b318","650c16f0f2faf8d7a0d14c09","651c1c730bd3beb12c8cec76","null","null","<p style=""font-size: 60px; font-family: BACS"">ZNLOvcbm</p>","","","","","","","","",""
"html-keyboard-response","376","1039361","0.0-16.0-0.44","5e87b28549538b0fdf96b318","650c16f0f2faf8d7a0d14c09","651c1c730bd3beb12c8cec76","null","null","<p style=""font-size: 60px; font-family: BACS"">ZNLOvcbm</p>","","","","","","","","",""
"html-keyboard-response","377","1040376","0.0-16.0-0.45","5e87b28549538b0fdf96b318","650c16f0f2faf8d7a0d14c09","651c1c730bd3beb12c8cec76","null","null","<p style=""font-size: 60px; font-family: BACS"">ZNLOvcbm</p>","","","","","","","","",""
"html-keyboard-response","378","1041392","0.0-16.0-0.46","5e87b28549538b0fdf96b318","650c16f0f2faf8d7a0d14c09","651c1c730bd3beb12c8cec76","null","null","<p style=""font-size: 60px; font-family: BACS"">ZNLOvcbm</p>","","","","","","","","",""
"html-keyboard-response","379","1042408","0.0-16.0-0.47","5e87b28549538b0fdf96b318","650c16f0f2faf8d7a0d14c09","651c1c730bd3beb12c8cec76","null","null","<p style=""font-size: 60px; font-family: BACS"">ZNLOvcbm</p>","","","","","","","","",""
"html-keyboard-response","380","1043423","0.0-16.0-0.48","5e87b28549538b0fdf96b318","650c16f0f2faf8d7a0d14c09","651c1c730bd3beb12c8cec76","null","null","<p style=""font-size: 60px; font-family: BACS"">ZNLOvcbm</p>","","","","","","","","",""
"html-keyboard-response","381","1044425","0.0-16.0-0.49","5e87b28549538b0fdf96b318","650c16f0f2faf8d7a0d14c09","651c1c730bd3beb12c8cec76","null","null","<p style=""font-size: 60px; font-family: BACS"">ZNLOvcbm</p>","","","","","","","","",""
"html-keyboard-response","382","1045440","0.0-16.0-0.50","5e87b28549538b0fdf96b318","650c16f0f2faf8d7a0d14c09","651c1c730bd3beb12c8cec76","null","null","<p style=""font-size: 60px; font-family: BACS"">ZNLOvcbm</p>","","","","","","","","",""
"html-keyboard-response","383","1046442","0.0-16.0-0.51","5e87b28549538b0fdf96b318","650c16f0f2faf8d7a0d14c09","651c1c730bd3beb12c8cec76","null","null","<p style=""font-size: 60px; font-family: BACS"">ZNLOvcbm</p>","","","","","","","","",""
"html-keyboard-response","384","1047445","0.0-16.0-0.52","5e87b28549538b0fdf96b318","650c16f0f2faf8d7a0d14c09","651c1c730bd3beb12c8cec76","null","null","<p style=""font-size: 60px; font-family: BACS"">ZNLOvcbm</p>","","","","","","","","",""
"html-keyboard-response","385","1048453","0.0-16.0-0.53","5e87b28549538b0fdf96b318","650c16f0f2faf8d7a0d14c09","651c1c730bd3beb12c8cec76","null","null","<p style=""font-size: 60px; font-family: BACS"">ZNLOvcbm</p>","","","","","","","","",""
"html-keyboard-response","386","1049461","0.0-16.0-0.54","5e87b28549538b0fdf96b318","650c16f0f2faf8d7a0d14c09","651c1c730bd3beb12c8cec76","null","null","<p style=""font-size: 60px; font-family: BACS"">ZNLOvcbm</p>","","","","","","","","",""
"html-keyboard-response","387","1050467","0.0-16.0-0.55","5e87b28549538b0fdf96b318","650c16f0f2faf8d7a0d14c09","651c1c730bd3beb12c8cec76","null","null","<p style=""font-size: 60px; font-family: BACS"">ZNLOvcbm</p>","","","","","","","","",""
"html-keyboard-response","388","1051481","0.0-16.0-0.56","5e87b28549538b0fdf96b318","650c16f0f2faf8d7a0d14c09","651c1c730bd3beb12c8cec76","null","null","<p style=""font-size: 60px; font-family: BACS"">ZNLOvcbm</p>","","","","","","","","",""
"html-keyboard-response","389","1052484","0.0-16.0-0.57","5e87b28549538b0fdf96b318","650c16f0f2faf8d7a0d14c09","651c1c730bd3beb12c8cec76","null","null","<p style=""font-size: 60px; font-family: BACS"">ZNLOvcbm</p>","","","","","","","","",""
"html-keyboard-response","390","1053487","0.0-16.0-0.58","5e87b28549538b0fdf96b318","650c16f0f2faf8d7a0d14c09","651c1c730bd3beb12c8cec76","null","null","<p style=""font-size: 60px; font-family: BACS"">ZNLOvcbm</p>","","","","","","","","",""
"html-keyboard-response","391","1054499","0.0-16.0-0.59","5e87b28549538b0fdf96b318","650c16f0f2faf8d7a0d14c09","651c1c730bd3beb12c8cec76","null","null","<p style=""font-size: 60px; font-family: BACS"">ZNLOvcbm</p>","","","","","","","","",""
"html-keyboard-response","392","1055513","0.0-16.0-0.60","5e87b28549538b0fdf96b318","650c16f0f2faf8d7a0d14c09","651c1c730bd3beb12c8cec76","null","null","<p style=""font-size: 60px; font-family: BACS"">ZNLOvcbm</p>","","","","","","","","",""
"html-keyboard-response","393","1056514","0.0-16.0-0.61","5e87b28549538b0fdf96b318","650c16f0f2faf8d7a0d14c09","651c1c730bd3beb12c8cec76","null","null","<p style=""font-size: 60px; font-family: BACS"">ZNLOvcbm</p>","","","","","","","","",""
"html-keyboard-response","394","1057519","0.0-16.0-0.62","5e87b28549538b0fdf96b318","650c16f0f2faf8d7a0d14c09","651c1c730bd3beb12c8cec76","null","null","<p style=""font-size: 60px; font-family: BACS"">ZNLOvcbm</p>","","","","","","","","",""
"html-keyboard-response","395","1058526","0.0-16.0-0.63","5e87b28549538b0fdf96b318","650c16f0f2faf8d7a0d14c09","651c1c730bd3beb12c8cec76","null","null","<p style=""font-size: 60px; font-family: BACS"">ZNLOvcbm</p>","","","","","","","","",""
"html-keyboard-response","396","1059534","0.0-16.0-0.64","5e87b28549538b0fdf96b318","650c16f0f2faf8d7a0d14c09","651c1c730bd3beb12c8cec76","null","null","<p style=""font-size: 60px; font-family: BACS"">ZNLOvcbm</p>","","","","","","","","",""
"html-keyboard-response","397","1060545","0.0-16.0-0.65","5e87b28549538b0fdf96b318","650c16f0f2faf8d7a0d14c09","651c1c730bd3beb12c8cec76","null","null","<p style=""font-size: 60px; font-family: BACS"">ZNLOvcbm</p>","","","","","","","","",""
