trial_type,trial_index,time_elapsed,internal_node_id,subject_id,study_id,session_id,rt,response,stimulus,success,item,task,correct_response,testing_condition,correct,target,confound,name,view_history
pavlovia,0,2914,0.0-0.0,614b323022fcd8b7408005a6,650c16f0f2faf8d7a0d14c09,651c1bf3c6eaf8f5c63ff57a,,,,,,,,,,,,,
survey-html-form,1,13836,0.0-1.0,614b323022fcd8b7408005a6,650c16f0f2faf8d7a0d14c09,651c1bf3c6eaf8f5c63ff57a,10921,"{""ID"":""614b323022fcd8b7408005a6""}",,,,,,,,,,,
html-keyboard-response,2,37183,0.0-2.0,614b323022fcd8b7408005a6,650c16f0f2faf8d7a0d14c09,651c1bf3c6eaf8f5c63ff57a,23346, ,"<p style=""font-size: 15px;"">Before beginning, we ask that you read the consent information and confirm your agreement to participate in the experiment.</p>
      <p style=""font-size: 15px;""> We ask that you remember that this is a research project and that your participation is entirely voluntary. You can stop your participation at any time, without needing to provide any explanation. The study we're asking you to participate in aims at examining how readers process written words. You will be engaged in a session of apprximately 20 minutes, followed by a brief questionnaire. You will have the opportunity to take a few breaks during the experiment. You will be paid £4 for your participation, corresponding to a rate of £8/hour. While this experiment looks at cognitive faculties, this experiment doesn't constitute clinical proof of eventual pathologies.</p>
      <p style=""font-size: 15px;"">All of the information collected thanks to yours and others' participation will be held in a secure password-protected server, and will not be shared with anyone not authorised to view it. Your personal information will be kept with an arbitrary participant ID. Thanks to this data anonymity process, any researcher analysing the data won't be able to track the information back to a specific participant. Therefore, this process will make identifying you impossibile, even when results from the study will be published in scientific reviews, presented at congresses, or at any other public forum. More generally, the collected data will be treated in accordance with the laws on privacy and conformity to the Legislative Degree n. 196 ""Code regarding the protection of personal data"" of the 30th of June 2003 and to the European Regulation 2016/670 (General Data Protection Regulation - GDPR). The Data Protection Officer is Avv. Valentina Carollo, who can be contacted at the following email addresses: <a href=""mailto:dpo@sissa.it"">dpo@sissa.it</a> or <a href=""mailto:rpd@sissa.it"">rpd@sissa.it</a> - PEC: <a href=""mailto:protocollo@pec.sissa.it"">protocollo@pec.sissa.it</a>.</p>
      <p style=""font-size: 15px;""> Before expressing your consent to participate, we would like to remind you again that in case you need explanations on any aspect of the experimental procedure, the researcher is at your disposition (<a href=""mailto:aliebelt@sissa.it"">aliebelt@sissa.it</a>, <a href=""mailto:davide.crepaldi@sissa.it"">davide.crepaldi@sissa.it</a>).</p>
      <p style=""font-size: 15px;"">If you would like to download the informed consent form, you can do so here: <a href=""BASL-Informed_Consent.pdf"" download>informed consent form</a>.</p>
      <p style=""font-size: 15px;"">We ask that you press the spacebar to proceed to the consent section.</p>",,,,,,,,,,
survey-html-form,3,217075,0.0-3.0,614b323022fcd8b7408005a6,650c16f0f2faf8d7a0d14c09,651c1bf3c6eaf8f5c63ff57a,179902,"{""consent1"":""YES"",""consent2"":""YES"",""consent3"":""YES"",""consent4"":""YES"",""consent5"":""YES"",""consent6"":""YES""}",,,,,,,,,,,
fullscreen,4,226568,0.0-4.0,614b323022fcd8b7408005a6,650c16f0f2faf8d7a0d14c09,651c1bf3c6eaf8f5c63ff57a,,,,TRUE,,,,,,,,,
html-keyboard-response,5,278467,0.0-5.0,614b323022fcd8b7408005a6,650c16f0f2faf8d7a0d14c09,651c1bf3c6eaf8f5c63ff57a,51888, ,"<p>Welcome, and thank you very much for your time!</p>
      <p>In this experiment, you'll be a language expert who's been asked to take a look at words that Earth has received in its first communication with aliens. Your task, in this first part of the experiment, is to pay close attention to the words you'll be shown; later, world leaders will ask you questions on what you saw. The words will be shown to you quite quickly; it seems that the aliens were in a hurry :-)</p>
      <p>Press the spacebar to continue.<p>",,,,,,,,,,
html-keyboard-response,6,278530,0.0-6.0,614b323022fcd8b7408005a6,650c16f0f2faf8d7a0d14c09,651c1bf3c6eaf8f5c63ff57a,null,null,"<p style=""font-size: 120px; font-family: BACS""> </p>",,,,,,,,,,
html-keyboard-response,7,289647,0.0-7.0,614b323022fcd8b7408005a6,650c16f0f2faf8d7a0d14c09,651c1bf3c6eaf8f5c63ff57a,11117, ,"<p>Here is an example of the words you'll see:</p>
      <img src='esempio.png' height='400px'>
      <p>When you're ready to begin, press the spacebar.</p></div>",,,,,,,,,,
html-keyboard-response,8,290664,0.0-8.0-0.0,614b323022fcd8b7408005a6,650c16f0f2faf8d7a0d14c09,651c1bf3c6eaf8f5c63ff57a,null,null,"<p style=""font-size: 60px; font-family: BACS"">LuNZLaA</p>",,,,,,,,,,
html-keyboard-response,9,291666,0.0-8.0-0.1,614b323022fcd8b7408005a6,650c16f0f2faf8d7a0d14c09,651c1bf3c6eaf8f5c63ff57a,null,null,"<p style=""font-size: 60px; font-family: BACS"">cBROBkDOm</p>",,,,,,,,,,
html-keyboard-response,10,292669,0.0-8.0-0.2,614b323022fcd8b7408005a6,650c16f0f2faf8d7a0d14c09,651c1bf3c6eaf8f5c63ff57a,null,null,"<p style=""font-size: 60px; font-family: BACS"">kPOtPED</p>",,,,,,,,,,
html-keyboard-response,11,293671,0.0-8.0-0.3,614b323022fcd8b7408005a6,650c16f0f2faf8d7a0d14c09,651c1bf3c6eaf8f5c63ff57a,null,null,"<p style=""font-size: 60px; font-family: BACS"">ubALmQGb</p>",,,,,,,,,,
html-keyboard-response,12,294673,0.0-8.0-0.4,614b323022fcd8b7408005a6,650c16f0f2faf8d7a0d14c09,651c1bf3c6eaf8f5c63ff57a,null,null,"<p style=""font-size: 60px; font-family: BACS"">LuNZGlu</p>",,,,,,,,,,
html-keyboard-response,13,295676,0.0-8.0-0.5,614b323022fcd8b7408005a6,650c16f0f2faf8d7a0d14c09,651c1bf3c6eaf8f5c63ff57a,null,null,"<p style=""font-size: 60px; font-family: BACS"">ubALmLaA</p>",,,,,,,,,,
html-keyboard-response,14,296679,0.0-8.0-0.6,614b323022fcd8b7408005a6,650c16f0f2faf8d7a0d14c09,651c1bf3c6eaf8f5c63ff57a,null,null,"<p style=""font-size: 60px; font-family: BACS"">ZcGdNuUY</p>",,,,,,,,,,
html-keyboard-response,15,297681,0.0-8.0-0.7,614b323022fcd8b7408005a6,650c16f0f2faf8d7a0d14c09,651c1bf3c6eaf8f5c63ff57a,null,null,"<p style=""font-size: 60px; font-family: BACS"">GLYrAkdrO</p>",,,,,,,,,,
html-keyboard-response,16,298685,0.0-8.0-0.8,614b323022fcd8b7408005a6,650c16f0f2faf8d7a0d14c09,651c1bf3c6eaf8f5c63ff57a,null,null,"<p style=""font-size: 60px; font-family: BACS"">ZcGdNQGb</p>",,,,,,,,,,
html-keyboard-response,17,299687,0.0-8.0-0.9,614b323022fcd8b7408005a6,650c16f0f2faf8d7a0d14c09,651c1bf3c6eaf8f5c63ff57a,null,null,"<p style=""font-size: 60px; font-family: BACS"">LuNZkdrO</p>",,,,,,,,,,
html-keyboard-response,18,300689,0.0-8.0-0.10,614b323022fcd8b7408005a6,650c16f0f2faf8d7a0d14c09,651c1bf3c6eaf8f5c63ff57a,null,null,"<p style=""font-size: 60px; font-family: BACS"">PdDTPED</p>",,,,,,,,,,
html-keyboard-response,19,301691,0.0-8.0-0.11,614b323022fcd8b7408005a6,650c16f0f2faf8d7a0d14c09,651c1bf3c6eaf8f5c63ff57a,null,null,"<p style=""font-size: 60px; font-family: BACS"">GLYrAuUY</p>",,,,,,,,,,
html-keyboard-response,20,302695,0.0-8.0-0.12,614b323022fcd8b7408005a6,650c16f0f2faf8d7a0d14c09,651c1bf3c6eaf8f5c63ff57a,null,null,"<p style=""font-size: 60px; font-family: BACS"">YlCPBcDR</p>",,,,,,,,,,
html-keyboard-response,21,303698,0.0-8.0-0.13,614b323022fcd8b7408005a6,650c16f0f2faf8d7a0d14c09,651c1bf3c6eaf8f5c63ff57a,null,null,"<p style=""font-size: 60px; font-family: BACS"">kPOtcthB</p>",,,,,,,,,,
html-keyboard-response,22,304700,0.0-8.0-0.14,614b323022fcd8b7408005a6,650c16f0f2faf8d7a0d14c09,651c1bf3c6eaf8f5c63ff57a,null,null,"<p style=""font-size: 60px; font-family: BACS"">uQkrdLaA</p>",,,,,,,,,,
html-keyboard-response,23,305703,0.0-8.0-0.15,614b323022fcd8b7408005a6,650c16f0f2faf8d7a0d14c09,651c1bf3c6eaf8f5c63ff57a,null,null,"<p style=""font-size: 60px; font-family: BACS"">EtMDMcthB</p>",,,,,,,,,,
html-keyboard-response,24,306707,0.0-8.0-0.16,614b323022fcd8b7408005a6,650c16f0f2faf8d7a0d14c09,651c1bf3c6eaf8f5c63ff57a,null,null,"<p style=""font-size: 60px; font-family: BACS"">dRhtcDR</p>",,,,,,,,,,
html-keyboard-response,25,307709,0.0-8.0-0.17,614b323022fcd8b7408005a6,650c16f0f2faf8d7a0d14c09,651c1bf3c6eaf8f5c63ff57a,null,null,"<p style=""font-size: 60px; font-family: BACS"">kPOtdEPD</p>",,,,,,,,,,
html-keyboard-response,26,308710,0.0-8.0-0.18,614b323022fcd8b7408005a6,650c16f0f2faf8d7a0d14c09,651c1bf3c6eaf8f5c63ff57a,null,null,"<p style=""font-size: 60px; font-family: BACS"">kdaAJkdrO</p>",,,,,,,,,,
html-keyboard-response,27,309714,0.0-8.0-0.19,614b323022fcd8b7408005a6,650c16f0f2faf8d7a0d14c09,651c1bf3c6eaf8f5c63ff57a,null,null,"<p style=""font-size: 60px; font-family: BACS"">PCMPKPED</p>",,,,,,,,,,
html-keyboard-response,28,310716,0.0-8.0-0.20,614b323022fcd8b7408005a6,650c16f0f2faf8d7a0d14c09,651c1bf3c6eaf8f5c63ff57a,null,null,"<p style=""font-size: 60px; font-family: BACS"">uQkrdQGb</p>",,,,,,,,,,
html-keyboard-response,29,311718,0.0-8.0-0.21,614b323022fcd8b7408005a6,650c16f0f2faf8d7a0d14c09,651c1bf3c6eaf8f5c63ff57a,null,null,"<p style=""font-size: 60px; font-family: BACS"">damYbGlu</p>",,,,,,,,,,
html-keyboard-response,30,312721,0.0-8.0-0.22,614b323022fcd8b7408005a6,650c16f0f2faf8d7a0d14c09,651c1bf3c6eaf8f5c63ff57a,null,null,"<p style=""font-size: 60px; font-family: BACS"">kdaAJuUY</p>",,,,,,,,,,
html-keyboard-response,31,313723,0.0-8.0-0.23,614b323022fcd8b7408005a6,650c16f0f2faf8d7a0d14c09,651c1bf3c6eaf8f5c63ff57a,null,null,"<p style=""font-size: 60px; font-family: BACS"">TdmAkDOm</p>",,,,,,,,,,
html-keyboard-response,32,314726,0.0-8.0-0.24,614b323022fcd8b7408005a6,650c16f0f2faf8d7a0d14c09,651c1bf3c6eaf8f5c63ff57a,null,null,"<p style=""font-size: 60px; font-family: BACS"">JdOAYLaA</p>",,,,,,,,,,
html-keyboard-response,33,315728,0.0-8.0-0.25,614b323022fcd8b7408005a6,650c16f0f2faf8d7a0d14c09,651c1bf3c6eaf8f5c63ff57a,null,null,"<p style=""font-size: 60px; font-family: BACS"">EtMDMcDR</p>",,,,,,,,,,
html-keyboard-response,34,316731,0.0-8.0-0.26,614b323022fcd8b7408005a6,650c16f0f2faf8d7a0d14c09,651c1bf3c6eaf8f5c63ff57a,null,null,"<p style=""font-size: 60px; font-family: BACS"">YlCPBPED</p>",,,,,,,,,,
html-keyboard-response,35,317734,0.0-8.0-0.27,614b323022fcd8b7408005a6,650c16f0f2faf8d7a0d14c09,651c1bf3c6eaf8f5c63ff57a,null,null,"<p style=""font-size: 60px; font-family: BACS"">adkruUY</p>",,,,,,,,,,
html-keyboard-response,36,318737,0.0-8.0-0.28,614b323022fcd8b7408005a6,650c16f0f2faf8d7a0d14c09,651c1bf3c6eaf8f5c63ff57a,null,null,"<p style=""font-size: 60px; font-family: BACS"">DOBhYdEPD</p>",,,,,,,,,,
html-keyboard-response,37,319740,0.0-8.0-0.29,614b323022fcd8b7408005a6,650c16f0f2faf8d7a0d14c09,651c1bf3c6eaf8f5c63ff57a,null,null,"<p style=""font-size: 60px; font-family: BACS"">adkrGlu</p>",,,,,,,,,,
html-keyboard-response,38,320744,0.0-8.0-0.30,614b323022fcd8b7408005a6,650c16f0f2faf8d7a0d14c09,651c1bf3c6eaf8f5c63ff57a,null,null,"<p style=""font-size: 60px; font-family: BACS"">EhbtcDR</p>",,,,,,,,,,
html-keyboard-response,39,321747,0.0-8.0-0.31,614b323022fcd8b7408005a6,650c16f0f2faf8d7a0d14c09,651c1bf3c6eaf8f5c63ff57a,null,null,"<p style=""font-size: 60px; font-family: BACS"">bmbNQGb</p>",,,,,,,,,,
html-keyboard-response,40,322748,0.0-8.0-0.32,614b323022fcd8b7408005a6,650c16f0f2faf8d7a0d14c09,651c1bf3c6eaf8f5c63ff57a,null,null,"<p style=""font-size: 60px; font-family: BACS"">DOBhYkDOm</p>",,,,,,,,,,
html-keyboard-response,41,323751,0.0-8.0-0.33,614b323022fcd8b7408005a6,650c16f0f2faf8d7a0d14c09,651c1bf3c6eaf8f5c63ff57a,null,null,"<p style=""font-size: 60px; font-family: BACS"">TdmAcDR</p>",,,,,,,,,,
html-keyboard-response,42,324753,0.0-8.0-0.34,614b323022fcd8b7408005a6,650c16f0f2faf8d7a0d14c09,651c1bf3c6eaf8f5c63ff57a,null,null,"<p style=""font-size: 60px; font-family: BACS"">ZcGdNGlu</p>",,,,,,,,,,
html-keyboard-response,43,325755,0.0-8.0-0.35,614b323022fcd8b7408005a6,650c16f0f2faf8d7a0d14c09,651c1bf3c6eaf8f5c63ff57a,null,null,"<p style=""font-size: 60px; font-family: BACS"">TdmActhB</p>",,,,,,,,,,
html-keyboard-response,44,326759,0.0-8.0-0.36,614b323022fcd8b7408005a6,650c16f0f2faf8d7a0d14c09,651c1bf3c6eaf8f5c63ff57a,null,null,"<p style=""font-size: 60px; font-family: BACS"">dRhtdEPD</p>",,,,,,,,,,
html-keyboard-response,45,327762,0.0-8.0-0.37,614b323022fcd8b7408005a6,650c16f0f2faf8d7a0d14c09,651c1bf3c6eaf8f5c63ff57a,null,null,"<p style=""font-size: 60px; font-family: BACS"">kdaAJLaA</p>",,,,,,,,,,
html-keyboard-response,46,328764,0.0-8.0-0.38,614b323022fcd8b7408005a6,650c16f0f2faf8d7a0d14c09,651c1bf3c6eaf8f5c63ff57a,null,null,"<p style=""font-size: 60px; font-family: BACS"">JdOAYkdrO</p>",,,,,,,,,,
html-keyboard-response,47,329768,0.0-8.0-0.39,614b323022fcd8b7408005a6,650c16f0f2faf8d7a0d14c09,651c1bf3c6eaf8f5c63ff57a,null,null,"<p style=""font-size: 60px; font-family: BACS"">damYbLaA</p>",,,,,,,,,,
html-keyboard-response,48,330771,0.0-8.0-0.40,614b323022fcd8b7408005a6,650c16f0f2faf8d7a0d14c09,651c1bf3c6eaf8f5c63ff57a,null,null,"<p style=""font-size: 60px; font-family: BACS"">YlCPBkDOm</p>",,,,,,,,,,
html-keyboard-response,49,331774,0.0-8.0-0.41,614b323022fcd8b7408005a6,650c16f0f2faf8d7a0d14c09,651c1bf3c6eaf8f5c63ff57a,null,null,"<p style=""font-size: 60px; font-family: BACS"">GLYrAGlu</p>",,,,,,,,,,
html-keyboard-response,50,332777,0.0-8.0-0.42,614b323022fcd8b7408005a6,650c16f0f2faf8d7a0d14c09,651c1bf3c6eaf8f5c63ff57a,null,null,"<p style=""font-size: 60px; font-family: BACS"">uQkrduUY</p>",,,,,,,,,,
html-keyboard-response,51,333780,0.0-8.0-0.43,614b323022fcd8b7408005a6,650c16f0f2faf8d7a0d14c09,651c1bf3c6eaf8f5c63ff57a,null,null,"<p style=""font-size: 60px; font-family: BACS"">dRhtPED</p>",,,,,,,,,,
html-keyboard-response,52,334782,0.0-8.0-0.44,614b323022fcd8b7408005a6,650c16f0f2faf8d7a0d14c09,651c1bf3c6eaf8f5c63ff57a,null,null,"<p style=""font-size: 60px; font-family: BACS"">cBROBdEPD</p>",,,,,,,,,,
html-keyboard-response,53,335785,0.0-8.0-0.45,614b323022fcd8b7408005a6,650c16f0f2faf8d7a0d14c09,651c1bf3c6eaf8f5c63ff57a,null,null,"<p style=""font-size: 60px; font-family: BACS"">PCMPKkDOm</p>",,,,,,,,,,
html-keyboard-response,54,336789,0.0-8.0-0.46,614b323022fcd8b7408005a6,650c16f0f2faf8d7a0d14c09,651c1bf3c6eaf8f5c63ff57a,null,null,"<p style=""font-size: 60px; font-family: BACS"">bmbNkdrO</p>",,,,,,,,,,
html-keyboard-response,55,337792,0.0-8.0-0.47,614b323022fcd8b7408005a6,650c16f0f2faf8d7a0d14c09,651c1bf3c6eaf8f5c63ff57a,null,null,"<p style=""font-size: 60px; font-family: BACS"">PdDTcDR</p>",,,,,,,,,,
html-keyboard-response,56,338794,0.0-8.0-0.48,614b323022fcd8b7408005a6,650c16f0f2faf8d7a0d14c09,651c1bf3c6eaf8f5c63ff57a,null,null,"<p style=""font-size: 60px; font-family: BACS"">JdOAYuUY</p>",,,,,,,,,,
html-keyboard-response,57,339798,0.0-8.0-0.49,614b323022fcd8b7408005a6,650c16f0f2faf8d7a0d14c09,651c1bf3c6eaf8f5c63ff57a,null,null,"<p style=""font-size: 60px; font-family: BACS"">EtMDMkDOm</p>",,,,,,,,,,
html-keyboard-response,58,340800,0.0-8.0-0.50,614b323022fcd8b7408005a6,650c16f0f2faf8d7a0d14c09,651c1bf3c6eaf8f5c63ff57a,null,null,"<p style=""font-size: 60px; font-family: BACS"">cBROBPED</p>",,,,,,,,,,
html-keyboard-response,59,341802,0.0-8.0-0.51,614b323022fcd8b7408005a6,650c16f0f2faf8d7a0d14c09,651c1bf3c6eaf8f5c63ff57a,null,null,"<p style=""font-size: 60px; font-family: BACS"">EhbtkDOm</p>",,,,,,,,,,
html-keyboard-response,60,342805,0.0-8.0-0.52,614b323022fcd8b7408005a6,650c16f0f2faf8d7a0d14c09,651c1bf3c6eaf8f5c63ff57a,null,null,"<p style=""font-size: 60px; font-family: BACS"">LuNZQGb</p>",,,,,,,,,,
html-keyboard-response,61,343808,0.0-8.0-0.53,614b323022fcd8b7408005a6,650c16f0f2faf8d7a0d14c09,651c1bf3c6eaf8f5c63ff57a,null,null,"<p style=""font-size: 60px; font-family: BACS"">bmbNGlu</p>",,,,,,,,,,
html-keyboard-response,62,344813,0.0-8.0-0.54,614b323022fcd8b7408005a6,650c16f0f2faf8d7a0d14c09,651c1bf3c6eaf8f5c63ff57a,null,null,"<p style=""font-size: 60px; font-family: BACS"">TdmAdEPD</p>",,,,,,,,,,
html-keyboard-response,63,345823,0.0-8.0-0.55,614b323022fcd8b7408005a6,650c16f0f2faf8d7a0d14c09,651c1bf3c6eaf8f5c63ff57a,null,null,"<p style=""font-size: 60px; font-family: BACS"">adkrQGb</p>",,,,,,,,,,
html-keyboard-response,64,346826,0.0-8.0-0.56,614b323022fcd8b7408005a6,650c16f0f2faf8d7a0d14c09,651c1bf3c6eaf8f5c63ff57a,null,null,"<p style=""font-size: 60px; font-family: BACS"">ubALmkdrO</p>",,,,,,,,,,
html-keyboard-response,65,347829,0.0-8.0-0.57,614b323022fcd8b7408005a6,650c16f0f2faf8d7a0d14c09,651c1bf3c6eaf8f5c63ff57a,null,null,"<p style=""font-size: 60px; font-family: BACS"">GLYrALaA</p>",,,,,,,,,,
html-keyboard-response,66,348831,0.0-8.0-0.58,614b323022fcd8b7408005a6,650c16f0f2faf8d7a0d14c09,651c1bf3c6eaf8f5c63ff57a,null,null,"<p style=""font-size: 60px; font-family: BACS"">dRhtcthB</p>",,,,,,,,,,
html-keyboard-response,67,349833,0.0-8.0-0.59,614b323022fcd8b7408005a6,650c16f0f2faf8d7a0d14c09,651c1bf3c6eaf8f5c63ff57a,null,null,"<p style=""font-size: 60px; font-family: BACS"">DOBhYPED</p>",,,,,,,,,,
html-keyboard-response,68,350836,0.0-8.0-0.60,614b323022fcd8b7408005a6,650c16f0f2faf8d7a0d14c09,651c1bf3c6eaf8f5c63ff57a,null,null,"<p style=""font-size: 60px; font-family: BACS"">EtMDMdEPD</p>",,,,,,,,,,
html-keyboard-response,69,351839,0.0-8.0-0.61,614b323022fcd8b7408005a6,650c16f0f2faf8d7a0d14c09,651c1bf3c6eaf8f5c63ff57a,null,null,"<p style=""font-size: 60px; font-family: BACS"">PdDTcthB</p>",,,,,,,,,,
html-keyboard-response,70,352841,0.0-8.0-0.62,614b323022fcd8b7408005a6,650c16f0f2faf8d7a0d14c09,651c1bf3c6eaf8f5c63ff57a,null,null,"<p style=""font-size: 60px; font-family: BACS"">ubALmuUY</p>",,,,,,,,,,
html-keyboard-response,71,353845,0.0-8.0-0.63,614b323022fcd8b7408005a6,650c16f0f2faf8d7a0d14c09,651c1bf3c6eaf8f5c63ff57a,null,null,"<p style=""font-size: 60px; font-family: BACS"">EhbtPED</p>",,,,,,,,,,
html-keyboard-response,72,354847,0.0-8.0-0.64,614b323022fcd8b7408005a6,650c16f0f2faf8d7a0d14c09,651c1bf3c6eaf8f5c63ff57a,null,null,"<p style=""font-size: 60px; font-family: BACS"">DOBhYcthB</p>",,,,,,,,,,
html-keyboard-response,73,355850,0.0-8.0-0.65,614b323022fcd8b7408005a6,650c16f0f2faf8d7a0d14c09,651c1bf3c6eaf8f5c63ff57a,null,null,"<p style=""font-size: 60px; font-family: BACS"">EhbtdEPD</p>",,,,,,,,,,
html-keyboard-response,74,356852,0.0-8.0-0.66,614b323022fcd8b7408005a6,650c16f0f2faf8d7a0d14c09,651c1bf3c6eaf8f5c63ff57a,null,null,"<p style=""font-size: 60px; font-family: BACS"">ZcGdNkdrO</p>",,,,,,,,,,
html-keyboard-response,75,357855,0.0-8.0-0.67,614b323022fcd8b7408005a6,650c16f0f2faf8d7a0d14c09,651c1bf3c6eaf8f5c63ff57a,null,null,"<p style=""font-size: 60px; font-family: BACS"">damYbuUY</p>",,,,,,,,,,
html-keyboard-response,76,358858,0.0-8.0-0.68,614b323022fcd8b7408005a6,650c16f0f2faf8d7a0d14c09,651c1bf3c6eaf8f5c63ff57a,null,null,"<p style=""font-size: 60px; font-family: BACS"">YlCPBdEPD</p>",,,,,,,,,,
html-keyboard-response,77,359862,0.0-8.0-0.69,614b323022fcd8b7408005a6,650c16f0f2faf8d7a0d14c09,651c1bf3c6eaf8f5c63ff57a,null,null,"<p style=""font-size: 60px; font-family: BACS"">JdOAYQGb</p>",,,,,,,,,,
html-keyboard-response,78,360864,0.0-8.0-0.70,614b323022fcd8b7408005a6,650c16f0f2faf8d7a0d14c09,651c1bf3c6eaf8f5c63ff57a,null,null,"<p style=""font-size: 60px; font-family: BACS"">kPOtcDR</p>",,,,,,,,,,
html-keyboard-response,79,361867,0.0-8.0-0.71,614b323022fcd8b7408005a6,650c16f0f2faf8d7a0d14c09,651c1bf3c6eaf8f5c63ff57a,null,null,"<p style=""font-size: 60px; font-family: BACS"">adkrkdrO</p>",,,,,,,,,,
html-keyboard-response,80,362869,0.0-8.0-0.72,614b323022fcd8b7408005a6,650c16f0f2faf8d7a0d14c09,651c1bf3c6eaf8f5c63ff57a,null,null,"<p style=""font-size: 60px; font-family: BACS"">kdaAJGlu</p>",,,,,,,,,,
html-keyboard-response,81,363872,0.0-8.0-0.73,614b323022fcd8b7408005a6,650c16f0f2faf8d7a0d14c09,651c1bf3c6eaf8f5c63ff57a,null,null,"<p style=""font-size: 60px; font-family: BACS"">PCMPKcthB</p>",,,,,,,,,,
html-keyboard-response,82,364875,0.0-8.0-0.74,614b323022fcd8b7408005a6,650c16f0f2faf8d7a0d14c09,651c1bf3c6eaf8f5c63ff57a,null,null,"<p style=""font-size: 60px; font-family: BACS"">PdDTkDOm</p>",,,,,,,,,,
html-keyboard-response,83,365879,0.0-8.0-0.75,614b323022fcd8b7408005a6,650c16f0f2faf8d7a0d14c09,651c1bf3c6eaf8f5c63ff57a,null,null,"<p style=""font-size: 60px; font-family: BACS"">bmbNLaA</p>",,,,,,,,,,
html-keyboard-response,84,366881,0.0-8.0-0.76,614b323022fcd8b7408005a6,650c16f0f2faf8d7a0d14c09,651c1bf3c6eaf8f5c63ff57a,null,null,"<p style=""font-size: 60px; font-family: BACS"">damYbQGb</p>",,,,,,,,,,
html-keyboard-response,85,367889,0.0-8.0-0.77,614b323022fcd8b7408005a6,650c16f0f2faf8d7a0d14c09,651c1bf3c6eaf8f5c63ff57a,null,null,"<p style=""font-size: 60px; font-family: BACS"">cBROBcthB</p>",,,,,,,,,,
html-keyboard-response,86,368903,0.0-8.0-0.78,614b323022fcd8b7408005a6,650c16f0f2faf8d7a0d14c09,651c1bf3c6eaf8f5c63ff57a,null,null,"<p style=""font-size: 60px; font-family: BACS"">PCMPKcDR</p>",,,,,,,,,,
html-keyboard-response,87,369905,0.0-8.0-0.79,614b323022fcd8b7408005a6,650c16f0f2faf8d7a0d14c09,651c1bf3c6eaf8f5c63ff57a,null,null,"<p style=""font-size: 60px; font-family: BACS"">uQkrdGlu</p>",,,,,,,,,,
html-keyboard-response,88,378124,0.0-9.0,614b323022fcd8b7408005a6,650c16f0f2faf8d7a0d14c09,651c1bf3c6eaf8f5c63ff57a,8218, ,"<p>Great, you've seen the first block of words. You may now take a short break.</p>
      <p>Press the spacebar when you're ready to continue.</p>",,,,,,,,,,
html-keyboard-response,89,379131,0.0-10.0-0.0,614b323022fcd8b7408005a6,650c16f0f2faf8d7a0d14c09,651c1bf3c6eaf8f5c63ff57a,null,null,"<p style=""font-size: 60px; font-family: BACS"">uQkrdQGb</p>",,,,,,,,,,
html-keyboard-response,90,380135,0.0-10.0-0.1,614b323022fcd8b7408005a6,650c16f0f2faf8d7a0d14c09,651c1bf3c6eaf8f5c63ff57a,null,null,"<p style=""font-size: 60px; font-family: BACS"">damYbuUY</p>",,,,,,,,,,
html-keyboard-response,91,381137,0.0-10.0-0.2,614b323022fcd8b7408005a6,650c16f0f2faf8d7a0d14c09,651c1bf3c6eaf8f5c63ff57a,null,null,"<p style=""font-size: 60px; font-family: BACS"">EtMDMcDR</p>",,,,,,,,,,
html-keyboard-response,92,382140,0.0-10.0-0.3,614b323022fcd8b7408005a6,650c16f0f2faf8d7a0d14c09,651c1bf3c6eaf8f5c63ff57a,null,null,"<p style=""font-size: 60px; font-family: BACS"">DOBhYPED</p>",,,,,,,,,,
html-keyboard-response,93,383143,0.0-10.0-0.4,614b323022fcd8b7408005a6,650c16f0f2faf8d7a0d14c09,651c1bf3c6eaf8f5c63ff57a,null,null,"<p style=""font-size: 60px; font-family: BACS"">TdmAdEPD</p>",,,,,,,,,,
html-keyboard-response,94,384145,0.0-10.0-0.5,614b323022fcd8b7408005a6,650c16f0f2faf8d7a0d14c09,651c1bf3c6eaf8f5c63ff57a,null,null,"<p style=""font-size: 60px; font-family: BACS"">kdaAJkdrO</p>",,,,,,,,,,
html-keyboard-response,95,385147,0.0-10.0-0.6,614b323022fcd8b7408005a6,650c16f0f2faf8d7a0d14c09,651c1bf3c6eaf8f5c63ff57a,null,null,"<p style=""font-size: 60px; font-family: BACS"">DOBhYkDOm</p>",,,,,,,,,,
html-keyboard-response,96,386149,0.0-10.0-0.7,614b323022fcd8b7408005a6,650c16f0f2faf8d7a0d14c09,651c1bf3c6eaf8f5c63ff57a,null,null,"<p style=""font-size: 60px; font-family: BACS"">GLYrAuUY</p>",,,,,,,,,,
html-keyboard-response,97,387152,0.0-10.0-0.8,614b323022fcd8b7408005a6,650c16f0f2faf8d7a0d14c09,651c1bf3c6eaf8f5c63ff57a,null,null,"<p style=""font-size: 60px; font-family: BACS"">JdOAYQGb</p>",,,,,,,,,,
html-keyboard-response,98,388155,0.0-10.0-0.9,614b323022fcd8b7408005a6,650c16f0f2faf8d7a0d14c09,651c1bf3c6eaf8f5c63ff57a,null,null,"<p style=""font-size: 60px; font-family: BACS"">PdDTcDR</p>",,,,,,,,,,
html-keyboard-response,99,389157,0.0-10.0-0.10,614b323022fcd8b7408005a6,650c16f0f2faf8d7a0d14c09,651c1bf3c6eaf8f5c63ff57a,null,null,"<p style=""font-size: 60px; font-family: BACS"">EhbtkDOm</p>",,,,,,,,,,
html-keyboard-response,100,390160,0.0-10.0-0.11,614b323022fcd8b7408005a6,650c16f0f2faf8d7a0d14c09,651c1bf3c6eaf8f5c63ff57a,null,null,"<p style=""font-size: 60px; font-family: BACS"">LuNZLaA</p>",,,,,,,,,,
html-keyboard-response,101,391162,0.0-10.0-0.12,614b323022fcd8b7408005a6,650c16f0f2faf8d7a0d14c09,651c1bf3c6eaf8f5c63ff57a,null,null,"<p style=""font-size: 60px; font-family: BACS"">YlCPBPED</p>",,,,,,,,,,
html-keyboard-response,102,392165,0.0-10.0-0.13,614b323022fcd8b7408005a6,650c16f0f2faf8d7a0d14c09,651c1bf3c6eaf8f5c63ff57a,null,null,"<p style=""font-size: 60px; font-family: BACS"">EtMDMcthB</p>",,,,,,,,,,
html-keyboard-response,103,393168,0.0-10.0-0.14,614b323022fcd8b7408005a6,650c16f0f2faf8d7a0d14c09,651c1bf3c6eaf8f5c63ff57a,null,null,"<p style=""font-size: 60px; font-family: BACS"">PdDTPED</p>",,,,,,,,,,
html-keyboard-response,104,394170,0.0-10.0-0.15,614b323022fcd8b7408005a6,650c16f0f2faf8d7a0d14c09,651c1bf3c6eaf8f5c63ff57a,null,null,"<p style=""font-size: 60px; font-family: BACS"">YlCPBcDR</p>",,,,,,,,,,
html-keyboard-response,105,395172,0.0-10.0-0.16,614b323022fcd8b7408005a6,650c16f0f2faf8d7a0d14c09,651c1bf3c6eaf8f5c63ff57a,null,null,"<p style=""font-size: 60px; font-family: BACS"">cBROBcthB</p>",,,,,,,,,,
html-keyboard-response,106,396175,0.0-10.0-0.17,614b323022fcd8b7408005a6,650c16f0f2faf8d7a0d14c09,651c1bf3c6eaf8f5c63ff57a,null,null,"<p style=""font-size: 60px; font-family: BACS"">bmbNGlu</p>",,,,,,,,,,
html-keyboard-response,107,397177,0.0-10.0-0.18,614b323022fcd8b7408005a6,650c16f0f2faf8d7a0d14c09,651c1bf3c6eaf8f5c63ff57a,null,null,"<p style=""font-size: 60px; font-family: BACS"">DOBhYcthB</p>",,,,,,,,,,
html-keyboard-response,108,398180,0.0-10.0-0.19,614b323022fcd8b7408005a6,650c16f0f2faf8d7a0d14c09,651c1bf3c6eaf8f5c63ff57a,null,null,"<p style=""font-size: 60px; font-family: BACS"">JdOAYLaA</p>",,,,,,,,,,
html-keyboard-response,109,399182,0.0-10.0-0.20,614b323022fcd8b7408005a6,650c16f0f2faf8d7a0d14c09,651c1bf3c6eaf8f5c63ff57a,null,null,"<p style=""font-size: 60px; font-family: BACS"">cBROBPED</p>",,,,,,,,,,
html-keyboard-response,110,400185,0.0-10.0-0.21,614b323022fcd8b7408005a6,650c16f0f2faf8d7a0d14c09,651c1bf3c6eaf8f5c63ff57a,null,null,"<p style=""font-size: 60px; font-family: BACS"">adkrkdrO</p>",,,,,,,,,,
html-keyboard-response,111,401187,0.0-10.0-0.22,614b323022fcd8b7408005a6,650c16f0f2faf8d7a0d14c09,651c1bf3c6eaf8f5c63ff57a,null,null,"<p style=""font-size: 60px; font-family: BACS"">TdmActhB</p>",,,,,,,,,,
html-keyboard-response,112,402191,0.0-10.0-0.23,614b323022fcd8b7408005a6,650c16f0f2faf8d7a0d14c09,651c1bf3c6eaf8f5c63ff57a,null,null,"<p style=""font-size: 60px; font-family: BACS"">YlCPBkDOm</p>",,,,,,,,,,
html-keyboard-response,113,403194,0.0-10.0-0.24,614b323022fcd8b7408005a6,650c16f0f2faf8d7a0d14c09,651c1bf3c6eaf8f5c63ff57a,null,null,"<p style=""font-size: 60px; font-family: BACS"">cBROBdEPD</p>",,,,,,,,,,
html-keyboard-response,114,404196,0.0-10.0-0.25,614b323022fcd8b7408005a6,650c16f0f2faf8d7a0d14c09,651c1bf3c6eaf8f5c63ff57a,null,null,"<p style=""font-size: 60px; font-family: BACS"">LuNZQGb</p>",,,,,,,,,,
html-keyboard-response,115,405199,0.0-10.0-0.26,614b323022fcd8b7408005a6,650c16f0f2faf8d7a0d14c09,651c1bf3c6eaf8f5c63ff57a,null,null,"<p style=""font-size: 60px; font-family: BACS"">PCMPKPED</p>",,,,,,,,,,
html-keyboard-response,116,406202,0.0-10.0-0.27,614b323022fcd8b7408005a6,650c16f0f2faf8d7a0d14c09,651c1bf3c6eaf8f5c63ff57a,null,null,"<p style=""font-size: 60px; font-family: BACS"">EtMDMdEPD</p>",,,,,,,,,,
html-keyboard-response,117,407205,0.0-10.0-0.28,614b323022fcd8b7408005a6,650c16f0f2faf8d7a0d14c09,651c1bf3c6eaf8f5c63ff57a,null,null,"<p style=""font-size: 60px; font-family: BACS"">uQkrduUY</p>",,,,,,,,,,
html-keyboard-response,118,408208,0.0-10.0-0.29,614b323022fcd8b7408005a6,650c16f0f2faf8d7a0d14c09,651c1bf3c6eaf8f5c63ff57a,null,null,"<p style=""font-size: 60px; font-family: BACS"">GLYrAkdrO</p>",,,,,,,,,,
html-keyboard-response,119,409210,0.0-10.0-0.30,614b323022fcd8b7408005a6,650c16f0f2faf8d7a0d14c09,651c1bf3c6eaf8f5c63ff57a,null,null,"<p style=""font-size: 60px; font-family: BACS"">PdDTkDOm</p>",,,,,,,,,,
html-keyboard-response,120,410213,0.0-10.0-0.31,614b323022fcd8b7408005a6,650c16f0f2faf8d7a0d14c09,651c1bf3c6eaf8f5c63ff57a,null,null,"<p style=""font-size: 60px; font-family: BACS"">bmbNQGb</p>",,,,,,,,,,
html-keyboard-response,121,411216,0.0-10.0-0.32,614b323022fcd8b7408005a6,650c16f0f2faf8d7a0d14c09,651c1bf3c6eaf8f5c63ff57a,null,null,"<p style=""font-size: 60px; font-family: BACS"">kPOtPED</p>",,,,,,,,,,
html-keyboard-response,122,412218,0.0-10.0-0.33,614b323022fcd8b7408005a6,650c16f0f2faf8d7a0d14c09,651c1bf3c6eaf8f5c63ff57a,null,null,"<p style=""font-size: 60px; font-family: BACS"">ubALmQGb</p>",,,,,,,,,,
html-keyboard-response,123,413220,0.0-10.0-0.34,614b323022fcd8b7408005a6,650c16f0f2faf8d7a0d14c09,651c1bf3c6eaf8f5c63ff57a,null,null,"<p style=""font-size: 60px; font-family: BACS"">kPOtcthB</p>",,,,,,,,,,
html-keyboard-response,124,414231,0.0-10.0-0.35,614b323022fcd8b7408005a6,650c16f0f2faf8d7a0d14c09,651c1bf3c6eaf8f5c63ff57a,null,null,"<p style=""font-size: 60px; font-family: BACS"">damYbQGb</p>",,,,,,,,,,
html-keyboard-response,125,415237,0.0-10.0-0.36,614b323022fcd8b7408005a6,650c16f0f2faf8d7a0d14c09,651c1bf3c6eaf8f5c63ff57a,null,null,"<p style=""font-size: 60px; font-family: BACS"">LuNZGlu</p>",,,,,,,,,,
html-keyboard-response,126,416239,0.0-10.0-0.37,614b323022fcd8b7408005a6,650c16f0f2faf8d7a0d14c09,651c1bf3c6eaf8f5c63ff57a,null,null,"<p style=""font-size: 60px; font-family: BACS"">YlCPBdEPD</p>",,,,,,,,,,
html-keyboard-response,127,417242,0.0-10.0-0.38,614b323022fcd8b7408005a6,650c16f0f2faf8d7a0d14c09,651c1bf3c6eaf8f5c63ff57a,null,null,"<p style=""font-size: 60px; font-family: BACS"">ubALmLaA</p>",,,,,,,,,,
html-keyboard-response,128,418245,0.0-10.0-0.39,614b323022fcd8b7408005a6,650c16f0f2faf8d7a0d14c09,651c1bf3c6eaf8f5c63ff57a,null,null,"<p style=""font-size: 60px; font-family: BACS"">bmbNkdrO</p>",,,,,,,,,,
html-keyboard-response,129,419248,0.0-10.0-0.40,614b323022fcd8b7408005a6,650c16f0f2faf8d7a0d14c09,651c1bf3c6eaf8f5c63ff57a,null,null,"<p style=""font-size: 60px; font-family: BACS"">uQkrdLaA</p>",,,,,,,,,,
html-keyboard-response,130,420251,0.0-10.0-0.41,614b323022fcd8b7408005a6,650c16f0f2faf8d7a0d14c09,651c1bf3c6eaf8f5c63ff57a,null,null,"<p style=""font-size: 60px; font-family: BACS"">dRhtPED</p>",,,,,,,,,,
html-keyboard-response,131,421254,0.0-10.0-0.42,614b323022fcd8b7408005a6,650c16f0f2faf8d7a0d14c09,651c1bf3c6eaf8f5c63ff57a,null,null,"<p style=""font-size: 60px; font-family: BACS"">EtMDMkDOm</p>",,,,,,,,,,
html-keyboard-response,132,422257,0.0-10.0-0.43,614b323022fcd8b7408005a6,650c16f0f2faf8d7a0d14c09,651c1bf3c6eaf8f5c63ff57a,null,null,"<p style=""font-size: 60px; font-family: BACS"">dRhtdEPD</p>",,,,,,,,,,
html-keyboard-response,133,423260,0.0-10.0-0.44,614b323022fcd8b7408005a6,650c16f0f2faf8d7a0d14c09,651c1bf3c6eaf8f5c63ff57a,null,null,"<p style=""font-size: 60px; font-family: BACS"">kdaAJuUY</p>",,,,,,,,,,
html-keyboard-response,134,424262,0.0-10.0-0.45,614b323022fcd8b7408005a6,650c16f0f2faf8d7a0d14c09,651c1bf3c6eaf8f5c63ff57a,null,null,"<p style=""font-size: 60px; font-family: BACS"">uQkrdGlu</p>",,,,,,,,,,
html-keyboard-response,135,425264,0.0-10.0-0.46,614b323022fcd8b7408005a6,650c16f0f2faf8d7a0d14c09,651c1bf3c6eaf8f5c63ff57a,null,null,"<p style=""font-size: 60px; font-family: BACS"">dRhtcthB</p>",,,,,,,,,,
html-keyboard-response,136,426268,0.0-10.0-0.47,614b323022fcd8b7408005a6,650c16f0f2faf8d7a0d14c09,651c1bf3c6eaf8f5c63ff57a,null,null,"<p style=""font-size: 60px; font-family: BACS"">kPOtcDR</p>",,,,,,,,,,
html-keyboard-response,137,427270,0.0-10.0-0.48,614b323022fcd8b7408005a6,650c16f0f2faf8d7a0d14c09,651c1bf3c6eaf8f5c63ff57a,null,null,"<p style=""font-size: 60px; font-family: BACS"">EhbtdEPD</p>",,,,,,,,,,
html-keyboard-response,138,428273,0.0-10.0-0.49,614b323022fcd8b7408005a6,650c16f0f2faf8d7a0d14c09,651c1bf3c6eaf8f5c63ff57a,null,null,"<p style=""font-size: 60px; font-family: BACS"">dRhtcDR</p>",,,,,,,,,,
html-keyboard-response,139,429276,0.0-10.0-0.50,614b323022fcd8b7408005a6,650c16f0f2faf8d7a0d14c09,651c1bf3c6eaf8f5c63ff57a,null,null,"<p style=""font-size: 60px; font-family: BACS"">PdDTcthB</p>",,,,,,,,,,
html-keyboard-response,140,430279,0.0-10.0-0.51,614b323022fcd8b7408005a6,650c16f0f2faf8d7a0d14c09,651c1bf3c6eaf8f5c63ff57a,null,null,"<p style=""font-size: 60px; font-family: BACS"">DOBhYdEPD</p>",,,,,,,,,,
html-keyboard-response,141,431281,0.0-10.0-0.52,614b323022fcd8b7408005a6,650c16f0f2faf8d7a0d14c09,651c1bf3c6eaf8f5c63ff57a,null,null,"<p style=""font-size: 60px; font-family: BACS"">adkruUY</p>",,,,,,,,,,
html-keyboard-response,142,432284,0.0-10.0-0.53,614b323022fcd8b7408005a6,650c16f0f2faf8d7a0d14c09,651c1bf3c6eaf8f5c63ff57a,null,null,"<p style=""font-size: 60px; font-family: BACS"">ZcGdNkdrO</p>",,,,,,,,,,
html-keyboard-response,143,433286,0.0-10.0-0.54,614b323022fcd8b7408005a6,650c16f0f2faf8d7a0d14c09,651c1bf3c6eaf8f5c63ff57a,null,null,"<p style=""font-size: 60px; font-family: BACS"">EhbtcDR</p>",,,,,,,,,,
html-keyboard-response,144,434289,0.0-10.0-0.55,614b323022fcd8b7408005a6,650c16f0f2faf8d7a0d14c09,651c1bf3c6eaf8f5c63ff57a,null,null,"<p style=""font-size: 60px; font-family: BACS"">GLYrAGlu</p>",,,,,,,,,,
html-keyboard-response,145,435291,0.0-10.0-0.56,614b323022fcd8b7408005a6,650c16f0f2faf8d7a0d14c09,651c1bf3c6eaf8f5c63ff57a,null,null,"<p style=""font-size: 60px; font-family: BACS"">TdmAcDR</p>",,,,,,,,,,
html-keyboard-response,146,436294,0.0-10.0-0.57,614b323022fcd8b7408005a6,650c16f0f2faf8d7a0d14c09,651c1bf3c6eaf8f5c63ff57a,null,null,"<p style=""font-size: 60px; font-family: BACS"">PCMPKcthB</p>",,,,,,,,,,
html-keyboard-response,147,437297,0.0-10.0-0.58,614b323022fcd8b7408005a6,650c16f0f2faf8d7a0d14c09,651c1bf3c6eaf8f5c63ff57a,null,null,"<p style=""font-size: 60px; font-family: BACS"">kdaAJLaA</p>",,,,,,,,,,
html-keyboard-response,148,438299,0.0-10.0-0.59,614b323022fcd8b7408005a6,650c16f0f2faf8d7a0d14c09,651c1bf3c6eaf8f5c63ff57a,null,null,"<p style=""font-size: 60px; font-family: BACS"">PCMPKkDOm</p>",,,,,,,,,,
html-keyboard-response,149,439302,0.0-10.0-0.60,614b323022fcd8b7408005a6,650c16f0f2faf8d7a0d14c09,651c1bf3c6eaf8f5c63ff57a,null,null,"<p style=""font-size: 60px; font-family: BACS"">kdaAJGlu</p>",,,,,,,,,,
html-keyboard-response,150,440305,0.0-10.0-0.61,614b323022fcd8b7408005a6,650c16f0f2faf8d7a0d14c09,651c1bf3c6eaf8f5c63ff57a,null,null,"<p style=""font-size: 60px; font-family: BACS"">adkrQGb</p>",,,,,,,,,,
html-keyboard-response,151,441308,0.0-10.0-0.62,614b323022fcd8b7408005a6,650c16f0f2faf8d7a0d14c09,651c1bf3c6eaf8f5c63ff57a,null,null,"<p style=""font-size: 60px; font-family: BACS"">kPOtdEPD</p>",,,,,,,,,,
html-keyboard-response,152,442310,0.0-10.0-0.63,614b323022fcd8b7408005a6,650c16f0f2faf8d7a0d14c09,651c1bf3c6eaf8f5c63ff57a,null,null,"<p style=""font-size: 60px; font-family: BACS"">JdOAYuUY</p>",,,,,,,,,,
html-keyboard-response,153,443313,0.0-10.0-0.64,614b323022fcd8b7408005a6,650c16f0f2faf8d7a0d14c09,651c1bf3c6eaf8f5c63ff57a,null,null,"<p style=""font-size: 60px; font-family: BACS"">damYbLaA</p>",,,,,,,,,,
html-keyboard-response,154,444316,0.0-10.0-0.65,614b323022fcd8b7408005a6,650c16f0f2faf8d7a0d14c09,651c1bf3c6eaf8f5c63ff57a,null,null,"<p style=""font-size: 60px; font-family: BACS"">ubALmkdrO</p>",,,,,,,,,,
html-keyboard-response,155,445318,0.0-10.0-0.66,614b323022fcd8b7408005a6,650c16f0f2faf8d7a0d14c09,651c1bf3c6eaf8f5c63ff57a,null,null,"<p style=""font-size: 60px; font-family: BACS"">bmbNLaA</p>",,,,,,,,,,
html-keyboard-response,156,446320,0.0-10.0-0.67,614b323022fcd8b7408005a6,650c16f0f2faf8d7a0d14c09,651c1bf3c6eaf8f5c63ff57a,null,null,"<p style=""font-size: 60px; font-family: BACS"">EhbtPED</p>",,,,,,,,,,
html-keyboard-response,157,447322,0.0-10.0-0.68,614b323022fcd8b7408005a6,650c16f0f2faf8d7a0d14c09,651c1bf3c6eaf8f5c63ff57a,null,null,"<p style=""font-size: 60px; font-family: BACS"">LuNZkdrO</p>",,,,,,,,,,
html-keyboard-response,158,448325,0.0-10.0-0.69,614b323022fcd8b7408005a6,650c16f0f2faf8d7a0d14c09,651c1bf3c6eaf8f5c63ff57a,null,null,"<p style=""font-size: 60px; font-family: BACS"">ZcGdNQGb</p>",,,,,,,,,,
html-keyboard-response,159,449328,0.0-10.0-0.70,614b323022fcd8b7408005a6,650c16f0f2faf8d7a0d14c09,651c1bf3c6eaf8f5c63ff57a,null,null,"<p style=""font-size: 60px; font-family: BACS"">GLYrALaA</p>",,,,,,,,,,
html-keyboard-response,160,450331,0.0-10.0-0.71,614b323022fcd8b7408005a6,650c16f0f2faf8d7a0d14c09,651c1bf3c6eaf8f5c63ff57a,null,null,"<p style=""font-size: 60px; font-family: BACS"">adkrGlu</p>",,,,,,,,,,
html-keyboard-response,161,451333,0.0-10.0-0.72,614b323022fcd8b7408005a6,650c16f0f2faf8d7a0d14c09,651c1bf3c6eaf8f5c63ff57a,null,null,"<p style=""font-size: 60px; font-family: BACS"">ZcGdNuUY</p>",,,,,,,,,,
html-keyboard-response,162,452336,0.0-10.0-0.73,614b323022fcd8b7408005a6,650c16f0f2faf8d7a0d14c09,651c1bf3c6eaf8f5c63ff57a,null,null,"<p style=""font-size: 60px; font-family: BACS"">TdmAkDOm</p>",,,,,,,,,,
html-keyboard-response,163,453338,0.0-10.0-0.74,614b323022fcd8b7408005a6,650c16f0f2faf8d7a0d14c09,651c1bf3c6eaf8f5c63ff57a,null,null,"<p style=""font-size: 60px; font-family: BACS"">ubALmuUY</p>",,,,,,,,,,
html-keyboard-response,164,454341,0.0-10.0-0.75,614b323022fcd8b7408005a6,650c16f0f2faf8d7a0d14c09,651c1bf3c6eaf8f5c63ff57a,null,null,"<p style=""font-size: 60px; font-family: BACS"">ZcGdNGlu</p>",,,,,,,,,,
html-keyboard-response,165,455344,0.0-10.0-0.76,614b323022fcd8b7408005a6,650c16f0f2faf8d7a0d14c09,651c1bf3c6eaf8f5c63ff57a,null,null,"<p style=""font-size: 60px; font-family: BACS"">cBROBkDOm</p>",,,,,,,,,,
html-keyboard-response,166,456347,0.0-10.0-0.77,614b323022fcd8b7408005a6,650c16f0f2faf8d7a0d14c09,651c1bf3c6eaf8f5c63ff57a,null,null,"<p style=""font-size: 60px; font-family: BACS"">damYbGlu</p>",,,,,,,,,,
html-keyboard-response,167,457350,0.0-10.0-0.78,614b323022fcd8b7408005a6,650c16f0f2faf8d7a0d14c09,651c1bf3c6eaf8f5c63ff57a,null,null,"<p style=""font-size: 60px; font-family: BACS"">JdOAYkdrO</p>",,,,,,,,,,
html-keyboard-response,168,458353,0.0-10.0-0.79,614b323022fcd8b7408005a6,650c16f0f2faf8d7a0d14c09,651c1bf3c6eaf8f5c63ff57a,null,null,"<p style=""font-size: 60px; font-family: BACS"">PCMPKcDR</p>",,,,,,,,,,
html-keyboard-response,169,475595,0.0-11.0,614b323022fcd8b7408005a6,650c16f0f2faf8d7a0d14c09,651c1bf3c6eaf8f5c63ff57a,17242, ,"<p>Great, you've seen the second block of words. You may now take a short break.</p>
      <p>Press the spacebar when you're ready to continue.</p>",,,,,,,,,,
html-keyboard-response,170,476606,0.0-12.0-0.0,614b323022fcd8b7408005a6,650c16f0f2faf8d7a0d14c09,651c1bf3c6eaf8f5c63ff57a,null,null,"<p style=""font-size: 60px; font-family: BACS"">TdmAcDR</p>",,,,,,,,,,
html-keyboard-response,171,477625,0.0-12.0-0.1,614b323022fcd8b7408005a6,650c16f0f2faf8d7a0d14c09,651c1bf3c6eaf8f5c63ff57a,null,null,"<p style=""font-size: 60px; font-family: BACS"">damYbGlu</p>",,,,,,,,,,
html-keyboard-response,172,478628,0.0-12.0-0.2,614b323022fcd8b7408005a6,650c16f0f2faf8d7a0d14c09,651c1bf3c6eaf8f5c63ff57a,null,null,"<p style=""font-size: 60px; font-family: BACS"">dRhtcthB</p>",,,,,,,,,,
html-keyboard-response,173,479630,0.0-12.0-0.3,614b323022fcd8b7408005a6,650c16f0f2faf8d7a0d14c09,651c1bf3c6eaf8f5c63ff57a,null,null,"<p style=""font-size: 60px; font-family: BACS"">kdaAJuUY</p>",,,,,,,,,,
html-keyboard-response,174,480632,0.0-12.0-0.4,614b323022fcd8b7408005a6,650c16f0f2faf8d7a0d14c09,651c1bf3c6eaf8f5c63ff57a,null,null,"<p style=""font-size: 60px; font-family: BACS"">cBROBdEPD</p>",,,,,,,,,,
html-keyboard-response,175,481635,0.0-12.0-0.5,614b323022fcd8b7408005a6,650c16f0f2faf8d7a0d14c09,651c1bf3c6eaf8f5c63ff57a,null,null,"<p style=""font-size: 60px; font-family: BACS"">damYbLaA</p>",,,,,,,,,,
html-keyboard-response,176,482638,0.0-12.0-0.6,614b323022fcd8b7408005a6,650c16f0f2faf8d7a0d14c09,651c1bf3c6eaf8f5c63ff57a,null,null,"<p style=""font-size: 60px; font-family: BACS"">PCMPKPED</p>",,,,,,,,,,
html-keyboard-response,177,483639,0.0-12.0-0.7,614b323022fcd8b7408005a6,650c16f0f2faf8d7a0d14c09,651c1bf3c6eaf8f5c63ff57a,null,null,"<p style=""font-size: 60px; font-family: BACS"">YlCPBkDOm</p>",,,,,,,,,,
html-keyboard-response,178,484641,0.0-12.0-0.8,614b323022fcd8b7408005a6,650c16f0f2faf8d7a0d14c09,651c1bf3c6eaf8f5c63ff57a,null,null,"<p style=""font-size: 60px; font-family: BACS"">LuNZGlu</p>",,,,,,,,,,
html-keyboard-response,179,485643,0.0-12.0-0.9,614b323022fcd8b7408005a6,650c16f0f2faf8d7a0d14c09,651c1bf3c6eaf8f5c63ff57a,null,null,"<p style=""font-size: 60px; font-family: BACS"">dRhtcDR</p>",,,,,,,,,,
html-keyboard-response,180,486645,0.0-12.0-0.10,614b323022fcd8b7408005a6,650c16f0f2faf8d7a0d14c09,651c1bf3c6eaf8f5c63ff57a,null,null,"<p style=""font-size: 60px; font-family: BACS"">ubALmQGb</p>",,,,,,,,,,
html-keyboard-response,181,487647,0.0-12.0-0.11,614b323022fcd8b7408005a6,650c16f0f2faf8d7a0d14c09,651c1bf3c6eaf8f5c63ff57a,null,null,"<p style=""font-size: 60px; font-family: BACS"">EhbtcDR</p>",,,,,,,,,,
html-keyboard-response,182,488649,0.0-12.0-0.12,614b323022fcd8b7408005a6,650c16f0f2faf8d7a0d14c09,651c1bf3c6eaf8f5c63ff57a,null,null,"<p style=""font-size: 60px; font-family: BACS"">LuNZkdrO</p>",,,,,,,,,,
html-keyboard-response,183,489652,0.0-12.0-0.13,614b323022fcd8b7408005a6,650c16f0f2faf8d7a0d14c09,651c1bf3c6eaf8f5c63ff57a,null,null,"<p style=""font-size: 60px; font-family: BACS"">YlCPBdEPD</p>",,,,,,,,,,
html-keyboard-response,184,490654,0.0-12.0-0.14,614b323022fcd8b7408005a6,650c16f0f2faf8d7a0d14c09,651c1bf3c6eaf8f5c63ff57a,null,null,"<p style=""font-size: 60px; font-family: BACS"">PdDTcDR</p>",,,,,,,,,,
html-keyboard-response,185,491657,0.0-12.0-0.15,614b323022fcd8b7408005a6,650c16f0f2faf8d7a0d14c09,651c1bf3c6eaf8f5c63ff57a,null,null,"<p style=""font-size: 60px; font-family: BACS"">adkrQGb</p>",,,,,,,,,,
html-keyboard-response,186,492659,0.0-12.0-0.16,614b323022fcd8b7408005a6,650c16f0f2faf8d7a0d14c09,651c1bf3c6eaf8f5c63ff57a,null,null,"<p style=""font-size: 60px; font-family: BACS"">YlCPBPED</p>",,,,,,,,,,
html-keyboard-response,187,493680,0.0-12.0-0.17,614b323022fcd8b7408005a6,650c16f0f2faf8d7a0d14c09,651c1bf3c6eaf8f5c63ff57a,null,null,"<p style=""font-size: 60px; font-family: BACS"">TdmAkDOm</p>",,,,,,,,,,
html-keyboard-response,188,494683,0.0-12.0-0.18,614b323022fcd8b7408005a6,650c16f0f2faf8d7a0d14c09,651c1bf3c6eaf8f5c63ff57a,null,null,"<p style=""font-size: 60px; font-family: BACS"">ZcGdNkdrO</p>",,,,,,,,,,
html-keyboard-response,189,495685,0.0-12.0-0.19,614b323022fcd8b7408005a6,650c16f0f2faf8d7a0d14c09,651c1bf3c6eaf8f5c63ff57a,null,null,"<p style=""font-size: 60px; font-family: BACS"">TdmActhB</p>",,,,,,,,,,
html-keyboard-response,190,496688,0.0-12.0-0.20,614b323022fcd8b7408005a6,650c16f0f2faf8d7a0d14c09,651c1bf3c6eaf8f5c63ff57a,null,null,"<p style=""font-size: 60px; font-family: BACS"">kdaAJGlu</p>",,,,,,,,,,
html-keyboard-response,191,497690,0.0-12.0-0.21,614b323022fcd8b7408005a6,650c16f0f2faf8d7a0d14c09,651c1bf3c6eaf8f5c63ff57a,null,null,"<p style=""font-size: 60px; font-family: BACS"">bmbNLaA</p>",,,,,,,,,,
html-keyboard-response,192,498693,0.0-12.0-0.22,614b323022fcd8b7408005a6,650c16f0f2faf8d7a0d14c09,651c1bf3c6eaf8f5c63ff57a,null,null,"<p style=""font-size: 60px; font-family: BACS"">JdOAYuUY</p>",,,,,,,,,,
html-keyboard-response,193,499696,0.0-12.0-0.23,614b323022fcd8b7408005a6,650c16f0f2faf8d7a0d14c09,651c1bf3c6eaf8f5c63ff57a,null,null,"<p style=""font-size: 60px; font-family: BACS"">ZcGdNGlu</p>",,,,,,,,,,
html-keyboard-response,194,500698,0.0-12.0-0.24,614b323022fcd8b7408005a6,650c16f0f2faf8d7a0d14c09,651c1bf3c6eaf8f5c63ff57a,null,null,"<p style=""font-size: 60px; font-family: BACS"">kPOtdEPD</p>",,,,,,,,,,
html-keyboard-response,195,501700,0.0-12.0-0.25,614b323022fcd8b7408005a6,650c16f0f2faf8d7a0d14c09,651c1bf3c6eaf8f5c63ff57a,null,null,"<p style=""font-size: 60px; font-family: BACS"">DOBhYcthB</p>",,,,,,,,,,
html-keyboard-response,196,502715,0.0-12.0-0.26,614b323022fcd8b7408005a6,650c16f0f2faf8d7a0d14c09,651c1bf3c6eaf8f5c63ff57a,null,null,"<p style=""font-size: 60px; font-family: BACS"">EhbtkDOm</p>",,,,,,,,,,
html-keyboard-response,197,503718,0.0-12.0-0.27,614b323022fcd8b7408005a6,650c16f0f2faf8d7a0d14c09,651c1bf3c6eaf8f5c63ff57a,null,null,"<p style=""font-size: 60px; font-family: BACS"">dRhtdEPD</p>",,,,,,,,,,
html-keyboard-response,198,504721,0.0-12.0-0.28,614b323022fcd8b7408005a6,650c16f0f2faf8d7a0d14c09,651c1bf3c6eaf8f5c63ff57a,null,null,"<p style=""font-size: 60px; font-family: BACS"">adkrGlu</p>",,,,,,,,,,
html-keyboard-response,199,505724,0.0-12.0-0.29,614b323022fcd8b7408005a6,650c16f0f2faf8d7a0d14c09,651c1bf3c6eaf8f5c63ff57a,null,null,"<p style=""font-size: 60px; font-family: BACS"">DOBhYkDOm</p>",,,,,,,,,,
html-keyboard-response,200,506727,0.0-12.0-0.30,614b323022fcd8b7408005a6,650c16f0f2faf8d7a0d14c09,651c1bf3c6eaf8f5c63ff57a,null,null,"<p style=""font-size: 60px; font-family: BACS"">dRhtPED</p>",,,,,,,,,,
html-keyboard-response,201,507731,0.0-12.0-0.31,614b323022fcd8b7408005a6,650c16f0f2faf8d7a0d14c09,651c1bf3c6eaf8f5c63ff57a,null,null,"<p style=""font-size: 60px; font-family: BACS"">PCMPKkDOm</p>",,,,,,,,,,
html-keyboard-response,202,508733,0.0-12.0-0.32,614b323022fcd8b7408005a6,650c16f0f2faf8d7a0d14c09,651c1bf3c6eaf8f5c63ff57a,null,null,"<p style=""font-size: 60px; font-family: BACS"">EhbtPED</p>",,,,,,,,,,
html-keyboard-response,203,509737,0.0-12.0-0.33,614b323022fcd8b7408005a6,650c16f0f2faf8d7a0d14c09,651c1bf3c6eaf8f5c63ff57a,null,null,"<p style=""font-size: 60px; font-family: BACS"">JdOAYLaA</p>",,,,,,,,,,
html-keyboard-response,204,510739,0.0-12.0-0.34,614b323022fcd8b7408005a6,650c16f0f2faf8d7a0d14c09,651c1bf3c6eaf8f5c63ff57a,null,null,"<p style=""font-size: 60px; font-family: BACS"">uQkrduUY</p>",,,,,,,,,,
html-keyboard-response,205,511750,0.0-12.0-0.35,614b323022fcd8b7408005a6,650c16f0f2faf8d7a0d14c09,651c1bf3c6eaf8f5c63ff57a,null,null,"<p style=""font-size: 60px; font-family: BACS"">PdDTcthB</p>",,,,,,,,,,
html-keyboard-response,206,512753,0.0-12.0-0.36,614b323022fcd8b7408005a6,650c16f0f2faf8d7a0d14c09,651c1bf3c6eaf8f5c63ff57a,null,null,"<p style=""font-size: 60px; font-family: BACS"">kdaAJLaA</p>",,,,,,,,,,
html-keyboard-response,207,513766,0.0-12.0-0.37,614b323022fcd8b7408005a6,650c16f0f2faf8d7a0d14c09,651c1bf3c6eaf8f5c63ff57a,null,null,"<p style=""font-size: 60px; font-family: BACS"">uQkrdGlu</p>",,,,,,,,,,
html-keyboard-response,208,514769,0.0-12.0-0.38,614b323022fcd8b7408005a6,650c16f0f2faf8d7a0d14c09,651c1bf3c6eaf8f5c63ff57a,null,null,"<p style=""font-size: 60px; font-family: BACS"">LuNZLaA</p>",,,,,,,,,,
html-keyboard-response,209,515780,0.0-12.0-0.39,614b323022fcd8b7408005a6,650c16f0f2faf8d7a0d14c09,651c1bf3c6eaf8f5c63ff57a,null,null,"<p style=""font-size: 60px; font-family: BACS"">damYbuUY</p>",,,,,,,,,,
html-keyboard-response,210,516789,0.0-12.0-0.40,614b323022fcd8b7408005a6,650c16f0f2faf8d7a0d14c09,651c1bf3c6eaf8f5c63ff57a,null,null,"<p style=""font-size: 60px; font-family: BACS"">kPOtcDR</p>",,,,,,,,,,
html-keyboard-response,211,517792,0.0-12.0-0.41,614b323022fcd8b7408005a6,650c16f0f2faf8d7a0d14c09,651c1bf3c6eaf8f5c63ff57a,null,null,"<p style=""font-size: 60px; font-family: BACS"">cBROBPED</p>",,,,,,,,,,
html-keyboard-response,212,518793,0.0-12.0-0.42,614b323022fcd8b7408005a6,650c16f0f2faf8d7a0d14c09,651c1bf3c6eaf8f5c63ff57a,null,null,"<p style=""font-size: 60px; font-family: BACS"">kPOtcthB</p>",,,,,,,,,,
html-keyboard-response,213,519817,0.0-12.0-0.43,614b323022fcd8b7408005a6,650c16f0f2faf8d7a0d14c09,651c1bf3c6eaf8f5c63ff57a,null,null,"<p style=""font-size: 60px; font-family: BACS"">EhbtdEPD</p>",,,,,,,,,,
html-keyboard-response,214,520819,0.0-12.0-0.44,614b323022fcd8b7408005a6,650c16f0f2faf8d7a0d14c09,651c1bf3c6eaf8f5c63ff57a,null,null,"<p style=""font-size: 60px; font-family: BACS"">ubALmuUY</p>",,,,,,,,,,
html-keyboard-response,215,521821,0.0-12.0-0.45,614b323022fcd8b7408005a6,650c16f0f2faf8d7a0d14c09,651c1bf3c6eaf8f5c63ff57a,null,null,"<p style=""font-size: 60px; font-family: BACS"">LuNZQGb</p>",,,,,,,,,,
html-keyboard-response,216,522823,0.0-12.0-0.46,614b323022fcd8b7408005a6,650c16f0f2faf8d7a0d14c09,651c1bf3c6eaf8f5c63ff57a,null,null,"<p style=""font-size: 60px; font-family: BACS"">adkrkdrO</p>",,,,,,,,,,
html-keyboard-response,217,523825,0.0-12.0-0.47,614b323022fcd8b7408005a6,650c16f0f2faf8d7a0d14c09,651c1bf3c6eaf8f5c63ff57a,null,null,"<p style=""font-size: 60px; font-family: BACS"">PCMPKcthB</p>",,,,,,,,,,
html-keyboard-response,218,524828,0.0-12.0-0.48,614b323022fcd8b7408005a6,650c16f0f2faf8d7a0d14c09,651c1bf3c6eaf8f5c63ff57a,null,null,"<p style=""font-size: 60px; font-family: BACS"">PdDTPED</p>",,,,,,,,,,
html-keyboard-response,219,525831,0.0-12.0-0.49,614b323022fcd8b7408005a6,650c16f0f2faf8d7a0d14c09,651c1bf3c6eaf8f5c63ff57a,null,null,"<p style=""font-size: 60px; font-family: BACS"">ZcGdNQGb</p>",,,,,,,,,,
html-keyboard-response,220,526833,0.0-12.0-0.50,614b323022fcd8b7408005a6,650c16f0f2faf8d7a0d14c09,651c1bf3c6eaf8f5c63ff57a,null,null,"<p style=""font-size: 60px; font-family: BACS"">JdOAYkdrO</p>",,,,,,,,,,
html-keyboard-response,221,527835,0.0-12.0-0.51,614b323022fcd8b7408005a6,650c16f0f2faf8d7a0d14c09,651c1bf3c6eaf8f5c63ff57a,null,null,"<p style=""font-size: 60px; font-family: BACS"">GLYrALaA</p>",,,,,,,,,,
html-keyboard-response,222,528838,0.0-12.0-0.52,614b323022fcd8b7408005a6,650c16f0f2faf8d7a0d14c09,651c1bf3c6eaf8f5c63ff57a,null,null,"<p style=""font-size: 60px; font-family: BACS"">ZcGdNuUY</p>",,,,,,,,,,
html-keyboard-response,223,529840,0.0-12.0-0.53,614b323022fcd8b7408005a6,650c16f0f2faf8d7a0d14c09,651c1bf3c6eaf8f5c63ff57a,null,null,"<p style=""font-size: 60px; font-family: BACS"">damYbQGb</p>",,,,,,,,,,
html-keyboard-response,224,530842,0.0-12.0-0.54,614b323022fcd8b7408005a6,650c16f0f2faf8d7a0d14c09,651c1bf3c6eaf8f5c63ff57a,null,null,"<p style=""font-size: 60px; font-family: BACS"">EtMDMkDOm</p>",,,,,,,,,,
html-keyboard-response,225,531845,0.0-12.0-0.55,614b323022fcd8b7408005a6,650c16f0f2faf8d7a0d14c09,651c1bf3c6eaf8f5c63ff57a,null,null,"<p style=""font-size: 60px; font-family: BACS"">GLYrAGlu</p>",,,,,,,,,,
html-keyboard-response,226,532847,0.0-12.0-0.56,614b323022fcd8b7408005a6,650c16f0f2faf8d7a0d14c09,651c1bf3c6eaf8f5c63ff57a,null,null,"<p style=""font-size: 60px; font-family: BACS"">kdaAJkdrO</p>",,,,,,,,,,
html-keyboard-response,227,533850,0.0-12.0-0.57,614b323022fcd8b7408005a6,650c16f0f2faf8d7a0d14c09,651c1bf3c6eaf8f5c63ff57a,null,null,"<p style=""font-size: 60px; font-family: BACS"">DOBhYdEPD</p>",,,,,,,,,,
html-keyboard-response,228,534852,0.0-12.0-0.58,614b323022fcd8b7408005a6,650c16f0f2faf8d7a0d14c09,651c1bf3c6eaf8f5c63ff57a,null,null,"<p style=""font-size: 60px; font-family: BACS"">cBROBcthB</p>",,,,,,,,,,
html-keyboard-response,229,535854,0.0-12.0-0.59,614b323022fcd8b7408005a6,650c16f0f2faf8d7a0d14c09,651c1bf3c6eaf8f5c63ff57a,null,null,"<p style=""font-size: 60px; font-family: BACS"">EtMDMcDR</p>",,,,,,,,,,
html-keyboard-response,230,536870,0.0-12.0-0.60,614b323022fcd8b7408005a6,650c16f0f2faf8d7a0d14c09,651c1bf3c6eaf8f5c63ff57a,null,null,"<p style=""font-size: 60px; font-family: BACS"">adkruUY</p>",,,,,,,,,,
html-keyboard-response,231,537873,0.0-12.0-0.61,614b323022fcd8b7408005a6,650c16f0f2faf8d7a0d14c09,651c1bf3c6eaf8f5c63ff57a,null,null,"<p style=""font-size: 60px; font-family: BACS"">bmbNGlu</p>",,,,,,,,,,
html-keyboard-response,232,538893,0.0-12.0-0.62,614b323022fcd8b7408005a6,650c16f0f2faf8d7a0d14c09,651c1bf3c6eaf8f5c63ff57a,null,null,"<p style=""font-size: 60px; font-family: BACS"">uQkrdQGb</p>",,,,,,,,,,
html-keyboard-response,233,539896,0.0-12.0-0.63,614b323022fcd8b7408005a6,650c16f0f2faf8d7a0d14c09,651c1bf3c6eaf8f5c63ff57a,null,null,"<p style=""font-size: 60px; font-family: BACS"">GLYrAuUY</p>",,,,,,,,,,
html-keyboard-response,234,540899,0.0-12.0-0.64,614b323022fcd8b7408005a6,650c16f0f2faf8d7a0d14c09,651c1bf3c6eaf8f5c63ff57a,null,null,"<p style=""font-size: 60px; font-family: BACS"">cBROBkDOm</p>",,,,,,,,,,
html-keyboard-response,235,541901,0.0-12.0-0.65,614b323022fcd8b7408005a6,650c16f0f2faf8d7a0d14c09,651c1bf3c6eaf8f5c63ff57a,null,null,"<p style=""font-size: 60px; font-family: BACS"">EtMDMdEPD</p>",,,,,,,,,,
html-keyboard-response,236,542903,0.0-12.0-0.66,614b323022fcd8b7408005a6,650c16f0f2faf8d7a0d14c09,651c1bf3c6eaf8f5c63ff57a,null,null,"<p style=""font-size: 60px; font-family: BACS"">kPOtPED</p>",,,,,,,,,,
html-keyboard-response,237,543906,0.0-12.0-0.67,614b323022fcd8b7408005a6,650c16f0f2faf8d7a0d14c09,651c1bf3c6eaf8f5c63ff57a,null,null,"<p style=""font-size: 60px; font-family: BACS"">PdDTkDOm</p>",,,,,,,,,,
html-keyboard-response,238,544907,0.0-12.0-0.68,614b323022fcd8b7408005a6,650c16f0f2faf8d7a0d14c09,651c1bf3c6eaf8f5c63ff57a,null,null,"<p style=""font-size: 60px; font-family: BACS"">bmbNkdrO</p>",,,,,,,,,,
html-keyboard-response,239,545918,0.0-12.0-0.69,614b323022fcd8b7408005a6,650c16f0f2faf8d7a0d14c09,651c1bf3c6eaf8f5c63ff57a,null,null,"<p style=""font-size: 60px; font-family: BACS"">JdOAYQGb</p>",,,,,,,,,,
html-keyboard-response,240,546920,0.0-12.0-0.70,614b323022fcd8b7408005a6,650c16f0f2faf8d7a0d14c09,651c1bf3c6eaf8f5c63ff57a,null,null,"<p style=""font-size: 60px; font-family: BACS"">uQkrdLaA</p>",,,,,,,,,,
html-keyboard-response,241,547922,0.0-12.0-0.71,614b323022fcd8b7408005a6,650c16f0f2faf8d7a0d14c09,651c1bf3c6eaf8f5c63ff57a,null,null,"<p style=""font-size: 60px; font-family: BACS"">PCMPKcDR</p>",,,,,,,,,,
html-keyboard-response,242,548924,0.0-12.0-0.72,614b323022fcd8b7408005a6,650c16f0f2faf8d7a0d14c09,651c1bf3c6eaf8f5c63ff57a,null,null,"<p style=""font-size: 60px; font-family: BACS"">ubALmkdrO</p>",,,,,,,,,,
html-keyboard-response,243,549927,0.0-12.0-0.73,614b323022fcd8b7408005a6,650c16f0f2faf8d7a0d14c09,651c1bf3c6eaf8f5c63ff57a,null,null,"<p style=""font-size: 60px; font-family: BACS"">YlCPBcDR</p>",,,,,,,,,,
html-keyboard-response,244,550929,0.0-12.0-0.74,614b323022fcd8b7408005a6,650c16f0f2faf8d7a0d14c09,651c1bf3c6eaf8f5c63ff57a,null,null,"<p style=""font-size: 60px; font-family: BACS"">DOBhYPED</p>",,,,,,,,,,
html-keyboard-response,245,551932,0.0-12.0-0.75,614b323022fcd8b7408005a6,650c16f0f2faf8d7a0d14c09,651c1bf3c6eaf8f5c63ff57a,null,null,"<p style=""font-size: 60px; font-family: BACS"">GLYrAkdrO</p>",,,,,,,,,,
html-keyboard-response,246,552934,0.0-12.0-0.76,614b323022fcd8b7408005a6,650c16f0f2faf8d7a0d14c09,651c1bf3c6eaf8f5c63ff57a,null,null,"<p style=""font-size: 60px; font-family: BACS"">ubALmLaA</p>",,,,,,,,,,
html-keyboard-response,247,553936,0.0-12.0-0.77,614b323022fcd8b7408005a6,650c16f0f2faf8d7a0d14c09,651c1bf3c6eaf8f5c63ff57a,null,null,"<p style=""font-size: 60px; font-family: BACS"">bmbNQGb</p>",,,,,,,,,,
html-keyboard-response,248,554939,0.0-12.0-0.78,614b323022fcd8b7408005a6,650c16f0f2faf8d7a0d14c09,651c1bf3c6eaf8f5c63ff57a,null,null,"<p style=""font-size: 60px; font-family: BACS"">TdmAdEPD</p>",,,,,,,,,,
html-keyboard-response,249,555942,0.0-12.0-0.79,614b323022fcd8b7408005a6,650c16f0f2faf8d7a0d14c09,651c1bf3c6eaf8f5c63ff57a,null,null,"<p style=""font-size: 60px; font-family: BACS"">EtMDMcthB</p>",,,,,,,,,,
html-keyboard-response,250,561372,0.0-13.0,614b323022fcd8b7408005a6,650c16f0f2faf8d7a0d14c09,651c1bf3c6eaf8f5c63ff57a,5430, ,"<p>Great, you've seen the third block of words. You may now take a short break.</p>
      <p>Press the spacebar when you're ready to continue.</p>",,,,,,,,,,
html-keyboard-response,251,562400,0.0-14.0-0.0,614b323022fcd8b7408005a6,650c16f0f2faf8d7a0d14c09,651c1bf3c6eaf8f5c63ff57a,null,null,"<p style=""font-size: 60px; font-family: BACS"">GLYrAuUY</p>",,,,,,,,,,
html-keyboard-response,252,563402,0.0-14.0-0.1,614b323022fcd8b7408005a6,650c16f0f2faf8d7a0d14c09,651c1bf3c6eaf8f5c63ff57a,null,null,"<p style=""font-size: 60px; font-family: BACS"">kdaAJLaA</p>",,,,,,,,,,
html-keyboard-response,253,564405,0.0-14.0-0.2,614b323022fcd8b7408005a6,650c16f0f2faf8d7a0d14c09,651c1bf3c6eaf8f5c63ff57a,null,null,"<p style=""font-size: 60px; font-family: BACS"">DOBhYdEPD</p>",,,,,,,,,,
html-keyboard-response,254,565407,0.0-14.0-0.3,614b323022fcd8b7408005a6,650c16f0f2faf8d7a0d14c09,651c1bf3c6eaf8f5c63ff57a,null,null,"<p style=""font-size: 60px; font-family: BACS"">cBROBkDOm</p>",,,,,,,,,,
html-keyboard-response,255,566410,0.0-14.0-0.4,614b323022fcd8b7408005a6,650c16f0f2faf8d7a0d14c09,651c1bf3c6eaf8f5c63ff57a,null,null,"<p style=""font-size: 60px; font-family: BACS"">bmbNkdrO</p>",,,,,,,,,,
html-keyboard-response,256,567412,0.0-14.0-0.5,614b323022fcd8b7408005a6,650c16f0f2faf8d7a0d14c09,651c1bf3c6eaf8f5c63ff57a,null,null,"<p style=""font-size: 60px; font-family: BACS"">PCMPKcDR</p>",,,,,,,,,,
html-keyboard-response,257,568414,0.0-14.0-0.6,614b323022fcd8b7408005a6,650c16f0f2faf8d7a0d14c09,651c1bf3c6eaf8f5c63ff57a,null,null,"<p style=""font-size: 60px; font-family: BACS"">LuNZLaA</p>",,,,,,,,,,
html-keyboard-response,258,569416,0.0-14.0-0.7,614b323022fcd8b7408005a6,650c16f0f2faf8d7a0d14c09,651c1bf3c6eaf8f5c63ff57a,null,null,"<p style=""font-size: 60px; font-family: BACS"">EtMDMkDOm</p>",,,,,,,,,,
html-keyboard-response,259,570419,0.0-14.0-0.8,614b323022fcd8b7408005a6,650c16f0f2faf8d7a0d14c09,651c1bf3c6eaf8f5c63ff57a,null,null,"<p style=""font-size: 60px; font-family: BACS"">bmbNLaA</p>",,,,,,,,,,
html-keyboard-response,260,571421,0.0-14.0-0.9,614b323022fcd8b7408005a6,650c16f0f2faf8d7a0d14c09,651c1bf3c6eaf8f5c63ff57a,null,null,"<p style=""font-size: 60px; font-family: BACS"">PCMPKcthB</p>",,,,,,,,,,
html-keyboard-response,261,572423,0.0-14.0-0.10,614b323022fcd8b7408005a6,650c16f0f2faf8d7a0d14c09,651c1bf3c6eaf8f5c63ff57a,null,null,"<p style=""font-size: 60px; font-family: BACS"">JdOAYkdrO</p>",,,,,,,,,,
html-keyboard-response,262,573426,0.0-14.0-0.11,614b323022fcd8b7408005a6,650c16f0f2faf8d7a0d14c09,651c1bf3c6eaf8f5c63ff57a,null,null,"<p style=""font-size: 60px; font-family: BACS"">EtMDMcthB</p>",,,,,,,,,,
html-keyboard-response,263,574428,0.0-14.0-0.12,614b323022fcd8b7408005a6,650c16f0f2faf8d7a0d14c09,651c1bf3c6eaf8f5c63ff57a,null,null,"<p style=""font-size: 60px; font-family: BACS"">TdmAdEPD</p>",,,,,,,,,,
html-keyboard-response,264,575431,0.0-14.0-0.13,614b323022fcd8b7408005a6,650c16f0f2faf8d7a0d14c09,651c1bf3c6eaf8f5c63ff57a,null,null,"<p style=""font-size: 60px; font-family: BACS"">damYbuUY</p>",,,,,,,,,,
html-keyboard-response,265,576433,0.0-14.0-0.14,614b323022fcd8b7408005a6,650c16f0f2faf8d7a0d14c09,651c1bf3c6eaf8f5c63ff57a,null,null,"<p style=""font-size: 60px; font-family: BACS"">dRhtcthB</p>",,,,,,,,,,
html-keyboard-response,266,577435,0.0-14.0-0.15,614b323022fcd8b7408005a6,650c16f0f2faf8d7a0d14c09,651c1bf3c6eaf8f5c63ff57a,null,null,"<p style=""font-size: 60px; font-family: BACS"">EhbtcDR</p>",,,,,,,,,,
html-keyboard-response,267,578438,0.0-14.0-0.16,614b323022fcd8b7408005a6,650c16f0f2faf8d7a0d14c09,651c1bf3c6eaf8f5c63ff57a,null,null,"<p style=""font-size: 60px; font-family: BACS"">DOBhYcthB</p>",,,,,,,,,,
html-keyboard-response,268,579441,0.0-14.0-0.17,614b323022fcd8b7408005a6,650c16f0f2faf8d7a0d14c09,651c1bf3c6eaf8f5c63ff57a,null,null,"<p style=""font-size: 60px; font-family: BACS"">ubALmLaA</p>",,,,,,,,,,
html-keyboard-response,269,580443,0.0-14.0-0.18,614b323022fcd8b7408005a6,650c16f0f2faf8d7a0d14c09,651c1bf3c6eaf8f5c63ff57a,null,null,"<p style=""font-size: 60px; font-family: BACS"">kPOtcthB</p>",,,,,,,,,,
html-keyboard-response,270,581446,0.0-14.0-0.19,614b323022fcd8b7408005a6,650c16f0f2faf8d7a0d14c09,651c1bf3c6eaf8f5c63ff57a,null,null,"<p style=""font-size: 60px; font-family: BACS"">adkrGlu</p>",,,,,,,,,,
html-keyboard-response,271,582449,0.0-14.0-0.20,614b323022fcd8b7408005a6,650c16f0f2faf8d7a0d14c09,651c1bf3c6eaf8f5c63ff57a,null,null,"<p style=""font-size: 60px; font-family: BACS"">JdOAYLaA</p>",,,,,,,,,,
html-keyboard-response,272,583452,0.0-14.0-0.21,614b323022fcd8b7408005a6,650c16f0f2faf8d7a0d14c09,651c1bf3c6eaf8f5c63ff57a,null,null,"<p style=""font-size: 60px; font-family: BACS"">kdaAJGlu</p>",,,,,,,,,,
html-keyboard-response,273,584455,0.0-14.0-0.22,614b323022fcd8b7408005a6,650c16f0f2faf8d7a0d14c09,651c1bf3c6eaf8f5c63ff57a,null,null,"<p style=""font-size: 60px; font-family: BACS"">YlCPBkDOm</p>",,,,,,,,,,
html-keyboard-response,274,585457,0.0-14.0-0.23,614b323022fcd8b7408005a6,650c16f0f2faf8d7a0d14c09,651c1bf3c6eaf8f5c63ff57a,null,null,"<p style=""font-size: 60px; font-family: BACS"">uQkrdGlu</p>",,,,,,,,,,
html-keyboard-response,275,586460,0.0-14.0-0.24,614b323022fcd8b7408005a6,650c16f0f2faf8d7a0d14c09,651c1bf3c6eaf8f5c63ff57a,null,null,"<p style=""font-size: 60px; font-family: BACS"">adkruUY</p>",,,,,,,,,,
html-keyboard-response,276,587463,0.0-14.0-0.25,614b323022fcd8b7408005a6,650c16f0f2faf8d7a0d14c09,651c1bf3c6eaf8f5c63ff57a,null,null,"<p style=""font-size: 60px; font-family: BACS"">ZcGdNGlu</p>",,,,,,,,,,
html-keyboard-response,277,588466,0.0-14.0-0.26,614b323022fcd8b7408005a6,650c16f0f2faf8d7a0d14c09,651c1bf3c6eaf8f5c63ff57a,null,null,"<p style=""font-size: 60px; font-family: BACS"">EhbtdEPD</p>",,,,,,,,,,
html-keyboard-response,278,589469,0.0-14.0-0.27,614b323022fcd8b7408005a6,650c16f0f2faf8d7a0d14c09,651c1bf3c6eaf8f5c63ff57a,null,null,"<p style=""font-size: 60px; font-family: BACS"">TdmActhB</p>",,,,,,,,,,
html-keyboard-response,279,590471,0.0-14.0-0.28,614b323022fcd8b7408005a6,650c16f0f2faf8d7a0d14c09,651c1bf3c6eaf8f5c63ff57a,null,null,"<p style=""font-size: 60px; font-family: BACS"">dRhtdEPD</p>",,,,,,,,,,
html-keyboard-response,280,591474,0.0-14.0-0.29,614b323022fcd8b7408005a6,650c16f0f2faf8d7a0d14c09,651c1bf3c6eaf8f5c63ff57a,null,null,"<p style=""font-size: 60px; font-family: BACS"">YlCPBPED</p>",,,,,,,,,,
html-keyboard-response,281,592477,0.0-14.0-0.30,614b323022fcd8b7408005a6,650c16f0f2faf8d7a0d14c09,651c1bf3c6eaf8f5c63ff57a,null,null,"<p style=""font-size: 60px; font-family: BACS"">kPOtdEPD</p>",,,,,,,,,,
html-keyboard-response,282,593480,0.0-14.0-0.31,614b323022fcd8b7408005a6,650c16f0f2faf8d7a0d14c09,651c1bf3c6eaf8f5c63ff57a,null,null,"<p style=""font-size: 60px; font-family: BACS"">GLYrAGlu</p>",,,,,,,,,,
html-keyboard-response,283,594482,0.0-14.0-0.32,614b323022fcd8b7408005a6,650c16f0f2faf8d7a0d14c09,651c1bf3c6eaf8f5c63ff57a,null,null,"<p style=""font-size: 60px; font-family: BACS"">LuNZkdrO</p>",,,,,,,,,,
html-keyboard-response,284,595485,0.0-14.0-0.33,614b323022fcd8b7408005a6,650c16f0f2faf8d7a0d14c09,651c1bf3c6eaf8f5c63ff57a,null,null,"<p style=""font-size: 60px; font-family: BACS"">cBROBPED</p>",,,,,,,,,,
html-keyboard-response,285,596488,0.0-14.0-0.34,614b323022fcd8b7408005a6,650c16f0f2faf8d7a0d14c09,651c1bf3c6eaf8f5c63ff57a,null,null,"<p style=""font-size: 60px; font-family: BACS"">GLYrALaA</p>",,,,,,,,,,
html-keyboard-response,286,597491,0.0-14.0-0.35,614b323022fcd8b7408005a6,650c16f0f2faf8d7a0d14c09,651c1bf3c6eaf8f5c63ff57a,null,null,"<p style=""font-size: 60px; font-family: BACS"">ubALmQGb</p>",,,,,,,,,,
html-keyboard-response,287,598494,0.0-14.0-0.36,614b323022fcd8b7408005a6,650c16f0f2faf8d7a0d14c09,651c1bf3c6eaf8f5c63ff57a,null,null,"<p style=""font-size: 60px; font-family: BACS"">uQkrdLaA</p>",,,,,,,,,,
html-keyboard-response,288,599497,0.0-14.0-0.37,614b323022fcd8b7408005a6,650c16f0f2faf8d7a0d14c09,651c1bf3c6eaf8f5c63ff57a,null,null,"<p style=""font-size: 60px; font-family: BACS"">PdDTcDR</p>",,,,,,,,,,
html-keyboard-response,289,600499,0.0-14.0-0.38,614b323022fcd8b7408005a6,650c16f0f2faf8d7a0d14c09,651c1bf3c6eaf8f5c63ff57a,null,null,"<p style=""font-size: 60px; font-family: BACS"">EhbtPED</p>",,,,,,,,,,
html-keyboard-response,290,601502,0.0-14.0-0.39,614b323022fcd8b7408005a6,650c16f0f2faf8d7a0d14c09,651c1bf3c6eaf8f5c63ff57a,null,null,"<p style=""font-size: 60px; font-family: BACS"">ubALmuUY</p>",,,,,,,,,,
html-keyboard-response,291,602504,0.0-14.0-0.40,614b323022fcd8b7408005a6,650c16f0f2faf8d7a0d14c09,651c1bf3c6eaf8f5c63ff57a,null,null,"<p style=""font-size: 60px; font-family: BACS"">PCMPKPED</p>",,,,,,,,,,
html-keyboard-response,292,603507,0.0-14.0-0.41,614b323022fcd8b7408005a6,650c16f0f2faf8d7a0d14c09,651c1bf3c6eaf8f5c63ff57a,null,null,"<p style=""font-size: 60px; font-family: BACS"">EhbtkDOm</p>",,,,,,,,,,
html-keyboard-response,293,604509,0.0-14.0-0.42,614b323022fcd8b7408005a6,650c16f0f2faf8d7a0d14c09,651c1bf3c6eaf8f5c63ff57a,null,null,"<p style=""font-size: 60px; font-family: BACS"">YlCPBcDR</p>",,,,,,,,,,
html-keyboard-response,294,605512,0.0-14.0-0.43,614b323022fcd8b7408005a6,650c16f0f2faf8d7a0d14c09,651c1bf3c6eaf8f5c63ff57a,null,null,"<p style=""font-size: 60px; font-family: BACS"">ZcGdNuUY</p>",,,,,,,,,,
html-keyboard-response,295,606514,0.0-14.0-0.44,614b323022fcd8b7408005a6,650c16f0f2faf8d7a0d14c09,651c1bf3c6eaf8f5c63ff57a,null,null,"<p style=""font-size: 60px; font-family: BACS"">uQkrdQGb</p>",,,,,,,,,,
html-keyboard-response,296,607517,0.0-14.0-0.45,614b323022fcd8b7408005a6,650c16f0f2faf8d7a0d14c09,651c1bf3c6eaf8f5c63ff57a,null,null,"<p style=""font-size: 60px; font-family: BACS"">TdmAcDR</p>",,,,,,,,,,
html-keyboard-response,297,608519,0.0-14.0-0.46,614b323022fcd8b7408005a6,650c16f0f2faf8d7a0d14c09,651c1bf3c6eaf8f5c63ff57a,null,null,"<p style=""font-size: 60px; font-family: BACS"">LuNZGlu</p>",,,,,,,,,,
html-keyboard-response,298,609522,0.0-14.0-0.47,614b323022fcd8b7408005a6,650c16f0f2faf8d7a0d14c09,651c1bf3c6eaf8f5c63ff57a,null,null,"<p style=""font-size: 60px; font-family: BACS"">PdDTcthB</p>",,,,,,,,,,
html-keyboard-response,299,610525,0.0-14.0-0.48,614b323022fcd8b7408005a6,650c16f0f2faf8d7a0d14c09,651c1bf3c6eaf8f5c63ff57a,null,null,"<p style=""font-size: 60px; font-family: BACS"">DOBhYPED</p>",,,,,,,,,,
html-keyboard-response,300,611532,0.0-14.0-0.49,614b323022fcd8b7408005a6,650c16f0f2faf8d7a0d14c09,651c1bf3c6eaf8f5c63ff57a,null,null,"<p style=""font-size: 60px; font-family: BACS"">ZcGdNkdrO</p>",,,,,,,,,,
html-keyboard-response,301,612534,0.0-14.0-0.50,614b323022fcd8b7408005a6,650c16f0f2faf8d7a0d14c09,651c1bf3c6eaf8f5c63ff57a,null,null,"<p style=""font-size: 60px; font-family: BACS"">adkrQGb</p>",,,,,,,,,,
html-keyboard-response,302,613536,0.0-14.0-0.51,614b323022fcd8b7408005a6,650c16f0f2faf8d7a0d14c09,651c1bf3c6eaf8f5c63ff57a,null,null,"<p style=""font-size: 60px; font-family: BACS"">uQkrduUY</p>",,,,,,,,,,
html-keyboard-response,303,614538,0.0-14.0-0.52,614b323022fcd8b7408005a6,650c16f0f2faf8d7a0d14c09,651c1bf3c6eaf8f5c63ff57a,null,null,"<p style=""font-size: 60px; font-family: BACS"">cBROBdEPD</p>",,,,,,,,,,
html-keyboard-response,304,615541,0.0-14.0-0.53,614b323022fcd8b7408005a6,650c16f0f2faf8d7a0d14c09,651c1bf3c6eaf8f5c63ff57a,null,null,"<p style=""font-size: 60px; font-family: BACS"">dRhtcDR</p>",,,,,,,,,,
html-keyboard-response,305,616543,0.0-14.0-0.54,614b323022fcd8b7408005a6,650c16f0f2faf8d7a0d14c09,651c1bf3c6eaf8f5c63ff57a,null,null,"<p style=""font-size: 60px; font-family: BACS"">adkrkdrO</p>",,,,,,,,,,
html-keyboard-response,306,617546,0.0-14.0-0.55,614b323022fcd8b7408005a6,650c16f0f2faf8d7a0d14c09,651c1bf3c6eaf8f5c63ff57a,null,null,"<p style=""font-size: 60px; font-family: BACS"">damYbLaA</p>",,,,,,,,,,
html-keyboard-response,307,618549,0.0-14.0-0.56,614b323022fcd8b7408005a6,650c16f0f2faf8d7a0d14c09,651c1bf3c6eaf8f5c63ff57a,null,null,"<p style=""font-size: 60px; font-family: BACS"">kdaAJuUY</p>",,,,,,,,,,
html-keyboard-response,308,619552,0.0-14.0-0.57,614b323022fcd8b7408005a6,650c16f0f2faf8d7a0d14c09,651c1bf3c6eaf8f5c63ff57a,null,null,"<p style=""font-size: 60px; font-family: BACS"">JdOAYQGb</p>",,,,,,,,,,
html-keyboard-response,309,620555,0.0-14.0-0.58,614b323022fcd8b7408005a6,650c16f0f2faf8d7a0d14c09,651c1bf3c6eaf8f5c63ff57a,null,null,"<p style=""font-size: 60px; font-family: BACS"">cBROBcthB</p>",,,,,,,,,,
html-keyboard-response,310,621558,0.0-14.0-0.59,614b323022fcd8b7408005a6,650c16f0f2faf8d7a0d14c09,651c1bf3c6eaf8f5c63ff57a,null,null,"<p style=""font-size: 60px; font-family: BACS"">PdDTkDOm</p>",,,,,,,,,,
html-keyboard-response,311,622564,0.0-14.0-0.60,614b323022fcd8b7408005a6,650c16f0f2faf8d7a0d14c09,651c1bf3c6eaf8f5c63ff57a,null,null,"<p style=""font-size: 60px; font-family: BACS"">bmbNQGb</p>",,,,,,,,,,
html-keyboard-response,312,623577,0.0-14.0-0.61,614b323022fcd8b7408005a6,650c16f0f2faf8d7a0d14c09,651c1bf3c6eaf8f5c63ff57a,null,null,"<p style=""font-size: 60px; font-family: BACS"">damYbGlu</p>",,,,,,,,,,
html-keyboard-response,313,624585,0.0-14.0-0.62,614b323022fcd8b7408005a6,650c16f0f2faf8d7a0d14c09,651c1bf3c6eaf8f5c63ff57a,null,null,"<p style=""font-size: 60px; font-family: BACS"">EtMDMdEPD</p>",,,,,,,,,,
html-keyboard-response,314,625598,0.0-14.0-0.63,614b323022fcd8b7408005a6,650c16f0f2faf8d7a0d14c09,651c1bf3c6eaf8f5c63ff57a,null,null,"<p style=""font-size: 60px; font-family: BACS"">kPOtcDR</p>",,,,,,,,,,
html-keyboard-response,315,626605,0.0-14.0-0.64,614b323022fcd8b7408005a6,650c16f0f2faf8d7a0d14c09,651c1bf3c6eaf8f5c63ff57a,null,null,"<p style=""font-size: 60px; font-family: BACS"">ZcGdNQGb</p>",,,,,,,,,,
html-keyboard-response,316,627619,0.0-14.0-0.65,614b323022fcd8b7408005a6,650c16f0f2faf8d7a0d14c09,651c1bf3c6eaf8f5c63ff57a,null,null,"<p style=""font-size: 60px; font-family: BACS"">kPOtPED</p>",,,,,,,,,,
html-keyboard-response,317,628627,0.0-14.0-0.66,614b323022fcd8b7408005a6,650c16f0f2faf8d7a0d14c09,651c1bf3c6eaf8f5c63ff57a,null,null,"<p style=""font-size: 60px; font-family: BACS"">PCMPKkDOm</p>",,,,,,,,,,
html-keyboard-response,318,629641,0.0-14.0-0.67,614b323022fcd8b7408005a6,650c16f0f2faf8d7a0d14c09,651c1bf3c6eaf8f5c63ff57a,null,null,"<p style=""font-size: 60px; font-family: BACS"">PdDTPED</p>",,,,,,,,,,
html-keyboard-response,319,630649,0.0-14.0-0.68,614b323022fcd8b7408005a6,650c16f0f2faf8d7a0d14c09,651c1bf3c6eaf8f5c63ff57a,null,null,"<p style=""font-size: 60px; font-family: BACS"">LuNZQGb</p>",,,,,,,,,,
html-keyboard-response,320,631668,0.0-14.0-0.69,614b323022fcd8b7408005a6,650c16f0f2faf8d7a0d14c09,651c1bf3c6eaf8f5c63ff57a,null,null,"<p style=""font-size: 60px; font-family: BACS"">DOBhYkDOm</p>",,,,,,,,,,
html-keyboard-response,321,632671,0.0-14.0-0.70,614b323022fcd8b7408005a6,650c16f0f2faf8d7a0d14c09,651c1bf3c6eaf8f5c63ff57a,null,null,"<p style=""font-size: 60px; font-family: BACS"">kdaAJkdrO</p>",,,,,,,,,,
html-keyboard-response,322,633673,0.0-14.0-0.71,614b323022fcd8b7408005a6,650c16f0f2faf8d7a0d14c09,651c1bf3c6eaf8f5c63ff57a,null,null,"<p style=""font-size: 60px; font-family: BACS"">JdOAYuUY</p>",,,,,,,,,,
html-keyboard-response,323,634676,0.0-14.0-0.72,614b323022fcd8b7408005a6,650c16f0f2faf8d7a0d14c09,651c1bf3c6eaf8f5c63ff57a,null,null,"<p style=""font-size: 60px; font-family: BACS"">ubALmkdrO</p>",,,,,,,,,,
html-keyboard-response,324,635679,0.0-14.0-0.73,614b323022fcd8b7408005a6,650c16f0f2faf8d7a0d14c09,651c1bf3c6eaf8f5c63ff57a,null,null,"<p style=""font-size: 60px; font-family: BACS"">dRhtPED</p>",,,,,,,,,,
html-keyboard-response,325,636681,0.0-14.0-0.74,614b323022fcd8b7408005a6,650c16f0f2faf8d7a0d14c09,651c1bf3c6eaf8f5c63ff57a,null,null,"<p style=""font-size: 60px; font-family: BACS"">damYbQGb</p>",,,,,,,,,,
html-keyboard-response,326,637684,0.0-14.0-0.75,614b323022fcd8b7408005a6,650c16f0f2faf8d7a0d14c09,651c1bf3c6eaf8f5c63ff57a,null,null,"<p style=""font-size: 60px; font-family: BACS"">GLYrAkdrO</p>",,,,,,,,,,
html-keyboard-response,327,638687,0.0-14.0-0.76,614b323022fcd8b7408005a6,650c16f0f2faf8d7a0d14c09,651c1bf3c6eaf8f5c63ff57a,null,null,"<p style=""font-size: 60px; font-family: BACS"">bmbNGlu</p>",,,,,,,,,,
html-keyboard-response,328,639690,0.0-14.0-0.77,614b323022fcd8b7408005a6,650c16f0f2faf8d7a0d14c09,651c1bf3c6eaf8f5c63ff57a,null,null,"<p style=""font-size: 60px; font-family: BACS"">TdmAkDOm</p>",,,,,,,,,,
html-keyboard-response,329,640693,0.0-14.0-0.78,614b323022fcd8b7408005a6,650c16f0f2faf8d7a0d14c09,651c1bf3c6eaf8f5c63ff57a,null,null,"<p style=""font-size: 60px; font-family: BACS"">YlCPBdEPD</p>",,,,,,,,,,
html-keyboard-response,330,641696,0.0-14.0-0.79,614b323022fcd8b7408005a6,650c16f0f2faf8d7a0d14c09,651c1bf3c6eaf8f5c63ff57a,null,null,"<p style=""font-size: 60px; font-family: BACS"">EtMDMcDR</p>",,,,,,,,,,
html-keyboard-response,331,677218,0.0-15.0,614b323022fcd8b7408005a6,650c16f0f2faf8d7a0d14c09,651c1bf3c6eaf8f5c63ff57a,35521, ,"<p>Great, you've seen the fourth block of words. You may now take a short break.</p>
      <p>Press the spacebar when you're ready to continue.</p>",,,,,,,,,,
html-keyboard-response,332,678220,0.0-16.0-0.0,614b323022fcd8b7408005a6,650c16f0f2faf8d7a0d14c09,651c1bf3c6eaf8f5c63ff57a,null,null,"<p style=""font-size: 60px; font-family: BACS"">uQkrdGlu</p>",,,,,,,,,,
html-keyboard-response,333,679227,0.0-16.0-0.1,614b323022fcd8b7408005a6,650c16f0f2faf8d7a0d14c09,651c1bf3c6eaf8f5c63ff57a,null,null,"<p style=""font-size: 60px; font-family: BACS"">uQkrdGlu</p>",,,,,,,,,,
html-keyboard-response,334,680245,0.0-16.0-0.2,614b323022fcd8b7408005a6,650c16f0f2faf8d7a0d14c09,651c1bf3c6eaf8f5c63ff57a,null,null,"<p style=""font-size: 60px; font-family: BACS"">uQkrdGlu</p>",,,,,,,,,,
html-keyboard-response,335,681248,0.0-16.0-0.3,614b323022fcd8b7408005a6,650c16f0f2faf8d7a0d14c09,651c1bf3c6eaf8f5c63ff57a,null,null,"<p style=""font-size: 60px; font-family: BACS"">uQkrdGlu</p>",,,,,,,,,,
html-keyboard-response,336,682250,0.0-16.0-0.4,614b323022fcd8b7408005a6,650c16f0f2faf8d7a0d14c09,651c1bf3c6eaf8f5c63ff57a,null,null,"<p style=""font-size: 60px; font-family: BACS"">uQkrdGlu</p>",,,,,,,,,,
html-keyboard-response,337,683252,0.0-16.0-0.5,614b323022fcd8b7408005a6,650c16f0f2faf8d7a0d14c09,651c1bf3c6eaf8f5c63ff57a,null,null,"<p style=""font-size: 60px; font-family: BACS"">uQkrdGlu</p>",,,,,,,,,,
html-keyboard-response,338,684256,0.0-16.0-0.6,614b323022fcd8b7408005a6,650c16f0f2faf8d7a0d14c09,651c1bf3c6eaf8f5c63ff57a,null,null,"<p style=""font-size: 60px; font-family: BACS"">uQkrdGlu</p>",,,,,,,,,,
html-keyboard-response,339,685258,0.0-16.0-0.7,614b323022fcd8b7408005a6,650c16f0f2faf8d7a0d14c09,651c1bf3c6eaf8f5c63ff57a,null,null,"<p style=""font-size: 60px; font-family: BACS"">uQkrdGlu</p>",,,,,,,,,,
html-keyboard-response,340,686260,0.0-16.0-0.8,614b323022fcd8b7408005a6,650c16f0f2faf8d7a0d14c09,651c1bf3c6eaf8f5c63ff57a,null,null,"<p style=""font-size: 60px; font-family: BACS"">uQkrdGlu</p>",,,,,,,,,,
html-keyboard-response,341,687262,0.0-16.0-0.9,614b323022fcd8b7408005a6,650c16f0f2faf8d7a0d14c09,651c1bf3c6eaf8f5c63ff57a,null,null,"<p style=""font-size: 60px; font-family: BACS"">uQkrdGlu</p>",,,,,,,,,,
html-keyboard-response,342,688264,0.0-16.0-0.10,614b323022fcd8b7408005a6,650c16f0f2faf8d7a0d14c09,651c1bf3c6eaf8f5c63ff57a,null,null,"<p style=""font-size: 60px; font-family: BACS"">uQkrdGlu</p>",,,,,,,,,,
html-keyboard-response,343,689267,0.0-16.0-0.11,614b323022fcd8b7408005a6,650c16f0f2faf8d7a0d14c09,651c1bf3c6eaf8f5c63ff57a,null,null,"<p style=""font-size: 60px; font-family: BACS"">uQkrdGlu</p>",,,,,,,,,,
html-keyboard-response,344,690269,0.0-16.0-0.12,614b323022fcd8b7408005a6,650c16f0f2faf8d7a0d14c09,651c1bf3c6eaf8f5c63ff57a,null,null,"<p style=""font-size: 60px; font-family: BACS"">uQkrdGlu</p>",,,,,,,,,,
html-keyboard-response,345,691272,0.0-16.0-0.13,614b323022fcd8b7408005a6,650c16f0f2faf8d7a0d14c09,651c1bf3c6eaf8f5c63ff57a,null,null,"<p style=""font-size: 60px; font-family: BACS"">uQkrdGlu</p>",,,,,,,,,,
html-keyboard-response,346,692275,0.0-16.0-0.14,614b323022fcd8b7408005a6,650c16f0f2faf8d7a0d14c09,651c1bf3c6eaf8f5c63ff57a,null,null,"<p style=""font-size: 60px; font-family: BACS"">uQkrdGlu</p>",,,,,,,,,,
html-keyboard-response,347,693278,0.0-16.0-0.15,614b323022fcd8b7408005a6,650c16f0f2faf8d7a0d14c09,651c1bf3c6eaf8f5c63ff57a,null,null,"<p style=""font-size: 60px; font-family: BACS"">uQkrdGlu</p>",,,,,,,,,,
html-keyboard-response,348,694281,0.0-16.0-0.16,614b323022fcd8b7408005a6,650c16f0f2faf8d7a0d14c09,651c1bf3c6eaf8f5c63ff57a,null,null,"<p style=""font-size: 60px; font-family: BACS"">uQkrdGlu</p>",,,,,,,,,,
html-keyboard-response,349,695283,0.0-16.0-0.17,614b323022fcd8b7408005a6,650c16f0f2faf8d7a0d14c09,651c1bf3c6eaf8f5c63ff57a,null,null,"<p style=""font-size: 60px; font-family: BACS"">uQkrdGlu</p>",,,,,,,,,,
html-keyboard-response,350,696286,0.0-16.0-0.18,614b323022fcd8b7408005a6,650c16f0f2faf8d7a0d14c09,651c1bf3c6eaf8f5c63ff57a,null,null,"<p style=""font-size: 60px; font-family: BACS"">uQkrdGlu</p>",,,,,,,,,,
html-keyboard-response,351,697289,0.0-16.0-0.19,614b323022fcd8b7408005a6,650c16f0f2faf8d7a0d14c09,651c1bf3c6eaf8f5c63ff57a,null,null,"<p style=""font-size: 60px; font-family: BACS"">uQkrdGlu</p>",,,,,,,,,,
html-keyboard-response,352,698289,0.0-16.0-0.20,614b323022fcd8b7408005a6,650c16f0f2faf8d7a0d14c09,651c1bf3c6eaf8f5c63ff57a,null,null,"<p style=""font-size: 60px; font-family: BACS"">uQkrdGlu</p>",,,,,,,,,,
html-keyboard-response,353,699293,0.0-16.0-0.21,614b323022fcd8b7408005a6,650c16f0f2faf8d7a0d14c09,651c1bf3c6eaf8f5c63ff57a,null,null,"<p style=""font-size: 60px; font-family: BACS"">uQkrdGlu</p>",,,,,,,,,,
html-keyboard-response,354,700294,0.0-16.0-0.22,614b323022fcd8b7408005a6,650c16f0f2faf8d7a0d14c09,651c1bf3c6eaf8f5c63ff57a,null,null,"<p style=""font-size: 60px; font-family: BACS"">uQkrdGlu</p>",,,,,,,,,,
html-keyboard-response,355,701296,0.0-16.0-0.23,614b323022fcd8b7408005a6,650c16f0f2faf8d7a0d14c09,651c1bf3c6eaf8f5c63ff57a,null,null,"<p style=""font-size: 60px; font-family: BACS"">uQkrdGlu</p>",,,,,,,,,,
html-keyboard-response,356,702299,0.0-16.0-0.24,614b323022fcd8b7408005a6,650c16f0f2faf8d7a0d14c09,651c1bf3c6eaf8f5c63ff57a,null,null,"<p style=""font-size: 60px; font-family: BACS"">uQkrdGlu</p>",,,,,,,,,,
html-keyboard-response,357,703301,0.0-16.0-0.25,614b323022fcd8b7408005a6,650c16f0f2faf8d7a0d14c09,651c1bf3c6eaf8f5c63ff57a,null,null,"<p style=""font-size: 60px; font-family: BACS"">uQkrdGlu</p>",,,,,,,,,,
html-keyboard-response,358,704304,0.0-16.0-0.26,614b323022fcd8b7408005a6,650c16f0f2faf8d7a0d14c09,651c1bf3c6eaf8f5c63ff57a,null,null,"<p style=""font-size: 60px; font-family: BACS"">uQkrdGlu</p>",,,,,,,,,,
html-keyboard-response,359,705305,0.0-16.0-0.27,614b323022fcd8b7408005a6,650c16f0f2faf8d7a0d14c09,651c1bf3c6eaf8f5c63ff57a,null,null,"<p style=""font-size: 60px; font-family: BACS"">uQkrdGlu</p>",,,,,,,,,,
html-keyboard-response,360,706308,0.0-16.0-0.28,614b323022fcd8b7408005a6,650c16f0f2faf8d7a0d14c09,651c1bf3c6eaf8f5c63ff57a,null,null,"<p style=""font-size: 60px; font-family: BACS"">uQkrdGlu</p>",,,,,,,,,,
html-keyboard-response,361,707310,0.0-16.0-0.29,614b323022fcd8b7408005a6,650c16f0f2faf8d7a0d14c09,651c1bf3c6eaf8f5c63ff57a,null,null,"<p style=""font-size: 60px; font-family: BACS"">uQkrdGlu</p>",,,,,,,,,,
html-keyboard-response,362,708313,0.0-16.0-0.30,614b323022fcd8b7408005a6,650c16f0f2faf8d7a0d14c09,651c1bf3c6eaf8f5c63ff57a,null,null,"<p style=""font-size: 60px; font-family: BACS"">uQkrdGlu</p>",,,,,,,,,,
html-keyboard-response,363,709315,0.0-16.0-0.31,614b323022fcd8b7408005a6,650c16f0f2faf8d7a0d14c09,651c1bf3c6eaf8f5c63ff57a,null,null,"<p style=""font-size: 60px; font-family: BACS"">uQkrdGlu</p>",,,,,,,,,,
html-keyboard-response,364,710318,0.0-16.0-0.32,614b323022fcd8b7408005a6,650c16f0f2faf8d7a0d14c09,651c1bf3c6eaf8f5c63ff57a,null,null,"<p style=""font-size: 60px; font-family: BACS"">uQkrdGlu</p>",,,,,,,,,,
html-keyboard-response,365,711320,0.0-16.0-0.33,614b323022fcd8b7408005a6,650c16f0f2faf8d7a0d14c09,651c1bf3c6eaf8f5c63ff57a,null,null,"<p style=""font-size: 60px; font-family: BACS"">uQkrdGlu</p>",,,,,,,,,,
html-keyboard-response,366,712323,0.0-16.0-0.34,614b323022fcd8b7408005a6,650c16f0f2faf8d7a0d14c09,651c1bf3c6eaf8f5c63ff57a,null,null,"<p style=""font-size: 60px; font-family: BACS"">uQkrdGlu</p>",,,,,,,,,,
html-keyboard-response,367,713326,0.0-16.0-0.35,614b323022fcd8b7408005a6,650c16f0f2faf8d7a0d14c09,651c1bf3c6eaf8f5c63ff57a,null,null,"<p style=""font-size: 60px; font-family: BACS"">uQkrdGlu</p>",,,,,,,,,,
html-keyboard-response,368,714329,0.0-16.0-0.36,614b323022fcd8b7408005a6,650c16f0f2faf8d7a0d14c09,651c1bf3c6eaf8f5c63ff57a,null,null,"<p style=""font-size: 60px; font-family: BACS"">uQkrdGlu</p>",,,,,,,,,,
html-keyboard-response,369,715331,0.0-16.0-0.37,614b323022fcd8b7408005a6,650c16f0f2faf8d7a0d14c09,651c1bf3c6eaf8f5c63ff57a,null,null,"<p style=""font-size: 60px; font-family: BACS"">uQkrdGlu</p>",,,,,,,,,,
html-keyboard-response,370,716333,0.0-16.0-0.38,614b323022fcd8b7408005a6,650c16f0f2faf8d7a0d14c09,651c1bf3c6eaf8f5c63ff57a,null,null,"<p style=""font-size: 60px; font-family: BACS"">uQkrdGlu</p>",,,,,,,,,,
html-keyboard-response,371,717336,0.0-16.0-0.39,614b323022fcd8b7408005a6,650c16f0f2faf8d7a0d14c09,651c1bf3c6eaf8f5c63ff57a,null,null,"<p style=""font-size: 60px; font-family: BACS"">uQkrdGlu</p>",,,,,,,,,,
html-keyboard-response,372,718338,0.0-16.0-0.40,614b323022fcd8b7408005a6,650c16f0f2faf8d7a0d14c09,651c1bf3c6eaf8f5c63ff57a,null,null,"<p style=""font-size: 60px; font-family: BACS"">uQkrdGlu</p>",,,,,,,,,,
html-keyboard-response,373,719341,0.0-16.0-0.41,614b323022fcd8b7408005a6,650c16f0f2faf8d7a0d14c09,651c1bf3c6eaf8f5c63ff57a,null,null,"<p style=""font-size: 60px; font-family: BACS"">uQkrdGlu</p>",,,,,,,,,,
html-keyboard-response,374,720343,0.0-16.0-0.42,614b323022fcd8b7408005a6,650c16f0f2faf8d7a0d14c09,651c1bf3c6eaf8f5c63ff57a,null,null,"<p style=""font-size: 60px; font-family: BACS"">uQkrdGlu</p>",,,,,,,,,,
html-keyboard-response,375,721346,0.0-16.0-0.43,614b323022fcd8b7408005a6,650c16f0f2faf8d7a0d14c09,651c1bf3c6eaf8f5c63ff57a,null,null,"<p style=""font-size: 60px; font-family: BACS"">uQkrdGlu</p>",,,,,,,,,,
html-keyboard-response,376,722348,0.0-16.0-0.44,614b323022fcd8b7408005a6,650c16f0f2faf8d7a0d14c09,651c1bf3c6eaf8f5c63ff57a,null,null,"<p style=""font-size: 60px; font-family: BACS"">uQkrdGlu</p>",,,,,,,,,,
html-keyboard-response,377,723350,0.0-16.0-0.45,614b323022fcd8b7408005a6,650c16f0f2faf8d7a0d14c09,651c1bf3c6eaf8f5c63ff57a,null,null,"<p style=""font-size: 60px; font-family: BACS"">uQkrdGlu</p>",,,,,,,,,,
html-keyboard-response,378,724352,0.0-16.0-0.46,614b323022fcd8b7408005a6,650c16f0f2faf8d7a0d14c09,651c1bf3c6eaf8f5c63ff57a,null,null,"<p style=""font-size: 60px; font-family: BACS"">uQkrdGlu</p>",,,,,,,,,,
html-keyboard-response,379,725355,0.0-16.0-0.47,614b323022fcd8b7408005a6,650c16f0f2faf8d7a0d14c09,651c1bf3c6eaf8f5c63ff57a,null,null,"<p style=""font-size: 60px; font-family: BACS"">uQkrdGlu</p>",,,,,,,,,,
html-keyboard-response,380,726358,0.0-16.0-0.48,614b323022fcd8b7408005a6,650c16f0f2faf8d7a0d14c09,651c1bf3c6eaf8f5c63ff57a,null,null,"<p style=""font-size: 60px; font-family: BACS"">uQkrdGlu</p>",,,,,,,,,,
html-keyboard-response,381,727361,0.0-16.0-0.49,614b323022fcd8b7408005a6,650c16f0f2faf8d7a0d14c09,651c1bf3c6eaf8f5c63ff57a,null,null,"<p style=""font-size: 60px; font-family: BACS"">uQkrdGlu</p>",,,,,,,,,,
html-keyboard-response,382,728363,0.0-16.0-0.50,614b323022fcd8b7408005a6,650c16f0f2faf8d7a0d14c09,651c1bf3c6eaf8f5c63ff57a,null,null,"<p style=""font-size: 60px; font-family: BACS"">uQkrdGlu</p>",,,,,,,,,,
html-keyboard-response,383,729373,0.0-16.0-0.51,614b323022fcd8b7408005a6,650c16f0f2faf8d7a0d14c09,651c1bf3c6eaf8f5c63ff57a,null,null,"<p style=""font-size: 60px; font-family: BACS"">uQkrdGlu</p>",,,,,,,,,,
html-keyboard-response,384,730391,0.0-16.0-0.52,614b323022fcd8b7408005a6,650c16f0f2faf8d7a0d14c09,651c1bf3c6eaf8f5c63ff57a,null,null,"<p style=""font-size: 60px; font-family: BACS"">uQkrdGlu</p>",,,,,,,,,,
html-keyboard-response,385,731394,0.0-16.0-0.53,614b323022fcd8b7408005a6,650c16f0f2faf8d7a0d14c09,651c1bf3c6eaf8f5c63ff57a,null,null,"<p style=""font-size: 60px; font-family: BACS"">uQkrdGlu</p>",,,,,,,,,,
html-keyboard-response,386,732397,0.0-16.0-0.54,614b323022fcd8b7408005a6,650c16f0f2faf8d7a0d14c09,651c1bf3c6eaf8f5c63ff57a,null,null,"<p style=""font-size: 60px; font-family: BACS"">uQkrdGlu</p>",,,,,,,,,,
html-keyboard-response,387,733401,0.0-16.0-0.55,614b323022fcd8b7408005a6,650c16f0f2faf8d7a0d14c09,651c1bf3c6eaf8f5c63ff57a,null,null,"<p style=""font-size: 60px; font-family: BACS"">uQkrdGlu</p>",,,,,,,,,,
html-keyboard-response,388,734404,0.0-16.0-0.56,614b323022fcd8b7408005a6,650c16f0f2faf8d7a0d14c09,651c1bf3c6eaf8f5c63ff57a,null,null,"<p style=""font-size: 60px; font-family: BACS"">uQkrdGlu</p>",,,,,,,,,,
html-keyboard-response,389,735407,0.0-16.0-0.57,614b323022fcd8b7408005a6,650c16f0f2faf8d7a0d14c09,651c1bf3c6eaf8f5c63ff57a,null,null,"<p style=""font-size: 60px; font-family: BACS"">uQkrdGlu</p>",,,,,,,,,,
html-keyboard-response,390,736410,0.0-16.0-0.58,614b323022fcd8b7408005a6,650c16f0f2faf8d7a0d14c09,651c1bf3c6eaf8f5c63ff57a,null,null,"<p style=""font-size: 60px; font-family: BACS"">uQkrdGlu</p>",,,,,,,,,,
html-keyboard-response,391,737413,0.0-16.0-0.59,614b323022fcd8b7408005a6,650c16f0f2faf8d7a0d14c09,651c1bf3c6eaf8f5c63ff57a,null,null,"<p style=""font-size: 60px; font-family: BACS"">uQkrdGlu</p>",,,,,,,,,,
html-keyboard-response,392,738416,0.0-16.0-0.60,614b323022fcd8b7408005a6,650c16f0f2faf8d7a0d14c09,651c1bf3c6eaf8f5c63ff57a,null,null,"<p style=""font-size: 60px; font-family: BACS"">uQkrdGlu</p>",,,,,,,,,,
html-keyboard-response,393,739417,0.0-16.0-0.61,614b323022fcd8b7408005a6,650c16f0f2faf8d7a0d14c09,651c1bf3c6eaf8f5c63ff57a,null,null,"<p style=""font-size: 60px; font-family: BACS"">uQkrdGlu</p>",,,,,,,,,,
html-keyboard-response,394,740420,0.0-16.0-0.62,614b323022fcd8b7408005a6,650c16f0f2faf8d7a0d14c09,651c1bf3c6eaf8f5c63ff57a,null,null,"<p style=""font-size: 60px; font-family: BACS"">uQkrdGlu</p>",,,,,,,,,,
html-keyboard-response,395,741423,0.0-16.0-0.63,614b323022fcd8b7408005a6,650c16f0f2faf8d7a0d14c09,651c1bf3c6eaf8f5c63ff57a,null,null,"<p style=""font-size: 60px; font-family: BACS"">uQkrdGlu</p>",,,,,,,,,,
html-keyboard-response,396,742425,0.0-16.0-0.64,614b323022fcd8b7408005a6,650c16f0f2faf8d7a0d14c09,651c1bf3c6eaf8f5c63ff57a,null,null,"<p style=""font-size: 60px; font-family: BACS"">uQkrdGlu</p>",,,,,,,,,,
html-keyboard-response,397,743434,0.0-16.0-0.65,614b323022fcd8b7408005a6,650c16f0f2faf8d7a0d14c09,651c1bf3c6eaf8f5c63ff57a,null,null,"<p style=""font-size: 60px; font-family: BACS"">uQkrdGlu</p>",,,,,,,,,,
html-keyboard-response,398,744446,0.0-16.0-0.66,614b323022fcd8b7408005a6,650c16f0f2faf8d7a0d14c09,651c1bf3c6eaf8f5c63ff57a,null,null,"<p style=""font-size: 60px; font-family: BACS"">uQkrdGlu</p>",,,,,,,,,,
html-keyboard-response,399,745446,0.0-16.0-0.67,614b323022fcd8b7408005a6,650c16f0f2faf8d7a0d14c09,651c1bf3c6eaf8f5c63ff57a,null,null,"<p style=""font-size: 60px; font-family: BACS"">uQkrdGlu</p>",,,,,,,,,,
html-keyboard-response,400,746448,0.0-16.0-0.68,614b323022fcd8b7408005a6,650c16f0f2faf8d7a0d14c09,651c1bf3c6eaf8f5c63ff57a,null,null,"<p style=""font-size: 60px; font-family: BACS"">uQkrdGlu</p>",,,,,,,,,,
html-keyboard-response,401,747450,0.0-16.0-0.69,614b323022fcd8b7408005a6,650c16f0f2faf8d7a0d14c09,651c1bf3c6eaf8f5c63ff57a,null,null,"<p style=""font-size: 60px; font-family: BACS"">uQkrdGlu</p>",,,,,,,,,,
html-keyboard-response,402,748453,0.0-16.0-0.70,614b323022fcd8b7408005a6,650c16f0f2faf8d7a0d14c09,651c1bf3c6eaf8f5c63ff57a,null,null,"<p style=""font-size: 60px; font-family: BACS"">uQkrdGlu</p>",,,,,,,,,,
html-keyboard-response,403,749455,0.0-16.0-0.71,614b323022fcd8b7408005a6,650c16f0f2faf8d7a0d14c09,651c1bf3c6eaf8f5c63ff57a,null,null,"<p style=""font-size: 60px; font-family: BACS"">uQkrdGlu</p>",,,,,,,,,,
html-keyboard-response,404,750459,0.0-16.0-0.72,614b323022fcd8b7408005a6,650c16f0f2faf8d7a0d14c09,651c1bf3c6eaf8f5c63ff57a,null,null,"<p style=""font-size: 60px; font-family: BACS"">uQkrdGlu</p>",,,,,,,,,,
html-keyboard-response,405,751462,0.0-16.0-0.73,614b323022fcd8b7408005a6,650c16f0f2faf8d7a0d14c09,651c1bf3c6eaf8f5c63ff57a,null,null,"<p style=""font-size: 60px; font-family: BACS"">uQkrdGlu</p>",,,,,,,,,,
html-keyboard-response,406,752465,0.0-16.0-0.74,614b323022fcd8b7408005a6,650c16f0f2faf8d7a0d14c09,651c1bf3c6eaf8f5c63ff57a,null,null,"<p style=""font-size: 60px; font-family: BACS"">uQkrdGlu</p>",,,,,,,,,,
html-keyboard-response,407,753467,0.0-16.0-0.75,614b323022fcd8b7408005a6,650c16f0f2faf8d7a0d14c09,651c1bf3c6eaf8f5c63ff57a,null,null,"<p style=""font-size: 60px; font-family: BACS"">uQkrdGlu</p>",,,,,,,,,,
html-keyboard-response,408,754470,0.0-16.0-0.76,614b323022fcd8b7408005a6,650c16f0f2faf8d7a0d14c09,651c1bf3c6eaf8f5c63ff57a,null,null,"<p style=""font-size: 60px; font-family: BACS"">uQkrdGlu</p>",,,,,,,,,,
html-keyboard-response,409,755472,0.0-16.0-0.77,614b323022fcd8b7408005a6,650c16f0f2faf8d7a0d14c09,651c1bf3c6eaf8f5c63ff57a,null,null,"<p style=""font-size: 60px; font-family: BACS"">uQkrdGlu</p>",,,,,,,,,,
html-keyboard-response,410,756476,0.0-16.0-0.78,614b323022fcd8b7408005a6,650c16f0f2faf8d7a0d14c09,651c1bf3c6eaf8f5c63ff57a,null,null,"<p style=""font-size: 60px; font-family: BACS"">uQkrdGlu</p>",,,,,,,,,,
html-keyboard-response,411,757478,0.0-16.0-0.79,614b323022fcd8b7408005a6,650c16f0f2faf8d7a0d14c09,651c1bf3c6eaf8f5c63ff57a,null,null,"<p style=""font-size: 60px; font-family: BACS"">uQkrdGlu</p>",,,,,,,,,,
html-keyboard-response,412,788833,0.0-17.0,614b323022fcd8b7408005a6,650c16f0f2faf8d7a0d14c09,651c1bf3c6eaf8f5c63ff57a,31354, ,"<p>Great, you've seen the fifth block of words. You may now take a short break.</p>
      <p>Press the spacebar when you're ready to continue.</p>",,,,,,,,,,
html-keyboard-response,413,789838,0.0-18.0-0.0,614b323022fcd8b7408005a6,650c16f0f2faf8d7a0d14c09,651c1bf3c6eaf8f5c63ff57a,null,null,"<p style=""font-size: 60px; font-family: BACS"">adkruUY</p>",,,,,,,,,,
html-keyboard-response,414,790841,0.0-18.0-0.1,614b323022fcd8b7408005a6,650c16f0f2faf8d7a0d14c09,651c1bf3c6eaf8f5c63ff57a,null,null,"<p style=""font-size: 60px; font-family: BACS"">EhbtdEPD</p>",,,,,,,,,,
html-keyboard-response,415,791843,0.0-18.0-0.2,614b323022fcd8b7408005a6,650c16f0f2faf8d7a0d14c09,651c1bf3c6eaf8f5c63ff57a,null,null,"<p style=""font-size: 60px; font-family: BACS"">ZcGdNuUY</p>",,,,,,,,,,
html-keyboard-response,416,792846,0.0-18.0-0.3,614b323022fcd8b7408005a6,650c16f0f2faf8d7a0d14c09,651c1bf3c6eaf8f5c63ff57a,null,null,"<p style=""font-size: 60px; font-family: BACS"">EtMDMcthB</p>",,,,,,,,,,
html-keyboard-response,417,793848,0.0-18.0-0.4,614b323022fcd8b7408005a6,650c16f0f2faf8d7a0d14c09,651c1bf3c6eaf8f5c63ff57a,null,null,"<p style=""font-size: 60px; font-family: BACS"">DOBhYPED</p>",,,,,,,,,,
html-keyboard-response,418,794851,0.0-18.0-0.5,614b323022fcd8b7408005a6,650c16f0f2faf8d7a0d14c09,651c1bf3c6eaf8f5c63ff57a,null,null,"<p style=""font-size: 60px; font-family: BACS"">damYbuUY</p>",,,,,,,,,,
html-keyboard-response,419,795854,0.0-18.0-0.6,614b323022fcd8b7408005a6,650c16f0f2faf8d7a0d14c09,651c1bf3c6eaf8f5c63ff57a,null,null,"<p style=""font-size: 60px; font-family: BACS"">ubALmLaA</p>",,,,,,,,,,
html-keyboard-response,420,796856,0.0-18.0-0.7,614b323022fcd8b7408005a6,650c16f0f2faf8d7a0d14c09,651c1bf3c6eaf8f5c63ff57a,null,null,"<p style=""font-size: 60px; font-family: BACS"">kdaAJkdrO</p>",,,,,,,,,,
html-keyboard-response,421,797858,0.0-18.0-0.8,614b323022fcd8b7408005a6,650c16f0f2faf8d7a0d14c09,651c1bf3c6eaf8f5c63ff57a,null,null,"<p style=""font-size: 60px; font-family: BACS"">DOBhYcthB</p>",,,,,,,,,,
html-keyboard-response,422,798862,0.0-18.0-0.9,614b323022fcd8b7408005a6,650c16f0f2faf8d7a0d14c09,651c1bf3c6eaf8f5c63ff57a,null,null,"<p style=""font-size: 60px; font-family: BACS"">EtMDMkDOm</p>",,,,,,,,,,
html-keyboard-response,423,799864,0.0-18.0-0.10,614b323022fcd8b7408005a6,650c16f0f2faf8d7a0d14c09,651c1bf3c6eaf8f5c63ff57a,null,null,"<p style=""font-size: 60px; font-family: BACS"">GLYrAkdrO</p>",,,,,,,,,,
html-keyboard-response,424,800866,0.0-18.0-0.11,614b323022fcd8b7408005a6,650c16f0f2faf8d7a0d14c09,651c1bf3c6eaf8f5c63ff57a,null,null,"<p style=""font-size: 60px; font-family: BACS"">DOBhYkDOm</p>",,,,,,,,,,
html-keyboard-response,425,801868,0.0-18.0-0.12,614b323022fcd8b7408005a6,650c16f0f2faf8d7a0d14c09,651c1bf3c6eaf8f5c63ff57a,null,null,"<p style=""font-size: 60px; font-family: BACS"">EtMDMdEPD</p>",,,,,,,,,,
html-keyboard-response,426,802870,0.0-18.0-0.13,614b323022fcd8b7408005a6,650c16f0f2faf8d7a0d14c09,651c1bf3c6eaf8f5c63ff57a,null,null,"<p style=""font-size: 60px; font-family: BACS"">bmbNkdrO</p>",,,,,,,,,,
html-keyboard-response,427,803873,0.0-18.0-0.14,614b323022fcd8b7408005a6,650c16f0f2faf8d7a0d14c09,651c1bf3c6eaf8f5c63ff57a,null,null,"<p style=""font-size: 60px; font-family: BACS"">DOBhYdEPD</p>",,,,,,,,,,
html-keyboard-response,428,804876,0.0-18.0-0.15,614b323022fcd8b7408005a6,650c16f0f2faf8d7a0d14c09,651c1bf3c6eaf8f5c63ff57a,null,null,"<p style=""font-size: 60px; font-family: BACS"">uQkrdLaA</p>",,,,,,,,,,
html-keyboard-response,429,805875,0.0-18.0-0.16,614b323022fcd8b7408005a6,650c16f0f2faf8d7a0d14c09,651c1bf3c6eaf8f5c63ff57a,null,null,"<p style=""font-size: 60px; font-family: BACS"">JdOAYuUY</p>",,,,,,,,,,
html-keyboard-response,430,806877,0.0-18.0-0.17,614b323022fcd8b7408005a6,650c16f0f2faf8d7a0d14c09,651c1bf3c6eaf8f5c63ff57a,null,null,"<p style=""font-size: 60px; font-family: BACS"">GLYrALaA</p>",,,,,,,,,,
html-keyboard-response,431,807879,0.0-18.0-0.18,614b323022fcd8b7408005a6,650c16f0f2faf8d7a0d14c09,651c1bf3c6eaf8f5c63ff57a,null,null,"<p style=""font-size: 60px; font-family: BACS"">TdmAcDR</p>",,,,,,,,,,
html-keyboard-response,432,808882,0.0-18.0-0.19,614b323022fcd8b7408005a6,650c16f0f2faf8d7a0d14c09,651c1bf3c6eaf8f5c63ff57a,null,null,"<p style=""font-size: 60px; font-family: BACS"">damYbGlu</p>",,,,,,,,,,
html-keyboard-response,433,809884,0.0-18.0-0.20,614b323022fcd8b7408005a6,650c16f0f2faf8d7a0d14c09,651c1bf3c6eaf8f5c63ff57a,null,null,"<p style=""font-size: 60px; font-family: BACS"">PdDTPED</p>",,,,,,,,,,
html-keyboard-response,434,810907,0.0-18.0-0.21,614b323022fcd8b7408005a6,650c16f0f2faf8d7a0d14c09,651c1bf3c6eaf8f5c63ff57a,null,null,"<p style=""font-size: 60px; font-family: BACS"">cBROBdEPD</p>",,,,,,,,,,
html-keyboard-response,435,811909,0.0-18.0-0.22,614b323022fcd8b7408005a6,650c16f0f2faf8d7a0d14c09,651c1bf3c6eaf8f5c63ff57a,null,null,"<p style=""font-size: 60px; font-family: BACS"">dRhtPED</p>",,,,,,,,,,
html-keyboard-response,436,812912,0.0-18.0-0.23,614b323022fcd8b7408005a6,650c16f0f2faf8d7a0d14c09,651c1bf3c6eaf8f5c63ff57a,null,null,"<p style=""font-size: 60px; font-family: BACS"">TdmAdEPD</p>",,,,,,,,,,
html-keyboard-response,437,813915,0.0-18.0-0.24,614b323022fcd8b7408005a6,650c16f0f2faf8d7a0d14c09,651c1bf3c6eaf8f5c63ff57a,null,null,"<p style=""font-size: 60px; font-family: BACS"">uQkrdGlu</p>",,,,,,,,,,
html-keyboard-response,438,814916,0.0-18.0-0.25,614b323022fcd8b7408005a6,650c16f0f2faf8d7a0d14c09,651c1bf3c6eaf8f5c63ff57a,null,null,"<p style=""font-size: 60px; font-family: BACS"">kPOtdEPD</p>",,,,,,,,,,
html-keyboard-response,439,815919,0.0-18.0-0.26,614b323022fcd8b7408005a6,650c16f0f2faf8d7a0d14c09,651c1bf3c6eaf8f5c63ff57a,null,null,"<p style=""font-size: 60px; font-family: BACS"">kdaAJLaA</p>",,,,,,,,,,
html-keyboard-response,440,816922,0.0-18.0-0.27,614b323022fcd8b7408005a6,650c16f0f2faf8d7a0d14c09,651c1bf3c6eaf8f5c63ff57a,null,null,"<p style=""font-size: 60px; font-family: BACS"">bmbNQGb</p>",,,,,,,,,,
html-keyboard-response,441,817925,0.0-18.0-0.28,614b323022fcd8b7408005a6,650c16f0f2faf8d7a0d14c09,651c1bf3c6eaf8f5c63ff57a,null,null,"<p style=""font-size: 60px; font-family: BACS"">damYbLaA</p>",,,,,,,,,,
html-keyboard-response,442,818928,0.0-18.0-0.29,614b323022fcd8b7408005a6,650c16f0f2faf8d7a0d14c09,651c1bf3c6eaf8f5c63ff57a,null,null,"<p style=""font-size: 60px; font-family: BACS"">JdOAYQGb</p>",,,,,,,,,,
html-keyboard-response,443,819931,0.0-18.0-0.30,614b323022fcd8b7408005a6,650c16f0f2faf8d7a0d14c09,651c1bf3c6eaf8f5c63ff57a,null,null,"<p style=""font-size: 60px; font-family: BACS"">ZcGdNGlu</p>",,,,,,,,,,
html-keyboard-response,444,820933,0.0-18.0-0.31,614b323022fcd8b7408005a6,650c16f0f2faf8d7a0d14c09,651c1bf3c6eaf8f5c63ff57a,null,null,"<p style=""font-size: 60px; font-family: BACS"">LuNZLaA</p>",,,,,,,,,,
html-keyboard-response,445,821935,0.0-18.0-0.32,614b323022fcd8b7408005a6,650c16f0f2faf8d7a0d14c09,651c1bf3c6eaf8f5c63ff57a,null,null,"<p style=""font-size: 60px; font-family: BACS"">kdaAJGlu</p>",,,,,,,,,,
html-keyboard-response,446,822938,0.0-18.0-0.33,614b323022fcd8b7408005a6,650c16f0f2faf8d7a0d14c09,651c1bf3c6eaf8f5c63ff57a,null,null,"<p style=""font-size: 60px; font-family: BACS"">kPOtcDR</p>",,,,,,,,,,
html-keyboard-response,447,823941,0.0-18.0-0.34,614b323022fcd8b7408005a6,650c16f0f2faf8d7a0d14c09,651c1bf3c6eaf8f5c63ff57a,null,null,"<p style=""font-size: 60px; font-family: BACS"">cBROBkDOm</p>",,,,,,,,,,
html-keyboard-response,448,824943,0.0-18.0-0.35,614b323022fcd8b7408005a6,650c16f0f2faf8d7a0d14c09,651c1bf3c6eaf8f5c63ff57a,null,null,"<p style=""font-size: 60px; font-family: BACS"">adkrQGb</p>",,,,,,,,,,
html-keyboard-response,449,825946,0.0-18.0-0.36,614b323022fcd8b7408005a6,650c16f0f2faf8d7a0d14c09,651c1bf3c6eaf8f5c63ff57a,null,null,"<p style=""font-size: 60px; font-family: BACS"">PdDTcDR</p>",,,,,,,,,,
html-keyboard-response,450,826948,0.0-18.0-0.37,614b323022fcd8b7408005a6,650c16f0f2faf8d7a0d14c09,651c1bf3c6eaf8f5c63ff57a,null,null,"<p style=""font-size: 60px; font-family: BACS"">kdaAJuUY</p>",,,,,,,,,,
html-keyboard-response,451,827951,0.0-18.0-0.38,614b323022fcd8b7408005a6,650c16f0f2faf8d7a0d14c09,651c1bf3c6eaf8f5c63ff57a,null,null,"<p style=""font-size: 60px; font-family: BACS"">TdmAkDOm</p>",,,,,,,,,,
html-keyboard-response,452,828954,0.0-18.0-0.39,614b323022fcd8b7408005a6,650c16f0f2faf8d7a0d14c09,651c1bf3c6eaf8f5c63ff57a,null,null,"<p style=""font-size: 60px; font-family: BACS"">LuNZGlu</p>",,,,,,,,,,
html-keyboard-response,453,829957,0.0-18.0-0.40,614b323022fcd8b7408005a6,650c16f0f2faf8d7a0d14c09,651c1bf3c6eaf8f5c63ff57a,null,null,"<p style=""font-size: 60px; font-family: BACS"">dRhtcthB</p>",,,,,,,,,,
html-keyboard-response,454,830958,0.0-18.0-0.41,614b323022fcd8b7408005a6,650c16f0f2faf8d7a0d14c09,651c1bf3c6eaf8f5c63ff57a,null,null,"<p style=""font-size: 60px; font-family: BACS"">EtMDMcDR</p>",,,,,,,,,,
html-keyboard-response,455,831961,0.0-18.0-0.42,614b323022fcd8b7408005a6,650c16f0f2faf8d7a0d14c09,651c1bf3c6eaf8f5c63ff57a,null,null,"<p style=""font-size: 60px; font-family: BACS"">TdmActhB</p>",,,,,,,,,,
html-keyboard-response,456,832964,0.0-18.0-0.43,614b323022fcd8b7408005a6,650c16f0f2faf8d7a0d14c09,651c1bf3c6eaf8f5c63ff57a,null,null,"<p style=""font-size: 60px; font-family: BACS"">PdDTkDOm</p>",,,,,,,,,,
html-keyboard-response,457,833966,0.0-18.0-0.44,614b323022fcd8b7408005a6,650c16f0f2faf8d7a0d14c09,651c1bf3c6eaf8f5c63ff57a,null,null,"<p style=""font-size: 60px; font-family: BACS"">kPOtPED</p>",,,,,,,,,,
html-keyboard-response,458,834969,0.0-18.0-0.45,614b323022fcd8b7408005a6,650c16f0f2faf8d7a0d14c09,651c1bf3c6eaf8f5c63ff57a,null,null,"<p style=""font-size: 60px; font-family: BACS"">dRhtcDR</p>",,,,,,,,,,
html-keyboard-response,459,835972,0.0-18.0-0.46,614b323022fcd8b7408005a6,650c16f0f2faf8d7a0d14c09,651c1bf3c6eaf8f5c63ff57a,null,null,"<p style=""font-size: 60px; font-family: BACS"">YlCPBdEPD</p>",,,,,,,,,,
html-keyboard-response,460,836975,0.0-18.0-0.47,614b323022fcd8b7408005a6,650c16f0f2faf8d7a0d14c09,651c1bf3c6eaf8f5c63ff57a,null,null,"<p style=""font-size: 60px; font-family: BACS"">LuNZQGb</p>",,,,,,,,,,
html-keyboard-response,461,837978,0.0-18.0-0.48,614b323022fcd8b7408005a6,650c16f0f2faf8d7a0d14c09,651c1bf3c6eaf8f5c63ff57a,null,null,"<p style=""font-size: 60px; font-family: BACS"">ZcGdNkdrO</p>",,,,,,,,,,
html-keyboard-response,462,838981,0.0-18.0-0.49,614b323022fcd8b7408005a6,650c16f0f2faf8d7a0d14c09,651c1bf3c6eaf8f5c63ff57a,null,null,"<p style=""font-size: 60px; font-family: BACS"">kPOtcthB</p>",,,,,,,,,,
html-keyboard-response,463,839983,0.0-18.0-0.50,614b323022fcd8b7408005a6,650c16f0f2faf8d7a0d14c09,651c1bf3c6eaf8f5c63ff57a,null,null,"<p style=""font-size: 60px; font-family: BACS"">bmbNGlu</p>",,,,,,,,,,
html-keyboard-response,464,840985,0.0-18.0-0.51,614b323022fcd8b7408005a6,650c16f0f2faf8d7a0d14c09,651c1bf3c6eaf8f5c63ff57a,null,null,"<p style=""font-size: 60px; font-family: BACS"">ZcGdNQGb</p>",,,,,,,,,,
html-keyboard-response,465,841987,0.0-18.0-0.52,614b323022fcd8b7408005a6,650c16f0f2faf8d7a0d14c09,651c1bf3c6eaf8f5c63ff57a,null,null,"<p style=""font-size: 60px; font-family: BACS"">EhbtcDR</p>",,,,,,,,,,
