"trial_type","trial_index","time_elapsed","internal_node_id","subject_id","study_id","session_id","rt","response","stimulus","success","item","task","correct_response","correct","target","confound","name"
"pavlovia","0","2897","0.0-0.0","605c9355001a5eb6d51e657d","64b003020eef62ee308107cc","64b03511972d6ef22a0e0f74","","","","","","","","","","",""
"survey-html-form","1","12005","0.0-1.0","605c9355001a5eb6d51e657d","64b003020eef62ee308107cc","64b03511972d6ef22a0e0f74","9108","{""ID"":""605c9355001a5eb6d51e657d""}","","","","","","","","",""
"html-keyboard-response","2","13589","0.0-2.0","605c9355001a5eb6d51e657d","64b003020eef62ee308107cc","64b03511972d6ef22a0e0f74","1584"," ","<p style=""font-size: 15px;"">Prima di cominciare, le chiediamo di leggere il modulo di consenso informato e confermare la sua volontà di partecipare all'esperimento.</p>
      <p style=""font-size: 15px;""> La preghiamo di ricordare che questo è un progetto di ricerca e che la sua partecipazione è completamente volontaria. Lei si potra' ritirare in qualunque momento, senza necessariamente dover dare alcuna spiegazione. Lo studio al quale Le si chiede di partecipare ha lo scopo di esaminare come i lettori elaborano le parole scritte. La somministrazione delle prove è individuale. Lei sarà impegnato in una sessione di lavoro della durata media di 10 minuti, e un questionario di 10 minuti. L’ordine delle prove ed il loro svolgimento sono stabiliti in modo tale da evitare un eventuale affaticamento. Tutte le prove saranno precedute da un breve addestramento in modo tale che abbia la possibilità di familiarizzare con il compito. Sono previste alcune pause nel corso dello svolgimento dell’esperimento. Una ricompensa di £4 (£8 per ora) Le verrà consegnata al termine della sessione di testing. Nonostante il testing preveda delle prove cognitive, il presente esperimento non costituisce una prova clinica che permetta la diagnosi di eventuali patologie.</p>
      <p style=""font-size: 15px;"">Tutti i dati raccolti grazie alla partecipazione Sua e di altre persone volontarie saranno custoditi in server sicuri e protetti da password, e non sarà consentito ad alcuna persona non autorizzata di accedervi. Le Sue informazioni personali saranno conservate separatamente dai risultati della presente ricerca, cui saranno associati soltanto attraverso un ID arbitrario. Grazie a questo processo di anonimizzazione dei dati, a nessun ricercatore sarà possibile analizzare i risultati sapendo da quale specifico partecipante essi provengono. Inoltre, questa procedura renderà impossibile la Sua identificazione anche nel momento in cui i risultati della ricerca fossero pubblicati su riviste scientifiche, o presentati a congressi o in qualsiasi altro pubblico consesso. Più in generale, i dati raccolti saranno trattati in accordo con le leggi sulla privacy e in conformità al Decreto Legislativo 30 giugno 2003 n. 196 “Codice in materia di protezione dei dati personali” e al Regolamento Europeo 2016/679 (General Data Protection Regulation - GDPR). Il Responsabile della protezione dei dati (RPD) è l’Avv. Valentina Carollo che può essere contattato ai seguenti indirizzi email: <a href=""mailto:dpo@sissa.it"">dpo@sissa.it</a> oppure <a href=""mailto:rpd@sissa.it"">rpd@sissa.it</a> - PEC: <a href=""mailto:protocollo@pec.sissa.it"">protocollo@pec.sissa.it</a>.</p>
      <p style=""font-size: 15px;""> Prima di esprimere il suo consenso alla partecipazione, Le ricordiamo ancora che in caso Lei abbia bisogno di delucidazioni su qualunque aspetto della procedura sperimentale, il ricercatore è a Sua completa disposizione (<a href=""mailto:aliebelt@sissa.it"">aliebelt@sissa.it</a>, <a href=""mailto:davide.crepaldi@sissa.it"">davide.crepaldi@sissa.it</a>).</p>
      <p style=""font-size: 15px;"">Se vuole scaricare il modulo di consenso informato, clicca qui: <a href=""BASL_modulo_consenso.pdf"" download>modulo di consenso</a>.</p>
      <p style=""font-size: 15px;""> Le chiediamo di premere la barra per continuare al consenso.</p>","","","","","","","",""
"survey-html-form","3","18045","0.0-3.0","605c9355001a5eb6d51e657d","64b003020eef62ee308107cc","64b03511972d6ef22a0e0f74","4455","{""consent1"":""YES"",""consent2"":""YES"",""consent3"":""YES"",""consent4"":""YES"",""consent5"":""YES"",""consent6"":""YES""}","","","","","","","","",""
"fullscreen","4","19970","0.0-4.0","605c9355001a5eb6d51e657d","64b003020eef62ee308107cc","64b03511972d6ef22a0e0f74","","","","true","","","","","","",""
"html-keyboard-response","5","21005","0.0-5.0","605c9355001a5eb6d51e657d","64b003020eef62ee308107cc","64b03511972d6ef22a0e0f74","1034"," ","<p>Benvenuta/o, e grazie mille del tuo tempo!</p>
      <p>In questo esperimento sarai un esperto/un'esperta di linguaggio cui è stato chiesto di dare un'occhiata ad alcuni messaggi che la Terra ha ricevuto dallo spazio. Il tuo compito, in questa prima parte dell'esperimento, sarà di fare molta attenzione alle parole che ti verranno mostrate; più tardi, i leader del mondo ti chiederanno qualche informazione su quello che hai visto. Le parole si susseguiranno abbastanza velocemente; sembra che questi alieni abbiano una certa fretta :-) </p>
      <p>Per favore, chiama lo sperimentatore se ha qualche domanda.</p><p>Premi la barra per continuare.</p>","","","","","","","",""
"html-keyboard-response","6","21797","0.0-6.0","605c9355001a5eb6d51e657d","64b003020eef62ee308107cc","64b03511972d6ef22a0e0f74","791"," ","<p>Ecco un esempio delle parole che vedrai:</p>
      <img src='esempio.png' height='400px'>
      <p>Quando sei pronti per iniziare, premi la barra.</p></div>","","","","","","","",""
"html-keyboard-response","7","22804","0.0-7.0-0.0","605c9355001a5eb6d51e657d","64b003020eef62ee308107cc","64b03511972d6ef22a0e0f74","null","null","<p style=""font-size: 60px; font-family: BACS"">lhCTCRYlD</p>","","","","","","","",""
"html-keyboard-response","8","23817","0.0-7.0-0.1","605c9355001a5eb6d51e657d","64b003020eef62ee308107cc","64b03511972d6ef22a0e0f74","null","null","<p style=""font-size: 60px; font-family: BACS"">lBlEOMC</p>","","","","","","","",""
"html-keyboard-response","9","24818","0.0-7.0-0.2","605c9355001a5eb6d51e657d","64b003020eef62ee308107cc","64b03511972d6ef22a0e0f74","null","null","<p style=""font-size: 60px; font-family: BACS"">lhCTCtRb</p>","","","","","","","",""
"html-keyboard-response","10","25820","0.0-7.0-0.3","605c9355001a5eb6d51e657d","64b003020eef62ee308107cc","64b03511972d6ef22a0e0f74","null","null","<p style=""font-size: 60px; font-family: BACS"">vAuNlkam</p>","","","","","","","",""
"html-keyboard-response","11","26831","0.0-7.0-0.4","605c9355001a5eb6d51e657d","64b003020eef62ee308107cc","64b03511972d6ef22a0e0f74","null","null","<p style=""font-size: 60px; font-family: BACS"">YuaNdaQr</p>","","","","","","","",""
"html-keyboard-response","12","27844","0.0-7.0-0.5","605c9355001a5eb6d51e657d","64b003020eef62ee308107cc","64b03511972d6ef22a0e0f74","null","null","<p style=""font-size: 60px; font-family: BACS"">kGamNkam</p>","","","","","","","",""
"html-keyboard-response","13","28854","0.0-7.0-0.6","605c9355001a5eb6d51e657d","64b003020eef62ee308107cc","64b03511972d6ef22a0e0f74","null","null","<p style=""font-size: 60px; font-family: BACS"">ckduAGQYQ</p>","","","","","","","",""
"html-keyboard-response","14","29866","0.0-7.0-0.7","605c9355001a5eb6d51e657d","64b003020eef62ee308107cc","64b03511972d6ef22a0e0f74","null","null","<p style=""font-size: 60px; font-family: BACS"">ODBDABRDh</p>","","","","","","","",""
"html-keyboard-response","15","30876","0.0-7.0-0.8","605c9355001a5eb6d51e657d","64b003020eef62ee308107cc","64b03511972d6ef22a0e0f74","null","null","<p style=""font-size: 60px; font-family: BACS"">YQbcGQYQ</p>","","","","","","","",""
"html-keyboard-response","16","31877","0.0-7.0-0.9","605c9355001a5eb6d51e657d","64b003020eef62ee308107cc","64b03511972d6ef22a0e0f74","null","null","<p style=""font-size: 60px; font-family: BACS"">GLYrAkam</p>","","","","","","","",""
"html-keyboard-response","17","32885","0.0-7.0-0.10","605c9355001a5eb6d51e657d","64b003020eef62ee308107cc","64b03511972d6ef22a0e0f74","null","null","<p style=""font-size: 60px; font-family: BACS"">ZcGdNGQYQ</p>","","","","","","","",""
"html-keyboard-response","18","33900","0.0-7.0-0.11","605c9355001a5eb6d51e657d","64b003020eef62ee308107cc","64b03511972d6ef22a0e0f74","null","null","<p style=""font-size: 60px; font-family: BACS"">AdDbBRDh</p>","","","","","","","",""
"html-keyboard-response","19","34911","0.0-7.0-0.12","605c9355001a5eb6d51e657d","64b003020eef62ee308107cc","64b03511972d6ef22a0e0f74","null","null","<p style=""font-size: 60px; font-family: BACS"">ZcGdNaQr</p>","","","","","","","",""
"html-keyboard-response","20","35926","0.0-7.0-0.13","605c9355001a5eb6d51e657d","64b003020eef62ee308107cc","64b03511972d6ef22a0e0f74","null","null","<p style=""font-size: 60px; font-family: BACS"">kGamNLcO</p>","","","","","","","",""
"html-keyboard-response","21","36934","0.0-7.0-0.14","605c9355001a5eb6d51e657d","64b003020eef62ee308107cc","64b03511972d6ef22a0e0f74","null","null","<p style=""font-size: 60px; font-family: BACS"">LQurGlu</p>","","","","","","","",""
"html-keyboard-response","22","37944","0.0-7.0-0.15","605c9355001a5eb6d51e657d","64b003020eef62ee308107cc","64b03511972d6ef22a0e0f74","null","null","<p style=""font-size: 60px; font-family: BACS"">ZcGdNLcO</p>","","","","","","","",""
"html-keyboard-response","23","38952","0.0-7.0-0.16","605c9355001a5eb6d51e657d","64b003020eef62ee308107cc","64b03511972d6ef22a0e0f74","null","null","<p style=""font-size: 60px; font-family: BACS"">btlcktRb</p>","","","","","","","",""
"html-keyboard-response","24","39962","0.0-7.0-0.17","605c9355001a5eb6d51e657d","64b003020eef62ee308107cc","64b03511972d6ef22a0e0f74","null","null","<p style=""font-size: 60px; font-family: BACS"">ZcGdNkam</p>","","","","","","","",""
"html-keyboard-response","25","40974","0.0-7.0-0.18","605c9355001a5eb6d51e657d","64b003020eef62ee308107cc","64b03511972d6ef22a0e0f74","null","null","<p style=""font-size: 60px; font-family: BACS"">lBlERYlD</p>","","","","","","","",""
"html-keyboard-response","26","41983","0.0-7.0-0.19","605c9355001a5eb6d51e657d","64b003020eef62ee308107cc","64b03511972d6ef22a0e0f74","null","null","<p style=""font-size: 60px; font-family: BACS"">lAOKMcDR</p>","","","","","","","",""
"html-keyboard-response","27","42994","0.0-7.0-0.20","605c9355001a5eb6d51e657d","64b003020eef62ee308107cc","64b03511972d6ef22a0e0f74","null","null","<p style=""font-size: 60px; font-family: BACS"">hTtBbBRDh</p>","","","","","","","",""
"html-keyboard-response","28","43995","0.0-7.0-0.21","605c9355001a5eb6d51e657d","64b003020eef62ee308107cc","64b03511972d6ef22a0e0f74","null","null","<p style=""font-size: 60px; font-family: BACS"">ECtbDRYlD</p>","","","","","","","",""
"html-keyboard-response","29","45005","0.0-7.0-0.22","605c9355001a5eb6d51e657d","64b003020eef62ee308107cc","64b03511972d6ef22a0e0f74","null","null","<p style=""font-size: 60px; font-family: BACS"">GLluAkam</p>","","","","","","","",""
"html-keyboard-response","30","46013","0.0-7.0-0.23","605c9355001a5eb6d51e657d","64b003020eef62ee308107cc","64b03511972d6ef22a0e0f74","null","null","<p style=""font-size: 60px; font-family: BACS"">kGamNaQr</p>","","","","","","","",""
"html-keyboard-response","31","47020","0.0-7.0-0.24","605c9355001a5eb6d51e657d","64b003020eef62ee308107cc","64b03511972d6ef22a0e0f74","null","null","<p style=""font-size: 60px; font-family: BACS"">ECtbDcDR</p>","","","","","","","",""
"html-keyboard-response","32","49029","0.0-7.0-0.25","605c9355001a5eb6d51e657d","64b003020eef62ee308107cc","64b03511972d6ef22a0e0f74","null","null","<p style=""font-size: 60px; font-family: BACS"">YQbcGlu</p>","","","","","","","",""
"html-keyboard-response","33","51027","0.0-7.0-0.26","605c9355001a5eb6d51e657d","64b003020eef62ee308107cc","64b03511972d6ef22a0e0f74","null","null","<p style=""font-size: 60px; font-family: BACS"">tmtEMtRb</p>","","","","","","","",""
"html-keyboard-response","34","53029","0.0-7.0-0.27","605c9355001a5eb6d51e657d","64b003020eef62ee308107cc","64b03511972d6ef22a0e0f74","null","null","<p style=""font-size: 60px; font-family: BACS"">GLluAaQr</p>","","","","","","","",""
"html-keyboard-response","35","55022","0.0-7.0-0.28","605c9355001a5eb6d51e657d","64b003020eef62ee308107cc","64b03511972d6ef22a0e0f74","null","null","<p style=""font-size: 60px; font-family: BACS"">btlckOMC</p>","","","","","","","",""
"html-keyboard-response","36","56038","0.0-7.0-0.29","605c9355001a5eb6d51e657d","64b003020eef62ee308107cc","64b03511972d6ef22a0e0f74","null","null","<p style=""font-size: 60px; font-family: BACS"">GLYrAaQr</p>","","","","","","","",""
"html-keyboard-response","37","58027","0.0-7.0-0.30","605c9355001a5eb6d51e657d","64b003020eef62ee308107cc","64b03511972d6ef22a0e0f74","null","null","<p style=""font-size: 60px; font-family: BACS"">ckduAGlu</p>","","","","","","","",""
"html-keyboard-response","38","60017","0.0-7.0-0.31","605c9355001a5eb6d51e657d","64b003020eef62ee308107cc","64b03511972d6ef22a0e0f74","null","null","<p style=""font-size: 60px; font-family: BACS"">lAOKMRYlD</p>","","","","","","","",""
"html-keyboard-response","39","61025","0.0-7.0-0.32","605c9355001a5eb6d51e657d","64b003020eef62ee308107cc","64b03511972d6ef22a0e0f74","null","null","<p style=""font-size: 60px; font-family: BACS"">vAuNlGQYQ</p>","","","","","","","",""
"html-keyboard-response","40","63029","0.0-7.0-0.33","605c9355001a5eb6d51e657d","64b003020eef62ee308107cc","64b03511972d6ef22a0e0f74","null","null","<p style=""font-size: 60px; font-family: BACS"">ckduALcO</p>","","","","","","","",""
"html-keyboard-response","41","65017","0.0-7.0-0.34","605c9355001a5eb6d51e657d","64b003020eef62ee308107cc","64b03511972d6ef22a0e0f74","null","null","<p style=""font-size: 60px; font-family: BACS"">kGamNGlu</p>","","","","","","","",""
"html-keyboard-response","42","66023","0.0-7.0-0.35","605c9355001a5eb6d51e657d","64b003020eef62ee308107cc","64b03511972d6ef22a0e0f74","null","null","<p style=""font-size: 60px; font-family: BACS"">vAuNlaQr</p>","","","","","","","",""
"html-keyboard-response","43","68030","0.0-7.0-0.36","605c9355001a5eb6d51e657d","64b003020eef62ee308107cc","64b03511972d6ef22a0e0f74","null","null","<p style=""font-size: 60px; font-family: BACS"">GLluAGQYQ</p>","","","","","","","",""
"html-keyboard-response","44","69044","0.0-7.0-0.37","605c9355001a5eb6d51e657d","64b003020eef62ee308107cc","64b03511972d6ef22a0e0f74","null","null","<p style=""font-size: 60px; font-family: BACS"">hTtBbcDR</p>","","","","","","","",""
"html-keyboard-response","45","70049","0.0-7.0-0.38","605c9355001a5eb6d51e657d","64b003020eef62ee308107cc","64b03511972d6ef22a0e0f74","null","null","<p style=""font-size: 60px; font-family: BACS"">GLYrALcO</p>","","","","","","","",""
"html-keyboard-response","46","72019","0.0-7.0-0.39","605c9355001a5eb6d51e657d","64b003020eef62ee308107cc","64b03511972d6ef22a0e0f74","null","null","<p style=""font-size: 60px; font-family: BACS"">LQurGQYQ</p>","","","","","","","",""
"html-keyboard-response","47","73020","0.0-7.0-0.40","605c9355001a5eb6d51e657d","64b003020eef62ee308107cc","64b03511972d6ef22a0e0f74","null","null","<p style=""font-size: 60px; font-family: BACS"">ODBDAcDR</p>","","","","","","","",""
"html-keyboard-response","48","74026","0.0-7.0-0.41","605c9355001a5eb6d51e657d","64b003020eef62ee308107cc","64b03511972d6ef22a0e0f74","null","null","<p style=""font-size: 60px; font-family: BACS"">UdYUQGlu</p>","","","","","","","",""
"html-keyboard-response","49","75039","0.0-7.0-0.42","605c9355001a5eb6d51e657d","64b003020eef62ee308107cc","64b03511972d6ef22a0e0f74","null","null","<p style=""font-size: 60px; font-family: BACS"">LQurkam</p>","","","","","","","",""
"html-keyboard-response","50","77031","0.0-7.0-0.43","605c9355001a5eb6d51e657d","64b003020eef62ee308107cc","64b03511972d6ef22a0e0f74","null","null","<p style=""font-size: 60px; font-family: BACS"">lhCTCcDR</p>","","","","","","","",""
"html-keyboard-response","51","79029","0.0-7.0-0.44","605c9355001a5eb6d51e657d","64b003020eef62ee308107cc","64b03511972d6ef22a0e0f74","null","null","<p style=""font-size: 60px; font-family: BACS"">YuaNdkam</p>","","","","","","","",""
"html-keyboard-response","52","81025","0.0-7.0-0.45","605c9355001a5eb6d51e657d","64b003020eef62ee308107cc","64b03511972d6ef22a0e0f74","null","null","<p style=""font-size: 60px; font-family: BACS"">btlckRYlD</p>","","","","","","","",""
"html-keyboard-response","53","83031","0.0-7.0-0.46","605c9355001a5eb6d51e657d","64b003020eef62ee308107cc","64b03511972d6ef22a0e0f74","null","null","<p style=""font-size: 60px; font-family: BACS"">lBlEcDR</p>","","","","","","","",""
"html-keyboard-response","54","85022","0.0-7.0-0.47","605c9355001a5eb6d51e657d","64b003020eef62ee308107cc","64b03511972d6ef22a0e0f74","null","null","<p style=""font-size: 60px; font-family: BACS"">dKDthBRDh</p>","","","","","","","",""
"html-keyboard-response","55","86036","0.0-7.0-0.48","605c9355001a5eb6d51e657d","64b003020eef62ee308107cc","64b03511972d6ef22a0e0f74","null","null","<p style=""font-size: 60px; font-family: BACS"">LQurLcO</p>","","","","","","","",""
"html-keyboard-response","56","88029","0.0-7.0-0.49","605c9355001a5eb6d51e657d","64b003020eef62ee308107cc","64b03511972d6ef22a0e0f74","null","null","<p style=""font-size: 60px; font-family: BACS"">hTtBbOMC</p>","","","","","","","",""
"html-keyboard-response","57","90025","0.0-7.0-0.50","605c9355001a5eb6d51e657d","64b003020eef62ee308107cc","64b03511972d6ef22a0e0f74","null","null","<p style=""font-size: 60px; font-family: BACS"">AdDbtRb</p>","","","","","","","",""
"html-keyboard-response","58","92018","0.0-7.0-0.51","605c9355001a5eb6d51e657d","64b003020eef62ee308107cc","64b03511972d6ef22a0e0f74","null","null","<p style=""font-size: 60px; font-family: BACS"">lAOKMBRDh</p>","","","","","","","",""
"html-keyboard-response","59","93030","0.0-7.0-0.52","605c9355001a5eb6d51e657d","64b003020eef62ee308107cc","64b03511972d6ef22a0e0f74","null","null","<p style=""font-size: 60px; font-family: BACS"">ECtbDtRb</p>","","","","","","","",""
"html-keyboard-response","60","95025","0.0-7.0-0.53","605c9355001a5eb6d51e657d","64b003020eef62ee308107cc","64b03511972d6ef22a0e0f74","null","null","<p style=""font-size: 60px; font-family: BACS"">YQbcaQr</p>","","","","","","","",""
"html-keyboard-response","61","97024","0.0-7.0-0.54","605c9355001a5eb6d51e657d","64b003020eef62ee308107cc","64b03511972d6ef22a0e0f74","null","null","<p style=""font-size: 60px; font-family: BACS"">UdYUQGQYQ</p>","","","","","","","",""
"html-keyboard-response","62","98030","0.0-7.0-0.55","605c9355001a5eb6d51e657d","64b003020eef62ee308107cc","64b03511972d6ef22a0e0f74","null","null","<p style=""font-size: 60px; font-family: BACS"">dKDthRYlD</p>","","","","","","","",""
"html-keyboard-response","63","100019","0.0-7.0-0.56","605c9355001a5eb6d51e657d","64b003020eef62ee308107cc","64b03511972d6ef22a0e0f74","null","null","<p style=""font-size: 60px; font-family: BACS"">AdDbcDR</p>","","","","","","","",""
"html-keyboard-response","64","102021","0.0-7.0-0.57","605c9355001a5eb6d51e657d","64b003020eef62ee308107cc","64b03511972d6ef22a0e0f74","null","null","<p style=""font-size: 60px; font-family: BACS"">dKDthtRb</p>","","","","","","","",""
"html-keyboard-response","65","103036","0.0-7.0-0.58","605c9355001a5eb6d51e657d","64b003020eef62ee308107cc","64b03511972d6ef22a0e0f74","null","null","<p style=""font-size: 60px; font-family: BACS"">AdDbOMC</p>","","","","","","","",""
"html-keyboard-response","66","105018","0.0-7.0-0.59","605c9355001a5eb6d51e657d","64b003020eef62ee308107cc","64b03511972d6ef22a0e0f74","null","null","<p style=""font-size: 60px; font-family: BACS"">ODBDARYlD</p>","","","","","","","",""
"html-keyboard-response","67","106031","0.0-7.0-0.60","605c9355001a5eb6d51e657d","64b003020eef62ee308107cc","64b03511972d6ef22a0e0f74","null","null","<p style=""font-size: 60px; font-family: BACS"">ECtbDOMC</p>","","","","","","","",""
"html-keyboard-response","68","108017","0.0-7.0-0.61","605c9355001a5eb6d51e657d","64b003020eef62ee308107cc","64b03511972d6ef22a0e0f74","null","null","<p style=""font-size: 60px; font-family: BACS"">tmtEMBRDh</p>","","","","","","","",""
"html-keyboard-response","69","109022","0.0-7.0-0.62","605c9355001a5eb6d51e657d","64b003020eef62ee308107cc","64b03511972d6ef22a0e0f74","null","null","<p style=""font-size: 60px; font-family: BACS"">dKDthcDR</p>","","","","","","","",""
"html-keyboard-response","70","110025","0.0-7.0-0.63","605c9355001a5eb6d51e657d","64b003020eef62ee308107cc","64b03511972d6ef22a0e0f74","null","null","<p style=""font-size: 60px; font-family: BACS"">GLYrAGlu</p>","","","","","","","",""
"html-keyboard-response","71","111038","0.0-7.0-0.64","605c9355001a5eb6d51e657d","64b003020eef62ee308107cc","64b03511972d6ef22a0e0f74","null","null","<p style=""font-size: 60px; font-family: BACS"">hTtBbtRb</p>","","","","","","","",""
"html-keyboard-response","72","112041","0.0-7.0-0.65","605c9355001a5eb6d51e657d","64b003020eef62ee308107cc","64b03511972d6ef22a0e0f74","null","null","<p style=""font-size: 60px; font-family: BACS"">YuaNdGlu</p>","","","","","","","",""
"html-keyboard-response","73","113056","0.0-7.0-0.66","605c9355001a5eb6d51e657d","64b003020eef62ee308107cc","64b03511972d6ef22a0e0f74","null","null","<p style=""font-size: 60px; font-family: BACS"">btlckBRDh</p>","","","","","","","",""
"html-keyboard-response","74","114071","0.0-7.0-0.67","605c9355001a5eb6d51e657d","64b003020eef62ee308107cc","64b03511972d6ef22a0e0f74","null","null","<p style=""font-size: 60px; font-family: BACS"">YQbcLcO</p>","","","","","","","",""
"html-keyboard-response","75","115083","0.0-7.0-0.68","605c9355001a5eb6d51e657d","64b003020eef62ee308107cc","64b03511972d6ef22a0e0f74","null","null","<p style=""font-size: 60px; font-family: BACS"">tmtEMRYlD</p>","","","","","","","",""
"html-keyboard-response","76","116089","0.0-7.0-0.69","605c9355001a5eb6d51e657d","64b003020eef62ee308107cc","64b03511972d6ef22a0e0f74","null","null","<p style=""font-size: 60px; font-family: BACS"">UdYUQLcO</p>","","","","","","","",""
"html-keyboard-response","77","117090","0.0-7.0-0.70","605c9355001a5eb6d51e657d","64b003020eef62ee308107cc","64b03511972d6ef22a0e0f74","null","null","<p style=""font-size: 60px; font-family: BACS"">YuaNdGQYQ</p>","","","","","","","",""
"html-keyboard-response","78","118090","0.0-7.0-0.71","605c9355001a5eb6d51e657d","64b003020eef62ee308107cc","64b03511972d6ef22a0e0f74","null","null","<p style=""font-size: 60px; font-family: BACS"">ODBDAOMC</p>","","","","","","","",""
"html-keyboard-response","79","119091","0.0-7.0-0.72","605c9355001a5eb6d51e657d","64b003020eef62ee308107cc","64b03511972d6ef22a0e0f74","null","null","<p style=""font-size: 60px; font-family: BACS"">GLluALcO</p>","","","","","","","",""
"html-keyboard-response","80","120105","0.0-7.0-0.73","605c9355001a5eb6d51e657d","64b003020eef62ee308107cc","64b03511972d6ef22a0e0f74","null","null","<p style=""font-size: 60px; font-family: BACS"">UdYUQaQr</p>","","","","","","","",""
"html-keyboard-response","81","121106","0.0-7.0-0.74","605c9355001a5eb6d51e657d","64b003020eef62ee308107cc","64b03511972d6ef22a0e0f74","null","null","<p style=""font-size: 60px; font-family: BACS"">ckduAkam</p>","","","","","","","",""
"html-keyboard-response","82","122123","0.0-7.0-0.75","605c9355001a5eb6d51e657d","64b003020eef62ee308107cc","64b03511972d6ef22a0e0f74","null","null","<p style=""font-size: 60px; font-family: BACS"">vAuNlGlu</p>","","","","","","","",""
"html-keyboard-response","83","123124","0.0-7.0-0.76","605c9355001a5eb6d51e657d","64b003020eef62ee308107cc","64b03511972d6ef22a0e0f74","null","null","<p style=""font-size: 60px; font-family: BACS"">tmtEMOMC</p>","","","","","","","",""
"html-keyboard-response","84","124136","0.0-7.0-0.77","605c9355001a5eb6d51e657d","64b003020eef62ee308107cc","64b03511972d6ef22a0e0f74","null","null","<p style=""font-size: 60px; font-family: BACS"">lBlEtRb</p>","","","","","","","",""
"html-keyboard-response","85","125136","0.0-7.0-0.78","605c9355001a5eb6d51e657d","64b003020eef62ee308107cc","64b03511972d6ef22a0e0f74","null","null","<p style=""font-size: 60px; font-family: BACS"">lAOKMOMC</p>","","","","","","","",""
"html-keyboard-response","86","126138","0.0-7.0-0.79","605c9355001a5eb6d51e657d","64b003020eef62ee308107cc","64b03511972d6ef22a0e0f74","null","null","<p style=""font-size: 60px; font-family: BACS"">lhCTCBRDh</p>","","","","","","","",""
"html-keyboard-response","87","150797","0.0-8.0","605c9355001a5eb6d51e657d","64b003020eef62ee308107cc","64b03511972d6ef22a0e0f74","24658"," ","<p>Ottimo, hai visto il primo blocco di parole. Ora puoi prenderti una piccola pausa.</p>
      <p>Premi la barra quando sei pronta/o per riprendere.</p>","","","","","","","",""
"html-keyboard-response","88","151799","0.0-9.0-0.0","605c9355001a5eb6d51e657d","64b003020eef62ee308107cc","64b03511972d6ef22a0e0f74","null","null","<p style=""font-size: 60px; font-family: BACS"">tmtEMBRDh</p>","","","","","","","",""
"html-keyboard-response","89","152806","0.0-9.0-0.1","605c9355001a5eb6d51e657d","64b003020eef62ee308107cc","64b03511972d6ef22a0e0f74","null","null","<p style=""font-size: 60px; font-family: BACS"">hTtBbcDR</p>","","","","","","","",""
"html-keyboard-response","90","153807","0.0-9.0-0.2","605c9355001a5eb6d51e657d","64b003020eef62ee308107cc","64b03511972d6ef22a0e0f74","null","null","<p style=""font-size: 60px; font-family: BACS"">YQbcGQYQ</p>","","","","","","","",""
"html-keyboard-response","91","154808","0.0-9.0-0.3","605c9355001a5eb6d51e657d","64b003020eef62ee308107cc","64b03511972d6ef22a0e0f74","null","null","<p style=""font-size: 60px; font-family: BACS"">LQurLcO</p>","","","","","","","",""
"html-keyboard-response","92","155815","0.0-9.0-0.4","605c9355001a5eb6d51e657d","64b003020eef62ee308107cc","64b03511972d6ef22a0e0f74","null","null","<p style=""font-size: 60px; font-family: BACS"">btlckBRDh</p>","","","","","","","",""
"html-keyboard-response","93","156816","0.0-9.0-0.5","605c9355001a5eb6d51e657d","64b003020eef62ee308107cc","64b03511972d6ef22a0e0f74","null","null","<p style=""font-size: 60px; font-family: BACS"">ZcGdNGQYQ</p>","","","","","","","",""
"html-keyboard-response","94","157825","0.0-9.0-0.6","605c9355001a5eb6d51e657d","64b003020eef62ee308107cc","64b03511972d6ef22a0e0f74","null","null","<p style=""font-size: 60px; font-family: BACS"">vAuNlkam</p>","","","","","","","",""
"html-keyboard-response","95","158839","0.0-9.0-0.7","605c9355001a5eb6d51e657d","64b003020eef62ee308107cc","64b03511972d6ef22a0e0f74","null","null","<p style=""font-size: 60px; font-family: BACS"">ECtbDRYlD</p>","","","","","","","",""
"html-keyboard-response","96","159851","0.0-9.0-0.8","605c9355001a5eb6d51e657d","64b003020eef62ee308107cc","64b03511972d6ef22a0e0f74","null","null","<p style=""font-size: 60px; font-family: BACS"">GLYrALcO</p>","","","","","","","",""
"html-keyboard-response","97","160862","0.0-9.0-0.9","605c9355001a5eb6d51e657d","64b003020eef62ee308107cc","64b03511972d6ef22a0e0f74","null","null","<p style=""font-size: 60px; font-family: BACS"">YuaNdaQr</p>","","","","","","","",""
"html-keyboard-response","98","161868","0.0-9.0-0.10","605c9355001a5eb6d51e657d","64b003020eef62ee308107cc","64b03511972d6ef22a0e0f74","null","null","<p style=""font-size: 60px; font-family: BACS"">kGamNLcO</p>","","","","","","","",""
"html-keyboard-response","99","162881","0.0-9.0-0.11","605c9355001a5eb6d51e657d","64b003020eef62ee308107cc","64b03511972d6ef22a0e0f74","null","null","<p style=""font-size: 60px; font-family: BACS"">btlckOMC</p>","","","","","","","",""
"html-keyboard-response","100","163890","0.0-9.0-0.12","605c9355001a5eb6d51e657d","64b003020eef62ee308107cc","64b03511972d6ef22a0e0f74","null","null","<p style=""font-size: 60px; font-family: BACS"">lhCTCBRDh</p>","","","","","","","",""
"html-keyboard-response","101","164903","0.0-9.0-0.13","605c9355001a5eb6d51e657d","64b003020eef62ee308107cc","64b03511972d6ef22a0e0f74","null","null","<p style=""font-size: 60px; font-family: BACS"">UdYUQLcO</p>","","","","","","","",""
"html-keyboard-response","102","165913","0.0-9.0-0.14","605c9355001a5eb6d51e657d","64b003020eef62ee308107cc","64b03511972d6ef22a0e0f74","null","null","<p style=""font-size: 60px; font-family: BACS"">ECtbDOMC</p>","","","","","","","",""
"html-keyboard-response","103","166920","0.0-9.0-0.15","605c9355001a5eb6d51e657d","64b003020eef62ee308107cc","64b03511972d6ef22a0e0f74","null","null","<p style=""font-size: 60px; font-family: BACS"">ODBDARYlD</p>","","","","","","","",""
"html-keyboard-response","104","167933","0.0-9.0-0.16","605c9355001a5eb6d51e657d","64b003020eef62ee308107cc","64b03511972d6ef22a0e0f74","null","null","<p style=""font-size: 60px; font-family: BACS"">dKDthcDR</p>","","","","","","","",""
"html-keyboard-response","105","168945","0.0-9.0-0.17","605c9355001a5eb6d51e657d","64b003020eef62ee308107cc","64b03511972d6ef22a0e0f74","null","null","<p style=""font-size: 60px; font-family: BACS"">hTtBbOMC</p>","","","","","","","",""
"html-keyboard-response","106","169957","0.0-9.0-0.18","605c9355001a5eb6d51e657d","64b003020eef62ee308107cc","64b03511972d6ef22a0e0f74","null","null","<p style=""font-size: 60px; font-family: BACS"">YQbcLcO</p>","","","","","","","",""
"html-keyboard-response","107","170969","0.0-9.0-0.19","605c9355001a5eb6d51e657d","64b003020eef62ee308107cc","64b03511972d6ef22a0e0f74","null","null","<p style=""font-size: 60px; font-family: BACS"">LQurkam</p>","","","","","","","",""
"html-keyboard-response","108","171979","0.0-9.0-0.20","605c9355001a5eb6d51e657d","64b003020eef62ee308107cc","64b03511972d6ef22a0e0f74","null","null","<p style=""font-size: 60px; font-family: BACS"">YQbcaQr</p>","","","","","","","",""
"html-keyboard-response","109","172993","0.0-9.0-0.21","605c9355001a5eb6d51e657d","64b003020eef62ee308107cc","64b03511972d6ef22a0e0f74","null","null","<p style=""font-size: 60px; font-family: BACS"">lhCTCcDR</p>","","","","","","","",""
"html-keyboard-response","110","174009","0.0-9.0-0.22","605c9355001a5eb6d51e657d","64b003020eef62ee308107cc","64b03511972d6ef22a0e0f74","null","null","<p style=""font-size: 60px; font-family: BACS"">dKDthBRDh</p>","","","","","","","",""
"html-keyboard-response","111","175019","0.0-9.0-0.23","605c9355001a5eb6d51e657d","64b003020eef62ee308107cc","64b03511972d6ef22a0e0f74","null","null","<p style=""font-size: 60px; font-family: BACS"">ckduAkam</p>","","","","","","","",""
"html-keyboard-response","112","176030","0.0-9.0-0.24","605c9355001a5eb6d51e657d","64b003020eef62ee308107cc","64b03511972d6ef22a0e0f74","null","null","<p style=""font-size: 60px; font-family: BACS"">lBlERYlD</p>","","","","","","","",""
"html-keyboard-response","113","177046","0.0-9.0-0.25","605c9355001a5eb6d51e657d","64b003020eef62ee308107cc","64b03511972d6ef22a0e0f74","null","null","<p style=""font-size: 60px; font-family: BACS"">hTtBbtRb</p>","","","","","","","",""
"html-keyboard-response","114","178061","0.0-9.0-0.26","605c9355001a5eb6d51e657d","64b003020eef62ee308107cc","64b03511972d6ef22a0e0f74","null","null","<p style=""font-size: 60px; font-family: BACS"">YuaNdkam</p>","","","","","","","",""
"html-keyboard-response","115","179076","0.0-9.0-0.27","605c9355001a5eb6d51e657d","64b003020eef62ee308107cc","64b03511972d6ef22a0e0f74","null","null","<p style=""font-size: 60px; font-family: BACS"">vAuNlGQYQ</p>","","","","","","","",""
"html-keyboard-response","116","180077","0.0-9.0-0.28","605c9355001a5eb6d51e657d","64b003020eef62ee308107cc","64b03511972d6ef22a0e0f74","null","null","<p style=""font-size: 60px; font-family: BACS"">kGamNkam</p>","","","","","","","",""
"html-keyboard-response","117","181092","0.0-9.0-0.29","605c9355001a5eb6d51e657d","64b003020eef62ee308107cc","64b03511972d6ef22a0e0f74","null","null","<p style=""font-size: 60px; font-family: BACS"">ODBDAcDR</p>","","","","","","","",""
"html-keyboard-response","118","182104","0.0-9.0-0.30","605c9355001a5eb6d51e657d","64b003020eef62ee308107cc","64b03511972d6ef22a0e0f74","null","null","<p style=""font-size: 60px; font-family: BACS"">UdYUQGQYQ</p>","","","","","","","",""
"html-keyboard-response","119","183120","0.0-9.0-0.31","605c9355001a5eb6d51e657d","64b003020eef62ee308107cc","64b03511972d6ef22a0e0f74","null","null","<p style=""font-size: 60px; font-family: BACS"">lBlEtRb</p>","","","","","","","",""
"html-keyboard-response","120","184126","0.0-9.0-0.32","605c9355001a5eb6d51e657d","64b003020eef62ee308107cc","64b03511972d6ef22a0e0f74","null","null","<p style=""font-size: 60px; font-family: BACS"">ckduAGQYQ</p>","","","","","","","",""
"html-keyboard-response","121","185137","0.0-9.0-0.33","605c9355001a5eb6d51e657d","64b003020eef62ee308107cc","64b03511972d6ef22a0e0f74","null","null","<p style=""font-size: 60px; font-family: BACS"">lhCTCRYlD</p>","","","","","","","",""
"html-keyboard-response","122","186149","0.0-9.0-0.34","605c9355001a5eb6d51e657d","64b003020eef62ee308107cc","64b03511972d6ef22a0e0f74","null","null","<p style=""font-size: 60px; font-family: BACS"">GLYrAaQr</p>","","","","","","","",""
"html-keyboard-response","123","187161","0.0-9.0-0.35","605c9355001a5eb6d51e657d","64b003020eef62ee308107cc","64b03511972d6ef22a0e0f74","null","null","<p style=""font-size: 60px; font-family: BACS"">btlcktRb</p>","","","","","","","",""
"html-keyboard-response","124","188172","0.0-9.0-0.36","605c9355001a5eb6d51e657d","64b003020eef62ee308107cc","64b03511972d6ef22a0e0f74","null","null","<p style=""font-size: 60px; font-family: BACS"">hTtBbBRDh</p>","","","","","","","",""
"html-keyboard-response","125","189185","0.0-9.0-0.37","605c9355001a5eb6d51e657d","64b003020eef62ee308107cc","64b03511972d6ef22a0e0f74","null","null","<p style=""font-size: 60px; font-family: BACS"">ECtbDtRb</p>","","","","","","","",""
"html-keyboard-response","126","190186","0.0-9.0-0.38","605c9355001a5eb6d51e657d","64b003020eef62ee308107cc","64b03511972d6ef22a0e0f74","null","null","<p style=""font-size: 60px; font-family: BACS"">YQbcGlu</p>","","","","","","","",""
"html-keyboard-response","127","191200","0.0-9.0-0.39","605c9355001a5eb6d51e657d","64b003020eef62ee308107cc","64b03511972d6ef22a0e0f74","null","null","<p style=""font-size: 60px; font-family: BACS"">tmtEMRYlD</p>","","","","","","","",""
"html-keyboard-response","128","192210","0.0-9.0-0.40","605c9355001a5eb6d51e657d","64b003020eef62ee308107cc","64b03511972d6ef22a0e0f74","null","null","<p style=""font-size: 60px; font-family: BACS"">ZcGdNaQr</p>","","","","","","","",""
"html-keyboard-response","129","193226","0.0-9.0-0.41","605c9355001a5eb6d51e657d","64b003020eef62ee308107cc","64b03511972d6ef22a0e0f74","null","null","<p style=""font-size: 60px; font-family: BACS"">GLYrAGlu</p>","","","","","","","",""
"html-keyboard-response","130","194238","0.0-9.0-0.42","605c9355001a5eb6d51e657d","64b003020eef62ee308107cc","64b03511972d6ef22a0e0f74","null","null","<p style=""font-size: 60px; font-family: BACS"">ZcGdNkam</p>","","","","","","","",""
"html-keyboard-response","131","195251","0.0-9.0-0.43","605c9355001a5eb6d51e657d","64b003020eef62ee308107cc","64b03511972d6ef22a0e0f74","null","null","<p style=""font-size: 60px; font-family: BACS"">dKDthRYlD</p>","","","","","","","",""
"html-keyboard-response","132","196266","0.0-9.0-0.44","605c9355001a5eb6d51e657d","64b003020eef62ee308107cc","64b03511972d6ef22a0e0f74","null","null","<p style=""font-size: 60px; font-family: BACS"">AdDbOMC</p>","","","","","","","",""
"html-keyboard-response","133","197283","0.0-9.0-0.45","605c9355001a5eb6d51e657d","64b003020eef62ee308107cc","64b03511972d6ef22a0e0f74","null","null","<p style=""font-size: 60px; font-family: BACS"">lAOKMBRDh</p>","","","","","","","",""
"html-keyboard-response","134","198296","0.0-9.0-0.46","605c9355001a5eb6d51e657d","64b003020eef62ee308107cc","64b03511972d6ef22a0e0f74","null","null","<p style=""font-size: 60px; font-family: BACS"">ODBDAOMC</p>","","","","","","","",""
"html-keyboard-response","135","199309","0.0-9.0-0.47","605c9355001a5eb6d51e657d","64b003020eef62ee308107cc","64b03511972d6ef22a0e0f74","null","null","<p style=""font-size: 60px; font-family: BACS"">ZcGdNLcO</p>","","","","","","","",""
"html-keyboard-response","136","200324","0.0-9.0-0.48","605c9355001a5eb6d51e657d","64b003020eef62ee308107cc","64b03511972d6ef22a0e0f74","null","null","<p style=""font-size: 60px; font-family: BACS"">tmtEMtRb</p>","","","","","","","",""
"html-keyboard-response","137","201325","0.0-9.0-0.49","605c9355001a5eb6d51e657d","64b003020eef62ee308107cc","64b03511972d6ef22a0e0f74","null","null","<p style=""font-size: 60px; font-family: BACS"">vAuNlGlu</p>","","","","","","","",""
"html-keyboard-response","138","202341","0.0-9.0-0.50","605c9355001a5eb6d51e657d","64b003020eef62ee308107cc","64b03511972d6ef22a0e0f74","null","null","<p style=""font-size: 60px; font-family: BACS"">GLluAGQYQ</p>","","","","","","","",""
"html-keyboard-response","139","203355","0.0-9.0-0.51","605c9355001a5eb6d51e657d","64b003020eef62ee308107cc","64b03511972d6ef22a0e0f74","null","null","<p style=""font-size: 60px; font-family: BACS"">lBlEcDR</p>","","","","","","","",""
"html-keyboard-response","140","204359","0.0-9.0-0.52","605c9355001a5eb6d51e657d","64b003020eef62ee308107cc","64b03511972d6ef22a0e0f74","null","null","<p style=""font-size: 60px; font-family: BACS"">GLluAaQr</p>","","","","","","","",""
"html-keyboard-response","141","205361","0.0-9.0-0.53","605c9355001a5eb6d51e657d","64b003020eef62ee308107cc","64b03511972d6ef22a0e0f74","null","null","<p style=""font-size: 60px; font-family: BACS"">YuaNdGQYQ</p>","","","","","","","",""
"html-keyboard-response","142","206376","0.0-9.0-0.54","605c9355001a5eb6d51e657d","64b003020eef62ee308107cc","64b03511972d6ef22a0e0f74","null","null","<p style=""font-size: 60px; font-family: BACS"">ECtbDcDR</p>","","","","","","","",""
"html-keyboard-response","143","207388","0.0-9.0-0.55","605c9355001a5eb6d51e657d","64b003020eef62ee308107cc","64b03511972d6ef22a0e0f74","null","null","<p style=""font-size: 60px; font-family: BACS"">kGamNaQr</p>","","","","","","","",""
"html-keyboard-response","144","208397","0.0-9.0-0.56","605c9355001a5eb6d51e657d","64b003020eef62ee308107cc","64b03511972d6ef22a0e0f74","null","null","<p style=""font-size: 60px; font-family: BACS"">AdDbtRb</p>","","","","","","","",""
"html-keyboard-response","145","209410","0.0-9.0-0.57","605c9355001a5eb6d51e657d","64b003020eef62ee308107cc","64b03511972d6ef22a0e0f74","null","null","<p style=""font-size: 60px; font-family: BACS"">YuaNdGlu</p>","","","","","","","",""
"html-keyboard-response","146","210419","0.0-9.0-0.58","605c9355001a5eb6d51e657d","64b003020eef62ee308107cc","64b03511972d6ef22a0e0f74","null","null","<p style=""font-size: 60px; font-family: BACS"">GLluALcO</p>","","","","","","","",""
"html-keyboard-response","147","211432","0.0-9.0-0.59","605c9355001a5eb6d51e657d","64b003020eef62ee308107cc","64b03511972d6ef22a0e0f74","null","null","<p style=""font-size: 60px; font-family: BACS"">ODBDABRDh</p>","","","","","","","",""
"html-keyboard-response","148","212445","0.0-9.0-0.60","605c9355001a5eb6d51e657d","64b003020eef62ee308107cc","64b03511972d6ef22a0e0f74","null","null","<p style=""font-size: 60px; font-family: BACS"">GLYrAkam</p>","","","","","","","",""
"html-keyboard-response","149","213458","0.0-9.0-0.61","605c9355001a5eb6d51e657d","64b003020eef62ee308107cc","64b03511972d6ef22a0e0f74","null","null","<p style=""font-size: 60px; font-family: BACS"">vAuNlaQr</p>","","","","","","","",""
"html-keyboard-response","150","214472","0.0-9.0-0.62","605c9355001a5eb6d51e657d","64b003020eef62ee308107cc","64b03511972d6ef22a0e0f74","null","null","<p style=""font-size: 60px; font-family: BACS"">LQurGlu</p>","","","","","","","",""
"html-keyboard-response","151","215473","0.0-9.0-0.63","605c9355001a5eb6d51e657d","64b003020eef62ee308107cc","64b03511972d6ef22a0e0f74","null","null","<p style=""font-size: 60px; font-family: BACS"">lhCTCtRb</p>","","","","","","","",""
"html-keyboard-response","152","216483","0.0-9.0-0.64","605c9355001a5eb6d51e657d","64b003020eef62ee308107cc","64b03511972d6ef22a0e0f74","null","null","<p style=""font-size: 60px; font-family: BACS"">UdYUQaQr</p>","","","","","","","",""
"html-keyboard-response","153","217497","0.0-9.0-0.65","605c9355001a5eb6d51e657d","64b003020eef62ee308107cc","64b03511972d6ef22a0e0f74","null","null","<p style=""font-size: 60px; font-family: BACS"">lAOKMOMC</p>","","","","","","","",""
"html-keyboard-response","154","218509","0.0-9.0-0.66","605c9355001a5eb6d51e657d","64b003020eef62ee308107cc","64b03511972d6ef22a0e0f74","null","null","<p style=""font-size: 60px; font-family: BACS"">GLluAkam</p>","","","","","","","",""
"html-keyboard-response","155","219517","0.0-9.0-0.67","605c9355001a5eb6d51e657d","64b003020eef62ee308107cc","64b03511972d6ef22a0e0f74","null","null","<p style=""font-size: 60px; font-family: BACS"">AdDbBRDh</p>","","","","","","","",""
"html-keyboard-response","156","220523","0.0-9.0-0.68","605c9355001a5eb6d51e657d","64b003020eef62ee308107cc","64b03511972d6ef22a0e0f74","null","null","<p style=""font-size: 60px; font-family: BACS"">UdYUQGlu</p>","","","","","","","",""
"html-keyboard-response","157","221532","0.0-9.0-0.69","605c9355001a5eb6d51e657d","64b003020eef62ee308107cc","64b03511972d6ef22a0e0f74","null","null","<p style=""font-size: 60px; font-family: BACS"">dKDthtRb</p>","","","","","","","",""
"html-keyboard-response","158","222533","0.0-9.0-0.70","605c9355001a5eb6d51e657d","64b003020eef62ee308107cc","64b03511972d6ef22a0e0f74","null","null","<p style=""font-size: 60px; font-family: BACS"">lAOKMcDR</p>","","","","","","","",""
"html-keyboard-response","159","223546","0.0-9.0-0.71","605c9355001a5eb6d51e657d","64b003020eef62ee308107cc","64b03511972d6ef22a0e0f74","null","null","<p style=""font-size: 60px; font-family: BACS"">tmtEMOMC</p>","","","","","","","",""
"html-keyboard-response","160","224558","0.0-9.0-0.72","605c9355001a5eb6d51e657d","64b003020eef62ee308107cc","64b03511972d6ef22a0e0f74","null","null","<p style=""font-size: 60px; font-family: BACS"">ckduALcO</p>","","","","","","","",""
"html-keyboard-response","161","225560","0.0-9.0-0.73","605c9355001a5eb6d51e657d","64b003020eef62ee308107cc","64b03511972d6ef22a0e0f74","null","null","<p style=""font-size: 60px; font-family: BACS"">lAOKMRYlD</p>","","","","","","","",""
"html-keyboard-response","162","226569","0.0-9.0-0.74","605c9355001a5eb6d51e657d","64b003020eef62ee308107cc","64b03511972d6ef22a0e0f74","null","null","<p style=""font-size: 60px; font-family: BACS"">ckduAGlu</p>","","","","","","","",""
"html-keyboard-response","163","227582","0.0-9.0-0.75","605c9355001a5eb6d51e657d","64b003020eef62ee308107cc","64b03511972d6ef22a0e0f74","null","null","<p style=""font-size: 60px; font-family: BACS"">LQurGQYQ</p>","","","","","","","",""
"html-keyboard-response","164","228586","0.0-9.0-0.76","605c9355001a5eb6d51e657d","64b003020eef62ee308107cc","64b03511972d6ef22a0e0f74","null","null","<p style=""font-size: 60px; font-family: BACS"">lBlEOMC</p>","","","","","","","",""
"html-keyboard-response","165","229599","0.0-9.0-0.77","605c9355001a5eb6d51e657d","64b003020eef62ee308107cc","64b03511972d6ef22a0e0f74","null","null","<p style=""font-size: 60px; font-family: BACS"">btlckRYlD</p>","","","","","","","",""
"html-keyboard-response","166","230613","0.0-9.0-0.78","605c9355001a5eb6d51e657d","64b003020eef62ee308107cc","64b03511972d6ef22a0e0f74","null","null","<p style=""font-size: 60px; font-family: BACS"">AdDbcDR</p>","","","","","","","",""
"html-keyboard-response","167","231626","0.0-9.0-0.79","605c9355001a5eb6d51e657d","64b003020eef62ee308107cc","64b03511972d6ef22a0e0f74","null","null","<p style=""font-size: 60px; font-family: BACS"">kGamNGlu</p>","","","","","","","",""
"html-keyboard-response","168","253852","0.0-10.0","605c9355001a5eb6d51e657d","64b003020eef62ee308107cc","64b03511972d6ef22a0e0f74","22226"," ","<p>Ottimo, hai visto il secondo blocco di parole. Ora puoi prenderti una piccola pausa.</p>
      <p>Premi la barra quando sei pronta/o per riprendere.</p>","","","","","","","",""
"html-keyboard-response","169","254860","0.0-11.0-0.0","605c9355001a5eb6d51e657d","64b003020eef62ee308107cc","64b03511972d6ef22a0e0f74","null","null","<p style=""font-size: 60px; font-family: BACS"">LQurkam</p>","","","","","","","",""
"html-keyboard-response","170","255870","0.0-11.0-0.1","605c9355001a5eb6d51e657d","64b003020eef62ee308107cc","64b03511972d6ef22a0e0f74","null","null","<p style=""font-size: 60px; font-family: BACS"">ZcGdNGQYQ</p>","","","","","","","",""
"html-keyboard-response","171","256872","0.0-11.0-0.2","605c9355001a5eb6d51e657d","64b003020eef62ee308107cc","64b03511972d6ef22a0e0f74","null","null","<p style=""font-size: 60px; font-family: BACS"">YuaNdkam</p>","","","","","","","",""
"html-keyboard-response","172","257884","0.0-11.0-0.3","605c9355001a5eb6d51e657d","64b003020eef62ee308107cc","64b03511972d6ef22a0e0f74","null","null","<p style=""font-size: 60px; font-family: BACS"">kGamNLcO</p>","","","","","","","",""
"html-keyboard-response","173","258895","0.0-11.0-0.4","605c9355001a5eb6d51e657d","64b003020eef62ee308107cc","64b03511972d6ef22a0e0f74","null","null","<p style=""font-size: 60px; font-family: BACS"">lhCTCBRDh</p>","","","","","","","",""
"html-keyboard-response","174","259896","0.0-11.0-0.5","605c9355001a5eb6d51e657d","64b003020eef62ee308107cc","64b03511972d6ef22a0e0f74","null","null","<p style=""font-size: 60px; font-family: BACS"">vAuNlGQYQ</p>","","","","","","","",""
"html-keyboard-response","175","260903","0.0-11.0-0.6","605c9355001a5eb6d51e657d","64b003020eef62ee308107cc","64b03511972d6ef22a0e0f74","null","null","<p style=""font-size: 60px; font-family: BACS"">YQbcGlu</p>","","","","","","","",""
"html-keyboard-response","176","261904","0.0-11.0-0.7","605c9355001a5eb6d51e657d","64b003020eef62ee308107cc","64b03511972d6ef22a0e0f74","null","null","<p style=""font-size: 60px; font-family: BACS"">hTtBbBRDh</p>","","","","","","","",""
"html-keyboard-response","177","262905","0.0-11.0-0.8","605c9355001a5eb6d51e657d","64b003020eef62ee308107cc","64b03511972d6ef22a0e0f74","null","null","<p style=""font-size: 60px; font-family: BACS"">lAOKMcDR</p>","","","","","","","",""
"html-keyboard-response","178","263908","0.0-11.0-0.9","605c9355001a5eb6d51e657d","64b003020eef62ee308107cc","64b03511972d6ef22a0e0f74","null","null","<p style=""font-size: 60px; font-family: BACS"">ckduAGQYQ</p>","","","","","","","",""
"html-keyboard-response","179","264910","0.0-11.0-0.10","605c9355001a5eb6d51e657d","64b003020eef62ee308107cc","64b03511972d6ef22a0e0f74","null","null","<p style=""font-size: 60px; font-family: BACS"">ODBDARYlD</p>","","","","","","","",""
"html-keyboard-response","180","265918","0.0-11.0-0.11","605c9355001a5eb6d51e657d","64b003020eef62ee308107cc","64b03511972d6ef22a0e0f74","null","null","<p style=""font-size: 60px; font-family: BACS"">LQurGlu</p>","","","","","","","",""
"html-keyboard-response","181","266919","0.0-11.0-0.12","605c9355001a5eb6d51e657d","64b003020eef62ee308107cc","64b03511972d6ef22a0e0f74","null","null","<p style=""font-size: 60px; font-family: BACS"">ckduALcO</p>","","","","","","","",""
"html-keyboard-response","182","267920","0.0-11.0-0.13","605c9355001a5eb6d51e657d","64b003020eef62ee308107cc","64b03511972d6ef22a0e0f74","null","null","<p style=""font-size: 60px; font-family: BACS"">vAuNlkam</p>","","","","","","","",""
"html-keyboard-response","183","268921","0.0-11.0-0.14","605c9355001a5eb6d51e657d","64b003020eef62ee308107cc","64b03511972d6ef22a0e0f74","null","null","<p style=""font-size: 60px; font-family: BACS"">dKDthBRDh</p>","","","","","","","",""
"html-keyboard-response","184","269936","0.0-11.0-0.15","605c9355001a5eb6d51e657d","64b003020eef62ee308107cc","64b03511972d6ef22a0e0f74","null","null","<p style=""font-size: 60px; font-family: BACS"">kGamNaQr</p>","","","","","","","",""
"html-keyboard-response","185","270939","0.0-11.0-0.16","605c9355001a5eb6d51e657d","64b003020eef62ee308107cc","64b03511972d6ef22a0e0f74","null","null","<p style=""font-size: 60px; font-family: BACS"">YuaNdGQYQ</p>","","","","","","","",""
"html-keyboard-response","186","271940","0.0-11.0-0.17","605c9355001a5eb6d51e657d","64b003020eef62ee308107cc","64b03511972d6ef22a0e0f74","null","null","<p style=""font-size: 60px; font-family: BACS"">GLYrALcO</p>","","","","","","","",""
"html-keyboard-response","187","272940","0.0-11.0-0.18","605c9355001a5eb6d51e657d","64b003020eef62ee308107cc","64b03511972d6ef22a0e0f74","null","null","<p style=""font-size: 60px; font-family: BACS"">YuaNdGlu</p>","","","","","","","",""
"html-keyboard-response","188","273944","0.0-11.0-0.19","605c9355001a5eb6d51e657d","64b003020eef62ee308107cc","64b03511972d6ef22a0e0f74","null","null","<p style=""font-size: 60px; font-family: BACS"">GLluAGQYQ</p>","","","","","","","",""
"html-keyboard-response","189","274945","0.0-11.0-0.20","605c9355001a5eb6d51e657d","64b003020eef62ee308107cc","64b03511972d6ef22a0e0f74","null","null","<p style=""font-size: 60px; font-family: BACS"">lAOKMBRDh</p>","","","","","","","",""
"html-keyboard-response","190","275947","0.0-11.0-0.21","605c9355001a5eb6d51e657d","64b003020eef62ee308107cc","64b03511972d6ef22a0e0f74","null","null","<p style=""font-size: 60px; font-family: BACS"">ECtbDcDR</p>","","","","","","","",""
"html-keyboard-response","191","276950","0.0-11.0-0.22","605c9355001a5eb6d51e657d","64b003020eef62ee308107cc","64b03511972d6ef22a0e0f74","null","null","<p style=""font-size: 60px; font-family: BACS"">YQbcLcO</p>","","","","","","","",""
"html-keyboard-response","192","277951","0.0-11.0-0.23","605c9355001a5eb6d51e657d","64b003020eef62ee308107cc","64b03511972d6ef22a0e0f74","null","null","<p style=""font-size: 60px; font-family: BACS"">lBlERYlD</p>","","","","","","","",""
"html-keyboard-response","193","278958","0.0-11.0-0.24","605c9355001a5eb6d51e657d","64b003020eef62ee308107cc","64b03511972d6ef22a0e0f74","null","null","<p style=""font-size: 60px; font-family: BACS"">UdYUQGlu</p>","","","","","","","",""
"html-keyboard-response","194","279970","0.0-11.0-0.25","605c9355001a5eb6d51e657d","64b003020eef62ee308107cc","64b03511972d6ef22a0e0f74","null","null","<p style=""font-size: 60px; font-family: BACS"">ECtbDRYlD</p>","","","","","","","",""
"html-keyboard-response","195","280972","0.0-11.0-0.26","605c9355001a5eb6d51e657d","64b003020eef62ee308107cc","64b03511972d6ef22a0e0f74","null","null","<p style=""font-size: 60px; font-family: BACS"">dKDthtRb</p>","","","","","","","",""
"html-keyboard-response","196","281972","0.0-11.0-0.27","605c9355001a5eb6d51e657d","64b003020eef62ee308107cc","64b03511972d6ef22a0e0f74","null","null","<p style=""font-size: 60px; font-family: BACS"">ZcGdNaQr</p>","","","","","","","",""
"html-keyboard-response","197","282975","0.0-11.0-0.28","605c9355001a5eb6d51e657d","64b003020eef62ee308107cc","64b03511972d6ef22a0e0f74","null","null","<p style=""font-size: 60px; font-family: BACS"">ECtbDtRb</p>","","","","","","","",""
"html-keyboard-response","198","283975","0.0-11.0-0.29","605c9355001a5eb6d51e657d","64b003020eef62ee308107cc","64b03511972d6ef22a0e0f74","null","null","<p style=""font-size: 60px; font-family: BACS"">lBlEOMC</p>","","","","","","","",""
"html-keyboard-response","199","284987","0.0-11.0-0.30","605c9355001a5eb6d51e657d","64b003020eef62ee308107cc","64b03511972d6ef22a0e0f74","null","null","<p style=""font-size: 60px; font-family: BACS"">tmtEMBRDh</p>","","","","","","","",""
"html-keyboard-response","200","285998","0.0-11.0-0.31","605c9355001a5eb6d51e657d","64b003020eef62ee308107cc","64b03511972d6ef22a0e0f74","null","null","<p style=""font-size: 60px; font-family: BACS"">btlckRYlD</p>","","","","","","","",""
"html-keyboard-response","201","287010","0.0-11.0-0.32","605c9355001a5eb6d51e657d","64b003020eef62ee308107cc","64b03511972d6ef22a0e0f74","null","null","<p style=""font-size: 60px; font-family: BACS"">ZcGdNkam</p>","","","","","","","",""
"html-keyboard-response","202","288010","0.0-11.0-0.33","605c9355001a5eb6d51e657d","64b003020eef62ee308107cc","64b03511972d6ef22a0e0f74","null","null","<p style=""font-size: 60px; font-family: BACS"">GLluALcO</p>","","","","","","","",""
"html-keyboard-response","203","289012","0.0-11.0-0.34","605c9355001a5eb6d51e657d","64b003020eef62ee308107cc","64b03511972d6ef22a0e0f74","null","null","<p style=""font-size: 60px; font-family: BACS"">ODBDAcDR</p>","","","","","","","",""
"html-keyboard-response","204","290017","0.0-11.0-0.35","605c9355001a5eb6d51e657d","64b003020eef62ee308107cc","64b03511972d6ef22a0e0f74","null","null","<p style=""font-size: 60px; font-family: BACS"">btlckBRDh</p>","","","","","","","",""
"html-keyboard-response","205","291028","0.0-11.0-0.36","605c9355001a5eb6d51e657d","64b003020eef62ee308107cc","64b03511972d6ef22a0e0f74","null","null","<p style=""font-size: 60px; font-family: BACS"">kGamNGlu</p>","","","","","","","",""
"html-keyboard-response","206","292028","0.0-11.0-0.37","605c9355001a5eb6d51e657d","64b003020eef62ee308107cc","64b03511972d6ef22a0e0f74","null","null","<p style=""font-size: 60px; font-family: BACS"">lBlEtRb</p>","","","","","","","",""
"html-keyboard-response","207","293039","0.0-11.0-0.38","605c9355001a5eb6d51e657d","64b003020eef62ee308107cc","64b03511972d6ef22a0e0f74","null","null","<p style=""font-size: 60px; font-family: BACS"">GLYrAGlu</p>","","","","","","","",""
"html-keyboard-response","208","294040","0.0-11.0-0.39","605c9355001a5eb6d51e657d","64b003020eef62ee308107cc","64b03511972d6ef22a0e0f74","null","null","<p style=""font-size: 60px; font-family: BACS"">dKDthcDR</p>","","","","","","","",""
"html-keyboard-response","209","295041","0.0-11.0-0.40","605c9355001a5eb6d51e657d","64b003020eef62ee308107cc","64b03511972d6ef22a0e0f74","null","null","<p style=""font-size: 60px; font-family: BACS"">hTtBbOMC</p>","","","","","","","",""
"html-keyboard-response","210","296054","0.0-11.0-0.41","605c9355001a5eb6d51e657d","64b003020eef62ee308107cc","64b03511972d6ef22a0e0f74","null","null","<p style=""font-size: 60px; font-family: BACS"">tmtEMRYlD</p>","","","","","","","",""
"html-keyboard-response","211","297065","0.0-11.0-0.42","605c9355001a5eb6d51e657d","64b003020eef62ee308107cc","64b03511972d6ef22a0e0f74","null","null","<p style=""font-size: 60px; font-family: BACS"">LQurGQYQ</p>","","","","","","","",""
"html-keyboard-response","212","298066","0.0-11.0-0.43","605c9355001a5eb6d51e657d","64b003020eef62ee308107cc","64b03511972d6ef22a0e0f74","null","null","<p style=""font-size: 60px; font-family: BACS"">dKDthRYlD</p>","","","","","","","",""
"html-keyboard-response","213","299076","0.0-11.0-0.44","605c9355001a5eb6d51e657d","64b003020eef62ee308107cc","64b03511972d6ef22a0e0f74","null","null","<p style=""font-size: 60px; font-family: BACS"">lhCTCcDR</p>","","","","","","","",""
"html-keyboard-response","214","300077","0.0-11.0-0.45","605c9355001a5eb6d51e657d","64b003020eef62ee308107cc","64b03511972d6ef22a0e0f74","null","null","<p style=""font-size: 60px; font-family: BACS"">vAuNlGlu</p>","","","","","","","",""
"html-keyboard-response","215","301081","0.0-11.0-0.46","605c9355001a5eb6d51e657d","64b003020eef62ee308107cc","64b03511972d6ef22a0e0f74","null","null","<p style=""font-size: 60px; font-family: BACS"">ECtbDOMC</p>","","","","","","","",""
"html-keyboard-response","216","302095","0.0-11.0-0.47","605c9355001a5eb6d51e657d","64b003020eef62ee308107cc","64b03511972d6ef22a0e0f74","null","null","<p style=""font-size: 60px; font-family: BACS"">GLYrAaQr</p>","","","","","","","",""
"html-keyboard-response","217","303096","0.0-11.0-0.48","605c9355001a5eb6d51e657d","64b003020eef62ee308107cc","64b03511972d6ef22a0e0f74","null","null","<p style=""font-size: 60px; font-family: BACS"">hTtBbcDR</p>","","","","","","","",""
"html-keyboard-response","218","304096","0.0-11.0-0.49","605c9355001a5eb6d51e657d","64b003020eef62ee308107cc","64b03511972d6ef22a0e0f74","null","null","<p style=""font-size: 60px; font-family: BACS"">AdDbOMC</p>","","","","","","","",""
"html-keyboard-response","219","305103","0.0-11.0-0.50","605c9355001a5eb6d51e657d","64b003020eef62ee308107cc","64b03511972d6ef22a0e0f74","null","null","<p style=""font-size: 60px; font-family: BACS"">GLluAkam</p>","","","","","","","",""
"html-keyboard-response","220","306104","0.0-11.0-0.51","605c9355001a5eb6d51e657d","64b003020eef62ee308107cc","64b03511972d6ef22a0e0f74","null","null","<p style=""font-size: 60px; font-family: BACS"">tmtEMOMC</p>","","","","","","","",""
"html-keyboard-response","221","307113","0.0-11.0-0.52","605c9355001a5eb6d51e657d","64b003020eef62ee308107cc","64b03511972d6ef22a0e0f74","null","null","<p style=""font-size: 60px; font-family: BACS"">YQbcaQr</p>","","","","","","","",""
"html-keyboard-response","222","308128","0.0-11.0-0.53","605c9355001a5eb6d51e657d","64b003020eef62ee308107cc","64b03511972d6ef22a0e0f74","null","null","<p style=""font-size: 60px; font-family: BACS"">hTtBbtRb</p>","","","","","","","",""
"html-keyboard-response","223","309128","0.0-11.0-0.54","605c9355001a5eb6d51e657d","64b003020eef62ee308107cc","64b03511972d6ef22a0e0f74","null","null","<p style=""font-size: 60px; font-family: BACS"">ckduAkam</p>","","","","","","","",""
"html-keyboard-response","224","310129","0.0-11.0-0.55","605c9355001a5eb6d51e657d","64b003020eef62ee308107cc","64b03511972d6ef22a0e0f74","null","null","<p style=""font-size: 60px; font-family: BACS"">UdYUQLcO</p>","","","","","","","",""
"html-keyboard-response","225","311140","0.0-11.0-0.56","605c9355001a5eb6d51e657d","64b003020eef62ee308107cc","64b03511972d6ef22a0e0f74","null","null","<p style=""font-size: 60px; font-family: BACS"">ODBDABRDh</p>","","","","","","","",""
"html-keyboard-response","226","312141","0.0-11.0-0.57","605c9355001a5eb6d51e657d","64b003020eef62ee308107cc","64b03511972d6ef22a0e0f74","null","null","<p style=""font-size: 60px; font-family: BACS"">YQbcGQYQ</p>","","","","","","","",""
"html-keyboard-response","227","313153","0.0-11.0-0.58","605c9355001a5eb6d51e657d","64b003020eef62ee308107cc","64b03511972d6ef22a0e0f74","null","null","<p style=""font-size: 60px; font-family: BACS"">AdDbBRDh</p>","","","","","","","",""
"html-keyboard-response","228","314154","0.0-11.0-0.59","605c9355001a5eb6d51e657d","64b003020eef62ee308107cc","64b03511972d6ef22a0e0f74","null","null","<p style=""font-size: 60px; font-family: BACS"">ZcGdNLcO</p>","","","","","","","",""
"html-keyboard-response","229","315169","0.0-11.0-0.60","605c9355001a5eb6d51e657d","64b003020eef62ee308107cc","64b03511972d6ef22a0e0f74","null","null","<p style=""font-size: 60px; font-family: BACS"">kGamNkam</p>","","","","","","","",""
"html-keyboard-response","230","316171","0.0-11.0-0.61","605c9355001a5eb6d51e657d","64b003020eef62ee308107cc","64b03511972d6ef22a0e0f74","null","null","<p style=""font-size: 60px; font-family: BACS"">UdYUQaQr</p>","","","","","","","",""
"html-keyboard-response","231","317173","0.0-11.0-0.62","605c9355001a5eb6d51e657d","64b003020eef62ee308107cc","64b03511972d6ef22a0e0f74","null","null","<p style=""font-size: 60px; font-family: BACS"">tmtEMtRb</p>","","","","","","","",""
"html-keyboard-response","232","318181","0.0-11.0-0.63","605c9355001a5eb6d51e657d","64b003020eef62ee308107cc","64b03511972d6ef22a0e0f74","null","null","<p style=""font-size: 60px; font-family: BACS"">AdDbcDR</p>","","","","","","","",""
"html-keyboard-response","233","319182","0.0-11.0-0.64","605c9355001a5eb6d51e657d","64b003020eef62ee308107cc","64b03511972d6ef22a0e0f74","null","null","<p style=""font-size: 60px; font-family: BACS"">lhCTCRYlD</p>","","","","","","","",""
"html-keyboard-response","234","320183","0.0-11.0-0.65","605c9355001a5eb6d51e657d","64b003020eef62ee308107cc","64b03511972d6ef22a0e0f74","null","null","<p style=""font-size: 60px; font-family: BACS"">btlckOMC</p>","","","","","","","",""
"html-keyboard-response","235","321184","0.0-11.0-0.66","605c9355001a5eb6d51e657d","64b003020eef62ee308107cc","64b03511972d6ef22a0e0f74","null","null","<p style=""font-size: 60px; font-family: BACS"">lAOKMRYlD</p>","","","","","","","",""
"html-keyboard-response","236","322185","0.0-11.0-0.67","605c9355001a5eb6d51e657d","64b003020eef62ee308107cc","64b03511972d6ef22a0e0f74","null","null","<p style=""font-size: 60px; font-family: BACS"">lhCTCtRb</p>","","","","","","","",""
"html-keyboard-response","237","323186","0.0-11.0-0.68","605c9355001a5eb6d51e657d","64b003020eef62ee308107cc","64b03511972d6ef22a0e0f74","null","null","<p style=""font-size: 60px; font-family: BACS"">ODBDAOMC</p>","","","","","","","",""
"html-keyboard-response","238","324187","0.0-11.0-0.69","605c9355001a5eb6d51e657d","64b003020eef62ee308107cc","64b03511972d6ef22a0e0f74","null","null","<p style=""font-size: 60px; font-family: BACS"">btlcktRb</p>","","","","","","","",""
"html-keyboard-response","239","325188","0.0-11.0-0.70","605c9355001a5eb6d51e657d","64b003020eef62ee308107cc","64b03511972d6ef22a0e0f74","null","null","<p style=""font-size: 60px; font-family: BACS"">LQurLcO</p>","","","","","","","",""
"html-keyboard-response","240","326188","0.0-11.0-0.71","605c9355001a5eb6d51e657d","64b003020eef62ee308107cc","64b03511972d6ef22a0e0f74","null","null","<p style=""font-size: 60px; font-family: BACS"">YuaNdaQr</p>","","","","","","","",""
"html-keyboard-response","241","327189","0.0-11.0-0.72","605c9355001a5eb6d51e657d","64b003020eef62ee308107cc","64b03511972d6ef22a0e0f74","null","null","<p style=""font-size: 60px; font-family: BACS"">lAOKMOMC</p>","","","","","","","",""
"html-keyboard-response","242","328190","0.0-11.0-0.73","605c9355001a5eb6d51e657d","64b003020eef62ee308107cc","64b03511972d6ef22a0e0f74","null","null","<p style=""font-size: 60px; font-family: BACS"">vAuNlaQr</p>","","","","","","","",""
"html-keyboard-response","243","329191","0.0-11.0-0.74","605c9355001a5eb6d51e657d","64b003020eef62ee308107cc","64b03511972d6ef22a0e0f74","null","null","<p style=""font-size: 60px; font-family: BACS"">lBlEcDR</p>","","","","","","","",""
"html-keyboard-response","244","330193","0.0-11.0-0.75","605c9355001a5eb6d51e657d","64b003020eef62ee308107cc","64b03511972d6ef22a0e0f74","null","null","<p style=""font-size: 60px; font-family: BACS"">GLluAaQr</p>","","","","","","","",""
"html-keyboard-response","245","331194","0.0-11.0-0.76","605c9355001a5eb6d51e657d","64b003020eef62ee308107cc","64b03511972d6ef22a0e0f74","null","null","<p style=""font-size: 60px; font-family: BACS"">ckduAGlu</p>","","","","","","","",""
"html-keyboard-response","246","332196","0.0-11.0-0.77","605c9355001a5eb6d51e657d","64b003020eef62ee308107cc","64b03511972d6ef22a0e0f74","null","null","<p style=""font-size: 60px; font-family: BACS"">GLYrAkam</p>","","","","","","","",""
"html-keyboard-response","247","333196","0.0-11.0-0.78","605c9355001a5eb6d51e657d","64b003020eef62ee308107cc","64b03511972d6ef22a0e0f74","null","null","<p style=""font-size: 60px; font-family: BACS"">UdYUQGQYQ</p>","","","","","","","",""
"html-keyboard-response","248","334197","0.0-11.0-0.79","605c9355001a5eb6d51e657d","64b003020eef62ee308107cc","64b03511972d6ef22a0e0f74","null","null","<p style=""font-size: 60px; font-family: BACS"">AdDbtRb</p>","","","","","","","",""
"html-keyboard-response","249","347237","0.0-12.0","605c9355001a5eb6d51e657d","64b003020eef62ee308107cc","64b03511972d6ef22a0e0f74","13040"," ","<p>Ottimo, hai visto il terzo blocco di parole. Ora puoi prenderti una piccola pausa.</p>
      <p>Premi la barra quando sei pronta/o per riprendere.</p>","","","","","","","",""
"html-keyboard-response","250","348239","0.0-13.0-0.0","605c9355001a5eb6d51e657d","64b003020eef62ee308107cc","64b03511972d6ef22a0e0f74","null","null","<p style=""font-size: 60px; font-family: BACS"">ECtbDtRb</p>","","","","","","","",""
"html-keyboard-response","251","349248","0.0-13.0-0.1","605c9355001a5eb6d51e657d","64b003020eef62ee308107cc","64b03511972d6ef22a0e0f74","null","null","<p style=""font-size: 60px; font-family: BACS"">AdDbBRDh</p>","","","","","","","",""
"html-keyboard-response","252","350248","0.0-13.0-0.2","605c9355001a5eb6d51e657d","64b003020eef62ee308107cc","64b03511972d6ef22a0e0f74","null","null","<p style=""font-size: 60px; font-family: BACS"">kGamNaQr</p>","","","","","","","",""
"html-keyboard-response","253","351262","0.0-13.0-0.3","605c9355001a5eb6d51e657d","64b003020eef62ee308107cc","64b03511972d6ef22a0e0f74","null","null","<p style=""font-size: 60px; font-family: BACS"">dKDthBRDh</p>","","","","","","","",""
"html-keyboard-response","254","352262","0.0-13.0-0.4","605c9355001a5eb6d51e657d","64b003020eef62ee308107cc","64b03511972d6ef22a0e0f74","null","null","<p style=""font-size: 60px; font-family: BACS"">kGamNGlu</p>","","","","","","","",""
"html-keyboard-response","255","353274","0.0-13.0-0.5","605c9355001a5eb6d51e657d","64b003020eef62ee308107cc","64b03511972d6ef22a0e0f74","null","null","<p style=""font-size: 60px; font-family: BACS"">lAOKMOMC</p>","","","","","","","",""
"html-keyboard-response","256","354288","0.0-13.0-0.6","605c9355001a5eb6d51e657d","64b003020eef62ee308107cc","64b03511972d6ef22a0e0f74","null","null","<p style=""font-size: 60px; font-family: BACS"">UdYUQLcO</p>","","","","","","","",""
"html-keyboard-response","257","355288","0.0-13.0-0.7","605c9355001a5eb6d51e657d","64b003020eef62ee308107cc","64b03511972d6ef22a0e0f74","null","null","<p style=""font-size: 60px; font-family: BACS"">GLluAGQYQ</p>","","","","","","","",""
"html-keyboard-response","258","356304","0.0-13.0-0.8","605c9355001a5eb6d51e657d","64b003020eef62ee308107cc","64b03511972d6ef22a0e0f74","null","null","<p style=""font-size: 60px; font-family: BACS"">kGamNkam</p>","","","","","","","",""
"html-keyboard-response","259","357304","0.0-13.0-0.9","605c9355001a5eb6d51e657d","64b003020eef62ee308107cc","64b03511972d6ef22a0e0f74","null","null","<p style=""font-size: 60px; font-family: BACS"">LQurLcO</p>","","","","","","","",""
"html-keyboard-response","260","358306","0.0-13.0-0.10","605c9355001a5eb6d51e657d","64b003020eef62ee308107cc","64b03511972d6ef22a0e0f74","null","null","<p style=""font-size: 60px; font-family: BACS"">tmtEMOMC</p>","","","","","","","",""
"html-keyboard-response","261","359306","0.0-13.0-0.11","605c9355001a5eb6d51e657d","64b003020eef62ee308107cc","64b03511972d6ef22a0e0f74","null","null","<p style=""font-size: 60px; font-family: BACS"">btlckBRDh</p>","","","","","","","",""
"html-keyboard-response","262","360307","0.0-13.0-0.12","605c9355001a5eb6d51e657d","64b003020eef62ee308107cc","64b03511972d6ef22a0e0f74","null","null","<p style=""font-size: 60px; font-family: BACS"">GLluAkam</p>","","","","","","","",""
"html-keyboard-response","263","361308","0.0-13.0-0.13","605c9355001a5eb6d51e657d","64b003020eef62ee308107cc","64b03511972d6ef22a0e0f74","null","null","<p style=""font-size: 60px; font-family: BACS"">ODBDABRDh</p>","","","","","","","",""
"html-keyboard-response","264","362309","0.0-13.0-0.14","605c9355001a5eb6d51e657d","64b003020eef62ee308107cc","64b03511972d6ef22a0e0f74","null","null","<p style=""font-size: 60px; font-family: BACS"">ckduAGQYQ</p>","","","","","","","",""
"html-keyboard-response","265","363321","0.0-13.0-0.15","605c9355001a5eb6d51e657d","64b003020eef62ee308107cc","64b03511972d6ef22a0e0f74","null","null","<p style=""font-size: 60px; font-family: BACS"">UdYUQGlu</p>","","","","","","","",""
"html-keyboard-response","266","364321","0.0-13.0-0.16","605c9355001a5eb6d51e657d","64b003020eef62ee308107cc","64b03511972d6ef22a0e0f74","null","null","<p style=""font-size: 60px; font-family: BACS"">tmtEMBRDh</p>","","","","","","","",""
"html-keyboard-response","267","365323","0.0-13.0-0.17","605c9355001a5eb6d51e657d","64b003020eef62ee308107cc","64b03511972d6ef22a0e0f74","null","null","<p style=""font-size: 60px; font-family: BACS"">UdYUQaQr</p>","","","","","","","",""
"html-keyboard-response","268","366323","0.0-13.0-0.18","605c9355001a5eb6d51e657d","64b003020eef62ee308107cc","64b03511972d6ef22a0e0f74","null","null","<p style=""font-size: 60px; font-family: BACS"">AdDbcDR</p>","","","","","","","",""
"html-keyboard-response","269","367324","0.0-13.0-0.19","605c9355001a5eb6d51e657d","64b003020eef62ee308107cc","64b03511972d6ef22a0e0f74","null","null","<p style=""font-size: 60px; font-family: BACS"">lhCTCRYlD</p>","","","","","","","",""
"html-keyboard-response","270","368325","0.0-13.0-0.20","605c9355001a5eb6d51e657d","64b003020eef62ee308107cc","64b03511972d6ef22a0e0f74","null","null","<p style=""font-size: 60px; font-family: BACS"">ZcGdNkam</p>","","","","","","","",""
"html-keyboard-response","271","369339","0.0-13.0-0.21","605c9355001a5eb6d51e657d","64b003020eef62ee308107cc","64b03511972d6ef22a0e0f74","null","null","<p style=""font-size: 60px; font-family: BACS"">btlcktRb</p>","","","","","","","",""
"html-keyboard-response","272","370340","0.0-13.0-0.22","605c9355001a5eb6d51e657d","64b003020eef62ee308107cc","64b03511972d6ef22a0e0f74","null","null","<p style=""font-size: 60px; font-family: BACS"">dKDthRYlD</p>","","","","","","","",""
"html-keyboard-response","273","371348","0.0-13.0-0.23","605c9355001a5eb6d51e657d","64b003020eef62ee308107cc","64b03511972d6ef22a0e0f74","null","null","<p style=""font-size: 60px; font-family: BACS"">ODBDAOMC</p>","","","","","","","",""
"html-keyboard-response","274","372349","0.0-13.0-0.24","605c9355001a5eb6d51e657d","64b003020eef62ee308107cc","64b03511972d6ef22a0e0f74","null","null","<p style=""font-size: 60px; font-family: BACS"">vAuNlkam</p>","","","","","","","",""
"html-keyboard-response","275","373350","0.0-13.0-0.25","605c9355001a5eb6d51e657d","64b003020eef62ee308107cc","64b03511972d6ef22a0e0f74","null","null","<p style=""font-size: 60px; font-family: BACS"">AdDbOMC</p>","","","","","","","",""
"html-keyboard-response","276","374353","0.0-13.0-0.26","605c9355001a5eb6d51e657d","64b003020eef62ee308107cc","64b03511972d6ef22a0e0f74","null","null","<p style=""font-size: 60px; font-family: BACS"">LQurGQYQ</p>","","","","","","","",""
"html-keyboard-response","277","375354","0.0-13.0-0.27","605c9355001a5eb6d51e657d","64b003020eef62ee308107cc","64b03511972d6ef22a0e0f74","null","null","<p style=""font-size: 60px; font-family: BACS"">btlckRYlD</p>","","","","","","","",""
"html-keyboard-response","278","376355","0.0-13.0-0.28","605c9355001a5eb6d51e657d","64b003020eef62ee308107cc","64b03511972d6ef22a0e0f74","null","null","<p style=""font-size: 60px; font-family: BACS"">YQbcaQr</p>","","","","","","","",""
"html-keyboard-response","279","377356","0.0-13.0-0.29","605c9355001a5eb6d51e657d","64b003020eef62ee308107cc","64b03511972d6ef22a0e0f74","null","null","<p style=""font-size: 60px; font-family: BACS"">ckduAkam</p>","","","","","","","",""
"html-keyboard-response","280","378357","0.0-13.0-0.30","605c9355001a5eb6d51e657d","64b003020eef62ee308107cc","64b03511972d6ef22a0e0f74","null","null","<p style=""font-size: 60px; font-family: BACS"">GLYrAaQr</p>","","","","","","","",""
"html-keyboard-response","281","379358","0.0-13.0-0.31","605c9355001a5eb6d51e657d","64b003020eef62ee308107cc","64b03511972d6ef22a0e0f74","null","null","<p style=""font-size: 60px; font-family: BACS"">ODBDARYlD</p>","","","","","","","",""
"html-keyboard-response","282","380359","0.0-13.0-0.32","605c9355001a5eb6d51e657d","64b003020eef62ee308107cc","64b03511972d6ef22a0e0f74","null","null","<p style=""font-size: 60px; font-family: BACS"">ckduALcO</p>","","","","","","","",""
"html-keyboard-response","283","381360","0.0-13.0-0.33","605c9355001a5eb6d51e657d","64b003020eef62ee308107cc","64b03511972d6ef22a0e0f74","null","null","<p style=""font-size: 60px; font-family: BACS"">LQurkam</p>","","","","","","","",""
"html-keyboard-response","284","382362","0.0-13.0-0.34","605c9355001a5eb6d51e657d","64b003020eef62ee308107cc","64b03511972d6ef22a0e0f74","null","null","<p style=""font-size: 60px; font-family: BACS"">ZcGdNLcO</p>","","","","","","","",""
"html-keyboard-response","285","383372","0.0-13.0-0.35","605c9355001a5eb6d51e657d","64b003020eef62ee308107cc","64b03511972d6ef22a0e0f74","null","null","<p style=""font-size: 60px; font-family: BACS"">lBlEtRb</p>","","","","","","","",""
"html-keyboard-response","286","384382","0.0-13.0-0.36","605c9355001a5eb6d51e657d","64b003020eef62ee308107cc","64b03511972d6ef22a0e0f74","null","null","<p style=""font-size: 60px; font-family: BACS"">hTtBbcDR</p>","","","","","","","",""
"html-keyboard-response","287","385393","0.0-13.0-0.37","605c9355001a5eb6d51e657d","64b003020eef62ee308107cc","64b03511972d6ef22a0e0f74","null","null","<p style=""font-size: 60px; font-family: BACS"">btlckOMC</p>","","","","","","","",""
"html-keyboard-response","288","386395","0.0-13.0-0.38","605c9355001a5eb6d51e657d","64b003020eef62ee308107cc","64b03511972d6ef22a0e0f74","null","null","<p style=""font-size: 60px; font-family: BACS"">dKDthcDR</p>","","","","","","","",""
"html-keyboard-response","289","387410","0.0-13.0-0.39","605c9355001a5eb6d51e657d","64b003020eef62ee308107cc","64b03511972d6ef22a0e0f74","null","null","<p style=""font-size: 60px; font-family: BACS"">ECtbDOMC</p>","","","","","","","",""
"html-keyboard-response","290","388411","0.0-13.0-0.40","605c9355001a5eb6d51e657d","64b003020eef62ee308107cc","64b03511972d6ef22a0e0f74","null","null","<p style=""font-size: 60px; font-family: BACS"">YuaNdaQr</p>","","","","","","","",""
"html-keyboard-response","291","389424","0.0-13.0-0.41","605c9355001a5eb6d51e657d","64b003020eef62ee308107cc","64b03511972d6ef22a0e0f74","null","null","<p style=""font-size: 60px; font-family: BACS"">ODBDAcDR</p>","","","","","","","",""
"html-keyboard-response","292","390436","0.0-13.0-0.42","605c9355001a5eb6d51e657d","64b003020eef62ee308107cc","64b03511972d6ef22a0e0f74","null","null","<p style=""font-size: 60px; font-family: BACS"">UdYUQGQYQ</p>","","","","","","","",""
"html-keyboard-response","293","391445","0.0-13.0-0.43","605c9355001a5eb6d51e657d","64b003020eef62ee308107cc","64b03511972d6ef22a0e0f74","null","null","<p style=""font-size: 60px; font-family: BACS"">tmtEMtRb</p>","","","","","","","",""
"html-keyboard-response","294","392455","0.0-13.0-0.44","605c9355001a5eb6d51e657d","64b003020eef62ee308107cc","64b03511972d6ef22a0e0f74","null","null","<p style=""font-size: 60px; font-family: BACS"">lBlERYlD</p>","","","","","","","",""
"html-keyboard-response","295","393466","0.0-13.0-0.45","605c9355001a5eb6d51e657d","64b003020eef62ee308107cc","64b03511972d6ef22a0e0f74","null","null","<p style=""font-size: 60px; font-family: BACS"">GLYrAGlu</p>","","","","","","","",""
"html-keyboard-response","296","394480","0.0-13.0-0.46","605c9355001a5eb6d51e657d","64b003020eef62ee308107cc","64b03511972d6ef22a0e0f74","null","null","<p style=""font-size: 60px; font-family: BACS"">ZcGdNaQr</p>","","","","","","","",""
"html-keyboard-response","297","395495","0.0-13.0-0.47","605c9355001a5eb6d51e657d","64b003020eef62ee308107cc","64b03511972d6ef22a0e0f74","null","null","<p style=""font-size: 60px; font-family: BACS"">hTtBbOMC</p>","","","","","","","",""
"html-keyboard-response","298","396507","0.0-13.0-0.48","605c9355001a5eb6d51e657d","64b003020eef62ee308107cc","64b03511972d6ef22a0e0f74","null","null","<p style=""font-size: 60px; font-family: BACS"">lhCTCtRb</p>","","","","","","","",""
"html-keyboard-response","299","397520","0.0-13.0-0.49","605c9355001a5eb6d51e657d","64b003020eef62ee308107cc","64b03511972d6ef22a0e0f74","null","null","<p style=""font-size: 60px; font-family: BACS"">YuaNdGlu</p>","","","","","","","",""
"html-keyboard-response","300","398534","0.0-13.0-0.50","605c9355001a5eb6d51e657d","64b003020eef62ee308107cc","64b03511972d6ef22a0e0f74","null","null","<p style=""font-size: 60px; font-family: BACS"">lAOKMBRDh</p>","","","","","","","",""
"html-keyboard-response","301","399546","0.0-13.0-0.51","605c9355001a5eb6d51e657d","64b003020eef62ee308107cc","64b03511972d6ef22a0e0f74","null","null","<p style=""font-size: 60px; font-family: BACS"">ZcGdNGQYQ</p>","","","","","","","",""
"html-keyboard-response","302","400546","0.0-13.0-0.52","605c9355001a5eb6d51e657d","64b003020eef62ee308107cc","64b03511972d6ef22a0e0f74","null","null","<p style=""font-size: 60px; font-family: BACS"">dKDthtRb</p>","","","","","","","",""
"html-keyboard-response","303","401548","0.0-13.0-0.53","605c9355001a5eb6d51e657d","64b003020eef62ee308107cc","64b03511972d6ef22a0e0f74","null","null","<p style=""font-size: 60px; font-family: BACS"">lAOKMRYlD</p>","","","","","","","",""
"html-keyboard-response","304","402549","0.0-13.0-0.54","605c9355001a5eb6d51e657d","64b003020eef62ee308107cc","64b03511972d6ef22a0e0f74","null","null","<p style=""font-size: 60px; font-family: BACS"">lhCTCBRDh</p>","","","","","","","",""
"html-keyboard-response","305","403555","0.0-13.0-0.55","605c9355001a5eb6d51e657d","64b003020eef62ee308107cc","64b03511972d6ef22a0e0f74","null","null","<p style=""font-size: 60px; font-family: BACS"">ckduAGlu</p>","","","","","","","",""
"html-keyboard-response","306","404557","0.0-13.0-0.56","605c9355001a5eb6d51e657d","64b003020eef62ee308107cc","64b03511972d6ef22a0e0f74","null","null","<p style=""font-size: 60px; font-family: BACS"">ECtbDcDR</p>","","","","","","","",""
"html-keyboard-response","307","405568","0.0-13.0-0.57","605c9355001a5eb6d51e657d","64b003020eef62ee308107cc","64b03511972d6ef22a0e0f74","null","null","<p style=""font-size: 60px; font-family: BACS"">YQbcGQYQ</p>","","","","","","","",""
"html-keyboard-response","308","406580","0.0-13.0-0.58","605c9355001a5eb6d51e657d","64b003020eef62ee308107cc","64b03511972d6ef22a0e0f74","null","null","<p style=""font-size: 60px; font-family: BACS"">GLYrAkam</p>","","","","","","","",""
"html-keyboard-response","309","407593","0.0-13.0-0.59","605c9355001a5eb6d51e657d","64b003020eef62ee308107cc","64b03511972d6ef22a0e0f74","null","null","<p style=""font-size: 60px; font-family: BACS"">hTtBbBRDh</p>","","","","","","","",""
"html-keyboard-response","310","408607","0.0-13.0-0.60","605c9355001a5eb6d51e657d","64b003020eef62ee308107cc","64b03511972d6ef22a0e0f74","null","null","<p style=""font-size: 60px; font-family: BACS"">lAOKMcDR</p>","","","","","","","",""
"html-keyboard-response","311","409620","0.0-13.0-0.61","605c9355001a5eb6d51e657d","64b003020eef62ee308107cc","64b03511972d6ef22a0e0f74","null","null","<p style=""font-size: 60px; font-family: BACS"">GLluALcO</p>","","","","","","","",""
"html-keyboard-response","312","410633","0.0-13.0-0.62","605c9355001a5eb6d51e657d","64b003020eef62ee308107cc","64b03511972d6ef22a0e0f74","null","null","<p style=""font-size: 60px; font-family: BACS"">YuaNdGQYQ</p>","","","","","","","",""
"html-keyboard-response","313","411641","0.0-13.0-0.63","605c9355001a5eb6d51e657d","64b003020eef62ee308107cc","64b03511972d6ef22a0e0f74","null","null","<p style=""font-size: 60px; font-family: BACS"">YQbcLcO</p>","","","","","","","",""
"html-keyboard-response","314","412654","0.0-13.0-0.64","605c9355001a5eb6d51e657d","64b003020eef62ee308107cc","64b03511972d6ef22a0e0f74","null","null","<p style=""font-size: 60px; font-family: BACS"">AdDbtRb</p>","","","","","","","",""
"html-keyboard-response","315","413669","0.0-13.0-0.65","605c9355001a5eb6d51e657d","64b003020eef62ee308107cc","64b03511972d6ef22a0e0f74","null","null","<p style=""font-size: 60px; font-family: BACS"">YQbcGlu</p>","","","","","","","",""
"html-keyboard-response","316","414681","0.0-13.0-0.66","605c9355001a5eb6d51e657d","64b003020eef62ee308107cc","64b03511972d6ef22a0e0f74","null","null","<p style=""font-size: 60px; font-family: BACS"">ECtbDRYlD</p>","","","","","","","",""
"html-keyboard-response","317","415694","0.0-13.0-0.67","605c9355001a5eb6d51e657d","64b003020eef62ee308107cc","64b03511972d6ef22a0e0f74","null","null","<p style=""font-size: 60px; font-family: BACS"">GLluAaQr</p>","","","","","","","",""
"html-keyboard-response","318","416702","0.0-13.0-0.68","605c9355001a5eb6d51e657d","64b003020eef62ee308107cc","64b03511972d6ef22a0e0f74","null","null","<p style=""font-size: 60px; font-family: BACS"">kGamNLcO</p>","","","","","","","",""
"html-keyboard-response","319","417703","0.0-13.0-0.69","605c9355001a5eb6d51e657d","64b003020eef62ee308107cc","64b03511972d6ef22a0e0f74","null","null","<p style=""font-size: 60px; font-family: BACS"">vAuNlaQr</p>","","","","","","","",""
"html-keyboard-response","320","418716","0.0-13.0-0.70","605c9355001a5eb6d51e657d","64b003020eef62ee308107cc","64b03511972d6ef22a0e0f74","null","null","<p style=""font-size: 60px; font-family: BACS"">LQurGlu</p>","","","","","","","",""
"html-keyboard-response","321","419732","0.0-13.0-0.71","605c9355001a5eb6d51e657d","64b003020eef62ee308107cc","64b03511972d6ef22a0e0f74","null","null","<p style=""font-size: 60px; font-family: BACS"">lBlEcDR</p>","","","","","","","",""
"html-keyboard-response","322","420747","0.0-13.0-0.72","605c9355001a5eb6d51e657d","64b003020eef62ee308107cc","64b03511972d6ef22a0e0f74","null","null","<p style=""font-size: 60px; font-family: BACS"">GLYrALcO</p>","","","","","","","",""
"html-keyboard-response","323","421752","0.0-13.0-0.73","605c9355001a5eb6d51e657d","64b003020eef62ee308107cc","64b03511972d6ef22a0e0f74","null","null","<p style=""font-size: 60px; font-family: BACS"">vAuNlGQYQ</p>","","","","","","","",""
"html-keyboard-response","324","422761","0.0-13.0-0.74","605c9355001a5eb6d51e657d","64b003020eef62ee308107cc","64b03511972d6ef22a0e0f74","null","null","<p style=""font-size: 60px; font-family: BACS"">lBlEOMC</p>","","","","","","","",""
"html-keyboard-response","325","423774","0.0-13.0-0.75","605c9355001a5eb6d51e657d","64b003020eef62ee308107cc","64b03511972d6ef22a0e0f74","null","null","<p style=""font-size: 60px; font-family: BACS"">vAuNlGlu</p>","","","","","","","",""
"html-keyboard-response","326","424780","0.0-13.0-0.76","605c9355001a5eb6d51e657d","64b003020eef62ee308107cc","64b03511972d6ef22a0e0f74","null","null","<p style=""font-size: 60px; font-family: BACS"">lhCTCcDR</p>","","","","","","","",""
"html-keyboard-response","327","425794","0.0-13.0-0.77","605c9355001a5eb6d51e657d","64b003020eef62ee308107cc","64b03511972d6ef22a0e0f74","null","null","<p style=""font-size: 60px; font-family: BACS"">YuaNdkam</p>","","","","","","","",""
"html-keyboard-response","328","426808","0.0-13.0-0.78","605c9355001a5eb6d51e657d","64b003020eef62ee308107cc","64b03511972d6ef22a0e0f74","null","null","<p style=""font-size: 60px; font-family: BACS"">hTtBbtRb</p>","","","","","","","",""
"html-keyboard-response","329","427818","0.0-13.0-0.79","605c9355001a5eb6d51e657d","64b003020eef62ee308107cc","64b03511972d6ef22a0e0f74","null","null","<p style=""font-size: 60px; font-family: BACS"">tmtEMRYlD</p>","","","","","","","",""
"html-keyboard-response","330","430740","0.0-14.0","605c9355001a5eb6d51e657d","64b003020eef62ee308107cc","64b03511972d6ef22a0e0f74","2922"," ","<p>Ottimo, hai visto il quarto blocco di parole. Ora puoi prenderti una piccola pausa.</p>
      <p>Premi la barra quando sei pronta/o per riprendere.</p>","","","","","","","",""
"html-keyboard-response","331","431748","0.0-15.0-0.0","605c9355001a5eb6d51e657d","64b003020eef62ee308107cc","64b03511972d6ef22a0e0f74","null","null","<p style=""font-size: 60px; font-family: BACS"">lhCTCBRDh</p>","","","","","","","",""
"html-keyboard-response","332","432761","0.0-15.0-0.1","605c9355001a5eb6d51e657d","64b003020eef62ee308107cc","64b03511972d6ef22a0e0f74","null","null","<p style=""font-size: 60px; font-family: BACS"">lhCTCBRDh</p>","","","","","","","",""
"html-keyboard-response","333","433772","0.0-15.0-0.2","605c9355001a5eb6d51e657d","64b003020eef62ee308107cc","64b03511972d6ef22a0e0f74","null","null","<p style=""font-size: 60px; font-family: BACS"">lhCTCBRDh</p>","","","","","","","",""
"html-keyboard-response","334","434787","0.0-15.0-0.3","605c9355001a5eb6d51e657d","64b003020eef62ee308107cc","64b03511972d6ef22a0e0f74","null","null","<p style=""font-size: 60px; font-family: BACS"">lhCTCBRDh</p>","","","","","","","",""
"html-keyboard-response","335","435788","0.0-15.0-0.4","605c9355001a5eb6d51e657d","64b003020eef62ee308107cc","64b03511972d6ef22a0e0f74","null","null","<p style=""font-size: 60px; font-family: BACS"">lhCTCBRDh</p>","","","","","","","",""
"html-keyboard-response","336","436789","0.0-15.0-0.5","605c9355001a5eb6d51e657d","64b003020eef62ee308107cc","64b03511972d6ef22a0e0f74","null","null","<p style=""font-size: 60px; font-family: BACS"">lhCTCBRDh</p>","","","","","","","",""
"html-keyboard-response","337","437790","0.0-15.0-0.6","605c9355001a5eb6d51e657d","64b003020eef62ee308107cc","64b03511972d6ef22a0e0f74","null","null","<p style=""font-size: 60px; font-family: BACS"">lhCTCBRDh</p>","","","","","","","",""
"html-keyboard-response","338","438797","0.0-15.0-0.7","605c9355001a5eb6d51e657d","64b003020eef62ee308107cc","64b03511972d6ef22a0e0f74","null","null","<p style=""font-size: 60px; font-family: BACS"">lhCTCBRDh</p>","","","","","","","",""
"html-keyboard-response","339","439798","0.0-15.0-0.8","605c9355001a5eb6d51e657d","64b003020eef62ee308107cc","64b03511972d6ef22a0e0f74","null","null","<p style=""font-size: 60px; font-family: BACS"">lhCTCBRDh</p>","","","","","","","",""
"html-keyboard-response","340","440807","0.0-15.0-0.9","605c9355001a5eb6d51e657d","64b003020eef62ee308107cc","64b03511972d6ef22a0e0f74","null","null","<p style=""font-size: 60px; font-family: BACS"">lhCTCBRDh</p>","","","","","","","",""
"html-keyboard-response","341","441820","0.0-15.0-0.10","605c9355001a5eb6d51e657d","64b003020eef62ee308107cc","64b03511972d6ef22a0e0f74","null","null","<p style=""font-size: 60px; font-family: BACS"">lhCTCBRDh</p>","","","","","","","",""
"html-keyboard-response","342","442821","0.0-15.0-0.11","605c9355001a5eb6d51e657d","64b003020eef62ee308107cc","64b03511972d6ef22a0e0f74","null","null","<p style=""font-size: 60px; font-family: BACS"">lhCTCBRDh</p>","","","","","","","",""
"html-keyboard-response","343","443826","0.0-15.0-0.12","605c9355001a5eb6d51e657d","64b003020eef62ee308107cc","64b03511972d6ef22a0e0f74","null","null","<p style=""font-size: 60px; font-family: BACS"">lhCTCBRDh</p>","","","","","","","",""
"html-keyboard-response","344","444841","0.0-15.0-0.13","605c9355001a5eb6d51e657d","64b003020eef62ee308107cc","64b03511972d6ef22a0e0f74","null","null","<p style=""font-size: 60px; font-family: BACS"">lhCTCBRDh</p>","","","","","","","",""
"html-keyboard-response","345","445849","0.0-15.0-0.14","605c9355001a5eb6d51e657d","64b003020eef62ee308107cc","64b03511972d6ef22a0e0f74","null","null","<p style=""font-size: 60px; font-family: BACS"">lhCTCBRDh</p>","","","","","","","",""
"html-keyboard-response","346","446865","0.0-15.0-0.15","605c9355001a5eb6d51e657d","64b003020eef62ee308107cc","64b03511972d6ef22a0e0f74","null","null","<p style=""font-size: 60px; font-family: BACS"">lhCTCBRDh</p>","","","","","","","",""
"html-keyboard-response","347","447865","0.0-15.0-0.16","605c9355001a5eb6d51e657d","64b003020eef62ee308107cc","64b03511972d6ef22a0e0f74","null","null","<p style=""font-size: 60px; font-family: BACS"">lhCTCBRDh</p>","","","","","","","",""
"html-keyboard-response","348","448866","0.0-15.0-0.17","605c9355001a5eb6d51e657d","64b003020eef62ee308107cc","64b03511972d6ef22a0e0f74","null","null","<p style=""font-size: 60px; font-family: BACS"">lhCTCBRDh</p>","","","","","","","",""
"html-keyboard-response","349","449867","0.0-15.0-0.18","605c9355001a5eb6d51e657d","64b003020eef62ee308107cc","64b03511972d6ef22a0e0f74","null","null","<p style=""font-size: 60px; font-family: BACS"">lhCTCBRDh</p>","","","","","","","",""
"html-keyboard-response","350","450870","0.0-15.0-0.19","605c9355001a5eb6d51e657d","64b003020eef62ee308107cc","64b03511972d6ef22a0e0f74","null","null","<p style=""font-size: 60px; font-family: BACS"">lhCTCBRDh</p>","","","","","","","",""
"html-keyboard-response","351","451871","0.0-15.0-0.20","605c9355001a5eb6d51e657d","64b003020eef62ee308107cc","64b03511972d6ef22a0e0f74","null","null","<p style=""font-size: 60px; font-family: BACS"">lhCTCBRDh</p>","","","","","","","",""
"html-keyboard-response","352","452871","0.0-15.0-0.21","605c9355001a5eb6d51e657d","64b003020eef62ee308107cc","64b03511972d6ef22a0e0f74","null","null","<p style=""font-size: 60px; font-family: BACS"">lhCTCBRDh</p>","","","","","","","",""
"html-keyboard-response","353","453886","0.0-15.0-0.22","605c9355001a5eb6d51e657d","64b003020eef62ee308107cc","64b03511972d6ef22a0e0f74","null","null","<p style=""font-size: 60px; font-family: BACS"">lhCTCBRDh</p>","","","","","","","",""
"html-keyboard-response","354","454887","0.0-15.0-0.23","605c9355001a5eb6d51e657d","64b003020eef62ee308107cc","64b03511972d6ef22a0e0f74","null","null","<p style=""font-size: 60px; font-family: BACS"">lhCTCBRDh</p>","","","","","","","",""
"html-keyboard-response","355","455887","0.0-15.0-0.24","605c9355001a5eb6d51e657d","64b003020eef62ee308107cc","64b03511972d6ef22a0e0f74","null","null","<p style=""font-size: 60px; font-family: BACS"">lhCTCBRDh</p>","","","","","","","",""
"html-keyboard-response","356","456891","0.0-15.0-0.25","605c9355001a5eb6d51e657d","64b003020eef62ee308107cc","64b03511972d6ef22a0e0f74","null","null","<p style=""font-size: 60px; font-family: BACS"">lhCTCBRDh</p>","","","","","","","",""
"html-keyboard-response","357","457891","0.0-15.0-0.26","605c9355001a5eb6d51e657d","64b003020eef62ee308107cc","64b03511972d6ef22a0e0f74","null","null","<p style=""font-size: 60px; font-family: BACS"">lhCTCBRDh</p>","","","","","","","",""
"html-keyboard-response","358","458893","0.0-15.0-0.27","605c9355001a5eb6d51e657d","64b003020eef62ee308107cc","64b03511972d6ef22a0e0f74","null","null","<p style=""font-size: 60px; font-family: BACS"">lhCTCBRDh</p>","","","","","","","",""
"html-keyboard-response","359","459899","0.0-15.0-0.28","605c9355001a5eb6d51e657d","64b003020eef62ee308107cc","64b03511972d6ef22a0e0f74","null","null","<p style=""font-size: 60px; font-family: BACS"">lhCTCBRDh</p>","","","","","","","",""
"html-keyboard-response","360","460910","0.0-15.0-0.29","605c9355001a5eb6d51e657d","64b003020eef62ee308107cc","64b03511972d6ef22a0e0f74","null","null","<p style=""font-size: 60px; font-family: BACS"">lhCTCBRDh</p>","","","","","","","",""
"html-keyboard-response","361","461911","0.0-15.0-0.30","605c9355001a5eb6d51e657d","64b003020eef62ee308107cc","64b03511972d6ef22a0e0f74","null","null","<p style=""font-size: 60px; font-family: BACS"">lhCTCBRDh</p>","","","","","","","",""
"html-keyboard-response","362","462912","0.0-15.0-0.31","605c9355001a5eb6d51e657d","64b003020eef62ee308107cc","64b03511972d6ef22a0e0f74","null","null","<p style=""font-size: 60px; font-family: BACS"">lhCTCBRDh</p>","","","","","","","",""
"html-keyboard-response","363","463924","0.0-15.0-0.32","605c9355001a5eb6d51e657d","64b003020eef62ee308107cc","64b03511972d6ef22a0e0f74","null","null","<p style=""font-size: 60px; font-family: BACS"">lhCTCBRDh</p>","","","","","","","",""
"html-keyboard-response","364","464939","0.0-15.0-0.33","605c9355001a5eb6d51e657d","64b003020eef62ee308107cc","64b03511972d6ef22a0e0f74","null","null","<p style=""font-size: 60px; font-family: BACS"">lhCTCBRDh</p>","","","","","","","",""
"html-keyboard-response","365","465949","0.0-15.0-0.34","605c9355001a5eb6d51e657d","64b003020eef62ee308107cc","64b03511972d6ef22a0e0f74","null","null","<p style=""font-size: 60px; font-family: BACS"">lhCTCBRDh</p>","","","","","","","",""
"html-keyboard-response","366","466950","0.0-15.0-0.35","605c9355001a5eb6d51e657d","64b003020eef62ee308107cc","64b03511972d6ef22a0e0f74","null","null","<p style=""font-size: 60px; font-family: BACS"">lhCTCBRDh</p>","","","","","","","",""
"html-keyboard-response","367","467957","0.0-15.0-0.36","605c9355001a5eb6d51e657d","64b003020eef62ee308107cc","64b03511972d6ef22a0e0f74","null","null","<p style=""font-size: 60px; font-family: BACS"">lhCTCBRDh</p>","","","","","","","",""
"html-keyboard-response","368","468971","0.0-15.0-0.37","605c9355001a5eb6d51e657d","64b003020eef62ee308107cc","64b03511972d6ef22a0e0f74","null","null","<p style=""font-size: 60px; font-family: BACS"">lhCTCBRDh</p>","","","","","","","",""
"html-keyboard-response","369","469972","0.0-15.0-0.38","605c9355001a5eb6d51e657d","64b003020eef62ee308107cc","64b03511972d6ef22a0e0f74","null","null","<p style=""font-size: 60px; font-family: BACS"">lhCTCBRDh</p>","","","","","","","",""
"html-keyboard-response","370","470973","0.0-15.0-0.39","605c9355001a5eb6d51e657d","64b003020eef62ee308107cc","64b03511972d6ef22a0e0f74","null","null","<p style=""font-size: 60px; font-family: BACS"">lhCTCBRDh</p>","","","","","","","",""
"html-keyboard-response","371","471974","0.0-15.0-0.40","605c9355001a5eb6d51e657d","64b003020eef62ee308107cc","64b03511972d6ef22a0e0f74","null","null","<p style=""font-size: 60px; font-family: BACS"">lhCTCBRDh</p>","","","","","","","",""
"html-keyboard-response","372","472975","0.0-15.0-0.41","605c9355001a5eb6d51e657d","64b003020eef62ee308107cc","64b03511972d6ef22a0e0f74","null","null","<p style=""font-size: 60px; font-family: BACS"">lhCTCBRDh</p>","","","","","","","",""
"html-keyboard-response","373","473976","0.0-15.0-0.42","605c9355001a5eb6d51e657d","64b003020eef62ee308107cc","64b03511972d6ef22a0e0f74","null","null","<p style=""font-size: 60px; font-family: BACS"">lhCTCBRDh</p>","","","","","","","",""
"html-keyboard-response","374","474977","0.0-15.0-0.43","605c9355001a5eb6d51e657d","64b003020eef62ee308107cc","64b03511972d6ef22a0e0f74","null","null","<p style=""font-size: 60px; font-family: BACS"">lhCTCBRDh</p>","","","","","","","",""
"html-keyboard-response","375","475979","0.0-15.0-0.44","605c9355001a5eb6d51e657d","64b003020eef62ee308107cc","64b03511972d6ef22a0e0f74","null","null","<p style=""font-size: 60px; font-family: BACS"">lhCTCBRDh</p>","","","","","","","",""
"html-keyboard-response","376","476980","0.0-15.0-0.45","605c9355001a5eb6d51e657d","64b003020eef62ee308107cc","64b03511972d6ef22a0e0f74","null","null","<p style=""font-size: 60px; font-family: BACS"">lhCTCBRDh</p>","","","","","","","",""
"html-keyboard-response","377","477992","0.0-15.0-0.46","605c9355001a5eb6d51e657d","64b003020eef62ee308107cc","64b03511972d6ef22a0e0f74","null","null","<p style=""font-size: 60px; font-family: BACS"">lhCTCBRDh</p>","","","","","","","",""
"html-keyboard-response","378","478993","0.0-15.0-0.47","605c9355001a5eb6d51e657d","64b003020eef62ee308107cc","64b03511972d6ef22a0e0f74","null","null","<p style=""font-size: 60px; font-family: BACS"">lhCTCBRDh</p>","","","","","","","",""
"html-keyboard-response","379","479994","0.0-15.0-0.48","605c9355001a5eb6d51e657d","64b003020eef62ee308107cc","64b03511972d6ef22a0e0f74","null","null","<p style=""font-size: 60px; font-family: BACS"">lhCTCBRDh</p>","","","","","","","",""
"html-keyboard-response","380","480995","0.0-15.0-0.49","605c9355001a5eb6d51e657d","64b003020eef62ee308107cc","64b03511972d6ef22a0e0f74","null","null","<p style=""font-size: 60px; font-family: BACS"">lhCTCBRDh</p>","","","","","","","",""
"html-keyboard-response","381","482007","0.0-15.0-0.50","605c9355001a5eb6d51e657d","64b003020eef62ee308107cc","64b03511972d6ef22a0e0f74","null","null","<p style=""font-size: 60px; font-family: BACS"">lhCTCBRDh</p>","","","","","","","",""
"html-keyboard-response","382","483008","0.0-15.0-0.51","605c9355001a5eb6d51e657d","64b003020eef62ee308107cc","64b03511972d6ef22a0e0f74","null","null","<p style=""font-size: 60px; font-family: BACS"">lhCTCBRDh</p>","","","","","","","",""
"html-keyboard-response","383","484020","0.0-15.0-0.52","605c9355001a5eb6d51e657d","64b003020eef62ee308107cc","64b03511972d6ef22a0e0f74","null","null","<p style=""font-size: 60px; font-family: BACS"">lhCTCBRDh</p>","","","","","","","",""
"html-keyboard-response","384","485032","0.0-15.0-0.53","605c9355001a5eb6d51e657d","64b003020eef62ee308107cc","64b03511972d6ef22a0e0f74","null","null","<p style=""font-size: 60px; font-family: BACS"">lhCTCBRDh</p>","","","","","","","",""
"html-keyboard-response","385","486033","0.0-15.0-0.54","605c9355001a5eb6d51e657d","64b003020eef62ee308107cc","64b03511972d6ef22a0e0f74","null","null","<p style=""font-size: 60px; font-family: BACS"">lhCTCBRDh</p>","","","","","","","",""
"html-keyboard-response","386","487034","0.0-15.0-0.55","605c9355001a5eb6d51e657d","64b003020eef62ee308107cc","64b03511972d6ef22a0e0f74","null","null","<p style=""font-size: 60px; font-family: BACS"">lhCTCBRDh</p>","","","","","","","",""
"html-keyboard-response","387","488035","0.0-15.0-0.56","605c9355001a5eb6d51e657d","64b003020eef62ee308107cc","64b03511972d6ef22a0e0f74","null","null","<p style=""font-size: 60px; font-family: BACS"">lhCTCBRDh</p>","","","","","","","",""
"html-keyboard-response","388","489040","0.0-15.0-0.57","605c9355001a5eb6d51e657d","64b003020eef62ee308107cc","64b03511972d6ef22a0e0f74","null","null","<p style=""font-size: 60px; font-family: BACS"">lhCTCBRDh</p>","","","","","","","",""
"html-keyboard-response","389","490053","0.0-15.0-0.58","605c9355001a5eb6d51e657d","64b003020eef62ee308107cc","64b03511972d6ef22a0e0f74","null","null","<p style=""font-size: 60px; font-family: BACS"">lhCTCBRDh</p>","","","","","","","",""
"html-keyboard-response","390","491054","0.0-15.0-0.59","605c9355001a5eb6d51e657d","64b003020eef62ee308107cc","64b03511972d6ef22a0e0f74","null","null","<p style=""font-size: 60px; font-family: BACS"">lhCTCBRDh</p>","","","","","","","",""
"html-keyboard-response","391","492055","0.0-15.0-0.60","605c9355001a5eb6d51e657d","64b003020eef62ee308107cc","64b03511972d6ef22a0e0f74","null","null","<p style=""font-size: 60px; font-family: BACS"">lhCTCBRDh</p>","","","","","","","",""
"html-keyboard-response","392","493056","0.0-15.0-0.61","605c9355001a5eb6d51e657d","64b003020eef62ee308107cc","64b03511972d6ef22a0e0f74","null","null","<p style=""font-size: 60px; font-family: BACS"">lhCTCBRDh</p>","","","","","","","",""
"html-keyboard-response","393","494072","0.0-15.0-0.62","605c9355001a5eb6d51e657d","64b003020eef62ee308107cc","64b03511972d6ef22a0e0f74","null","null","<p style=""font-size: 60px; font-family: BACS"">lhCTCBRDh</p>","","","","","","","",""
"html-keyboard-response","394","495072","0.0-15.0-0.63","605c9355001a5eb6d51e657d","64b003020eef62ee308107cc","64b03511972d6ef22a0e0f74","null","null","<p style=""font-size: 60px; font-family: BACS"">lhCTCBRDh</p>","","","","","","","",""
"html-keyboard-response","395","496073","0.0-15.0-0.64","605c9355001a5eb6d51e657d","64b003020eef62ee308107cc","64b03511972d6ef22a0e0f74","null","null","<p style=""font-size: 60px; font-family: BACS"">lhCTCBRDh</p>","","","","","","","",""
"html-keyboard-response","396","497074","0.0-15.0-0.65","605c9355001a5eb6d51e657d","64b003020eef62ee308107cc","64b03511972d6ef22a0e0f74","null","null","<p style=""font-size: 60px; font-family: BACS"">lhCTCBRDh</p>","","","","","","","",""
"html-keyboard-response","397","498074","0.0-15.0-0.66","605c9355001a5eb6d51e657d","64b003020eef62ee308107cc","64b03511972d6ef22a0e0f74","null","null","<p style=""font-size: 60px; font-family: BACS"">lhCTCBRDh</p>","","","","","","","",""
"html-keyboard-response","398","499075","0.0-15.0-0.67","605c9355001a5eb6d51e657d","64b003020eef62ee308107cc","64b03511972d6ef22a0e0f74","null","null","<p style=""font-size: 60px; font-family: BACS"">lhCTCBRDh</p>","","","","","","","",""
"html-keyboard-response","399","500085","0.0-15.0-0.68","605c9355001a5eb6d51e657d","64b003020eef62ee308107cc","64b03511972d6ef22a0e0f74","null","null","<p style=""font-size: 60px; font-family: BACS"">lhCTCBRDh</p>","","","","","","","",""
"html-keyboard-response","400","501093","0.0-15.0-0.69","605c9355001a5eb6d51e657d","64b003020eef62ee308107cc","64b03511972d6ef22a0e0f74","null","null","<p style=""font-size: 60px; font-family: BACS"">lhCTCBRDh</p>","","","","","","","",""
