"trial_type","trial_index","time_elapsed","internal_node_id","subject_id","study_id","session_id","rt","response","stimulus","success","item","task","correct_response","testing_condition","correct","target","confound","name","view_history"
"pavlovia","0","6938","0.0-0.0","611eeafa283a2d1f57537fea","650c16f0f2faf8d7a0d14c09","651c34f424d8ffa677818919","","","","","","","","","","","","",""
"survey-html-form","1","16625","0.0-1.0","611eeafa283a2d1f57537fea","650c16f0f2faf8d7a0d14c09","651c34f424d8ffa677818919","9675","{""ID"":""611eeafa283a2d1f57537fea""}","","","","","","","","","","",""
"html-keyboard-response","2","28308","0.0-2.0","611eeafa283a2d1f57537fea","650c16f0f2faf8d7a0d14c09","651c34f424d8ffa677818919","11674"," ","<p style=""font-size: 15px;"">Before beginning, we ask that you read the consent information and confirm your agreement to participate in the experiment.</p>
      <p style=""font-size: 15px;""> We ask that you remember that this is a research project and that your participation is entirely voluntary. You can stop your participation at any time, without needing to provide any explanation. The study we're asking you to participate in aims at examining how readers process written words. You will be engaged in a session of apprximately 20 minutes, followed by a brief questionnaire. You will have the opportunity to take a few breaks during the experiment. You will be paid £4 for your participation, corresponding to a rate of £8/hour. While this experiment looks at cognitive faculties, this experiment doesn't constitute clinical proof of eventual pathologies.</p>
      <p style=""font-size: 15px;"">All of the information collected thanks to yours and others' participation will be held in a secure password-protected server, and will not be shared with anyone not authorised to view it. Your personal information will be kept with an arbitrary participant ID. Thanks to this data anonymity process, any researcher analysing the data won't be able to track the information back to a specific participant. Therefore, this process will make identifying you impossibile, even when results from the study will be published in scientific reviews, presented at congresses, or at any other public forum. More generally, the collected data will be treated in accordance with the laws on privacy and conformity to the Legislative Degree n. 196 ""Code regarding the protection of personal data"" of the 30th of June 2003 and to the European Regulation 2016/670 (General Data Protection Regulation - GDPR). The Data Protection Officer is Avv. Valentina Carollo, who can be contacted at the following email addresses: <a href=""mailto:dpo@sissa.it"">dpo@sissa.it</a> or <a href=""mailto:rpd@sissa.it"">rpd@sissa.it</a> - PEC: <a href=""mailto:protocollo@pec.sissa.it"">protocollo@pec.sissa.it</a>.</p>
      <p style=""font-size: 15px;""> Before expressing your consent to participate, we would like to remind you again that in case you need explanations on any aspect of the experimental procedure, the researcher is at your disposition (<a href=""mailto:aliebelt@sissa.it"">aliebelt@sissa.it</a>, <a href=""mailto:davide.crepaldi@sissa.it"">davide.crepaldi@sissa.it</a>).</p>
      <p style=""font-size: 15px;"">If you would like to download the informed consent form, you can do so here: <a href=""BASL-Informed_Consent.pdf"" download>informed consent form</a>.</p>
      <p style=""font-size: 15px;"">We ask that you press the spacebar to proceed to the consent section.</p>","","","","","","","","","",""
"survey-html-form","3","58380","0.0-3.0","611eeafa283a2d1f57537fea","650c16f0f2faf8d7a0d14c09","651c34f424d8ffa677818919","30068","{""consent1"":""YES"",""consent2"":""YES"",""consent3"":""YES"",""consent4"":""YES"",""consent5"":""YES"",""consent6"":""YES""}","","","","","","","","","","",""
"fullscreen","4","71251","0.0-4.0","611eeafa283a2d1f57537fea","650c16f0f2faf8d7a0d14c09","651c34f424d8ffa677818919","","","","true","","","","","","","","",""
"html-keyboard-response","5","97249","0.0-5.0","611eeafa283a2d1f57537fea","650c16f0f2faf8d7a0d14c09","651c34f424d8ffa677818919","25994"," ","<p>Welcome, and thank you very much for your time!</p>
      <p>In this experiment, you'll be a language expert who's been asked to take a look at words that Earth has received in its first communication with aliens. Your task, in this first part of the experiment, is to pay close attention to the words you'll be shown; later, world leaders will ask you questions on what you saw. The words will be shown to you quite quickly; it seems that the aliens were in a hurry :-)</p>
      <p>Press the spacebar to continue.<p>","","","","","","","","","",""
"html-keyboard-response","6","97312","0.0-6.0","611eeafa283a2d1f57537fea","650c16f0f2faf8d7a0d14c09","651c34f424d8ffa677818919","null","null","<p style=""font-size: 120px; font-family: BACS""> </p>","","","","","","","","","",""
"html-keyboard-response","7","118620","0.0-7.0","611eeafa283a2d1f57537fea","650c16f0f2faf8d7a0d14c09","651c34f424d8ffa677818919","21306"," ","<p>Here is an example of the words you'll see:</p>
      <img src='esempio.png' height='400px'>
      <p>When you're ready to begin, press the spacebar.</p></div>","","","","","","","","","",""
"html-keyboard-response","8","119641","0.0-8.0-0.0","611eeafa283a2d1f57537fea","650c16f0f2faf8d7a0d14c09","651c34f424d8ffa677818919","null","null","<p style=""font-size: 60px; font-family: BACS"">ALGZrkra</p>","","","","","","","","","",""
"html-keyboard-response","9","120647","0.0-8.0-0.1","611eeafa283a2d1f57537fea","650c16f0f2faf8d7a0d14c09","651c34f424d8ffa677818919","null","null","<p style=""font-size: 60px; font-family: BACS"">BbODOdOP</p>","","","","","","","","","",""
"html-keyboard-response","10","121658","0.0-8.0-0.2","611eeafa283a2d1f57537fea","650c16f0f2faf8d7a0d14c09","651c34f424d8ffa677818919","null","null","<p style=""font-size: 60px; font-family: BACS"">LvuOGvUdm</p>","","","","","","","","","",""
"html-keyboard-response","11","122666","0.0-8.0-0.3","611eeafa283a2d1f57537fea","650c16f0f2faf8d7a0d14c09","651c34f424d8ffa677818919","null","null","<p style=""font-size: 60px; font-family: BACS"">NkUAuUY</p>","","","","","","","","","",""
"html-keyboard-response","12","123682","0.0-8.0-0.4","611eeafa283a2d1f57537fea","650c16f0f2faf8d7a0d14c09","651c34f424d8ffa677818919","null","null","<p style=""font-size: 60px; font-family: BACS"">RKYkOdOP</p>","","","","","","","","","",""
"html-keyboard-response","13","124687","0.0-8.0-0.5","611eeafa283a2d1f57537fea","650c16f0f2faf8d7a0d14c09","651c34f424d8ffa677818919","null","null","<p style=""font-size: 60px; font-family: BACS"">dRbDbYht</p>","","","","","","","","","",""
"html-keyboard-response","14","125697","0.0-8.0-0.6","611eeafa283a2d1f57537fea","650c16f0f2faf8d7a0d14c09","651c34f424d8ffa677818919","null","null","<p style=""font-size: 60px; font-family: BACS"">AbKDOdOP</p>","","","","","","","","","",""
"html-keyboard-response","15","126707","0.0-8.0-0.7","611eeafa283a2d1f57537fea","650c16f0f2faf8d7a0d14c09","651c34f424d8ffa677818919","null","null","<p style=""font-size: 60px; font-family: BACS"">ALGZJcL</p>","","","","","","","","","",""
"html-keyboard-response","16","127714","0.0-8.0-0.8","611eeafa283a2d1f57537fea","650c16f0f2faf8d7a0d14c09","651c34f424d8ffa677818919","null","null","<p style=""font-size: 60px; font-family: BACS"">NbacAravu</p>","","","","","","","","","",""
"html-keyboard-response","17","128725","0.0-8.0-0.9","611eeafa283a2d1f57537fea","650c16f0f2faf8d7a0d14c09","651c34f424d8ffa677818919","null","null","<p style=""font-size: 60px; font-family: BACS"">mhtcRdCc</p>","","","","","","","","","",""
"html-keyboard-response","18","129733","0.0-8.0-0.10","611eeafa283a2d1f57537fea","650c16f0f2faf8d7a0d14c09","651c34f424d8ffa677818919","null","null","<p style=""font-size: 60px; font-family: BACS"">DMRPBRDh</p>","","","","","","","","","",""
"html-keyboard-response","19","130744","0.0-8.0-0.11","611eeafa283a2d1f57537fea","650c16f0f2faf8d7a0d14c09","651c34f424d8ffa677818919","null","null","<p style=""font-size: 60px; font-family: BACS"">hkRKRdCc</p>","","","","","","","","","",""
"html-keyboard-response","20","131755","0.0-8.0-0.12","611eeafa283a2d1f57537fea","650c16f0f2faf8d7a0d14c09","651c34f424d8ffa677818919","null","null","<p style=""font-size: 60px; font-family: BACS"">lhCTCBRDh</p>","","","","","","","","","",""
"html-keyboard-response","21","132762","0.0-8.0-0.13","611eeafa283a2d1f57537fea","650c16f0f2faf8d7a0d14c09","651c34f424d8ffa677818919","null","null","<p style=""font-size: 60px; font-family: BACS"">LvuOGrkra</p>","","","","","","","","","",""
"html-keyboard-response","22","133773","0.0-8.0-0.14","611eeafa283a2d1f57537fea","650c16f0f2faf8d7a0d14c09","651c34f424d8ffa677818919","null","null","<p style=""font-size: 60px; font-family: BACS"">vkYGlJcL</p>","","","","","","","","","",""
"html-keyboard-response","23","134777","0.0-8.0-0.15","611eeafa283a2d1f57537fea","650c16f0f2faf8d7a0d14c09","651c34f424d8ffa677818919","null","null","<p style=""font-size: 60px; font-family: BACS"">dkLluUY</p>","","","","","","","","","",""
"html-keyboard-response","24","135783","0.0-8.0-0.16","611eeafa283a2d1f57537fea","650c16f0f2faf8d7a0d14c09","651c34f424d8ffa677818919","null","null","<p style=""font-size: 60px; font-family: BACS"">GZJYvUdm</p>","","","","","","","","","",""
"html-keyboard-response","25","136792","0.0-8.0-0.17","611eeafa283a2d1f57537fea","650c16f0f2faf8d7a0d14c09","651c34f424d8ffa677818919","null","null","<p style=""font-size: 60px; font-family: BACS"">tmAKBRDh</p>","","","","","","","","","",""
"html-keyboard-response","26","137799","0.0-8.0-0.18","611eeafa283a2d1f57537fea","650c16f0f2faf8d7a0d14c09","651c34f424d8ffa677818919","null","null","<p style=""font-size: 60px; font-family: BACS"">YJkbvUdm</p>","","","","","","","","","",""
"html-keyboard-response","27","138811","0.0-8.0-0.19","611eeafa283a2d1f57537fea","650c16f0f2faf8d7a0d14c09","651c34f424d8ffa677818919","null","null","<p style=""font-size: 60px; font-family: BACS"">vkYGlrkra</p>","","","","","","","","","",""
"html-keyboard-response","28","139816","0.0-8.0-0.20","611eeafa283a2d1f57537fea","650c16f0f2faf8d7a0d14c09","651c34f424d8ffa677818919","null","null","<p style=""font-size: 60px; font-family: BACS"">LvuOGJcL</p>","","","","","","","","","",""
"html-keyboard-response","29","140839","0.0-8.0-0.21","611eeafa283a2d1f57537fea","650c16f0f2faf8d7a0d14c09","651c34f424d8ffa677818919","null","null","<p style=""font-size: 60px; font-family: BACS"">tmAKOdOP</p>","","","","","","","","","",""
"html-keyboard-response","30","141848","0.0-8.0-0.22","611eeafa283a2d1f57537fea","650c16f0f2faf8d7a0d14c09","651c34f424d8ffa677818919","null","null","<p style=""font-size: 60px; font-family: BACS"">dkLlJcL</p>","","","","","","","","","",""
"html-keyboard-response","31","142860","0.0-8.0-0.23","611eeafa283a2d1f57537fea","650c16f0f2faf8d7a0d14c09","651c34f424d8ffa677818919","null","null","<p style=""font-size: 60px; font-family: BACS"">NkUAvUdm</p>","","","","","","","","","",""
"html-keyboard-response","32","143870","0.0-8.0-0.24","611eeafa283a2d1f57537fea","650c16f0f2faf8d7a0d14c09","651c34f424d8ffa677818919","null","null","<p style=""font-size: 60px; font-family: BACS"">AbKDYht</p>","","","","","","","","","",""
"html-keyboard-response","33","144880","0.0-8.0-0.25","611eeafa283a2d1f57537fea","650c16f0f2faf8d7a0d14c09","651c34f424d8ffa677818919","null","null","<p style=""font-size: 60px; font-family: BACS"">hkRKBRDh</p>","","","","","","","","","",""
"html-keyboard-response","34","145886","0.0-8.0-0.26","611eeafa283a2d1f57537fea","650c16f0f2faf8d7a0d14c09","651c34f424d8ffa677818919","null","null","<p style=""font-size: 60px; font-family: BACS"">Gabkravu</p>","","","","","","","","","",""
"html-keyboard-response","35","146896","0.0-8.0-0.27","611eeafa283a2d1f57537fea","650c16f0f2faf8d7a0d14c09","651c34f424d8ffa677818919","null","null","<p style=""font-size: 60px; font-family: BACS"">NbacArkra</p>","","","","","","","","","",""
"html-keyboard-response","36","147907","0.0-8.0-0.28","611eeafa283a2d1f57537fea","650c16f0f2faf8d7a0d14c09","651c34f424d8ffa677818919","null","null","<p style=""font-size: 60px; font-family: BACS"">DMRPdPc</p>","","","","","","","","","",""
"html-keyboard-response","37","148914","0.0-8.0-0.29","611eeafa283a2d1f57537fea","650c16f0f2faf8d7a0d14c09","651c34f424d8ffa677818919","null","null","<p style=""font-size: 60px; font-family: BACS"">BbODYht</p>","","","","","","","","","",""
"html-keyboard-response","38","149921","0.0-8.0-0.30","611eeafa283a2d1f57537fea","650c16f0f2faf8d7a0d14c09","651c34f424d8ffa677818919","null","null","<p style=""font-size: 60px; font-family: BACS"">GZJYravu</p>","","","","","","","","","",""
"html-keyboard-response","39","150930","0.0-8.0-0.31","611eeafa283a2d1f57537fea","650c16f0f2faf8d7a0d14c09","651c34f424d8ffa677818919","null","null","<p style=""font-size: 60px; font-family: BACS"">tmAKdPc</p>","","","","","","","","","",""
"html-keyboard-response","40","151935","0.0-8.0-0.32","611eeafa283a2d1f57537fea","650c16f0f2faf8d7a0d14c09","651c34f424d8ffa677818919","null","null","<p style=""font-size: 60px; font-family: BACS"">dRbDbOdOP</p>","","","","","","","","","",""
"html-keyboard-response","41","152944","0.0-8.0-0.33","611eeafa283a2d1f57537fea","650c16f0f2faf8d7a0d14c09","651c34f424d8ffa677818919","null","null","<p style=""font-size: 60px; font-family: BACS"">dkLlrkra</p>","","","","","","","","","",""
"html-keyboard-response","42","153952","0.0-8.0-0.34","611eeafa283a2d1f57537fea","650c16f0f2faf8d7a0d14c09","651c34f424d8ffa677818919","null","null","<p style=""font-size: 60px; font-family: BACS"">dRbDbRdCc</p>","","","","","","","","","",""
"html-keyboard-response","43","154961","0.0-8.0-0.35","611eeafa283a2d1f57537fea","650c16f0f2faf8d7a0d14c09","651c34f424d8ffa677818919","null","null","<p style=""font-size: 60px; font-family: BACS"">GabkuUY</p>","","","","","","","","","",""
"html-keyboard-response","44","155974","0.0-8.0-0.36","611eeafa283a2d1f57537fea","650c16f0f2faf8d7a0d14c09","651c34f424d8ffa677818919","null","null","<p style=""font-size: 60px; font-family: BACS"">DMRPOdOP</p>","","","","","","","","","",""
"html-keyboard-response","45","156989","0.0-8.0-0.37","611eeafa283a2d1f57537fea","650c16f0f2faf8d7a0d14c09","651c34f424d8ffa677818919","null","null","<p style=""font-size: 60px; font-family: BACS"">YJkbuUY</p>","","","","","","","","","",""
"html-keyboard-response","46","157992","0.0-8.0-0.38","611eeafa283a2d1f57537fea","650c16f0f2faf8d7a0d14c09","651c34f424d8ffa677818919","null","null","<p style=""font-size: 60px; font-family: BACS"">NkUArkra</p>","","","","","","","","","",""
"html-keyboard-response","47","158997","0.0-8.0-0.39","611eeafa283a2d1f57537fea","650c16f0f2faf8d7a0d14c09","651c34f424d8ffa677818919","null","null","<p style=""font-size: 60px; font-family: BACS"">YOaAbuUY</p>","","","","","","","","","",""
"html-keyboard-response","48","160012","0.0-8.0-0.40","611eeafa283a2d1f57537fea","650c16f0f2faf8d7a0d14c09","651c34f424d8ffa677818919","null","null","<p style=""font-size: 60px; font-family: BACS"">BbODBRDh</p>","","","","","","","","","",""
"html-keyboard-response","49","161020","0.0-8.0-0.41","611eeafa283a2d1f57537fea","650c16f0f2faf8d7a0d14c09","651c34f424d8ffa677818919","null","null","<p style=""font-size: 60px; font-family: BACS"">tmAKYht</p>","","","","","","","","","",""
"html-keyboard-response","50","162036","0.0-8.0-0.42","611eeafa283a2d1f57537fea","650c16f0f2faf8d7a0d14c09","651c34f424d8ffa677818919","null","null","<p style=""font-size: 60px; font-family: BACS"">NbacAJcL</p>","","","","","","","","","",""
"html-keyboard-response","51","163052","0.0-8.0-0.43","611eeafa283a2d1f57537fea","650c16f0f2faf8d7a0d14c09","651c34f424d8ffa677818919","null","null","<p style=""font-size: 60px; font-family: BACS"">NkUAravu</p>","","","","","","","","","",""
"html-keyboard-response","52","164066","0.0-8.0-0.44","611eeafa283a2d1f57537fea","650c16f0f2faf8d7a0d14c09","651c34f424d8ffa677818919","null","null","<p style=""font-size: 60px; font-family: BACS"">BbODRdCc</p>","","","","","","","","","",""
"html-keyboard-response","53","165082","0.0-8.0-0.45","611eeafa283a2d1f57537fea","650c16f0f2faf8d7a0d14c09","651c34f424d8ffa677818919","null","null","<p style=""font-size: 60px; font-family: BACS"">GZJYrkra</p>","","","","","","","","","",""
"html-keyboard-response","54","166090","0.0-8.0-0.46","611eeafa283a2d1f57537fea","650c16f0f2faf8d7a0d14c09","651c34f424d8ffa677818919","null","null","<p style=""font-size: 60px; font-family: BACS"">YJkbJcL</p>","","","","","","","","","",""
"html-keyboard-response","55","167108","0.0-8.0-0.47","611eeafa283a2d1f57537fea","650c16f0f2faf8d7a0d14c09","651c34f424d8ffa677818919","null","null","<p style=""font-size: 60px; font-family: BACS"">ALGZvUdm</p>","","","","","","","","","",""
"html-keyboard-response","56","168115","0.0-8.0-0.48","611eeafa283a2d1f57537fea","650c16f0f2faf8d7a0d14c09","651c34f424d8ffa677818919","null","null","<p style=""font-size: 60px; font-family: BACS"">YOaAbravu</p>","","","","","","","","","",""
"html-keyboard-response","57","169130","0.0-8.0-0.49","611eeafa283a2d1f57537fea","650c16f0f2faf8d7a0d14c09","651c34f424d8ffa677818919","null","null","<p style=""font-size: 60px; font-family: BACS"">lhCTCdPc</p>","","","","","","","","","",""
"html-keyboard-response","58","170137","0.0-8.0-0.50","611eeafa283a2d1f57537fea","650c16f0f2faf8d7a0d14c09","651c34f424d8ffa677818919","null","null","<p style=""font-size: 60px; font-family: BACS"">dkLlvUdm</p>","","","","","","","","","",""
"html-keyboard-response","59","171145","0.0-8.0-0.51","611eeafa283a2d1f57537fea","650c16f0f2faf8d7a0d14c09","651c34f424d8ffa677818919","null","null","<p style=""font-size: 60px; font-family: BACS"">dRbDbdPc</p>","","","","","","","","","",""
"html-keyboard-response","60","172160","0.0-8.0-0.52","611eeafa283a2d1f57537fea","650c16f0f2faf8d7a0d14c09","651c34f424d8ffa677818919","null","null","<p style=""font-size: 60px; font-family: BACS"">YOaAbrkra</p>","","","","","","","","","",""
"html-keyboard-response","61","173173","0.0-8.0-0.53","611eeafa283a2d1f57537fea","650c16f0f2faf8d7a0d14c09","651c34f424d8ffa677818919","null","null","<p style=""font-size: 60px; font-family: BACS"">AbKDdPc</p>","","","","","","","","","",""
"html-keyboard-response","62","174193","0.0-8.0-0.54","611eeafa283a2d1f57537fea","650c16f0f2faf8d7a0d14c09","651c34f424d8ffa677818919","null","null","<p style=""font-size: 60px; font-family: BACS"">mhtcOdOP</p>","","","","","","","","","",""
"html-keyboard-response","63","175214","0.0-8.0-0.55","611eeafa283a2d1f57537fea","650c16f0f2faf8d7a0d14c09","651c34f424d8ffa677818919","null","null","<p style=""font-size: 60px; font-family: BACS"">vkYGlravu</p>","","","","","","","","","",""
"html-keyboard-response","64","176223","0.0-8.0-0.56","611eeafa283a2d1f57537fea","650c16f0f2faf8d7a0d14c09","651c34f424d8ffa677818919","null","null","<p style=""font-size: 60px; font-family: BACS"">GabkJcL</p>","","","","","","","","","",""
"html-keyboard-response","65","177252","0.0-8.0-0.57","611eeafa283a2d1f57537fea","650c16f0f2faf8d7a0d14c09","651c34f424d8ffa677818919","null","null","<p style=""font-size: 60px; font-family: BACS"">lhCTCRdCc</p>","","","","","","","","","",""
"html-keyboard-response","66","178264","0.0-8.0-0.58","611eeafa283a2d1f57537fea","650c16f0f2faf8d7a0d14c09","651c34f424d8ffa677818919","null","null","<p style=""font-size: 60px; font-family: BACS"">vkYGluUY</p>","","","","","","","","","",""
"html-keyboard-response","67","179297","0.0-8.0-0.59","611eeafa283a2d1f57537fea","650c16f0f2faf8d7a0d14c09","651c34f424d8ffa677818919","null","null","<p style=""font-size: 60px; font-family: BACS"">tmtEMYht</p>","","","","","","","","","",""
"html-keyboard-response","68","180317","0.0-8.0-0.60","611eeafa283a2d1f57537fea","650c16f0f2faf8d7a0d14c09","651c34f424d8ffa677818919","null","null","<p style=""font-size: 60px; font-family: BACS"">YJkbravu</p>","","","","","","","","","",""
"html-keyboard-response","69","181338","0.0-8.0-0.61","611eeafa283a2d1f57537fea","650c16f0f2faf8d7a0d14c09","651c34f424d8ffa677818919","null","null","<p style=""font-size: 60px; font-family: BACS"">hkRKdPc</p>","","","","","","","","","",""
"html-keyboard-response","70","182352","0.0-8.0-0.62","611eeafa283a2d1f57537fea","650c16f0f2faf8d7a0d14c09","651c34f424d8ffa677818919","null","null","<p style=""font-size: 60px; font-family: BACS"">mhtcYht</p>","","","","","","","","","",""
"html-keyboard-response","71","183375","0.0-8.0-0.63","611eeafa283a2d1f57537fea","650c16f0f2faf8d7a0d14c09","651c34f424d8ffa677818919","null","null","<p style=""font-size: 60px; font-family: BACS"">YOaAbJcL</p>","","","","","","","","","",""
"html-keyboard-response","72","184388","0.0-8.0-0.64","611eeafa283a2d1f57537fea","650c16f0f2faf8d7a0d14c09","651c34f424d8ffa677818919","null","null","<p style=""font-size: 60px; font-family: BACS"">RKYkRdCc</p>","","","","","","","","","",""
"html-keyboard-response","73","185394","0.0-8.0-0.65","611eeafa283a2d1f57537fea","650c16f0f2faf8d7a0d14c09","651c34f424d8ffa677818919","null","null","<p style=""font-size: 60px; font-family: BACS"">tmtEMBRDh</p>","","","","","","","","","",""
"html-keyboard-response","74","186397","0.0-8.0-0.66","611eeafa283a2d1f57537fea","650c16f0f2faf8d7a0d14c09","651c34f424d8ffa677818919","null","null","<p style=""font-size: 60px; font-family: BACS"">lhCTCOdOP</p>","","","","","","","","","",""
"html-keyboard-response","75","187405","0.0-8.0-0.67","611eeafa283a2d1f57537fea","650c16f0f2faf8d7a0d14c09","651c34f424d8ffa677818919","null","null","<p style=""font-size: 60px; font-family: BACS"">mhtcBRDh</p>","","","","","","","","","",""
"html-keyboard-response","76","188428","0.0-8.0-0.68","611eeafa283a2d1f57537fea","650c16f0f2faf8d7a0d14c09","651c34f424d8ffa677818919","null","null","<p style=""font-size: 60px; font-family: BACS"">tmtEMRdCc</p>","","","","","","","","","",""
"html-keyboard-response","77","189432","0.0-8.0-0.69","611eeafa283a2d1f57537fea","650c16f0f2faf8d7a0d14c09","651c34f424d8ffa677818919","null","null","<p style=""font-size: 60px; font-family: BACS"">LvuOGuUY</p>","","","","","","","","","",""
"html-keyboard-response","78","190445","0.0-8.0-0.70","611eeafa283a2d1f57537fea","650c16f0f2faf8d7a0d14c09","651c34f424d8ffa677818919","null","null","<p style=""font-size: 60px; font-family: BACS"">NbacAvUdm</p>","","","","","","","","","",""
"html-keyboard-response","79","191464","0.0-8.0-0.71","611eeafa283a2d1f57537fea","650c16f0f2faf8d7a0d14c09","651c34f424d8ffa677818919","null","null","<p style=""font-size: 60px; font-family: BACS"">AbKDBRDh</p>","","","","","","","","","",""
"html-keyboard-response","80","192474","0.0-8.0-0.72","611eeafa283a2d1f57537fea","650c16f0f2faf8d7a0d14c09","651c34f424d8ffa677818919","null","null","<p style=""font-size: 60px; font-family: BACS"">hkRKYht</p>","","","","","","","","","",""
"html-keyboard-response","81","193483","0.0-8.0-0.73","611eeafa283a2d1f57537fea","650c16f0f2faf8d7a0d14c09","651c34f424d8ffa677818919","null","null","<p style=""font-size: 60px; font-family: BACS"">GabkvUdm</p>","","","","","","","","","",""
"html-keyboard-response","82","194501","0.0-8.0-0.74","611eeafa283a2d1f57537fea","650c16f0f2faf8d7a0d14c09","651c34f424d8ffa677818919","null","null","<p style=""font-size: 60px; font-family: BACS"">RKYkYht</p>","","","","","","","","","",""
"html-keyboard-response","83","195515","0.0-8.0-0.75","611eeafa283a2d1f57537fea","650c16f0f2faf8d7a0d14c09","651c34f424d8ffa677818919","null","null","<p style=""font-size: 60px; font-family: BACS"">DMRPRdCc</p>","","","","","","","","","",""
"html-keyboard-response","84","196527","0.0-8.0-0.76","611eeafa283a2d1f57537fea","650c16f0f2faf8d7a0d14c09","651c34f424d8ffa677818919","null","null","<p style=""font-size: 60px; font-family: BACS"">RKYkdPc</p>","","","","","","","","","",""
"html-keyboard-response","85","197533","0.0-8.0-0.77","611eeafa283a2d1f57537fea","650c16f0f2faf8d7a0d14c09","651c34f424d8ffa677818919","null","null","<p style=""font-size: 60px; font-family: BACS"">ALGZravu</p>","","","","","","","","","",""
"html-keyboard-response","86","198539","0.0-8.0-0.78","611eeafa283a2d1f57537fea","650c16f0f2faf8d7a0d14c09","651c34f424d8ffa677818919","null","null","<p style=""font-size: 60px; font-family: BACS"">tmtEMdPc</p>","","","","","","","","","",""
"html-keyboard-response","87","199559","0.0-8.0-0.79","611eeafa283a2d1f57537fea","650c16f0f2faf8d7a0d14c09","651c34f424d8ffa677818919","null","null","<p style=""font-size: 60px; font-family: BACS"">GZJYuUY</p>","","","","","","","","","",""
"html-keyboard-response","88","212120","0.0-9.0","611eeafa283a2d1f57537fea","650c16f0f2faf8d7a0d14c09","651c34f424d8ffa677818919","12556"," ","<p>Great, you've seen the first block of words. You may now take a short break.</p>
      <p>Press the spacebar when you're ready to continue.</p>","","","","","","","","","",""
"html-keyboard-response","89","213138","0.0-10.0-0.0","611eeafa283a2d1f57537fea","650c16f0f2faf8d7a0d14c09","651c34f424d8ffa677818919","null","null","<p style=""font-size: 60px; font-family: BACS"">LvuOGuUY</p>","","","","","","","","","",""
"html-keyboard-response","90","214146","0.0-10.0-0.1","611eeafa283a2d1f57537fea","650c16f0f2faf8d7a0d14c09","651c34f424d8ffa677818919","null","null","<p style=""font-size: 60px; font-family: BACS"">NbacArkra</p>","","","","","","","","","",""
"html-keyboard-response","91","215153","0.0-10.0-0.2","611eeafa283a2d1f57537fea","650c16f0f2faf8d7a0d14c09","651c34f424d8ffa677818919","null","null","<p style=""font-size: 60px; font-family: BACS"">dRbDbdPc</p>","","","","","","","","","",""
"html-keyboard-response","92","216165","0.0-10.0-0.3","611eeafa283a2d1f57537fea","650c16f0f2faf8d7a0d14c09","651c34f424d8ffa677818919","null","null","<p style=""font-size: 60px; font-family: BACS"">ALGZravu</p>","","","","","","","","","",""
"html-keyboard-response","93","217173","0.0-10.0-0.4","611eeafa283a2d1f57537fea","650c16f0f2faf8d7a0d14c09","651c34f424d8ffa677818919","null","null","<p style=""font-size: 60px; font-family: BACS"">GabkvUdm</p>","","","","","","","","","",""
"html-keyboard-response","94","218192","0.0-10.0-0.5","611eeafa283a2d1f57537fea","650c16f0f2faf8d7a0d14c09","651c34f424d8ffa677818919","null","null","<p style=""font-size: 60px; font-family: BACS"">BbODYht</p>","","","","","","","","","",""
"html-keyboard-response","95","219204","0.0-10.0-0.6","611eeafa283a2d1f57537fea","650c16f0f2faf8d7a0d14c09","651c34f424d8ffa677818919","null","null","<p style=""font-size: 60px; font-family: BACS"">NkUAuUY</p>","","","","","","","","","",""
"html-keyboard-response","96","220209","0.0-10.0-0.7","611eeafa283a2d1f57537fea","650c16f0f2faf8d7a0d14c09","651c34f424d8ffa677818919","null","null","<p style=""font-size: 60px; font-family: BACS"">BbODBRDh</p>","","","","","","","","","",""
"html-keyboard-response","97","221221","0.0-10.0-0.8","611eeafa283a2d1f57537fea","650c16f0f2faf8d7a0d14c09","651c34f424d8ffa677818919","null","null","<p style=""font-size: 60px; font-family: BACS"">DMRPOdOP</p>","","","","","","","","","",""
"html-keyboard-response","98","222230","0.0-10.0-0.9","611eeafa283a2d1f57537fea","650c16f0f2faf8d7a0d14c09","651c34f424d8ffa677818919","null","null","<p style=""font-size: 60px; font-family: BACS"">vkYGluUY</p>","","","","","","","","","",""
"html-keyboard-response","99","223241","0.0-10.0-0.10","611eeafa283a2d1f57537fea","650c16f0f2faf8d7a0d14c09","651c34f424d8ffa677818919","null","null","<p style=""font-size: 60px; font-family: BACS"">ALGZvUdm</p>","","","","","","","","","",""
"html-keyboard-response","100","224252","0.0-10.0-0.11","611eeafa283a2d1f57537fea","650c16f0f2faf8d7a0d14c09","651c34f424d8ffa677818919","null","null","<p style=""font-size: 60px; font-family: BACS"">dkLlJcL</p>","","","","","","","","","",""
"html-keyboard-response","101","225272","0.0-10.0-0.12","611eeafa283a2d1f57537fea","650c16f0f2faf8d7a0d14c09","651c34f424d8ffa677818919","null","null","<p style=""font-size: 60px; font-family: BACS"">tmAKOdOP</p>","","","","","","","","","",""
"html-keyboard-response","102","226279","0.0-10.0-0.13","611eeafa283a2d1f57537fea","650c16f0f2faf8d7a0d14c09","651c34f424d8ffa677818919","null","null","<p style=""font-size: 60px; font-family: BACS"">GZJYrkra</p>","","","","","","","","","",""
"html-keyboard-response","103","227289","0.0-10.0-0.14","611eeafa283a2d1f57537fea","650c16f0f2faf8d7a0d14c09","651c34f424d8ffa677818919","null","null","<p style=""font-size: 60px; font-family: BACS"">tmtEMdPc</p>","","","","","","","","","",""
"html-keyboard-response","104","228296","0.0-10.0-0.15","611eeafa283a2d1f57537fea","650c16f0f2faf8d7a0d14c09","651c34f424d8ffa677818919","null","null","<p style=""font-size: 60px; font-family: BACS"">AbKDOdOP</p>","","","","","","","","","",""
"html-keyboard-response","105","229304","0.0-10.0-0.16","611eeafa283a2d1f57537fea","650c16f0f2faf8d7a0d14c09","651c34f424d8ffa677818919","null","null","<p style=""font-size: 60px; font-family: BACS"">YJkbuUY</p>","","","","","","","","","",""
"html-keyboard-response","106","230314","0.0-10.0-0.17","611eeafa283a2d1f57537fea","650c16f0f2faf8d7a0d14c09","651c34f424d8ffa677818919","null","null","<p style=""font-size: 60px; font-family: BACS"">LvuOGJcL</p>","","","","","","","","","",""
"html-keyboard-response","107","231321","0.0-10.0-0.18","611eeafa283a2d1f57537fea","650c16f0f2faf8d7a0d14c09","651c34f424d8ffa677818919","null","null","<p style=""font-size: 60px; font-family: BACS"">ALGZrkra</p>","","","","","","","","","",""
"html-keyboard-response","108","232333","0.0-10.0-0.19","611eeafa283a2d1f57537fea","650c16f0f2faf8d7a0d14c09","651c34f424d8ffa677818919","null","null","<p style=""font-size: 60px; font-family: BACS"">DMRPdPc</p>","","","","","","","","","",""
"html-keyboard-response","109","233340","0.0-10.0-0.20","611eeafa283a2d1f57537fea","650c16f0f2faf8d7a0d14c09","651c34f424d8ffa677818919","null","null","<p style=""font-size: 60px; font-family: BACS"">NbacAravu</p>","","","","","","","","","",""
"html-keyboard-response","110","234360","0.0-10.0-0.21","611eeafa283a2d1f57537fea","650c16f0f2faf8d7a0d14c09","651c34f424d8ffa677818919","null","null","<p style=""font-size: 60px; font-family: BACS"">RKYkdPc</p>","","","","","","","","","",""
"html-keyboard-response","111","235368","0.0-10.0-0.22","611eeafa283a2d1f57537fea","650c16f0f2faf8d7a0d14c09","651c34f424d8ffa677818919","null","null","<p style=""font-size: 60px; font-family: BACS"">mhtcOdOP</p>","","","","","","","","","",""
"html-keyboard-response","112","236376","0.0-10.0-0.23","611eeafa283a2d1f57537fea","650c16f0f2faf8d7a0d14c09","651c34f424d8ffa677818919","null","null","<p style=""font-size: 60px; font-family: BACS"">tmtEMRdCc</p>","","","","","","","","","",""
"html-keyboard-response","113","237383","0.0-10.0-0.24","611eeafa283a2d1f57537fea","650c16f0f2faf8d7a0d14c09","651c34f424d8ffa677818919","null","null","<p style=""font-size: 60px; font-family: BACS"">NkUArkra</p>","","","","","","","","","",""
"html-keyboard-response","114","238391","0.0-10.0-0.25","611eeafa283a2d1f57537fea","650c16f0f2faf8d7a0d14c09","651c34f424d8ffa677818919","null","null","<p style=""font-size: 60px; font-family: BACS"">hkRKRdCc</p>","","","","","","","","","",""
"html-keyboard-response","115","239409","0.0-10.0-0.26","611eeafa283a2d1f57537fea","650c16f0f2faf8d7a0d14c09","651c34f424d8ffa677818919","null","null","<p style=""font-size: 60px; font-family: BACS"">LvuOGrkra</p>","","","","","","","","","",""
"html-keyboard-response","116","240416","0.0-10.0-0.27","611eeafa283a2d1f57537fea","650c16f0f2faf8d7a0d14c09","651c34f424d8ffa677818919","null","null","<p style=""font-size: 60px; font-family: BACS"">lhCTCdPc</p>","","","","","","","","","",""
"html-keyboard-response","117","241422","0.0-10.0-0.28","611eeafa283a2d1f57537fea","650c16f0f2faf8d7a0d14c09","651c34f424d8ffa677818919","null","null","<p style=""font-size: 60px; font-family: BACS"">NkUAravu</p>","","","","","","","","","",""
"html-keyboard-response","118","242433","0.0-10.0-0.29","611eeafa283a2d1f57537fea","650c16f0f2faf8d7a0d14c09","651c34f424d8ffa677818919","null","null","<p style=""font-size: 60px; font-family: BACS"">GZJYuUY</p>","","","","","","","","","",""
"html-keyboard-response","119","243444","0.0-10.0-0.30","611eeafa283a2d1f57537fea","650c16f0f2faf8d7a0d14c09","651c34f424d8ffa677818919","null","null","<p style=""font-size: 60px; font-family: BACS"">dkLlrkra</p>","","","","","","","","","",""
"html-keyboard-response","120","244453","0.0-10.0-0.31","611eeafa283a2d1f57537fea","650c16f0f2faf8d7a0d14c09","651c34f424d8ffa677818919","null","null","<p style=""font-size: 60px; font-family: BACS"">lhCTCBRDh</p>","","","","","","","","","",""
"html-keyboard-response","121","245458","0.0-10.0-0.32","611eeafa283a2d1f57537fea","650c16f0f2faf8d7a0d14c09","651c34f424d8ffa677818919","null","null","<p style=""font-size: 60px; font-family: BACS"">dkLluUY</p>","","","","","","","","","",""
"html-keyboard-response","122","246467","0.0-10.0-0.33","611eeafa283a2d1f57537fea","650c16f0f2faf8d7a0d14c09","651c34f424d8ffa677818919","null","null","<p style=""font-size: 60px; font-family: BACS"">tmtEMYht</p>","","","","","","","","","",""
"html-keyboard-response","123","247482","0.0-10.0-0.34","611eeafa283a2d1f57537fea","650c16f0f2faf8d7a0d14c09","651c34f424d8ffa677818919","null","null","<p style=""font-size: 60px; font-family: BACS"">YJkbJcL</p>","","","","","","","","","",""
"html-keyboard-response","124","248486","0.0-10.0-0.35","611eeafa283a2d1f57537fea","650c16f0f2faf8d7a0d14c09","651c34f424d8ffa677818919","null","null","<p style=""font-size: 60px; font-family: BACS"">tmAKdPc</p>","","","","","","","","","",""
"html-keyboard-response","125","249498","0.0-10.0-0.36","611eeafa283a2d1f57537fea","650c16f0f2faf8d7a0d14c09","651c34f424d8ffa677818919","null","null","<p style=""font-size: 60px; font-family: BACS"">YJkbvUdm</p>","","","","","","","","","",""
"html-keyboard-response","126","250511","0.0-10.0-0.37","611eeafa283a2d1f57537fea","650c16f0f2faf8d7a0d14c09","651c34f424d8ffa677818919","null","null","<p style=""font-size: 60px; font-family: BACS"">AbKDdPc</p>","","","","","","","","","",""
"html-keyboard-response","127","251520","0.0-10.0-0.38","611eeafa283a2d1f57537fea","650c16f0f2faf8d7a0d14c09","651c34f424d8ffa677818919","null","null","<p style=""font-size: 60px; font-family: BACS"">ALGZJcL</p>","","","","","","","","","",""
"html-keyboard-response","128","252525","0.0-10.0-0.39","611eeafa283a2d1f57537fea","650c16f0f2faf8d7a0d14c09","651c34f424d8ffa677818919","null","null","<p style=""font-size: 60px; font-family: BACS"">YJkbravu</p>","","","","","","","","","",""
"html-keyboard-response","129","253540","0.0-10.0-0.40","611eeafa283a2d1f57537fea","650c16f0f2faf8d7a0d14c09","651c34f424d8ffa677818919","null","null","<p style=""font-size: 60px; font-family: BACS"">NkUAvUdm</p>","","","","","","","","","",""
"html-keyboard-response","130","254547","0.0-10.0-0.41","611eeafa283a2d1f57537fea","650c16f0f2faf8d7a0d14c09","651c34f424d8ffa677818919","null","null","<p style=""font-size: 60px; font-family: BACS"">dRbDbOdOP</p>","","","","","","","","","",""
"html-keyboard-response","131","255582","0.0-10.0-0.42","611eeafa283a2d1f57537fea","650c16f0f2faf8d7a0d14c09","651c34f424d8ffa677818919","null","null","<p style=""font-size: 60px; font-family: BACS"">GZJYravu</p>","","","","","","","","","",""
"html-keyboard-response","132","256598","0.0-10.0-0.43","611eeafa283a2d1f57537fea","650c16f0f2faf8d7a0d14c09","651c34f424d8ffa677818919","null","null","<p style=""font-size: 60px; font-family: BACS"">tmtEMBRDh</p>","","","","","","","","","",""
"html-keyboard-response","133","257629","0.0-10.0-0.44","611eeafa283a2d1f57537fea","650c16f0f2faf8d7a0d14c09","651c34f424d8ffa677818919","null","null","<p style=""font-size: 60px; font-family: BACS"">Gabkravu</p>","","","","","","","","","",""
"html-keyboard-response","134","258649","0.0-10.0-0.45","611eeafa283a2d1f57537fea","650c16f0f2faf8d7a0d14c09","651c34f424d8ffa677818919","null","null","<p style=""font-size: 60px; font-family: BACS"">DMRPRdCc</p>","","","","","","","","","",""
"html-keyboard-response","135","259666","0.0-10.0-0.46","611eeafa283a2d1f57537fea","650c16f0f2faf8d7a0d14c09","651c34f424d8ffa677818919","null","null","<p style=""font-size: 60px; font-family: BACS"">vkYGlJcL</p>","","","","","","","","","",""
"html-keyboard-response","136","260680","0.0-10.0-0.47","611eeafa283a2d1f57537fea","650c16f0f2faf8d7a0d14c09","651c34f424d8ffa677818919","null","null","<p style=""font-size: 60px; font-family: BACS"">dkLlvUdm</p>","","","","","","","","","",""
"html-keyboard-response","137","261697","0.0-10.0-0.48","611eeafa283a2d1f57537fea","650c16f0f2faf8d7a0d14c09","651c34f424d8ffa677818919","null","null","<p style=""font-size: 60px; font-family: BACS"">AbKDYht</p>","","","","","","","","","",""
"html-keyboard-response","138","262715","0.0-10.0-0.49","611eeafa283a2d1f57537fea","650c16f0f2faf8d7a0d14c09","651c34f424d8ffa677818919","null","null","<p style=""font-size: 60px; font-family: BACS"">YOaAbravu</p>","","","","","","","","","",""
"html-keyboard-response","139","263737","0.0-10.0-0.50","611eeafa283a2d1f57537fea","650c16f0f2faf8d7a0d14c09","651c34f424d8ffa677818919","null","null","<p style=""font-size: 60px; font-family: BACS"">RKYkOdOP</p>","","","","","","","","","",""
"html-keyboard-response","140","264767","0.0-10.0-0.51","611eeafa283a2d1f57537fea","650c16f0f2faf8d7a0d14c09","651c34f424d8ffa677818919","null","null","<p style=""font-size: 60px; font-family: BACS"">YOaAbuUY</p>","","","","","","","","","",""
"html-keyboard-response","141","265788","0.0-10.0-0.52","611eeafa283a2d1f57537fea","650c16f0f2faf8d7a0d14c09","651c34f424d8ffa677818919","null","null","<p style=""font-size: 60px; font-family: BACS"">tmAKBRDh</p>","","","","","","","","","",""
"html-keyboard-response","142","266804","0.0-10.0-0.53","611eeafa283a2d1f57537fea","650c16f0f2faf8d7a0d14c09","651c34f424d8ffa677818919","null","null","<p style=""font-size: 60px; font-family: BACS"">hkRKYht</p>","","","","","","","","","",""
"html-keyboard-response","143","267823","0.0-10.0-0.54","611eeafa283a2d1f57537fea","650c16f0f2faf8d7a0d14c09","651c34f424d8ffa677818919","null","null","<p style=""font-size: 60px; font-family: BACS"">vkYGlrkra</p>","","","","","","","","","",""
"html-keyboard-response","144","268840","0.0-10.0-0.55","611eeafa283a2d1f57537fea","650c16f0f2faf8d7a0d14c09","651c34f424d8ffa677818919","null","null","<p style=""font-size: 60px; font-family: BACS"">hkRKBRDh</p>","","","","","","","","","",""
"html-keyboard-response","145","269848","0.0-10.0-0.56","611eeafa283a2d1f57537fea","650c16f0f2faf8d7a0d14c09","651c34f424d8ffa677818919","null","null","<p style=""font-size: 60px; font-family: BACS"">GabkJcL</p>","","","","","","","","","",""
"html-keyboard-response","146","270853","0.0-10.0-0.57","611eeafa283a2d1f57537fea","650c16f0f2faf8d7a0d14c09","651c34f424d8ffa677818919","null","null","<p style=""font-size: 60px; font-family: BACS"">AbKDBRDh</p>","","","","","","","","","",""
"html-keyboard-response","147","271862","0.0-10.0-0.58","611eeafa283a2d1f57537fea","650c16f0f2faf8d7a0d14c09","651c34f424d8ffa677818919","null","null","<p style=""font-size: 60px; font-family: BACS"">LvuOGvUdm</p>","","","","","","","","","",""
"html-keyboard-response","148","272872","0.0-10.0-0.59","611eeafa283a2d1f57537fea","650c16f0f2faf8d7a0d14c09","651c34f424d8ffa677818919","null","null","<p style=""font-size: 60px; font-family: BACS"">DMRPBRDh</p>","","","","","","","","","",""
"html-keyboard-response","149","273878","0.0-10.0-0.60","611eeafa283a2d1f57537fea","650c16f0f2faf8d7a0d14c09","651c34f424d8ffa677818919","null","null","<p style=""font-size: 60px; font-family: BACS"">YOaAbrkra</p>","","","","","","","","","",""
"html-keyboard-response","150","274885","0.0-10.0-0.61","611eeafa283a2d1f57537fea","650c16f0f2faf8d7a0d14c09","651c34f424d8ffa677818919","null","null","<p style=""font-size: 60px; font-family: BACS"">tmAKYht</p>","","","","","","","","","",""
"html-keyboard-response","151","275893","0.0-10.0-0.62","611eeafa283a2d1f57537fea","650c16f0f2faf8d7a0d14c09","651c34f424d8ffa677818919","null","null","<p style=""font-size: 60px; font-family: BACS"">NbacAJcL</p>","","","","","","","","","",""
"html-keyboard-response","152","276900","0.0-10.0-0.63","611eeafa283a2d1f57537fea","650c16f0f2faf8d7a0d14c09","651c34f424d8ffa677818919","null","null","<p style=""font-size: 60px; font-family: BACS"">mhtcBRDh</p>","","","","","","","","","",""
"html-keyboard-response","153","277914","0.0-10.0-0.64","611eeafa283a2d1f57537fea","650c16f0f2faf8d7a0d14c09","651c34f424d8ffa677818919","null","null","<p style=""font-size: 60px; font-family: BACS"">vkYGlravu</p>","","","","","","","","","",""
"html-keyboard-response","154","278920","0.0-10.0-0.65","611eeafa283a2d1f57537fea","650c16f0f2faf8d7a0d14c09","651c34f424d8ffa677818919","null","null","<p style=""font-size: 60px; font-family: BACS"">BbODRdCc</p>","","","","","","","","","",""
"html-keyboard-response","155","279932","0.0-10.0-0.66","611eeafa283a2d1f57537fea","650c16f0f2faf8d7a0d14c09","651c34f424d8ffa677818919","null","null","<p style=""font-size: 60px; font-family: BACS"">dRbDbYht</p>","","","","","","","","","",""
"html-keyboard-response","156","280946","0.0-10.0-0.67","611eeafa283a2d1f57537fea","650c16f0f2faf8d7a0d14c09","651c34f424d8ffa677818919","null","null","<p style=""font-size: 60px; font-family: BACS"">mhtcRdCc</p>","","","","","","","","","",""
"html-keyboard-response","157","281951","0.0-10.0-0.68","611eeafa283a2d1f57537fea","650c16f0f2faf8d7a0d14c09","651c34f424d8ffa677818919","null","null","<p style=""font-size: 60px; font-family: BACS"">GabkuUY</p>","","","","","","","","","",""
"html-keyboard-response","158","282960","0.0-10.0-0.69","611eeafa283a2d1f57537fea","650c16f0f2faf8d7a0d14c09","651c34f424d8ffa677818919","null","null","<p style=""font-size: 60px; font-family: BACS"">hkRKdPc</p>","","","","","","","","","",""
"html-keyboard-response","159","283972","0.0-10.0-0.70","611eeafa283a2d1f57537fea","650c16f0f2faf8d7a0d14c09","651c34f424d8ffa677818919","null","null","<p style=""font-size: 60px; font-family: BACS"">lhCTCRdCc</p>","","","","","","","","","",""
"html-keyboard-response","160","284993","0.0-10.0-0.71","611eeafa283a2d1f57537fea","650c16f0f2faf8d7a0d14c09","651c34f424d8ffa677818919","null","null","<p style=""font-size: 60px; font-family: BACS"">GZJYvUdm</p>","","","","","","","","","",""
"html-keyboard-response","161","286002","0.0-10.0-0.72","611eeafa283a2d1f57537fea","650c16f0f2faf8d7a0d14c09","651c34f424d8ffa677818919","null","null","<p style=""font-size: 60px; font-family: BACS"">mhtcYht</p>","","","","","","","","","",""
"html-keyboard-response","162","287014","0.0-10.0-0.73","611eeafa283a2d1f57537fea","650c16f0f2faf8d7a0d14c09","651c34f424d8ffa677818919","null","null","<p style=""font-size: 60px; font-family: BACS"">YOaAbJcL</p>","","","","","","","","","",""
"html-keyboard-response","163","288018","0.0-10.0-0.74","611eeafa283a2d1f57537fea","650c16f0f2faf8d7a0d14c09","651c34f424d8ffa677818919","null","null","<p style=""font-size: 60px; font-family: BACS"">lhCTCOdOP</p>","","","","","","","","","",""
"html-keyboard-response","164","289023","0.0-10.0-0.75","611eeafa283a2d1f57537fea","650c16f0f2faf8d7a0d14c09","651c34f424d8ffa677818919","null","null","<p style=""font-size: 60px; font-family: BACS"">RKYkRdCc</p>","","","","","","","","","",""
"html-keyboard-response","165","290030","0.0-10.0-0.76","611eeafa283a2d1f57537fea","650c16f0f2faf8d7a0d14c09","651c34f424d8ffa677818919","null","null","<p style=""font-size: 60px; font-family: BACS"">BbODOdOP</p>","","","","","","","","","",""
"html-keyboard-response","166","291035","0.0-10.0-0.77","611eeafa283a2d1f57537fea","650c16f0f2faf8d7a0d14c09","651c34f424d8ffa677818919","null","null","<p style=""font-size: 60px; font-family: BACS"">NbacAvUdm</p>","","","","","","","","","",""
"html-keyboard-response","167","292040","0.0-10.0-0.78","611eeafa283a2d1f57537fea","650c16f0f2faf8d7a0d14c09","651c34f424d8ffa677818919","null","null","<p style=""font-size: 60px; font-family: BACS"">dRbDbRdCc</p>","","","","","","","","","",""
"html-keyboard-response","168","293058","0.0-10.0-0.79","611eeafa283a2d1f57537fea","650c16f0f2faf8d7a0d14c09","651c34f424d8ffa677818919","null","null","<p style=""font-size: 60px; font-family: BACS"">RKYkYht</p>","","","","","","","","","",""
"html-keyboard-response","169","301690","0.0-11.0","611eeafa283a2d1f57537fea","650c16f0f2faf8d7a0d14c09","651c34f424d8ffa677818919","8628"," ","<p>Great, you've seen the second block of words. You may now take a short break.</p>
      <p>Press the spacebar when you're ready to continue.</p>","","","","","","","","","",""
"html-keyboard-response","170","302702","0.0-12.0-0.0","611eeafa283a2d1f57537fea","650c16f0f2faf8d7a0d14c09","651c34f424d8ffa677818919","null","null","<p style=""font-size: 60px; font-family: BACS"">NbacAvUdm</p>","","","","","","","","","",""
"html-keyboard-response","171","303707","0.0-12.0-0.1","611eeafa283a2d1f57537fea","650c16f0f2faf8d7a0d14c09","651c34f424d8ffa677818919","null","null","<p style=""font-size: 60px; font-family: BACS"">AbKDYht</p>","","","","","","","","","",""
"html-keyboard-response","172","304721","0.0-12.0-0.2","611eeafa283a2d1f57537fea","650c16f0f2faf8d7a0d14c09","651c34f424d8ffa677818919","null","null","<p style=""font-size: 60px; font-family: BACS"">vkYGlrkra</p>","","","","","","","","","",""
"html-keyboard-response","173","305728","0.0-12.0-0.3","611eeafa283a2d1f57537fea","650c16f0f2faf8d7a0d14c09","651c34f424d8ffa677818919","null","null","<p style=""font-size: 60px; font-family: BACS"">AbKDBRDh</p>","","","","","","","","","",""
"html-keyboard-response","174","306735","0.0-12.0-0.4","611eeafa283a2d1f57537fea","650c16f0f2faf8d7a0d14c09","651c34f424d8ffa677818919","null","null","<p style=""font-size: 60px; font-family: BACS"">YOaAbravu</p>","","","","","","","","","",""
"html-keyboard-response","175","307745","0.0-12.0-0.5","611eeafa283a2d1f57537fea","650c16f0f2faf8d7a0d14c09","651c34f424d8ffa677818919","null","null","<p style=""font-size: 60px; font-family: BACS"">DMRPBRDh</p>","","","","","","","","","",""
"html-keyboard-response","176","308754","0.0-12.0-0.6","611eeafa283a2d1f57537fea","650c16f0f2faf8d7a0d14c09","651c34f424d8ffa677818919","null","null","<p style=""font-size: 60px; font-family: BACS"">vkYGlravu</p>","","","","","","","","","",""
"html-keyboard-response","177","309758","0.0-12.0-0.7","611eeafa283a2d1f57537fea","650c16f0f2faf8d7a0d14c09","651c34f424d8ffa677818919","null","null","<p style=""font-size: 60px; font-family: BACS"">LvuOGJcL</p>","","","","","","","","","",""
"html-keyboard-response","178","310778","0.0-12.0-0.8","611eeafa283a2d1f57537fea","650c16f0f2faf8d7a0d14c09","651c34f424d8ffa677818919","null","null","<p style=""font-size: 60px; font-family: BACS"">tmtEMRdCc</p>","","","","","","","","","",""
"html-keyboard-response","179","311797","0.0-12.0-0.9","611eeafa283a2d1f57537fea","650c16f0f2faf8d7a0d14c09","651c34f424d8ffa677818919","null","null","<p style=""font-size: 60px; font-family: BACS"">GabkvUdm</p>","","","","","","","","","",""
"html-keyboard-response","180","312801","0.0-12.0-0.10","611eeafa283a2d1f57537fea","650c16f0f2faf8d7a0d14c09","651c34f424d8ffa677818919","null","null","<p style=""font-size: 60px; font-family: BACS"">dRbDbYht</p>","","","","","","","","","",""
"html-keyboard-response","181","313809","0.0-12.0-0.11","611eeafa283a2d1f57537fea","650c16f0f2faf8d7a0d14c09","651c34f424d8ffa677818919","null","null","<p style=""font-size: 60px; font-family: BACS"">tmAKOdOP</p>","","","","","","","","","",""
"html-keyboard-response","182","314838","0.0-12.0-0.12","611eeafa283a2d1f57537fea","650c16f0f2faf8d7a0d14c09","651c34f424d8ffa677818919","null","null","<p style=""font-size: 60px; font-family: BACS"">GabkuUY</p>","","","","","","","","","",""
"html-keyboard-response","183","315855","0.0-12.0-0.13","611eeafa283a2d1f57537fea","650c16f0f2faf8d7a0d14c09","651c34f424d8ffa677818919","null","null","<p style=""font-size: 60px; font-family: BACS"">dRbDbdPc</p>","","","","","","","","","",""
"html-keyboard-response","184","316871","0.0-12.0-0.14","611eeafa283a2d1f57537fea","650c16f0f2faf8d7a0d14c09","651c34f424d8ffa677818919","null","null","<p style=""font-size: 60px; font-family: BACS"">YJkbvUdm</p>","","","","","","","","","",""
"html-keyboard-response","185","317889","0.0-12.0-0.15","611eeafa283a2d1f57537fea","650c16f0f2faf8d7a0d14c09","651c34f424d8ffa677818919","null","null","<p style=""font-size: 60px; font-family: BACS"">ALGZrkra</p>","","","","","","","","","",""
"html-keyboard-response","186","318918","0.0-12.0-0.16","611eeafa283a2d1f57537fea","650c16f0f2faf8d7a0d14c09","651c34f424d8ffa677818919","null","null","<p style=""font-size: 60px; font-family: BACS"">YOaAbuUY</p>","","","","","","","","","",""
"html-keyboard-response","187","319935","0.0-12.0-0.17","611eeafa283a2d1f57537fea","650c16f0f2faf8d7a0d14c09","651c34f424d8ffa677818919","null","null","<p style=""font-size: 60px; font-family: BACS"">vkYGlJcL</p>","","","","","","","","","",""
"html-keyboard-response","188","320956","0.0-12.0-0.18","611eeafa283a2d1f57537fea","650c16f0f2faf8d7a0d14c09","651c34f424d8ffa677818919","null","null","<p style=""font-size: 60px; font-family: BACS"">tmtEMYht</p>","","","","","","","","","",""
"html-keyboard-response","189","321979","0.0-12.0-0.19","611eeafa283a2d1f57537fea","650c16f0f2faf8d7a0d14c09","651c34f424d8ffa677818919","null","null","<p style=""font-size: 60px; font-family: BACS"">lhCTCOdOP</p>","","","","","","","","","",""
"html-keyboard-response","190","323015","0.0-12.0-0.20","611eeafa283a2d1f57537fea","650c16f0f2faf8d7a0d14c09","651c34f424d8ffa677818919","null","null","<p style=""font-size: 60px; font-family: BACS"">vkYGluUY</p>","","","","","","","","","",""
"html-keyboard-response","191","324039","0.0-12.0-0.21","611eeafa283a2d1f57537fea","650c16f0f2faf8d7a0d14c09","651c34f424d8ffa677818919","null","null","<p style=""font-size: 60px; font-family: BACS"">BbODOdOP</p>","","","","","","","","","",""
"html-keyboard-response","192","325049","0.0-12.0-0.22","611eeafa283a2d1f57537fea","650c16f0f2faf8d7a0d14c09","651c34f424d8ffa677818919","null","null","<p style=""font-size: 60px; font-family: BACS"">tmAKYht</p>","","","","","","","","","",""
"html-keyboard-response","193","326058","0.0-12.0-0.23","611eeafa283a2d1f57537fea","650c16f0f2faf8d7a0d14c09","651c34f424d8ffa677818919","null","null","<p style=""font-size: 60px; font-family: BACS"">AbKDOdOP</p>","","","","","","","","","",""
"html-keyboard-response","194","327069","0.0-12.0-0.24","611eeafa283a2d1f57537fea","650c16f0f2faf8d7a0d14c09","651c34f424d8ffa677818919","null","null","<p style=""font-size: 60px; font-family: BACS"">YJkbJcL</p>","","","","","","","","","",""
"html-keyboard-response","195","328075","0.0-12.0-0.25","611eeafa283a2d1f57537fea","650c16f0f2faf8d7a0d14c09","651c34f424d8ffa677818919","null","null","<p style=""font-size: 60px; font-family: BACS"">mhtcOdOP</p>","","","","","","","","","",""
"html-keyboard-response","196","329084","0.0-12.0-0.26","611eeafa283a2d1f57537fea","650c16f0f2faf8d7a0d14c09","651c34f424d8ffa677818919","null","null","<p style=""font-size: 60px; font-family: BACS"">LvuOGvUdm</p>","","","","","","","","","",""
"html-keyboard-response","197","330091","0.0-12.0-0.27","611eeafa283a2d1f57537fea","650c16f0f2faf8d7a0d14c09","651c34f424d8ffa677818919","null","null","<p style=""font-size: 60px; font-family: BACS"">NkUArkra</p>","","","","","","","","","",""
"html-keyboard-response","198","331099","0.0-12.0-0.28","611eeafa283a2d1f57537fea","650c16f0f2faf8d7a0d14c09","651c34f424d8ffa677818919","null","null","<p style=""font-size: 60px; font-family: BACS"">ALGZJcL</p>","","","","","","","","","",""
"html-keyboard-response","199","332106","0.0-12.0-0.29","611eeafa283a2d1f57537fea","650c16f0f2faf8d7a0d14c09","651c34f424d8ffa677818919","null","null","<p style=""font-size: 60px; font-family: BACS"">hkRKRdCc</p>","","","","","","","","","",""
"html-keyboard-response","200","333122","0.0-12.0-0.30","611eeafa283a2d1f57537fea","650c16f0f2faf8d7a0d14c09","651c34f424d8ffa677818919","null","null","<p style=""font-size: 60px; font-family: BACS"">GZJYravu</p>","","","","","","","","","",""
"html-keyboard-response","201","334142","0.0-12.0-0.31","611eeafa283a2d1f57537fea","650c16f0f2faf8d7a0d14c09","651c34f424d8ffa677818919","null","null","<p style=""font-size: 60px; font-family: BACS"">RKYkRdCc</p>","","","","","","","","","",""
"html-keyboard-response","202","335149","0.0-12.0-0.32","611eeafa283a2d1f57537fea","650c16f0f2faf8d7a0d14c09","651c34f424d8ffa677818919","null","null","<p style=""font-size: 60px; font-family: BACS"">dkLluUY</p>","","","","","","","","","",""
"html-keyboard-response","203","336168","0.0-12.0-0.33","611eeafa283a2d1f57537fea","650c16f0f2faf8d7a0d14c09","651c34f424d8ffa677818919","null","null","<p style=""font-size: 60px; font-family: BACS"">AbKDdPc</p>","","","","","","","","","",""
"html-keyboard-response","204","337177","0.0-12.0-0.34","611eeafa283a2d1f57537fea","650c16f0f2faf8d7a0d14c09","651c34f424d8ffa677818919","null","null","<p style=""font-size: 60px; font-family: BACS"">NbacArkra</p>","","","","","","","","","",""
"html-keyboard-response","205","338185","0.0-12.0-0.35","611eeafa283a2d1f57537fea","650c16f0f2faf8d7a0d14c09","651c34f424d8ffa677818919","null","null","<p style=""font-size: 60px; font-family: BACS"">DMRPOdOP</p>","","","","","","","","","",""
"html-keyboard-response","206","339196","0.0-12.0-0.36","611eeafa283a2d1f57537fea","650c16f0f2faf8d7a0d14c09","651c34f424d8ffa677818919","null","null","<p style=""font-size: 60px; font-family: BACS"">NkUAvUdm</p>","","","","","","","","","",""
"html-keyboard-response","207","340205","0.0-12.0-0.37","611eeafa283a2d1f57537fea","650c16f0f2faf8d7a0d14c09","651c34f424d8ffa677818919","null","null","<p style=""font-size: 60px; font-family: BACS"">BbODRdCc</p>","","","","","","","","","",""
"html-keyboard-response","208","341219","0.0-12.0-0.38","611eeafa283a2d1f57537fea","650c16f0f2faf8d7a0d14c09","651c34f424d8ffa677818919","null","null","<p style=""font-size: 60px; font-family: BACS"">GZJYuUY</p>","","","","","","","","","",""
"html-keyboard-response","209","342225","0.0-12.0-0.39","611eeafa283a2d1f57537fea","650c16f0f2faf8d7a0d14c09","651c34f424d8ffa677818919","null","null","<p style=""font-size: 60px; font-family: BACS"">YOaAbrkra</p>","","","","","","","","","",""
"html-keyboard-response","210","343238","0.0-12.0-0.40","611eeafa283a2d1f57537fea","650c16f0f2faf8d7a0d14c09","651c34f424d8ffa677818919","null","null","<p style=""font-size: 60px; font-family: BACS"">RKYkYht</p>","","","","","","","","","",""
"html-keyboard-response","211","344252","0.0-12.0-0.41","611eeafa283a2d1f57537fea","650c16f0f2faf8d7a0d14c09","651c34f424d8ffa677818919","null","null","<p style=""font-size: 60px; font-family: BACS"">hkRKBRDh</p>","","","","","","","","","",""
"html-keyboard-response","212","345259","0.0-12.0-0.42","611eeafa283a2d1f57537fea","650c16f0f2faf8d7a0d14c09","651c34f424d8ffa677818919","null","null","<p style=""font-size: 60px; font-family: BACS"">mhtcYht</p>","","","","","","","","","",""
"html-keyboard-response","213","346265","0.0-12.0-0.43","611eeafa283a2d1f57537fea","650c16f0f2faf8d7a0d14c09","651c34f424d8ffa677818919","null","null","<p style=""font-size: 60px; font-family: BACS"">RKYkdPc</p>","","","","","","","","","",""
"html-keyboard-response","214","347274","0.0-12.0-0.44","611eeafa283a2d1f57537fea","650c16f0f2faf8d7a0d14c09","651c34f424d8ffa677818919","null","null","<p style=""font-size: 60px; font-family: BACS"">tmtEMBRDh</p>","","","","","","","","","",""
"html-keyboard-response","215","348278","0.0-12.0-0.45","611eeafa283a2d1f57537fea","650c16f0f2faf8d7a0d14c09","651c34f424d8ffa677818919","null","null","<p style=""font-size: 60px; font-family: BACS"">NbacAJcL</p>","","","","","","","","","",""
"html-keyboard-response","216","349286","0.0-12.0-0.46","611eeafa283a2d1f57537fea","650c16f0f2faf8d7a0d14c09","651c34f424d8ffa677818919","null","null","<p style=""font-size: 60px; font-family: BACS"">GZJYvUdm</p>","","","","","","","","","",""
"html-keyboard-response","217","350294","0.0-12.0-0.47","611eeafa283a2d1f57537fea","650c16f0f2faf8d7a0d14c09","651c34f424d8ffa677818919","null","null","<p style=""font-size: 60px; font-family: BACS"">tmAKdPc</p>","","","","","","","","","",""
"html-keyboard-response","218","351305","0.0-12.0-0.48","611eeafa283a2d1f57537fea","650c16f0f2faf8d7a0d14c09","651c34f424d8ffa677818919","null","null","<p style=""font-size: 60px; font-family: BACS"">mhtcRdCc</p>","","","","","","","","","",""
"html-keyboard-response","219","352312","0.0-12.0-0.49","611eeafa283a2d1f57537fea","650c16f0f2faf8d7a0d14c09","651c34f424d8ffa677818919","null","null","<p style=""font-size: 60px; font-family: BACS"">hkRKYht</p>","","","","","","","","","",""
"html-keyboard-response","220","353322","0.0-12.0-0.50","611eeafa283a2d1f57537fea","650c16f0f2faf8d7a0d14c09","651c34f424d8ffa677818919","null","null","<p style=""font-size: 60px; font-family: BACS"">DMRPRdCc</p>","","","","","","","","","",""
"html-keyboard-response","221","354328","0.0-12.0-0.51","611eeafa283a2d1f57537fea","650c16f0f2faf8d7a0d14c09","651c34f424d8ffa677818919","null","null","<p style=""font-size: 60px; font-family: BACS"">dRbDbOdOP</p>","","","","","","","","","",""
"html-keyboard-response","222","355344","0.0-12.0-0.52","611eeafa283a2d1f57537fea","650c16f0f2faf8d7a0d14c09","651c34f424d8ffa677818919","null","null","<p style=""font-size: 60px; font-family: BACS"">LvuOGuUY</p>","","","","","","","","","",""
"html-keyboard-response","223","356382","0.0-12.0-0.53","611eeafa283a2d1f57537fea","650c16f0f2faf8d7a0d14c09","651c34f424d8ffa677818919","null","null","<p style=""font-size: 60px; font-family: BACS"">BbODBRDh</p>","","","","","","","","","",""
"html-keyboard-response","224","357402","0.0-12.0-0.54","611eeafa283a2d1f57537fea","650c16f0f2faf8d7a0d14c09","651c34f424d8ffa677818919","null","null","<p style=""font-size: 60px; font-family: BACS"">dRbDbRdCc</p>","","","","","","","","","",""
"html-keyboard-response","225","358421","0.0-12.0-0.55","611eeafa283a2d1f57537fea","650c16f0f2faf8d7a0d14c09","651c34f424d8ffa677818919","null","null","<p style=""font-size: 60px; font-family: BACS"">hkRKdPc</p>","","","","","","","","","",""
"html-keyboard-response","226","359440","0.0-12.0-0.56","611eeafa283a2d1f57537fea","650c16f0f2faf8d7a0d14c09","651c34f424d8ffa677818919","null","null","<p style=""font-size: 60px; font-family: BACS"">tmAKBRDh</p>","","","","","","","","","",""
"html-keyboard-response","227","360459","0.0-12.0-0.57","611eeafa283a2d1f57537fea","650c16f0f2faf8d7a0d14c09","651c34f424d8ffa677818919","null","null","<p style=""font-size: 60px; font-family: BACS"">LvuOGrkra</p>","","","","","","","","","",""
"html-keyboard-response","228","361483","0.0-12.0-0.58","611eeafa283a2d1f57537fea","650c16f0f2faf8d7a0d14c09","651c34f424d8ffa677818919","null","null","<p style=""font-size: 60px; font-family: BACS"">tmtEMdPc</p>","","","","","","","","","",""
"html-keyboard-response","229","362497","0.0-12.0-0.59","611eeafa283a2d1f57537fea","650c16f0f2faf8d7a0d14c09","651c34f424d8ffa677818919","null","null","<p style=""font-size: 60px; font-family: BACS"">Gabkravu</p>","","","","","","","","","",""
"html-keyboard-response","230","363515","0.0-12.0-0.60","611eeafa283a2d1f57537fea","650c16f0f2faf8d7a0d14c09","651c34f424d8ffa677818919","null","null","<p style=""font-size: 60px; font-family: BACS"">dkLlvUdm</p>","","","","","","","","","",""
"html-keyboard-response","231","364544","0.0-12.0-0.61","611eeafa283a2d1f57537fea","650c16f0f2faf8d7a0d14c09","651c34f424d8ffa677818919","null","null","<p style=""font-size: 60px; font-family: BACS"">BbODYht</p>","","","","","","","","","",""
"html-keyboard-response","232","365567","0.0-12.0-0.62","611eeafa283a2d1f57537fea","650c16f0f2faf8d7a0d14c09","651c34f424d8ffa677818919","null","null","<p style=""font-size: 60px; font-family: BACS"">NkUAuUY</p>","","","","","","","","","",""
"html-keyboard-response","233","366587","0.0-12.0-0.63","611eeafa283a2d1f57537fea","650c16f0f2faf8d7a0d14c09","651c34f424d8ffa677818919","null","null","<p style=""font-size: 60px; font-family: BACS"">lhCTCRdCc</p>","","","","","","","","","",""
"html-keyboard-response","234","367600","0.0-12.0-0.64","611eeafa283a2d1f57537fea","650c16f0f2faf8d7a0d14c09","651c34f424d8ffa677818919","null","null","<p style=""font-size: 60px; font-family: BACS"">NbacAravu</p>","","","","","","","","","",""
"html-keyboard-response","235","368614","0.0-12.0-0.65","611eeafa283a2d1f57537fea","650c16f0f2faf8d7a0d14c09","651c34f424d8ffa677818919","null","null","<p style=""font-size: 60px; font-family: BACS"">dkLlrkra</p>","","","","","","","","","",""
"html-keyboard-response","236","369624","0.0-12.0-0.66","611eeafa283a2d1f57537fea","650c16f0f2faf8d7a0d14c09","651c34f424d8ffa677818919","null","null","<p style=""font-size: 60px; font-family: BACS"">ALGZravu</p>","","","","","","","","","",""
"html-keyboard-response","237","370629","0.0-12.0-0.67","611eeafa283a2d1f57537fea","650c16f0f2faf8d7a0d14c09","651c34f424d8ffa677818919","null","null","<p style=""font-size: 60px; font-family: BACS"">GZJYrkra</p>","","","","","","","","","",""
"html-keyboard-response","238","371645","0.0-12.0-0.68","611eeafa283a2d1f57537fea","650c16f0f2faf8d7a0d14c09","651c34f424d8ffa677818919","null","null","<p style=""font-size: 60px; font-family: BACS"">dkLlJcL</p>","","","","","","","","","",""
"html-keyboard-response","239","372652","0.0-12.0-0.69","611eeafa283a2d1f57537fea","650c16f0f2faf8d7a0d14c09","651c34f424d8ffa677818919","null","null","<p style=""font-size: 60px; font-family: BACS"">lhCTCdPc</p>","","","","","","","","","",""
"html-keyboard-response","240","373661","0.0-12.0-0.70","611eeafa283a2d1f57537fea","650c16f0f2faf8d7a0d14c09","651c34f424d8ffa677818919","null","null","<p style=""font-size: 60px; font-family: BACS"">GabkJcL</p>","","","","","","","","","",""
"html-keyboard-response","241","374672","0.0-12.0-0.71","611eeafa283a2d1f57537fea","650c16f0f2faf8d7a0d14c09","651c34f424d8ffa677818919","null","null","<p style=""font-size: 60px; font-family: BACS"">YJkbuUY</p>","","","","","","","","","",""
"html-keyboard-response","242","375679","0.0-12.0-0.72","611eeafa283a2d1f57537fea","650c16f0f2faf8d7a0d14c09","651c34f424d8ffa677818919","null","null","<p style=""font-size: 60px; font-family: BACS"">RKYkOdOP</p>","","","","","","","","","",""
"html-keyboard-response","243","376698","0.0-12.0-0.73","611eeafa283a2d1f57537fea","650c16f0f2faf8d7a0d14c09","651c34f424d8ffa677818919","null","null","<p style=""font-size: 60px; font-family: BACS"">lhCTCBRDh</p>","","","","","","","","","",""
"html-keyboard-response","244","377708","0.0-12.0-0.74","611eeafa283a2d1f57537fea","650c16f0f2faf8d7a0d14c09","651c34f424d8ffa677818919","null","null","<p style=""font-size: 60px; font-family: BACS"">DMRPdPc</p>","","","","","","","","","",""
"html-keyboard-response","245","378729","0.0-12.0-0.75","611eeafa283a2d1f57537fea","650c16f0f2faf8d7a0d14c09","651c34f424d8ffa677818919","null","null","<p style=""font-size: 60px; font-family: BACS"">mhtcBRDh</p>","","","","","","","","","",""
"html-keyboard-response","246","379734","0.0-12.0-0.76","611eeafa283a2d1f57537fea","650c16f0f2faf8d7a0d14c09","651c34f424d8ffa677818919","null","null","<p style=""font-size: 60px; font-family: BACS"">NkUAravu</p>","","","","","","","","","",""
"html-keyboard-response","247","380744","0.0-12.0-0.77","611eeafa283a2d1f57537fea","650c16f0f2faf8d7a0d14c09","651c34f424d8ffa677818919","null","null","<p style=""font-size: 60px; font-family: BACS"">ALGZvUdm</p>","","","","","","","","","",""
"html-keyboard-response","248","381751","0.0-12.0-0.78","611eeafa283a2d1f57537fea","650c16f0f2faf8d7a0d14c09","651c34f424d8ffa677818919","null","null","<p style=""font-size: 60px; font-family: BACS"">YOaAbJcL</p>","","","","","","","","","",""
"html-keyboard-response","249","382763","0.0-12.0-0.79","611eeafa283a2d1f57537fea","650c16f0f2faf8d7a0d14c09","651c34f424d8ffa677818919","null","null","<p style=""font-size: 60px; font-family: BACS"">YJkbravu</p>","","","","","","","","","",""
"html-keyboard-response","250","390591","0.0-13.0","611eeafa283a2d1f57537fea","650c16f0f2faf8d7a0d14c09","651c34f424d8ffa677818919","7825"," ","<p>Great, you've seen the third block of words. You may now take a short break.</p>
      <p>Press the spacebar when you're ready to continue.</p>","","","","","","","","","",""
"html-keyboard-response","251","391606","0.0-14.0-0.0","611eeafa283a2d1f57537fea","650c16f0f2faf8d7a0d14c09","651c34f424d8ffa677818919","null","null","<p style=""font-size: 60px; font-family: BACS"">YOaAbuUY</p>","","","","","","","","","",""
"html-keyboard-response","252","392613","0.0-14.0-0.1","611eeafa283a2d1f57537fea","650c16f0f2faf8d7a0d14c09","651c34f424d8ffa677818919","null","null","<p style=""font-size: 60px; font-family: BACS"">DMRPdPc</p>","","","","","","","","","",""
"html-keyboard-response","253","393623","0.0-14.0-0.2","611eeafa283a2d1f57537fea","650c16f0f2faf8d7a0d14c09","651c34f424d8ffa677818919","null","null","<p style=""font-size: 60px; font-family: BACS"">tmtEMBRDh</p>","","","","","","","","","",""
"html-keyboard-response","254","394634","0.0-14.0-0.3","611eeafa283a2d1f57537fea","650c16f0f2faf8d7a0d14c09","651c34f424d8ffa677818919","null","null","<p style=""font-size: 60px; font-family: BACS"">dkLlrkra</p>","","","","","","","","","",""
"html-keyboard-response","255","395640","0.0-14.0-0.4","611eeafa283a2d1f57537fea","650c16f0f2faf8d7a0d14c09","651c34f424d8ffa677818919","null","null","<p style=""font-size: 60px; font-family: BACS"">YJkbuUY</p>","","","","","","","","","",""
"html-keyboard-response","256","396651","0.0-14.0-0.5","611eeafa283a2d1f57537fea","650c16f0f2faf8d7a0d14c09","651c34f424d8ffa677818919","null","null","<p style=""font-size: 60px; font-family: BACS"">mhtcYht</p>","","","","","","","","","",""
"html-keyboard-response","257","397656","0.0-14.0-0.6","611eeafa283a2d1f57537fea","650c16f0f2faf8d7a0d14c09","651c34f424d8ffa677818919","null","null","<p style=""font-size: 60px; font-family: BACS"">lhCTCOdOP</p>","","","","","","","","","",""
"html-keyboard-response","258","398664","0.0-14.0-0.7","611eeafa283a2d1f57537fea","650c16f0f2faf8d7a0d14c09","651c34f424d8ffa677818919","null","null","<p style=""font-size: 60px; font-family: BACS"">BbODRdCc</p>","","","","","","","","","",""
"html-keyboard-response","259","399671","0.0-14.0-0.8","611eeafa283a2d1f57537fea","650c16f0f2faf8d7a0d14c09","651c34f424d8ffa677818919","null","null","<p style=""font-size: 60px; font-family: BACS"">AbKDYht</p>","","","","","","","","","",""
"html-keyboard-response","260","400679","0.0-14.0-0.9","611eeafa283a2d1f57537fea","650c16f0f2faf8d7a0d14c09","651c34f424d8ffa677818919","null","null","<p style=""font-size: 60px; font-family: BACS"">hkRKdPc</p>","","","","","","","","","",""
"html-keyboard-response","261","401691","0.0-14.0-0.10","611eeafa283a2d1f57537fea","650c16f0f2faf8d7a0d14c09","651c34f424d8ffa677818919","null","null","<p style=""font-size: 60px; font-family: BACS"">lhCTCRdCc</p>","","","","","","","","","",""
"html-keyboard-response","262","402701","0.0-14.0-0.11","611eeafa283a2d1f57537fea","650c16f0f2faf8d7a0d14c09","651c34f424d8ffa677818919","null","null","<p style=""font-size: 60px; font-family: BACS"">tmAKYht</p>","","","","","","","","","",""
"html-keyboard-response","263","403709","0.0-14.0-0.12","611eeafa283a2d1f57537fea","650c16f0f2faf8d7a0d14c09","651c34f424d8ffa677818919","null","null","<p style=""font-size: 60px; font-family: BACS"">ALGZvUdm</p>","","","","","","","","","",""
"html-keyboard-response","264","404730","0.0-14.0-0.13","611eeafa283a2d1f57537fea","650c16f0f2faf8d7a0d14c09","651c34f424d8ffa677818919","null","null","<p style=""font-size: 60px; font-family: BACS"">AbKDBRDh</p>","","","","","","","","","",""
"html-keyboard-response","265","405741","0.0-14.0-0.14","611eeafa283a2d1f57537fea","650c16f0f2faf8d7a0d14c09","651c34f424d8ffa677818919","null","null","<p style=""font-size: 60px; font-family: BACS"">NkUAravu</p>","","","","","","","","","",""
"html-keyboard-response","266","406749","0.0-14.0-0.15","611eeafa283a2d1f57537fea","650c16f0f2faf8d7a0d14c09","651c34f424d8ffa677818919","null","null","<p style=""font-size: 60px; font-family: BACS"">GabkuUY</p>","","","","","","","","","",""
"html-keyboard-response","267","407760","0.0-14.0-0.16","611eeafa283a2d1f57537fea","650c16f0f2faf8d7a0d14c09","651c34f424d8ffa677818919","null","null","<p style=""font-size: 60px; font-family: BACS"">hkRKBRDh</p>","","","","","","","","","",""
"html-keyboard-response","268","408765","0.0-14.0-0.17","611eeafa283a2d1f57537fea","650c16f0f2faf8d7a0d14c09","651c34f424d8ffa677818919","null","null","<p style=""font-size: 60px; font-family: BACS"">DMRPRdCc</p>","","","","","","","","","",""
"html-keyboard-response","269","409774","0.0-14.0-0.18","611eeafa283a2d1f57537fea","650c16f0f2faf8d7a0d14c09","651c34f424d8ffa677818919","null","null","<p style=""font-size: 60px; font-family: BACS"">dkLlvUdm</p>","","","","","","","","","",""
"html-keyboard-response","270","410792","0.0-14.0-0.19","611eeafa283a2d1f57537fea","650c16f0f2faf8d7a0d14c09","651c34f424d8ffa677818919","null","null","<p style=""font-size: 60px; font-family: BACS"">tmAKBRDh</p>","","","","","","","","","",""
"html-keyboard-response","271","411815","0.0-14.0-0.20","611eeafa283a2d1f57537fea","650c16f0f2faf8d7a0d14c09","651c34f424d8ffa677818919","null","null","<p style=""font-size: 60px; font-family: BACS"">NbacArkra</p>","","","","","","","","","",""
"html-keyboard-response","272","412825","0.0-14.0-0.21","611eeafa283a2d1f57537fea","650c16f0f2faf8d7a0d14c09","651c34f424d8ffa677818919","null","null","<p style=""font-size: 60px; font-family: BACS"">lhCTCBRDh</p>","","","","","","","","","",""
"html-keyboard-response","273","413842","0.0-14.0-0.22","611eeafa283a2d1f57537fea","650c16f0f2faf8d7a0d14c09","651c34f424d8ffa677818919","null","null","<p style=""font-size: 60px; font-family: BACS"">LvuOGrkra</p>","","","","","","","","","",""
"html-keyboard-response","274","414855","0.0-14.0-0.23","611eeafa283a2d1f57537fea","650c16f0f2faf8d7a0d14c09","651c34f424d8ffa677818919","null","null","<p style=""font-size: 60px; font-family: BACS"">BbODOdOP</p>","","","","","","","","","",""
"html-keyboard-response","275","415864","0.0-14.0-0.24","611eeafa283a2d1f57537fea","650c16f0f2faf8d7a0d14c09","651c34f424d8ffa677818919","null","null","<p style=""font-size: 60px; font-family: BACS"">NkUAvUdm</p>","","","","","","","","","",""
"html-keyboard-response","276","416874","0.0-14.0-0.25","611eeafa283a2d1f57537fea","650c16f0f2faf8d7a0d14c09","651c34f424d8ffa677818919","null","null","<p style=""font-size: 60px; font-family: BACS"">ALGZrkra</p>","","","","","","","","","",""
"html-keyboard-response","277","417887","0.0-14.0-0.26","611eeafa283a2d1f57537fea","650c16f0f2faf8d7a0d14c09","651c34f424d8ffa677818919","null","null","<p style=""font-size: 60px; font-family: BACS"">Gabkravu</p>","","","","","","","","","",""
"html-keyboard-response","278","418904","0.0-14.0-0.27","611eeafa283a2d1f57537fea","650c16f0f2faf8d7a0d14c09","651c34f424d8ffa677818919","null","null","<p style=""font-size: 60px; font-family: BACS"">LvuOGJcL</p>","","","","","","","","","",""
"html-keyboard-response","279","419906","0.0-14.0-0.28","611eeafa283a2d1f57537fea","650c16f0f2faf8d7a0d14c09","651c34f424d8ffa677818919","null","null","<p style=""font-size: 60px; font-family: BACS"">GZJYravu</p>","","","","","","","","","",""
"html-keyboard-response","280","420913","0.0-14.0-0.29","611eeafa283a2d1f57537fea","650c16f0f2faf8d7a0d14c09","651c34f424d8ffa677818919","null","null","<p style=""font-size: 60px; font-family: BACS"">GabkvUdm</p>","","","","","","","","","",""
"html-keyboard-response","281","421926","0.0-14.0-0.30","611eeafa283a2d1f57537fea","650c16f0f2faf8d7a0d14c09","651c34f424d8ffa677818919","null","null","<p style=""font-size: 60px; font-family: BACS"">vkYGlJcL</p>","","","","","","","","","",""
"html-keyboard-response","282","422952","0.0-14.0-0.31","611eeafa283a2d1f57537fea","650c16f0f2faf8d7a0d14c09","651c34f424d8ffa677818919","null","null","<p style=""font-size: 60px; font-family: BACS"">tmAKdPc</p>","","","","","","","","","",""
"html-keyboard-response","283","423965","0.0-14.0-0.32","611eeafa283a2d1f57537fea","650c16f0f2faf8d7a0d14c09","651c34f424d8ffa677818919","null","null","<p style=""font-size: 60px; font-family: BACS"">dRbDbRdCc</p>","","","","","","","","","",""
"html-keyboard-response","284","424997","0.0-14.0-0.33","611eeafa283a2d1f57537fea","650c16f0f2faf8d7a0d14c09","651c34f424d8ffa677818919","null","null","<p style=""font-size: 60px; font-family: BACS"">GZJYvUdm</p>","","","","","","","","","",""
"html-keyboard-response","285","426005","0.0-14.0-0.34","611eeafa283a2d1f57537fea","650c16f0f2faf8d7a0d14c09","651c34f424d8ffa677818919","null","null","<p style=""font-size: 60px; font-family: BACS"">RKYkRdCc</p>","","","","","","","","","",""
"html-keyboard-response","286","427036","0.0-14.0-0.35","611eeafa283a2d1f57537fea","650c16f0f2faf8d7a0d14c09","651c34f424d8ffa677818919","null","null","<p style=""font-size: 60px; font-family: BACS"">vkYGlrkra</p>","","","","","","","","","",""
"html-keyboard-response","287","428059","0.0-14.0-0.36","611eeafa283a2d1f57537fea","650c16f0f2faf8d7a0d14c09","651c34f424d8ffa677818919","null","null","<p style=""font-size: 60px; font-family: BACS"">dkLlJcL</p>","","","","","","","","","",""
"html-keyboard-response","288","429104","0.0-14.0-0.37","611eeafa283a2d1f57537fea","650c16f0f2faf8d7a0d14c09","651c34f424d8ffa677818919","null","null","<p style=""font-size: 60px; font-family: BACS"">hkRKYht</p>","","","","","","","","","",""
"html-keyboard-response","289","430119","0.0-14.0-0.38","611eeafa283a2d1f57537fea","650c16f0f2faf8d7a0d14c09","651c34f424d8ffa677818919","null","null","<p style=""font-size: 60px; font-family: BACS"">RKYkdPc</p>","","","","","","","","","",""
"html-keyboard-response","290","431137","0.0-14.0-0.39","611eeafa283a2d1f57537fea","650c16f0f2faf8d7a0d14c09","651c34f424d8ffa677818919","null","null","<p style=""font-size: 60px; font-family: BACS"">BbODYht</p>","","","","","","","","","",""
"html-keyboard-response","291","432168","0.0-14.0-0.40","611eeafa283a2d1f57537fea","650c16f0f2faf8d7a0d14c09","651c34f424d8ffa677818919","null","null","<p style=""font-size: 60px; font-family: BACS"">lhCTCdPc</p>","","","","","","","","","",""
"html-keyboard-response","292","433175","0.0-14.0-0.41","611eeafa283a2d1f57537fea","650c16f0f2faf8d7a0d14c09","651c34f424d8ffa677818919","null","null","<p style=""font-size: 60px; font-family: BACS"">dRbDbOdOP</p>","","","","","","","","","",""
"html-keyboard-response","293","434182","0.0-14.0-0.42","611eeafa283a2d1f57537fea","650c16f0f2faf8d7a0d14c09","651c34f424d8ffa677818919","null","null","<p style=""font-size: 60px; font-family: BACS"">tmtEMdPc</p>","","","","","","","","","",""
"html-keyboard-response","294","435188","0.0-14.0-0.43","611eeafa283a2d1f57537fea","650c16f0f2faf8d7a0d14c09","651c34f424d8ffa677818919","null","null","<p style=""font-size: 60px; font-family: BACS"">YJkbravu</p>","","","","","","","","","",""
"html-keyboard-response","295","436197","0.0-14.0-0.44","611eeafa283a2d1f57537fea","650c16f0f2faf8d7a0d14c09","651c34f424d8ffa677818919","null","null","<p style=""font-size: 60px; font-family: BACS"">NkUAuUY</p>","","","","","","","","","",""
"html-keyboard-response","296","437216","0.0-14.0-0.45","611eeafa283a2d1f57537fea","650c16f0f2faf8d7a0d14c09","651c34f424d8ffa677818919","null","null","<p style=""font-size: 60px; font-family: BACS"">ALGZravu</p>","","","","","","","","","",""
"html-keyboard-response","297","438224","0.0-14.0-0.46","611eeafa283a2d1f57537fea","650c16f0f2faf8d7a0d14c09","651c34f424d8ffa677818919","null","null","<p style=""font-size: 60px; font-family: BACS"">tmtEMRdCc</p>","","","","","","","","","",""
"html-keyboard-response","298","439239","0.0-14.0-0.47","611eeafa283a2d1f57537fea","650c16f0f2faf8d7a0d14c09","651c34f424d8ffa677818919","null","null","<p style=""font-size: 60px; font-family: BACS"">GZJYrkra</p>","","","","","","","","","",""
"html-keyboard-response","299","440245","0.0-14.0-0.48","611eeafa283a2d1f57537fea","650c16f0f2faf8d7a0d14c09","651c34f424d8ffa677818919","null","null","<p style=""font-size: 60px; font-family: BACS"">RKYkYht</p>","","","","","","","","","",""
"html-keyboard-response","300","441265","0.0-14.0-0.49","611eeafa283a2d1f57537fea","650c16f0f2faf8d7a0d14c09","651c34f424d8ffa677818919","null","null","<p style=""font-size: 60px; font-family: BACS"">dkLluUY</p>","","","","","","","","","",""
"html-keyboard-response","301","442268","0.0-14.0-0.50","611eeafa283a2d1f57537fea","650c16f0f2faf8d7a0d14c09","651c34f424d8ffa677818919","null","null","<p style=""font-size: 60px; font-family: BACS"">tmtEMYht</p>","","","","","","","","","",""
"html-keyboard-response","302","443274","0.0-14.0-0.51","611eeafa283a2d1f57537fea","650c16f0f2faf8d7a0d14c09","651c34f424d8ffa677818919","null","null","<p style=""font-size: 60px; font-family: BACS"">LvuOGvUdm</p>","","","","","","","","","",""
"html-keyboard-response","303","444289","0.0-14.0-0.52","611eeafa283a2d1f57537fea","650c16f0f2faf8d7a0d14c09","651c34f424d8ffa677818919","null","null","<p style=""font-size: 60px; font-family: BACS"">NbacAravu</p>","","","","","","","","","",""
"html-keyboard-response","304","445308","0.0-14.0-0.53","611eeafa283a2d1f57537fea","650c16f0f2faf8d7a0d14c09","651c34f424d8ffa677818919","null","null","<p style=""font-size: 60px; font-family: BACS"">hkRKRdCc</p>","","","","","","","","","",""
"html-keyboard-response","305","446325","0.0-14.0-0.54","611eeafa283a2d1f57537fea","650c16f0f2faf8d7a0d14c09","651c34f424d8ffa677818919","null","null","<p style=""font-size: 60px; font-family: BACS"">GZJYuUY</p>","","","","","","","","","",""
"html-keyboard-response","306","447332","0.0-14.0-0.55","611eeafa283a2d1f57537fea","650c16f0f2faf8d7a0d14c09","651c34f424d8ffa677818919","null","null","<p style=""font-size: 60px; font-family: BACS"">vkYGlravu</p>","","","","","","","","","",""
"html-keyboard-response","307","448341","0.0-14.0-0.56","611eeafa283a2d1f57537fea","650c16f0f2faf8d7a0d14c09","651c34f424d8ffa677818919","null","null","<p style=""font-size: 60px; font-family: BACS"">ALGZJcL</p>","","","","","","","","","",""
"html-keyboard-response","308","449359","0.0-14.0-0.57","611eeafa283a2d1f57537fea","650c16f0f2faf8d7a0d14c09","651c34f424d8ffa677818919","null","null","<p style=""font-size: 60px; font-family: BACS"">LvuOGuUY</p>","","","","","","","","","",""
"html-keyboard-response","309","450376","0.0-14.0-0.58","611eeafa283a2d1f57537fea","650c16f0f2faf8d7a0d14c09","651c34f424d8ffa677818919","null","null","<p style=""font-size: 60px; font-family: BACS"">YOaAbrkra</p>","","","","","","","","","",""
"html-keyboard-response","310","451391","0.0-14.0-0.59","611eeafa283a2d1f57537fea","650c16f0f2faf8d7a0d14c09","651c34f424d8ffa677818919","null","null","<p style=""font-size: 60px; font-family: BACS"">NbacAvUdm</p>","","","","","","","","","",""
"html-keyboard-response","311","452395","0.0-14.0-0.60","611eeafa283a2d1f57537fea","650c16f0f2faf8d7a0d14c09","651c34f424d8ffa677818919","null","null","<p style=""font-size: 60px; font-family: BACS"">tmAKOdOP</p>","","","","","","","","","",""
"html-keyboard-response","312","453407","0.0-14.0-0.61","611eeafa283a2d1f57537fea","650c16f0f2faf8d7a0d14c09","651c34f424d8ffa677818919","null","null","<p style=""font-size: 60px; font-family: BACS"">DMRPBRDh</p>","","","","","","","","","",""
"html-keyboard-response","313","454414","0.0-14.0-0.62","611eeafa283a2d1f57537fea","650c16f0f2faf8d7a0d14c09","651c34f424d8ffa677818919","null","null","<p style=""font-size: 60px; font-family: BACS"">YJkbJcL</p>","","","","","","","","","",""
"html-keyboard-response","314","455421","0.0-14.0-0.63","611eeafa283a2d1f57537fea","650c16f0f2faf8d7a0d14c09","651c34f424d8ffa677818919","null","null","<p style=""font-size: 60px; font-family: BACS"">mhtcBRDh</p>","","","","","","","","","",""
"html-keyboard-response","315","456427","0.0-14.0-0.64","611eeafa283a2d1f57537fea","650c16f0f2faf8d7a0d14c09","651c34f424d8ffa677818919","null","null","<p style=""font-size: 60px; font-family: BACS"">NkUArkra</p>","","","","","","","","","",""
"html-keyboard-response","316","457440","0.0-14.0-0.65","611eeafa283a2d1f57537fea","650c16f0f2faf8d7a0d14c09","651c34f424d8ffa677818919","null","null","<p style=""font-size: 60px; font-family: BACS"">dRbDbYht</p>","","","","","","","","","",""
"html-keyboard-response","317","458444","0.0-14.0-0.66","611eeafa283a2d1f57537fea","650c16f0f2faf8d7a0d14c09","651c34f424d8ffa677818919","null","null","<p style=""font-size: 60px; font-family: BACS"">mhtcRdCc</p>","","","","","","","","","",""
"html-keyboard-response","318","459466","0.0-14.0-0.67","611eeafa283a2d1f57537fea","650c16f0f2faf8d7a0d14c09","651c34f424d8ffa677818919","null","null","<p style=""font-size: 60px; font-family: BACS"">YOaAbravu</p>","","","","","","","","","",""
"html-keyboard-response","319","460470","0.0-14.0-0.68","611eeafa283a2d1f57537fea","650c16f0f2faf8d7a0d14c09","651c34f424d8ffa677818919","null","null","<p style=""font-size: 60px; font-family: BACS"">mhtcOdOP</p>","","","","","","","","","",""
"html-keyboard-response","320","461492","0.0-14.0-0.69","611eeafa283a2d1f57537fea","650c16f0f2faf8d7a0d14c09","651c34f424d8ffa677818919","null","null","<p style=""font-size: 60px; font-family: BACS"">GabkJcL</p>","","","","","","","","","",""
"html-keyboard-response","321","462498","0.0-14.0-0.70","611eeafa283a2d1f57537fea","650c16f0f2faf8d7a0d14c09","651c34f424d8ffa677818919","null","null","<p style=""font-size: 60px; font-family: BACS"">RKYkOdOP</p>","","","","","","","","","",""
"html-keyboard-response","322","463506","0.0-14.0-0.71","611eeafa283a2d1f57537fea","650c16f0f2faf8d7a0d14c09","651c34f424d8ffa677818919","null","null","<p style=""font-size: 60px; font-family: BACS"">YOaAbJcL</p>","","","","","","","","","",""
"html-keyboard-response","323","464515","0.0-14.0-0.72","611eeafa283a2d1f57537fea","650c16f0f2faf8d7a0d14c09","651c34f424d8ffa677818919","null","null","<p style=""font-size: 60px; font-family: BACS"">AbKDdPc</p>","","","","","","","","","",""
"html-keyboard-response","324","465525","0.0-14.0-0.73","611eeafa283a2d1f57537fea","650c16f0f2faf8d7a0d14c09","651c34f424d8ffa677818919","null","null","<p style=""font-size: 60px; font-family: BACS"">YJkbvUdm</p>","","","","","","","","","",""
"html-keyboard-response","325","466533","0.0-14.0-0.74","611eeafa283a2d1f57537fea","650c16f0f2faf8d7a0d14c09","651c34f424d8ffa677818919","null","null","<p style=""font-size: 60px; font-family: BACS"">vkYGluUY</p>","","","","","","","","","",""
"html-keyboard-response","326","467540","0.0-14.0-0.75","611eeafa283a2d1f57537fea","650c16f0f2faf8d7a0d14c09","651c34f424d8ffa677818919","null","null","<p style=""font-size: 60px; font-family: BACS"">AbKDOdOP</p>","","","","","","","","","",""
"html-keyboard-response","327","468545","0.0-14.0-0.76","611eeafa283a2d1f57537fea","650c16f0f2faf8d7a0d14c09","651c34f424d8ffa677818919","null","null","<p style=""font-size: 60px; font-family: BACS"">NbacAJcL</p>","","","","","","","","","",""
"html-keyboard-response","328","469554","0.0-14.0-0.77","611eeafa283a2d1f57537fea","650c16f0f2faf8d7a0d14c09","651c34f424d8ffa677818919","null","null","<p style=""font-size: 60px; font-family: BACS"">dRbDbdPc</p>","","","","","","","","","",""
"html-keyboard-response","329","470564","0.0-14.0-0.78","611eeafa283a2d1f57537fea","650c16f0f2faf8d7a0d14c09","651c34f424d8ffa677818919","null","null","<p style=""font-size: 60px; font-family: BACS"">BbODBRDh</p>","","","","","","","","","",""
"html-keyboard-response","330","471574","0.0-14.0-0.79","611eeafa283a2d1f57537fea","650c16f0f2faf8d7a0d14c09","651c34f424d8ffa677818919","null","null","<p style=""font-size: 60px; font-family: BACS"">DMRPOdOP</p>","","","","","","","","","",""
"html-keyboard-response","331","491200","0.0-15.0","611eeafa283a2d1f57537fea","650c16f0f2faf8d7a0d14c09","651c34f424d8ffa677818919","19624"," ","<p>Great, you've seen the fourth block of words. You may now take a short break.</p>
      <p>Press the spacebar when you're ready to continue.</p>","","","","","","","","","",""
"html-keyboard-response","332","492207","0.0-16.0-0.0","611eeafa283a2d1f57537fea","650c16f0f2faf8d7a0d14c09","651c34f424d8ffa677818919","null","null","<p style=""font-size: 60px; font-family: BACS"">GZJYuUY</p>","","","","","","","","","",""
"html-keyboard-response","333","493215","0.0-16.0-0.1","611eeafa283a2d1f57537fea","650c16f0f2faf8d7a0d14c09","651c34f424d8ffa677818919","null","null","<p style=""font-size: 60px; font-family: BACS"">GZJYuUY</p>","","","","","","","","","",""
"html-keyboard-response","334","494221","0.0-16.0-0.2","611eeafa283a2d1f57537fea","650c16f0f2faf8d7a0d14c09","651c34f424d8ffa677818919","null","null","<p style=""font-size: 60px; font-family: BACS"">GZJYuUY</p>","","","","","","","","","",""
"html-keyboard-response","335","495232","0.0-16.0-0.3","611eeafa283a2d1f57537fea","650c16f0f2faf8d7a0d14c09","651c34f424d8ffa677818919","null","null","<p style=""font-size: 60px; font-family: BACS"">GZJYuUY</p>","","","","","","","","","",""
"html-keyboard-response","336","496240","0.0-16.0-0.4","611eeafa283a2d1f57537fea","650c16f0f2faf8d7a0d14c09","651c34f424d8ffa677818919","null","null","<p style=""font-size: 60px; font-family: BACS"">GZJYuUY</p>","","","","","","","","","",""
"html-keyboard-response","337","497247","0.0-16.0-0.5","611eeafa283a2d1f57537fea","650c16f0f2faf8d7a0d14c09","651c34f424d8ffa677818919","null","null","<p style=""font-size: 60px; font-family: BACS"">GZJYuUY</p>","","","","","","","","","",""
"html-keyboard-response","338","498256","0.0-16.0-0.6","611eeafa283a2d1f57537fea","650c16f0f2faf8d7a0d14c09","651c34f424d8ffa677818919","null","null","<p style=""font-size: 60px; font-family: BACS"">GZJYuUY</p>","","","","","","","","","",""
"html-keyboard-response","339","499268","0.0-16.0-0.7","611eeafa283a2d1f57537fea","650c16f0f2faf8d7a0d14c09","651c34f424d8ffa677818919","null","null","<p style=""font-size: 60px; font-family: BACS"">GZJYuUY</p>","","","","","","","","","",""
"html-keyboard-response","340","500279","0.0-16.0-0.8","611eeafa283a2d1f57537fea","650c16f0f2faf8d7a0d14c09","651c34f424d8ffa677818919","null","null","<p style=""font-size: 60px; font-family: BACS"">GZJYuUY</p>","","","","","","","","","",""
"html-keyboard-response","341","501290","0.0-16.0-0.9","611eeafa283a2d1f57537fea","650c16f0f2faf8d7a0d14c09","651c34f424d8ffa677818919","null","null","<p style=""font-size: 60px; font-family: BACS"">GZJYuUY</p>","","","","","","","","","",""
"html-keyboard-response","342","502302","0.0-16.0-0.10","611eeafa283a2d1f57537fea","650c16f0f2faf8d7a0d14c09","651c34f424d8ffa677818919","null","null","<p style=""font-size: 60px; font-family: BACS"">GZJYuUY</p>","","","","","","","","","",""
"html-keyboard-response","343","503309","0.0-16.0-0.11","611eeafa283a2d1f57537fea","650c16f0f2faf8d7a0d14c09","651c34f424d8ffa677818919","null","null","<p style=""font-size: 60px; font-family: BACS"">GZJYuUY</p>","","","","","","","","","",""
"html-keyboard-response","344","504323","0.0-16.0-0.12","611eeafa283a2d1f57537fea","650c16f0f2faf8d7a0d14c09","651c34f424d8ffa677818919","null","null","<p style=""font-size: 60px; font-family: BACS"">GZJYuUY</p>","","","","","","","","","",""
"html-keyboard-response","345","505333","0.0-16.0-0.13","611eeafa283a2d1f57537fea","650c16f0f2faf8d7a0d14c09","651c34f424d8ffa677818919","null","null","<p style=""font-size: 60px; font-family: BACS"">GZJYuUY</p>","","","","","","","","","",""
"html-keyboard-response","346","506345","0.0-16.0-0.14","611eeafa283a2d1f57537fea","650c16f0f2faf8d7a0d14c09","651c34f424d8ffa677818919","null","null","<p style=""font-size: 60px; font-family: BACS"">GZJYuUY</p>","","","","","","","","","",""
"html-keyboard-response","347","507364","0.0-16.0-0.15","611eeafa283a2d1f57537fea","650c16f0f2faf8d7a0d14c09","651c34f424d8ffa677818919","null","null","<p style=""font-size: 60px; font-family: BACS"">GZJYuUY</p>","","","","","","","","","",""
"html-keyboard-response","348","508376","0.0-16.0-0.16","611eeafa283a2d1f57537fea","650c16f0f2faf8d7a0d14c09","651c34f424d8ffa677818919","null","null","<p style=""font-size: 60px; font-family: BACS"">GZJYuUY</p>","","","","","","","","","",""
"html-keyboard-response","349","509384","0.0-16.0-0.17","611eeafa283a2d1f57537fea","650c16f0f2faf8d7a0d14c09","651c34f424d8ffa677818919","null","null","<p style=""font-size: 60px; font-family: BACS"">GZJYuUY</p>","","","","","","","","","",""
"html-keyboard-response","350","510389","0.0-16.0-0.18","611eeafa283a2d1f57537fea","650c16f0f2faf8d7a0d14c09","651c34f424d8ffa677818919","null","null","<p style=""font-size: 60px; font-family: BACS"">GZJYuUY</p>","","","","","","","","","",""
"html-keyboard-response","351","511398","0.0-16.0-0.19","611eeafa283a2d1f57537fea","650c16f0f2faf8d7a0d14c09","651c34f424d8ffa677818919","null","null","<p style=""font-size: 60px; font-family: BACS"">GZJYuUY</p>","","","","","","","","","",""
"html-keyboard-response","352","512410","0.0-16.0-0.20","611eeafa283a2d1f57537fea","650c16f0f2faf8d7a0d14c09","651c34f424d8ffa677818919","null","null","<p style=""font-size: 60px; font-family: BACS"">GZJYuUY</p>","","","","","","","","","",""
"html-keyboard-response","353","513417","0.0-16.0-0.21","611eeafa283a2d1f57537fea","650c16f0f2faf8d7a0d14c09","651c34f424d8ffa677818919","null","null","<p style=""font-size: 60px; font-family: BACS"">GZJYuUY</p>","","","","","","","","","",""
"html-keyboard-response","354","514426","0.0-16.0-0.22","611eeafa283a2d1f57537fea","650c16f0f2faf8d7a0d14c09","651c34f424d8ffa677818919","null","null","<p style=""font-size: 60px; font-family: BACS"">GZJYuUY</p>","","","","","","","","","",""
"html-keyboard-response","355","515434","0.0-16.0-0.23","611eeafa283a2d1f57537fea","650c16f0f2faf8d7a0d14c09","651c34f424d8ffa677818919","null","null","<p style=""font-size: 60px; font-family: BACS"">GZJYuUY</p>","","","","","","","","","",""
"html-keyboard-response","356","516449","0.0-16.0-0.24","611eeafa283a2d1f57537fea","650c16f0f2faf8d7a0d14c09","651c34f424d8ffa677818919","null","null","<p style=""font-size: 60px; font-family: BACS"">GZJYuUY</p>","","","","","","","","","",""
"html-keyboard-response","357","517456","0.0-16.0-0.25","611eeafa283a2d1f57537fea","650c16f0f2faf8d7a0d14c09","651c34f424d8ffa677818919","null","null","<p style=""font-size: 60px; font-family: BACS"">GZJYuUY</p>","","","","","","","","","",""
"html-keyboard-response","358","518465","0.0-16.0-0.26","611eeafa283a2d1f57537fea","650c16f0f2faf8d7a0d14c09","651c34f424d8ffa677818919","null","null","<p style=""font-size: 60px; font-family: BACS"">GZJYuUY</p>","","","","","","","","","",""
"html-keyboard-response","359","519472","0.0-16.0-0.27","611eeafa283a2d1f57537fea","650c16f0f2faf8d7a0d14c09","651c34f424d8ffa677818919","null","null","<p style=""font-size: 60px; font-family: BACS"">GZJYuUY</p>","","","","","","","","","",""
"html-keyboard-response","360","520491","0.0-16.0-0.28","611eeafa283a2d1f57537fea","650c16f0f2faf8d7a0d14c09","651c34f424d8ffa677818919","null","null","<p style=""font-size: 60px; font-family: BACS"">GZJYuUY</p>","","","","","","","","","",""
"html-keyboard-response","361","521498","0.0-16.0-0.29","611eeafa283a2d1f57537fea","650c16f0f2faf8d7a0d14c09","651c34f424d8ffa677818919","null","null","<p style=""font-size: 60px; font-family: BACS"">GZJYuUY</p>","","","","","","","","","",""
"html-keyboard-response","362","522513","0.0-16.0-0.30","611eeafa283a2d1f57537fea","650c16f0f2faf8d7a0d14c09","651c34f424d8ffa677818919","null","null","<p style=""font-size: 60px; font-family: BACS"">GZJYuUY</p>","","","","","","","","","",""
"html-keyboard-response","363","523518","0.0-16.0-0.31","611eeafa283a2d1f57537fea","650c16f0f2faf8d7a0d14c09","651c34f424d8ffa677818919","null","null","<p style=""font-size: 60px; font-family: BACS"">GZJYuUY</p>","","","","","","","","","",""
"html-keyboard-response","364","524532","0.0-16.0-0.32","611eeafa283a2d1f57537fea","650c16f0f2faf8d7a0d14c09","651c34f424d8ffa677818919","null","null","<p style=""font-size: 60px; font-family: BACS"">GZJYuUY</p>","","","","","","","","","",""
"html-keyboard-response","365","525535","0.0-16.0-0.33","611eeafa283a2d1f57537fea","650c16f0f2faf8d7a0d14c09","651c34f424d8ffa677818919","null","null","<p style=""font-size: 60px; font-family: BACS"">GZJYuUY</p>","","","","","","","","","",""
"html-keyboard-response","366","526541","0.0-16.0-0.34","611eeafa283a2d1f57537fea","650c16f0f2faf8d7a0d14c09","651c34f424d8ffa677818919","null","null","<p style=""font-size: 60px; font-family: BACS"">GZJYuUY</p>","","","","","","","","","",""
"html-keyboard-response","367","527549","0.0-16.0-0.35","611eeafa283a2d1f57537fea","650c16f0f2faf8d7a0d14c09","651c34f424d8ffa677818919","null","null","<p style=""font-size: 60px; font-family: BACS"">GZJYuUY</p>","","","","","","","","","",""
"html-keyboard-response","368","528559","0.0-16.0-0.36","611eeafa283a2d1f57537fea","650c16f0f2faf8d7a0d14c09","651c34f424d8ffa677818919","null","null","<p style=""font-size: 60px; font-family: BACS"">GZJYuUY</p>","","","","","","","","","",""
"html-keyboard-response","369","529567","0.0-16.0-0.37","611eeafa283a2d1f57537fea","650c16f0f2faf8d7a0d14c09","651c34f424d8ffa677818919","null","null","<p style=""font-size: 60px; font-family: BACS"">GZJYuUY</p>","","","","","","","","","",""
"html-keyboard-response","370","530576","0.0-16.0-0.38","611eeafa283a2d1f57537fea","650c16f0f2faf8d7a0d14c09","651c34f424d8ffa677818919","null","null","<p style=""font-size: 60px; font-family: BACS"">GZJYuUY</p>","","","","","","","","","",""
"html-keyboard-response","371","531587","0.0-16.0-0.39","611eeafa283a2d1f57537fea","650c16f0f2faf8d7a0d14c09","651c34f424d8ffa677818919","null","null","<p style=""font-size: 60px; font-family: BACS"">GZJYuUY</p>","","","","","","","","","",""
"html-keyboard-response","372","532594","0.0-16.0-0.40","611eeafa283a2d1f57537fea","650c16f0f2faf8d7a0d14c09","651c34f424d8ffa677818919","null","null","<p style=""font-size: 60px; font-family: BACS"">GZJYuUY</p>","","","","","","","","","",""
"html-keyboard-response","373","533612","0.0-16.0-0.41","611eeafa283a2d1f57537fea","650c16f0f2faf8d7a0d14c09","651c34f424d8ffa677818919","null","null","<p style=""font-size: 60px; font-family: BACS"">GZJYuUY</p>","","","","","","","","","",""
"html-keyboard-response","374","534625","0.0-16.0-0.42","611eeafa283a2d1f57537fea","650c16f0f2faf8d7a0d14c09","651c34f424d8ffa677818919","null","null","<p style=""font-size: 60px; font-family: BACS"">GZJYuUY</p>","","","","","","","","","",""
"html-keyboard-response","375","535630","0.0-16.0-0.43","611eeafa283a2d1f57537fea","650c16f0f2faf8d7a0d14c09","651c34f424d8ffa677818919","null","null","<p style=""font-size: 60px; font-family: BACS"">GZJYuUY</p>","","","","","","","","","",""
"html-keyboard-response","376","536646","0.0-16.0-0.44","611eeafa283a2d1f57537fea","650c16f0f2faf8d7a0d14c09","651c34f424d8ffa677818919","null","null","<p style=""font-size: 60px; font-family: BACS"">GZJYuUY</p>","","","","","","","","","",""
"html-keyboard-response","377","537663","0.0-16.0-0.45","611eeafa283a2d1f57537fea","650c16f0f2faf8d7a0d14c09","651c34f424d8ffa677818919","null","null","<p style=""font-size: 60px; font-family: BACS"">GZJYuUY</p>","","","","","","","","","",""
"html-keyboard-response","378","538667","0.0-16.0-0.46","611eeafa283a2d1f57537fea","650c16f0f2faf8d7a0d14c09","651c34f424d8ffa677818919","null","null","<p style=""font-size: 60px; font-family: BACS"">GZJYuUY</p>","","","","","","","","","",""
"html-keyboard-response","379","539674","0.0-16.0-0.47","611eeafa283a2d1f57537fea","650c16f0f2faf8d7a0d14c09","651c34f424d8ffa677818919","null","null","<p style=""font-size: 60px; font-family: BACS"">GZJYuUY</p>","","","","","","","","","",""
"html-keyboard-response","380","540679","0.0-16.0-0.48","611eeafa283a2d1f57537fea","650c16f0f2faf8d7a0d14c09","651c34f424d8ffa677818919","null","null","<p style=""font-size: 60px; font-family: BACS"">GZJYuUY</p>","","","","","","","","","",""
"html-keyboard-response","381","541687","0.0-16.0-0.49","611eeafa283a2d1f57537fea","650c16f0f2faf8d7a0d14c09","651c34f424d8ffa677818919","null","null","<p style=""font-size: 60px; font-family: BACS"">GZJYuUY</p>","","","","","","","","","",""
"html-keyboard-response","382","542700","0.0-16.0-0.50","611eeafa283a2d1f57537fea","650c16f0f2faf8d7a0d14c09","651c34f424d8ffa677818919","null","null","<p style=""font-size: 60px; font-family: BACS"">GZJYuUY</p>","","","","","","","","","",""
"html-keyboard-response","383","543716","0.0-16.0-0.51","611eeafa283a2d1f57537fea","650c16f0f2faf8d7a0d14c09","651c34f424d8ffa677818919","null","null","<p style=""font-size: 60px; font-family: BACS"">GZJYuUY</p>","","","","","","","","","",""
"html-keyboard-response","384","544723","0.0-16.0-0.52","611eeafa283a2d1f57537fea","650c16f0f2faf8d7a0d14c09","651c34f424d8ffa677818919","null","null","<p style=""font-size: 60px; font-family: BACS"">GZJYuUY</p>","","","","","","","","","",""
"html-keyboard-response","385","545731","0.0-16.0-0.53","611eeafa283a2d1f57537fea","650c16f0f2faf8d7a0d14c09","651c34f424d8ffa677818919","null","null","<p style=""font-size: 60px; font-family: BACS"">GZJYuUY</p>","","","","","","","","","",""
"html-keyboard-response","386","546750","0.0-16.0-0.54","611eeafa283a2d1f57537fea","650c16f0f2faf8d7a0d14c09","651c34f424d8ffa677818919","null","null","<p style=""font-size: 60px; font-family: BACS"">GZJYuUY</p>","","","","","","","","","",""
"html-keyboard-response","387","547773","0.0-16.0-0.55","611eeafa283a2d1f57537fea","650c16f0f2faf8d7a0d14c09","651c34f424d8ffa677818919","null","null","<p style=""font-size: 60px; font-family: BACS"">GZJYuUY</p>","","","","","","","","","",""
"html-keyboard-response","388","548779","0.0-16.0-0.56","611eeafa283a2d1f57537fea","650c16f0f2faf8d7a0d14c09","651c34f424d8ffa677818919","null","null","<p style=""font-size: 60px; font-family: BACS"">GZJYuUY</p>","","","","","","","","","",""
"html-keyboard-response","389","549786","0.0-16.0-0.57","611eeafa283a2d1f57537fea","650c16f0f2faf8d7a0d14c09","651c34f424d8ffa677818919","null","null","<p style=""font-size: 60px; font-family: BACS"">GZJYuUY</p>","","","","","","","","","",""
"html-keyboard-response","390","550794","0.0-16.0-0.58","611eeafa283a2d1f57537fea","650c16f0f2faf8d7a0d14c09","651c34f424d8ffa677818919","null","null","<p style=""font-size: 60px; font-family: BACS"">GZJYuUY</p>","","","","","","","","","",""
"html-keyboard-response","391","551798","0.0-16.0-0.59","611eeafa283a2d1f57537fea","650c16f0f2faf8d7a0d14c09","651c34f424d8ffa677818919","null","null","<p style=""font-size: 60px; font-family: BACS"">GZJYuUY</p>","","","","","","","","","",""
"html-keyboard-response","392","552806","0.0-16.0-0.60","611eeafa283a2d1f57537fea","650c16f0f2faf8d7a0d14c09","651c34f424d8ffa677818919","null","null","<p style=""font-size: 60px; font-family: BACS"">GZJYuUY</p>","","","","","","","","","",""
"html-keyboard-response","393","553821","0.0-16.0-0.61","611eeafa283a2d1f57537fea","650c16f0f2faf8d7a0d14c09","651c34f424d8ffa677818919","null","null","<p style=""font-size: 60px; font-family: BACS"">GZJYuUY</p>","","","","","","","","","",""
