"trial_type","trial_index","time_elapsed","internal_node_id","subject_id","study_id","session_id","rt","response","stimulus","success","item","task","correct_response","testing_condition","correct","target","confound","name","view_history"
"pavlovia","0","2092","0.0-0.0","5e8b66490d48450346bf2755","650c16f0f2faf8d7a0d14c09","651c1e7ef0bb5a0f4ba59ecd","","","","","","","","","","","","",""
"survey-html-form","1","16118","0.0-1.0","5e8b66490d48450346bf2755","650c16f0f2faf8d7a0d14c09","651c1e7ef0bb5a0f4ba59ecd","14023","{""ID"":""5e8b66490d48450346bf2755""}","","","","","","","","","","",""
"html-keyboard-response","2","20914","0.0-2.0","5e8b66490d48450346bf2755","650c16f0f2faf8d7a0d14c09","651c1e7ef0bb5a0f4ba59ecd","4792"," ","<p style=""font-size: 15px;"">Before beginning, we ask that you read the consent information and confirm your agreement to participate in the experiment.</p>
      <p style=""font-size: 15px;""> We ask that you remember that this is a research project and that your participation is entirely voluntary. You can stop your participation at any time, without needing to provide any explanation. The study we're asking you to participate in aims at examining how readers process written words. You will be engaged in a session of apprximately 20 minutes, followed by a brief questionnaire. You will have the opportunity to take a few breaks during the experiment. You will be paid £4 for your participation, corresponding to a rate of £8/hour. While this experiment looks at cognitive faculties, this experiment doesn't constitute clinical proof of eventual pathologies.</p>
      <p style=""font-size: 15px;"">All of the information collected thanks to yours and others' participation will be held in a secure password-protected server, and will not be shared with anyone not authorised to view it. Your personal information will be kept with an arbitrary participant ID. Thanks to this data anonymity process, any researcher analysing the data won't be able to track the information back to a specific participant. Therefore, this process will make identifying you impossibile, even when results from the study will be published in scientific reviews, presented at congresses, or at any other public forum. More generally, the collected data will be treated in accordance with the laws on privacy and conformity to the Legislative Degree n. 196 ""Code regarding the protection of personal data"" of the 30th of June 2003 and to the European Regulation 2016/670 (General Data Protection Regulation - GDPR). The Data Protection Officer is Avv. Valentina Carollo, who can be contacted at the following email addresses: <a href=""mailto:dpo@sissa.it"">dpo@sissa.it</a> or <a href=""mailto:rpd@sissa.it"">rpd@sissa.it</a> - PEC: <a href=""mailto:protocollo@pec.sissa.it"">protocollo@pec.sissa.it</a>.</p>
      <p style=""font-size: 15px;""> Before expressing your consent to participate, we would like to remind you again that in case you need explanations on any aspect of the experimental procedure, the researcher is at your disposition (<a href=""mailto:aliebelt@sissa.it"">aliebelt@sissa.it</a>, <a href=""mailto:davide.crepaldi@sissa.it"">davide.crepaldi@sissa.it</a>).</p>
      <p style=""font-size: 15px;"">If you would like to download the informed consent form, you can do so here: <a href=""BASL-Informed_Consent.pdf"" download>informed consent form</a>.</p>
      <p style=""font-size: 15px;"">We ask that you press the spacebar to proceed to the consent section.</p>","","","","","","","","","",""
"survey-html-form","3","34719","0.0-3.0","5e8b66490d48450346bf2755","650c16f0f2faf8d7a0d14c09","651c1e7ef0bb5a0f4ba59ecd","13803","{""consent1"":""YES"",""consent2"":""YES"",""consent3"":""YES"",""consent4"":""YES"",""consent5"":""YES"",""consent6"":""YES""}","","","","","","","","","","",""
"fullscreen","4","39502","0.0-4.0","5e8b66490d48450346bf2755","650c16f0f2faf8d7a0d14c09","651c1e7ef0bb5a0f4ba59ecd","","","","true","","","","","","","","",""
"html-keyboard-response","5","57101","0.0-5.0","5e8b66490d48450346bf2755","650c16f0f2faf8d7a0d14c09","651c1e7ef0bb5a0f4ba59ecd","17594"," ","<p>Welcome, and thank you very much for your time!</p>
      <p>In this experiment, you'll be a language expert who's been asked to take a look at words that Earth has received in its first communication with aliens. Your task, in this first part of the experiment, is to pay close attention to the words you'll be shown; later, world leaders will ask you questions on what you saw. The words will be shown to you quite quickly; it seems that the aliens were in a hurry :-)</p>
      <p>Press the spacebar to continue.<p>","","","","","","","","","",""
"html-keyboard-response","6","57162","0.0-6.0","5e8b66490d48450346bf2755","650c16f0f2faf8d7a0d14c09","651c1e7ef0bb5a0f4ba59ecd","null","null","<p style=""font-size: 120px; font-family: BACS""> </p>","","","","","","","","","",""
"html-keyboard-response","7","76068","0.0-7.0","5e8b66490d48450346bf2755","650c16f0f2faf8d7a0d14c09","651c1e7ef0bb5a0f4ba59ecd","18905"," ","<p>Here is an example of the words you'll see:</p>
      <img src='esempio.png' height='400px'>
      <p>When you're ready to begin, press the spacebar.</p></div>","","","","","","","","","",""
"html-keyboard-response","8","77078","0.0-8.0-0.0","5e8b66490d48450346bf2755","650c16f0f2faf8d7a0d14c09","651c1e7ef0bb5a0f4ba59ecd","null","null","<p style=""font-size: 60px; font-family: BACS"">OQarQkmU</p>","","","","","","","","","",""
"html-keyboard-response","9","78095","0.0-8.0-0.1","5e8b66490d48450346bf2755","650c16f0f2faf8d7a0d14c09","651c1e7ef0bb5a0f4ba59ecd","null","null","<p style=""font-size: 60px; font-family: BACS"">kdaAJvJQ</p>","","","","","","","","","",""
"html-keyboard-response","10","79111","0.0-8.0-0.2","5e8b66490d48450346bf2755","650c16f0f2faf8d7a0d14c09","651c1e7ef0bb5a0f4ba59ecd","null","null","<p style=""font-size: 60px; font-family: BACS"">UvOGuda</p>","","","","","","","","","",""
"html-keyboard-response","11","80113","0.0-8.0-0.3","5e8b66490d48450346bf2755","650c16f0f2faf8d7a0d14c09","651c1e7ef0bb5a0f4ba59ecd","null","null","<p style=""font-size: 60px; font-family: BACS"">kdaAJNmAG</p>","","","","","","","","","",""
"html-keyboard-response","12","81127","0.0-8.0-0.4","5e8b66490d48450346bf2755","650c16f0f2faf8d7a0d14c09","651c1e7ef0bb5a0f4ba59ecd","null","null","<p style=""font-size: 60px; font-family: BACS"">bmdABOBT</p>","","","","","","","","","",""
"html-keyboard-response","13","82145","0.0-8.0-0.5","5e8b66490d48450346bf2755","650c16f0f2faf8d7a0d14c09","651c1e7ef0bb5a0f4ba59ecd","null","null","<p style=""font-size: 60px; font-family: BACS"">EhRmPMYm</p>","","","","","","","","","",""
"html-keyboard-response","14","83161","0.0-8.0-0.6","5e8b66490d48450346bf2755","650c16f0f2faf8d7a0d14c09","651c1e7ef0bb5a0f4ba59ecd","null","null","<p style=""font-size: 60px; font-family: BACS"">tcYbdOBT</p>","","","","","","","","","",""
"html-keyboard-response","15","84178","0.0-8.0-0.7","5e8b66490d48450346bf2755","650c16f0f2faf8d7a0d14c09","651c1e7ef0bb5a0f4ba59ecd","null","null","<p style=""font-size: 60px; font-family: BACS"">rGUAYvJQ</p>","","","","","","","","","",""
"html-keyboard-response","16","85194","0.0-8.0-0.8","5e8b66490d48450346bf2755","650c16f0f2faf8d7a0d14c09","651c1e7ef0bb5a0f4ba59ecd","null","null","<p style=""font-size: 60px; font-family: BACS"">TdTDPMYm</p>","","","","","","","","","",""
"html-keyboard-response","17","86211","0.0-8.0-0.9","5e8b66490d48450346bf2755","650c16f0f2faf8d7a0d14c09","651c1e7ef0bb5a0f4ba59ecd","null","null","<p style=""font-size: 60px; font-family: BACS"">UvOGNmAG</p>","","","","","","","","","",""
"html-keyboard-response","18","87216","0.0-8.0-0.10","5e8b66490d48450346bf2755","650c16f0f2faf8d7a0d14c09","651c1e7ef0bb5a0f4ba59ecd","null","null","<p style=""font-size: 60px; font-family: BACS"">NLQGmuda</p>","","","","","","","","","",""
"html-keyboard-response","19","88228","0.0-8.0-0.11","5e8b66490d48450346bf2755","650c16f0f2faf8d7a0d14c09","651c1e7ef0bb5a0f4ba59ecd","null","null","<p style=""font-size: 60px; font-family: BACS"">kdaAJuZc</p>","","","","","","","","","",""
"html-keyboard-response","20","89244","0.0-8.0-0.12","5e8b66490d48450346bf2755","650c16f0f2faf8d7a0d14c09","651c1e7ef0bb5a0f4ba59ecd","null","null","<p style=""font-size: 60px; font-family: BACS"">UdbdkmU</p>","","","","","","","","","",""
"html-keyboard-response","21","90260","0.0-8.0-0.13","5e8b66490d48450346bf2755","650c16f0f2faf8d7a0d14c09","651c1e7ef0bb5a0f4ba59ecd","null","null","<p style=""font-size: 60px; font-family: BACS"">QbkAcvJQ</p>","","","","","","","","","",""
"html-keyboard-response","22","91277","0.0-8.0-0.14","5e8b66490d48450346bf2755","650c16f0f2faf8d7a0d14c09","651c1e7ef0bb5a0f4ba59ecd","null","null","<p style=""font-size: 60px; font-family: BACS"">TklDPEdK</p>","","","","","","","","","",""
"html-keyboard-response","23","92293","0.0-8.0-0.15","5e8b66490d48450346bf2755","650c16f0f2faf8d7a0d14c09","651c1e7ef0bb5a0f4ba59ecd","null","null","<p style=""font-size: 60px; font-family: BACS"">UdbdvJQ</p>","","","","","","","","","",""
"html-keyboard-response","24","93296","0.0-8.0-0.16","5e8b66490d48450346bf2755","650c16f0f2faf8d7a0d14c09","651c1e7ef0bb5a0f4ba59ecd","null","null","<p style=""font-size: 60px; font-family: BACS"">tmAKPMYm</p>","","","","","","","","","",""
"html-keyboard-response","25","94311","0.0-8.0-0.17","5e8b66490d48450346bf2755","650c16f0f2faf8d7a0d14c09","651c1e7ef0bb5a0f4ba59ecd","null","null","<p style=""font-size: 60px; font-family: BACS"">NLQGmuZc</p>","","","","","","","","","",""
"html-keyboard-response","26","95327","0.0-8.0-0.18","5e8b66490d48450346bf2755","650c16f0f2faf8d7a0d14c09","651c1e7ef0bb5a0f4ba59ecd","null","null","<p style=""font-size: 60px; font-family: BACS"">vblrNmAG</p>","","","","","","","","","",""
"html-keyboard-response","27","96329","0.0-8.0-0.19","5e8b66490d48450346bf2755","650c16f0f2faf8d7a0d14c09","651c1e7ef0bb5a0f4ba59ecd","null","null","<p style=""font-size: 60px; font-family: BACS"">EhRmPEdK</p>","","","","","","","","","",""
"html-keyboard-response","28","97344","0.0-8.0-0.20","5e8b66490d48450346bf2755","650c16f0f2faf8d7a0d14c09","651c1e7ef0bb5a0f4ba59ecd","null","null","<p style=""font-size: 60px; font-family: BACS"">UvOGuZc</p>","","","","","","","","","",""
"html-keyboard-response","29","98360","0.0-8.0-0.21","5e8b66490d48450346bf2755","650c16f0f2faf8d7a0d14c09","651c1e7ef0bb5a0f4ba59ecd","null","null","<p style=""font-size: 60px; font-family: BACS"">tcYbdTmTm</p>","","","","","","","","","",""
"html-keyboard-response","30","99376","0.0-8.0-0.22","5e8b66490d48450346bf2755","650c16f0f2faf8d7a0d14c09","651c1e7ef0bb5a0f4ba59ecd","null","null","<p style=""font-size: 60px; font-family: BACS"">OQarQuZc</p>","","","","","","","","","",""
"html-keyboard-response","31","100394","0.0-8.0-0.23","5e8b66490d48450346bf2755","650c16f0f2faf8d7a0d14c09","651c1e7ef0bb5a0f4ba59ecd","null","null","<p style=""font-size: 60px; font-family: BACS"">BMEMAPMYm</p>","","","","","","","","","",""
"html-keyboard-response","32","101410","0.0-8.0-0.24","5e8b66490d48450346bf2755","650c16f0f2faf8d7a0d14c09","651c1e7ef0bb5a0f4ba59ecd","null","null","<p style=""font-size: 60px; font-family: BACS"">kdaAJuda</p>","","","","","","","","","",""
"html-keyboard-response","33","102427","0.0-8.0-0.25","5e8b66490d48450346bf2755","650c16f0f2faf8d7a0d14c09","651c1e7ef0bb5a0f4ba59ecd","null","null","<p style=""font-size: 60px; font-family: BACS"">UdbduZc</p>","","","","","","","","","",""
"html-keyboard-response","34","103444","0.0-8.0-0.26","5e8b66490d48450346bf2755","650c16f0f2faf8d7a0d14c09","651c1e7ef0bb5a0f4ba59ecd","null","null","<p style=""font-size: 60px; font-family: BACS"">DBlhPEdK</p>","","","","","","","","","",""
"html-keyboard-response","35","104460","0.0-8.0-0.27","5e8b66490d48450346bf2755","650c16f0f2faf8d7a0d14c09","651c1e7ef0bb5a0f4ba59ecd","null","null","<p style=""font-size: 60px; font-family: BACS"">bcORTmTm</p>","","","","","","","","","",""
"html-keyboard-response","36","105463","0.0-8.0-0.28","5e8b66490d48450346bf2755","650c16f0f2faf8d7a0d14c09","651c1e7ef0bb5a0f4ba59ecd","null","null","<p style=""font-size: 60px; font-family: BACS"">TdTDcDR</p>","","","","","","","","","",""
"html-keyboard-response","37","106477","0.0-8.0-0.29","5e8b66490d48450346bf2755","650c16f0f2faf8d7a0d14c09","651c1e7ef0bb5a0f4ba59ecd","null","null","<p style=""font-size: 60px; font-family: BACS"">LNUrJuZc</p>","","","","","","","","","",""
"html-keyboard-response","38","107493","0.0-8.0-0.30","5e8b66490d48450346bf2755","650c16f0f2faf8d7a0d14c09","651c1e7ef0bb5a0f4ba59ecd","null","null","<p style=""font-size: 60px; font-family: BACS"">bmdABTmTm</p>","","","","","","","","","",""
"html-keyboard-response","39","108510","0.0-8.0-0.31","5e8b66490d48450346bf2755","650c16f0f2faf8d7a0d14c09","651c1e7ef0bb5a0f4ba59ecd","null","null","<p style=""font-size: 60px; font-family: BACS"">cuOJbvJQ</p>","","","","","","","","","",""
"html-keyboard-response","40","109525","0.0-8.0-0.32","5e8b66490d48450346bf2755","650c16f0f2faf8d7a0d14c09","651c1e7ef0bb5a0f4ba59ecd","null","null","<p style=""font-size: 60px; font-family: BACS"">Udbduda</p>","","","","","","","","","",""
"html-keyboard-response","41","110542","0.0-8.0-0.33","5e8b66490d48450346bf2755","650c16f0f2faf8d7a0d14c09","651c1e7ef0bb5a0f4ba59ecd","null","null","<p style=""font-size: 60px; font-family: BACS"">tmAKcDR</p>","","","","","","","","","",""
"html-keyboard-response","42","111560","0.0-8.0-0.34","5e8b66490d48450346bf2755","650c16f0f2faf8d7a0d14c09","651c1e7ef0bb5a0f4ba59ecd","null","null","<p style=""font-size: 60px; font-family: BACS"">NLQGmNmAG</p>","","","","","","","","","",""
"html-keyboard-response","43","112577","0.0-8.0-0.35","5e8b66490d48450346bf2755","650c16f0f2faf8d7a0d14c09","651c1e7ef0bb5a0f4ba59ecd","null","null","<p style=""font-size: 60px; font-family: BACS"">UvOGkmU</p>","","","","","","","","","",""
"html-keyboard-response","44","113593","0.0-8.0-0.36","5e8b66490d48450346bf2755","650c16f0f2faf8d7a0d14c09","651c1e7ef0bb5a0f4ba59ecd","null","null","<p style=""font-size: 60px; font-family: BACS"">hBmMCTmTm</p>","","","","","","","","","",""
"html-keyboard-response","45","114610","0.0-8.0-0.37","5e8b66490d48450346bf2755","650c16f0f2faf8d7a0d14c09","651c1e7ef0bb5a0f4ba59ecd","null","null","<p style=""font-size: 60px; font-family: BACS"">vblruda</p>","","","","","","","","","",""
"html-keyboard-response","46","115626","0.0-8.0-0.38","5e8b66490d48450346bf2755","650c16f0f2faf8d7a0d14c09","651c1e7ef0bb5a0f4ba59ecd","null","null","<p style=""font-size: 60px; font-family: BACS"">hBmMCOBT</p>","","","","","","","","","",""
"html-keyboard-response","47","116628","0.0-8.0-0.39","5e8b66490d48450346bf2755","650c16f0f2faf8d7a0d14c09","651c1e7ef0bb5a0f4ba59ecd","null","null","<p style=""font-size: 60px; font-family: BACS"">rGUAYkmU</p>","","","","","","","","","",""
"html-keyboard-response","48","117643","0.0-8.0-0.40","5e8b66490d48450346bf2755","650c16f0f2faf8d7a0d14c09","651c1e7ef0bb5a0f4ba59ecd","null","null","<p style=""font-size: 60px; font-family: BACS"">BMEMAPEdK</p>","","","","","","","","","",""
"html-keyboard-response","49","118649","0.0-8.0-0.41","5e8b66490d48450346bf2755","650c16f0f2faf8d7a0d14c09","651c1e7ef0bb5a0f4ba59ecd","null","null","<p style=""font-size: 60px; font-family: BACS"">vblruZc</p>","","","","","","","","","",""
"html-keyboard-response","50","119660","0.0-8.0-0.42","5e8b66490d48450346bf2755","650c16f0f2faf8d7a0d14c09","651c1e7ef0bb5a0f4ba59ecd","null","null","<p style=""font-size: 60px; font-family: BACS"">QbkAckmU</p>","","","","","","","","","",""
"html-keyboard-response","51","120676","0.0-8.0-0.43","5e8b66490d48450346bf2755","650c16f0f2faf8d7a0d14c09","651c1e7ef0bb5a0f4ba59ecd","null","null","<p style=""font-size: 60px; font-family: BACS"">hBmMCcDR</p>","","","","","","","","","",""
"html-keyboard-response","52","121693","0.0-8.0-0.44","5e8b66490d48450346bf2755","650c16f0f2faf8d7a0d14c09","651c1e7ef0bb5a0f4ba59ecd","null","null","<p style=""font-size: 60px; font-family: BACS"">cuOJbuZc</p>","","","","","","","","","",""
"html-keyboard-response","53","122709","0.0-8.0-0.45","5e8b66490d48450346bf2755","650c16f0f2faf8d7a0d14c09","651c1e7ef0bb5a0f4ba59ecd","null","null","<p style=""font-size: 60px; font-family: BACS"">vblrkmU</p>","","","","","","","","","",""
"html-keyboard-response","54","123725","0.0-8.0-0.46","5e8b66490d48450346bf2755","650c16f0f2faf8d7a0d14c09","651c1e7ef0bb5a0f4ba59ecd","null","null","<p style=""font-size: 60px; font-family: BACS"">bcOROBT</p>","","","","","","","","","",""
"html-keyboard-response","55","124743","0.0-8.0-0.47","5e8b66490d48450346bf2755","650c16f0f2faf8d7a0d14c09","651c1e7ef0bb5a0f4ba59ecd","null","null","<p style=""font-size: 60px; font-family: BACS"">OQarQuda</p>","","","","","","","","","",""
"html-keyboard-response","56","125760","0.0-8.0-0.48","5e8b66490d48450346bf2755","650c16f0f2faf8d7a0d14c09","651c1e7ef0bb5a0f4ba59ecd","null","null","<p style=""font-size: 60px; font-family: BACS"">tcYbdcDR</p>","","","","","","","","","",""
"html-keyboard-response","57","126776","0.0-8.0-0.49","5e8b66490d48450346bf2755","650c16f0f2faf8d7a0d14c09","651c1e7ef0bb5a0f4ba59ecd","null","null","<p style=""font-size: 60px; font-family: BACS"">EhRmTmTm</p>","","","","","","","","","",""
"html-keyboard-response","58","127793","0.0-8.0-0.50","5e8b66490d48450346bf2755","650c16f0f2faf8d7a0d14c09","651c1e7ef0bb5a0f4ba59ecd","null","null","<p style=""font-size: 60px; font-family: BACS"">bmdABPEdK</p>","","","","","","","","","",""
"html-keyboard-response","59","128808","0.0-8.0-0.51","5e8b66490d48450346bf2755","650c16f0f2faf8d7a0d14c09","651c1e7ef0bb5a0f4ba59ecd","null","null","<p style=""font-size: 60px; font-family: BACS"">OQarQvJQ</p>","","","","","","","","","",""
"html-keyboard-response","60","129809","0.0-8.0-0.52","5e8b66490d48450346bf2755","650c16f0f2faf8d7a0d14c09","651c1e7ef0bb5a0f4ba59ecd","null","null","<p style=""font-size: 60px; font-family: BACS"">bmdABcDR</p>","","","","","","","","","",""
"html-keyboard-response","61","130826","0.0-8.0-0.53","5e8b66490d48450346bf2755","650c16f0f2faf8d7a0d14c09","651c1e7ef0bb5a0f4ba59ecd","null","null","<p style=""font-size: 60px; font-family: BACS"">DBlhOBT</p>","","","","","","","","","",""
"html-keyboard-response","62","131843","0.0-8.0-0.54","5e8b66490d48450346bf2755","650c16f0f2faf8d7a0d14c09","651c1e7ef0bb5a0f4ba59ecd","null","null","<p style=""font-size: 60px; font-family: BACS"">EhRmcDR</p>","","","","","","","","","",""
"html-keyboard-response","63","132859","0.0-8.0-0.55","5e8b66490d48450346bf2755","650c16f0f2faf8d7a0d14c09","651c1e7ef0bb5a0f4ba59ecd","null","null","<p style=""font-size: 60px; font-family: BACS"">TdTDOBT</p>","","","","","","","","","",""
"html-keyboard-response","64","133876","0.0-8.0-0.56","5e8b66490d48450346bf2755","650c16f0f2faf8d7a0d14c09","651c1e7ef0bb5a0f4ba59ecd","null","null","<p style=""font-size: 60px; font-family: BACS"">DBlhcDR</p>","","","","","","","","","",""
"html-keyboard-response","65","134892","0.0-8.0-0.57","5e8b66490d48450346bf2755","650c16f0f2faf8d7a0d14c09","651c1e7ef0bb5a0f4ba59ecd","null","null","<p style=""font-size: 60px; font-family: BACS"">BMEMATmTm</p>","","","","","","","","","",""
"html-keyboard-response","66","135908","0.0-8.0-0.58","5e8b66490d48450346bf2755","650c16f0f2faf8d7a0d14c09","651c1e7ef0bb5a0f4ba59ecd","null","null","<p style=""font-size: 60px; font-family: BACS"">rGUAYuda</p>","","","","","","","","","",""
"html-keyboard-response","67","136925","0.0-8.0-0.59","5e8b66490d48450346bf2755","650c16f0f2faf8d7a0d14c09","651c1e7ef0bb5a0f4ba59ecd","null","null","<p style=""font-size: 60px; font-family: BACS"">tmAKPEdK</p>","","","","","","","","","",""
"html-keyboard-response","68","137926","0.0-8.0-0.60","5e8b66490d48450346bf2755","650c16f0f2faf8d7a0d14c09","651c1e7ef0bb5a0f4ba59ecd","null","null","<p style=""font-size: 60px; font-family: BACS"">rGUAYNmAG</p>","","","","","","","","","",""
"html-keyboard-response","69","138941","0.0-8.0-0.61","5e8b66490d48450346bf2755","650c16f0f2faf8d7a0d14c09","651c1e7ef0bb5a0f4ba59ecd","null","null","<p style=""font-size: 60px; font-family: BACS"">TklDPMYm</p>","","","","","","","","","",""
"html-keyboard-response","70","139958","0.0-8.0-0.62","5e8b66490d48450346bf2755","650c16f0f2faf8d7a0d14c09","651c1e7ef0bb5a0f4ba59ecd","null","null","<p style=""font-size: 60px; font-family: BACS"">TdTDTmTm</p>","","","","","","","","","",""
"html-keyboard-response","71","140975","0.0-8.0-0.63","5e8b66490d48450346bf2755","650c16f0f2faf8d7a0d14c09","651c1e7ef0bb5a0f4ba59ecd","null","null","<p style=""font-size: 60px; font-family: BACS"">DBlhPMYm</p>","","","","","","","","","",""
"html-keyboard-response","72","141976","0.0-8.0-0.64","5e8b66490d48450346bf2755","650c16f0f2faf8d7a0d14c09","651c1e7ef0bb5a0f4ba59ecd","null","null","<p style=""font-size: 60px; font-family: BACS"">QbkAcNmAG</p>","","","","","","","","","",""
"html-keyboard-response","73","142991","0.0-8.0-0.65","5e8b66490d48450346bf2755","650c16f0f2faf8d7a0d14c09","651c1e7ef0bb5a0f4ba59ecd","null","null","<p style=""font-size: 60px; font-family: BACS"">hBmMCPMYm</p>","","","","","","","","","",""
"html-keyboard-response","74","144008","0.0-8.0-0.66","5e8b66490d48450346bf2755","650c16f0f2faf8d7a0d14c09","651c1e7ef0bb5a0f4ba59ecd","null","null","<p style=""font-size: 60px; font-family: BACS"">tmAKOBT</p>","","","","","","","","","",""
"html-keyboard-response","75","145009","0.0-8.0-0.67","5e8b66490d48450346bf2755","650c16f0f2faf8d7a0d14c09","651c1e7ef0bb5a0f4ba59ecd","null","null","<p style=""font-size: 60px; font-family: BACS"">LNUrJNmAG</p>","","","","","","","","","",""
"html-keyboard-response","76","146027","0.0-8.0-0.68","5e8b66490d48450346bf2755","650c16f0f2faf8d7a0d14c09","651c1e7ef0bb5a0f4ba59ecd","null","null","<p style=""font-size: 60px; font-family: BACS"">cuOJbkmU</p>","","","","","","","","","",""
"html-keyboard-response","77","147041","0.0-8.0-0.69","5e8b66490d48450346bf2755","650c16f0f2faf8d7a0d14c09","651c1e7ef0bb5a0f4ba59ecd","null","null","<p style=""font-size: 60px; font-family: BACS"">QbkAcuda</p>","","","","","","","","","",""
"html-keyboard-response","78","148042","0.0-8.0-0.70","5e8b66490d48450346bf2755","650c16f0f2faf8d7a0d14c09","651c1e7ef0bb5a0f4ba59ecd","null","null","<p style=""font-size: 60px; font-family: BACS"">NLQGmvJQ</p>","","","","","","","","","",""
"html-keyboard-response","79","149057","0.0-8.0-0.71","5e8b66490d48450346bf2755","650c16f0f2faf8d7a0d14c09","651c1e7ef0bb5a0f4ba59ecd","null","null","<p style=""font-size: 60px; font-family: BACS"">bcORPMYm</p>","","","","","","","","","",""
"html-keyboard-response","80","150073","0.0-8.0-0.72","5e8b66490d48450346bf2755","650c16f0f2faf8d7a0d14c09","651c1e7ef0bb5a0f4ba59ecd","null","null","<p style=""font-size: 60px; font-family: BACS"">LNUrJvJQ</p>","","","","","","","","","",""
"html-keyboard-response","81","151075","0.0-8.0-0.73","5e8b66490d48450346bf2755","650c16f0f2faf8d7a0d14c09","651c1e7ef0bb5a0f4ba59ecd","null","null","<p style=""font-size: 60px; font-family: BACS"">TklDTmTm</p>","","","","","","","","","",""
"html-keyboard-response","82","152091","0.0-8.0-0.74","5e8b66490d48450346bf2755","650c16f0f2faf8d7a0d14c09","651c1e7ef0bb5a0f4ba59ecd","null","null","<p style=""font-size: 60px; font-family: BACS"">BMEMAcDR</p>","","","","","","","","","",""
"html-keyboard-response","83","153108","0.0-8.0-0.75","5e8b66490d48450346bf2755","650c16f0f2faf8d7a0d14c09","651c1e7ef0bb5a0f4ba59ecd","null","null","<p style=""font-size: 60px; font-family: BACS"">bcORPEdK</p>","","","","","","","","","",""
"html-keyboard-response","84","154125","0.0-8.0-0.76","5e8b66490d48450346bf2755","650c16f0f2faf8d7a0d14c09","651c1e7ef0bb5a0f4ba59ecd","null","null","<p style=""font-size: 60px; font-family: BACS"">TklDOBT</p>","","","","","","","","","",""
"html-keyboard-response","85","155141","0.0-8.0-0.77","5e8b66490d48450346bf2755","650c16f0f2faf8d7a0d14c09","651c1e7ef0bb5a0f4ba59ecd","null","null","<p style=""font-size: 60px; font-family: BACS"">cuOJbNmAG</p>","","","","","","","","","",""
"html-keyboard-response","86","156157","0.0-8.0-0.78","5e8b66490d48450346bf2755","650c16f0f2faf8d7a0d14c09","651c1e7ef0bb5a0f4ba59ecd","null","null","<p style=""font-size: 60px; font-family: BACS"">tcYbdPEdK</p>","","","","","","","","","",""
"html-keyboard-response","87","157173","0.0-8.0-0.79","5e8b66490d48450346bf2755","650c16f0f2faf8d7a0d14c09","651c1e7ef0bb5a0f4ba59ecd","null","null","<p style=""font-size: 60px; font-family: BACS"">LNUrJkmU</p>","","","","","","","","","",""
"html-keyboard-response","88","161911","0.0-9.0","5e8b66490d48450346bf2755","650c16f0f2faf8d7a0d14c09","651c1e7ef0bb5a0f4ba59ecd","4736"," ","<p>Great, you've seen the first block of words. You may now take a short break.</p>
      <p>Press the spacebar when you're ready to continue.</p>","","","","","","","","","",""
"html-keyboard-response","89","162923","0.0-10.0-0.0","5e8b66490d48450346bf2755","650c16f0f2faf8d7a0d14c09","651c1e7ef0bb5a0f4ba59ecd","null","null","<p style=""font-size: 60px; font-family: BACS"">NLQGmuda</p>","","","","","","","","","",""
"html-keyboard-response","90","163940","0.0-10.0-0.1","5e8b66490d48450346bf2755","650c16f0f2faf8d7a0d14c09","651c1e7ef0bb5a0f4ba59ecd","null","null","<p style=""font-size: 60px; font-family: BACS"">UdbdkmU</p>","","","","","","","","","",""
"html-keyboard-response","91","164942","0.0-10.0-0.2","5e8b66490d48450346bf2755","650c16f0f2faf8d7a0d14c09","651c1e7ef0bb5a0f4ba59ecd","null","null","<p style=""font-size: 60px; font-family: BACS"">LNUrJvJQ</p>","","","","","","","","","",""
"html-keyboard-response","92","165957","0.0-10.0-0.3","5e8b66490d48450346bf2755","650c16f0f2faf8d7a0d14c09","651c1e7ef0bb5a0f4ba59ecd","null","null","<p style=""font-size: 60px; font-family: BACS"">vblrkmU</p>","","","","","","","","","",""
"html-keyboard-response","93","166973","0.0-10.0-0.4","5e8b66490d48450346bf2755","650c16f0f2faf8d7a0d14c09","651c1e7ef0bb5a0f4ba59ecd","null","null","<p style=""font-size: 60px; font-family: BACS"">Udbduda</p>","","","","","","","","","",""
"html-keyboard-response","94","167990","0.0-10.0-0.5","5e8b66490d48450346bf2755","650c16f0f2faf8d7a0d14c09","651c1e7ef0bb5a0f4ba59ecd","null","null","<p style=""font-size: 60px; font-family: BACS"">rGUAYNmAG</p>","","","","","","","","","",""
"html-keyboard-response","95","169008","0.0-10.0-0.6","5e8b66490d48450346bf2755","650c16f0f2faf8d7a0d14c09","651c1e7ef0bb5a0f4ba59ecd","null","null","<p style=""font-size: 60px; font-family: BACS"">DBlhOBT</p>","","","","","","","","","",""
"html-keyboard-response","96","170023","0.0-10.0-0.7","5e8b66490d48450346bf2755","650c16f0f2faf8d7a0d14c09","651c1e7ef0bb5a0f4ba59ecd","null","null","<p style=""font-size: 60px; font-family: BACS"">UvOGuZc</p>","","","","","","","","","",""
"html-keyboard-response","97","171025","0.0-10.0-0.8","5e8b66490d48450346bf2755","650c16f0f2faf8d7a0d14c09","651c1e7ef0bb5a0f4ba59ecd","null","null","<p style=""font-size: 60px; font-family: BACS"">tmAKPMYm</p>","","","","","","","","","",""
"html-keyboard-response","98","172040","0.0-10.0-0.9","5e8b66490d48450346bf2755","650c16f0f2faf8d7a0d14c09","651c1e7ef0bb5a0f4ba59ecd","null","null","<p style=""font-size: 60px; font-family: BACS"">TklDOBT</p>","","","","","","","","","",""
"html-keyboard-response","99","173056","0.0-10.0-0.10","5e8b66490d48450346bf2755","650c16f0f2faf8d7a0d14c09","651c1e7ef0bb5a0f4ba59ecd","null","null","<p style=""font-size: 60px; font-family: BACS"">kdaAJuZc</p>","","","","","","","","","",""
"html-keyboard-response","100","174058","0.0-10.0-0.11","5e8b66490d48450346bf2755","650c16f0f2faf8d7a0d14c09","651c1e7ef0bb5a0f4ba59ecd","null","null","<p style=""font-size: 60px; font-family: BACS"">DBlhcDR</p>","","","","","","","","","",""
"html-keyboard-response","101","175073","0.0-10.0-0.12","5e8b66490d48450346bf2755","650c16f0f2faf8d7a0d14c09","651c1e7ef0bb5a0f4ba59ecd","null","null","<p style=""font-size: 60px; font-family: BACS"">cuOJbkmU</p>","","","","","","","","","",""
"html-keyboard-response","102","176090","0.0-10.0-0.13","5e8b66490d48450346bf2755","650c16f0f2faf8d7a0d14c09","651c1e7ef0bb5a0f4ba59ecd","null","null","<p style=""font-size: 60px; font-family: BACS"">QbkAcvJQ</p>","","","","","","","","","",""
"html-keyboard-response","103","177107","0.0-10.0-0.14","5e8b66490d48450346bf2755","650c16f0f2faf8d7a0d14c09","651c1e7ef0bb5a0f4ba59ecd","null","null","<p style=""font-size: 60px; font-family: BACS"">TklDTmTm</p>","","","","","","","","","",""
"html-keyboard-response","104","178124","0.0-10.0-0.15","5e8b66490d48450346bf2755","650c16f0f2faf8d7a0d14c09","651c1e7ef0bb5a0f4ba59ecd","null","null","<p style=""font-size: 60px; font-family: BACS"">rGUAYkmU</p>","","","","","","","","","",""
"html-keyboard-response","105","179140","0.0-10.0-0.16","5e8b66490d48450346bf2755","650c16f0f2faf8d7a0d14c09","651c1e7ef0bb5a0f4ba59ecd","null","null","<p style=""font-size: 60px; font-family: BACS"">hBmMCcDR</p>","","","","","","","","","",""
"html-keyboard-response","106","180157","0.0-10.0-0.17","5e8b66490d48450346bf2755","650c16f0f2faf8d7a0d14c09","651c1e7ef0bb5a0f4ba59ecd","null","null","<p style=""font-size: 60px; font-family: BACS"">TdTDPMYm</p>","","","","","","","","","",""
"html-keyboard-response","107","181173","0.0-10.0-0.18","5e8b66490d48450346bf2755","650c16f0f2faf8d7a0d14c09","651c1e7ef0bb5a0f4ba59ecd","null","null","<p style=""font-size: 60px; font-family: BACS"">tcYbdTmTm</p>","","","","","","","","","",""
"html-keyboard-response","108","182191","0.0-10.0-0.19","5e8b66490d48450346bf2755","650c16f0f2faf8d7a0d14c09","651c1e7ef0bb5a0f4ba59ecd","null","null","<p style=""font-size: 60px; font-family: BACS"">LNUrJuZc</p>","","","","","","","","","",""
"html-keyboard-response","109","183206","0.0-10.0-0.20","5e8b66490d48450346bf2755","650c16f0f2faf8d7a0d14c09","651c1e7ef0bb5a0f4ba59ecd","null","null","<p style=""font-size: 60px; font-family: BACS"">UvOGkmU</p>","","","","","","","","","",""
"html-keyboard-response","110","184208","0.0-10.0-0.21","5e8b66490d48450346bf2755","650c16f0f2faf8d7a0d14c09","651c1e7ef0bb5a0f4ba59ecd","null","null","<p style=""font-size: 60px; font-family: BACS"">bmdABTmTm</p>","","","","","","","","","",""
"html-keyboard-response","111","185222","0.0-10.0-0.22","5e8b66490d48450346bf2755","650c16f0f2faf8d7a0d14c09","651c1e7ef0bb5a0f4ba59ecd","null","null","<p style=""font-size: 60px; font-family: BACS"">bcORPMYm</p>","","","","","","","","","",""
"html-keyboard-response","112","186223","0.0-10.0-0.23","5e8b66490d48450346bf2755","650c16f0f2faf8d7a0d14c09","651c1e7ef0bb5a0f4ba59ecd","null","null","<p style=""font-size: 60px; font-family: BACS"">bmdABcDR</p>","","","","","","","","","",""
"html-keyboard-response","113","187239","0.0-10.0-0.24","5e8b66490d48450346bf2755","650c16f0f2faf8d7a0d14c09","651c1e7ef0bb5a0f4ba59ecd","null","null","<p style=""font-size: 60px; font-family: BACS"">rGUAYuda</p>","","","","","","","","","",""
"html-keyboard-response","114","188255","0.0-10.0-0.25","5e8b66490d48450346bf2755","650c16f0f2faf8d7a0d14c09","651c1e7ef0bb5a0f4ba59ecd","null","null","<p style=""font-size: 60px; font-family: BACS"">bcOROBT</p>","","","","","","","","","",""
"html-keyboard-response","115","189272","0.0-10.0-0.26","5e8b66490d48450346bf2755","650c16f0f2faf8d7a0d14c09","651c1e7ef0bb5a0f4ba59ecd","null","null","<p style=""font-size: 60px; font-family: BACS"">BMEMAPEdK</p>","","","","","","","","","",""
"html-keyboard-response","116","190274","0.0-10.0-0.27","5e8b66490d48450346bf2755","650c16f0f2faf8d7a0d14c09","651c1e7ef0bb5a0f4ba59ecd","null","null","<p style=""font-size: 60px; font-family: BACS"">cuOJbuZc</p>","","","","","","","","","",""
"html-keyboard-response","117","191281","0.0-10.0-0.28","5e8b66490d48450346bf2755","650c16f0f2faf8d7a0d14c09","651c1e7ef0bb5a0f4ba59ecd","null","null","<p style=""font-size: 60px; font-family: BACS"">OQarQkmU</p>","","","","","","","","","",""
"html-keyboard-response","118","192289","0.0-10.0-0.29","5e8b66490d48450346bf2755","650c16f0f2faf8d7a0d14c09","651c1e7ef0bb5a0f4ba59ecd","null","null","<p style=""font-size: 60px; font-family: BACS"">tmAKPEdK</p>","","","","","","","","","",""
"html-keyboard-response","119","193292","0.0-10.0-0.30","5e8b66490d48450346bf2755","650c16f0f2faf8d7a0d14c09","651c1e7ef0bb5a0f4ba59ecd","null","null","<p style=""font-size: 60px; font-family: BACS"">LNUrJNmAG</p>","","","","","","","","","",""
"html-keyboard-response","120","194306","0.0-10.0-0.31","5e8b66490d48450346bf2755","650c16f0f2faf8d7a0d14c09","651c1e7ef0bb5a0f4ba59ecd","null","null","<p style=""font-size: 60px; font-family: BACS"">hBmMCTmTm</p>","","","","","","","","","",""
"html-keyboard-response","121","195307","0.0-10.0-0.32","5e8b66490d48450346bf2755","650c16f0f2faf8d7a0d14c09","651c1e7ef0bb5a0f4ba59ecd","null","null","<p style=""font-size: 60px; font-family: BACS"">OQarQuZc</p>","","","","","","","","","",""
"html-keyboard-response","122","196323","0.0-10.0-0.33","5e8b66490d48450346bf2755","650c16f0f2faf8d7a0d14c09","651c1e7ef0bb5a0f4ba59ecd","null","null","<p style=""font-size: 60px; font-family: BACS"">TklDPEdK</p>","","","","","","","","","",""
"html-keyboard-response","123","197325","0.0-10.0-0.34","5e8b66490d48450346bf2755","650c16f0f2faf8d7a0d14c09","651c1e7ef0bb5a0f4ba59ecd","null","null","<p style=""font-size: 60px; font-family: BACS"">tmAKcDR</p>","","","","","","","","","",""
"html-keyboard-response","124","198340","0.0-10.0-0.35","5e8b66490d48450346bf2755","650c16f0f2faf8d7a0d14c09","651c1e7ef0bb5a0f4ba59ecd","null","null","<p style=""font-size: 60px; font-family: BACS"">TdTDOBT</p>","","","","","","","","","",""
"html-keyboard-response","125","199356","0.0-10.0-0.36","5e8b66490d48450346bf2755","650c16f0f2faf8d7a0d14c09","651c1e7ef0bb5a0f4ba59ecd","null","null","<p style=""font-size: 60px; font-family: BACS"">BMEMATmTm</p>","","","","","","","","","",""
"html-keyboard-response","126","200359","0.0-10.0-0.37","5e8b66490d48450346bf2755","650c16f0f2faf8d7a0d14c09","651c1e7ef0bb5a0f4ba59ecd","null","null","<p style=""font-size: 60px; font-family: BACS"">cuOJbvJQ</p>","","","","","","","","","",""
"html-keyboard-response","127","201373","0.0-10.0-0.38","5e8b66490d48450346bf2755","650c16f0f2faf8d7a0d14c09","651c1e7ef0bb5a0f4ba59ecd","null","null","<p style=""font-size: 60px; font-family: BACS"">tcYbdcDR</p>","","","","","","","","","",""
"html-keyboard-response","128","202389","0.0-10.0-0.39","5e8b66490d48450346bf2755","650c16f0f2faf8d7a0d14c09","651c1e7ef0bb5a0f4ba59ecd","null","null","<p style=""font-size: 60px; font-family: BACS"">NLQGmvJQ</p>","","","","","","","","","",""
"html-keyboard-response","129","203391","0.0-10.0-0.40","5e8b66490d48450346bf2755","650c16f0f2faf8d7a0d14c09","651c1e7ef0bb5a0f4ba59ecd","null","null","<p style=""font-size: 60px; font-family: BACS"">hBmMCOBT</p>","","","","","","","","","",""
"html-keyboard-response","130","204406","0.0-10.0-0.41","5e8b66490d48450346bf2755","650c16f0f2faf8d7a0d14c09","651c1e7ef0bb5a0f4ba59ecd","null","null","<p style=""font-size: 60px; font-family: BACS"">UvOGNmAG</p>","","","","","","","","","",""
"html-keyboard-response","131","205422","0.0-10.0-0.42","5e8b66490d48450346bf2755","650c16f0f2faf8d7a0d14c09","651c1e7ef0bb5a0f4ba59ecd","null","null","<p style=""font-size: 60px; font-family: BACS"">bcORTmTm</p>","","","","","","","","","",""
"html-keyboard-response","132","206424","0.0-10.0-0.43","5e8b66490d48450346bf2755","650c16f0f2faf8d7a0d14c09","651c1e7ef0bb5a0f4ba59ecd","null","null","<p style=""font-size: 60px; font-family: BACS"">TdTDcDR</p>","","","","","","","","","",""
"html-keyboard-response","133","207439","0.0-10.0-0.44","5e8b66490d48450346bf2755","650c16f0f2faf8d7a0d14c09","651c1e7ef0bb5a0f4ba59ecd","null","null","<p style=""font-size: 60px; font-family: BACS"">QbkAcNmAG</p>","","","","","","","","","",""
"html-keyboard-response","134","208456","0.0-10.0-0.45","5e8b66490d48450346bf2755","650c16f0f2faf8d7a0d14c09","651c1e7ef0bb5a0f4ba59ecd","null","null","<p style=""font-size: 60px; font-family: BACS"">DBlhPEdK</p>","","","","","","","","","",""
"html-keyboard-response","135","209472","0.0-10.0-0.46","5e8b66490d48450346bf2755","650c16f0f2faf8d7a0d14c09","651c1e7ef0bb5a0f4ba59ecd","null","null","<p style=""font-size: 60px; font-family: BACS"">vblruda</p>","","","","","","","","","",""
"html-keyboard-response","136","210490","0.0-10.0-0.47","5e8b66490d48450346bf2755","650c16f0f2faf8d7a0d14c09","651c1e7ef0bb5a0f4ba59ecd","null","null","<p style=""font-size: 60px; font-family: BACS"">UdbdvJQ</p>","","","","","","","","","",""
"html-keyboard-response","137","211505","0.0-10.0-0.48","5e8b66490d48450346bf2755","650c16f0f2faf8d7a0d14c09","651c1e7ef0bb5a0f4ba59ecd","null","null","<p style=""font-size: 60px; font-family: BACS"">OQarQuda</p>","","","","","","","","","",""
"html-keyboard-response","138","212522","0.0-10.0-0.49","5e8b66490d48450346bf2755","650c16f0f2faf8d7a0d14c09","651c1e7ef0bb5a0f4ba59ecd","null","null","<p style=""font-size: 60px; font-family: BACS"">EhRmcDR</p>","","","","","","","","","",""
"html-keyboard-response","139","213539","0.0-10.0-0.50","5e8b66490d48450346bf2755","650c16f0f2faf8d7a0d14c09","651c1e7ef0bb5a0f4ba59ecd","null","null","<p style=""font-size: 60px; font-family: BACS"">rGUAYvJQ</p>","","","","","","","","","",""
"html-keyboard-response","140","214555","0.0-10.0-0.51","5e8b66490d48450346bf2755","650c16f0f2faf8d7a0d14c09","651c1e7ef0bb5a0f4ba59ecd","null","null","<p style=""font-size: 60px; font-family: BACS"">NLQGmNmAG</p>","","","","","","","","","",""
"html-keyboard-response","141","215557","0.0-10.0-0.52","5e8b66490d48450346bf2755","650c16f0f2faf8d7a0d14c09","651c1e7ef0bb5a0f4ba59ecd","null","null","<p style=""font-size: 60px; font-family: BACS"">BMEMAPMYm</p>","","","","","","","","","",""
"html-keyboard-response","142","216571","0.0-10.0-0.53","5e8b66490d48450346bf2755","650c16f0f2faf8d7a0d14c09","651c1e7ef0bb5a0f4ba59ecd","null","null","<p style=""font-size: 60px; font-family: BACS"">QbkAcuda</p>","","","","","","","","","",""
"html-keyboard-response","143","217573","0.0-10.0-0.54","5e8b66490d48450346bf2755","650c16f0f2faf8d7a0d14c09","651c1e7ef0bb5a0f4ba59ecd","null","null","<p style=""font-size: 60px; font-family: BACS"">TdTDTmTm</p>","","","","","","","","","",""
"html-keyboard-response","144","218589","0.0-10.0-0.55","5e8b66490d48450346bf2755","650c16f0f2faf8d7a0d14c09","651c1e7ef0bb5a0f4ba59ecd","null","null","<p style=""font-size: 60px; font-family: BACS"">hBmMCPMYm</p>","","","","","","","","","",""
"html-keyboard-response","145","219605","0.0-10.0-0.56","5e8b66490d48450346bf2755","650c16f0f2faf8d7a0d14c09","651c1e7ef0bb5a0f4ba59ecd","null","null","<p style=""font-size: 60px; font-family: BACS"">QbkAckmU</p>","","","","","","","","","",""
"html-keyboard-response","146","220606","0.0-10.0-0.57","5e8b66490d48450346bf2755","650c16f0f2faf8d7a0d14c09","651c1e7ef0bb5a0f4ba59ecd","null","null","<p style=""font-size: 60px; font-family: BACS"">EhRmTmTm</p>","","","","","","","","","",""
"html-keyboard-response","147","221622","0.0-10.0-0.58","5e8b66490d48450346bf2755","650c16f0f2faf8d7a0d14c09","651c1e7ef0bb5a0f4ba59ecd","null","null","<p style=""font-size: 60px; font-family: BACS"">bmdABPEdK</p>","","","","","","","","","",""
"html-keyboard-response","148","222639","0.0-10.0-0.59","5e8b66490d48450346bf2755","650c16f0f2faf8d7a0d14c09","651c1e7ef0bb5a0f4ba59ecd","null","null","<p style=""font-size: 60px; font-family: BACS"">LNUrJkmU</p>","","","","","","","","","",""
"html-keyboard-response","149","223655","0.0-10.0-0.60","5e8b66490d48450346bf2755","650c16f0f2faf8d7a0d14c09","651c1e7ef0bb5a0f4ba59ecd","null","null","<p style=""font-size: 60px; font-family: BACS"">UdbduZc</p>","","","","","","","","","",""
"html-keyboard-response","150","224671","0.0-10.0-0.61","5e8b66490d48450346bf2755","650c16f0f2faf8d7a0d14c09","651c1e7ef0bb5a0f4ba59ecd","null","null","<p style=""font-size: 60px; font-family: BACS"">kdaAJuda</p>","","","","","","","","","",""
"html-keyboard-response","151","225673","0.0-10.0-0.62","5e8b66490d48450346bf2755","650c16f0f2faf8d7a0d14c09","651c1e7ef0bb5a0f4ba59ecd","null","null","<p style=""font-size: 60px; font-family: BACS"">vblrNmAG</p>","","","","","","","","","",""
"html-keyboard-response","152","226688","0.0-10.0-0.63","5e8b66490d48450346bf2755","650c16f0f2faf8d7a0d14c09","651c1e7ef0bb5a0f4ba59ecd","null","null","<p style=""font-size: 60px; font-family: BACS"">TklDPMYm</p>","","","","","","","","","",""
"html-keyboard-response","153","227705","0.0-10.0-0.64","5e8b66490d48450346bf2755","650c16f0f2faf8d7a0d14c09","651c1e7ef0bb5a0f4ba59ecd","null","null","<p style=""font-size: 60px; font-family: BACS"">NLQGmuZc</p>","","","","","","","","","",""
"html-keyboard-response","154","228722","0.0-10.0-0.65","5e8b66490d48450346bf2755","650c16f0f2faf8d7a0d14c09","651c1e7ef0bb5a0f4ba59ecd","null","null","<p style=""font-size: 60px; font-family: BACS"">bcORPEdK</p>","","","","","","","","","",""
"html-keyboard-response","155","229738","0.0-10.0-0.66","5e8b66490d48450346bf2755","650c16f0f2faf8d7a0d14c09","651c1e7ef0bb5a0f4ba59ecd","null","null","<p style=""font-size: 60px; font-family: BACS"">tcYbdOBT</p>","","","","","","","","","",""
"html-keyboard-response","156","230739","0.0-10.0-0.67","5e8b66490d48450346bf2755","650c16f0f2faf8d7a0d14c09","651c1e7ef0bb5a0f4ba59ecd","null","null","<p style=""font-size: 60px; font-family: BACS"">UvOGuda</p>","","","","","","","","","",""
"html-keyboard-response","157","231754","0.0-10.0-0.68","5e8b66490d48450346bf2755","650c16f0f2faf8d7a0d14c09","651c1e7ef0bb5a0f4ba59ecd","null","null","<p style=""font-size: 60px; font-family: BACS"">BMEMAcDR</p>","","","","","","","","","",""
"html-keyboard-response","158","232771","0.0-10.0-0.69","5e8b66490d48450346bf2755","650c16f0f2faf8d7a0d14c09","651c1e7ef0bb5a0f4ba59ecd","null","null","<p style=""font-size: 60px; font-family: BACS"">tmAKOBT</p>","","","","","","","","","",""
"html-keyboard-response","159","233773","0.0-10.0-0.70","5e8b66490d48450346bf2755","650c16f0f2faf8d7a0d14c09","651c1e7ef0bb5a0f4ba59ecd","null","null","<p style=""font-size: 60px; font-family: BACS"">OQarQvJQ</p>","","","","","","","","","",""
"html-keyboard-response","160","234787","0.0-10.0-0.71","5e8b66490d48450346bf2755","650c16f0f2faf8d7a0d14c09","651c1e7ef0bb5a0f4ba59ecd","null","null","<p style=""font-size: 60px; font-family: BACS"">EhRmPEdK</p>","","","","","","","","","",""
"html-keyboard-response","161","235789","0.0-10.0-0.72","5e8b66490d48450346bf2755","650c16f0f2faf8d7a0d14c09","651c1e7ef0bb5a0f4ba59ecd","null","null","<p style=""font-size: 60px; font-family: BACS"">kdaAJNmAG</p>","","","","","","","","","",""
"html-keyboard-response","162","236805","0.0-10.0-0.73","5e8b66490d48450346bf2755","650c16f0f2faf8d7a0d14c09","651c1e7ef0bb5a0f4ba59ecd","null","null","<p style=""font-size: 60px; font-family: BACS"">DBlhPMYm</p>","","","","","","","","","",""
"html-keyboard-response","163","237822","0.0-10.0-0.74","5e8b66490d48450346bf2755","650c16f0f2faf8d7a0d14c09","651c1e7ef0bb5a0f4ba59ecd","null","null","<p style=""font-size: 60px; font-family: BACS"">kdaAJvJQ</p>","","","","","","","","","",""
"html-keyboard-response","164","238839","0.0-10.0-0.75","5e8b66490d48450346bf2755","650c16f0f2faf8d7a0d14c09","651c1e7ef0bb5a0f4ba59ecd","null","null","<p style=""font-size: 60px; font-family: BACS"">EhRmPMYm</p>","","","","","","","","","",""
"html-keyboard-response","165","239854","0.0-10.0-0.76","5e8b66490d48450346bf2755","650c16f0f2faf8d7a0d14c09","651c1e7ef0bb5a0f4ba59ecd","null","null","<p style=""font-size: 60px; font-family: BACS"">bmdABOBT</p>","","","","","","","","","",""
"html-keyboard-response","166","240871","0.0-10.0-0.77","5e8b66490d48450346bf2755","650c16f0f2faf8d7a0d14c09","651c1e7ef0bb5a0f4ba59ecd","null","null","<p style=""font-size: 60px; font-family: BACS"">vblruZc</p>","","","","","","","","","",""
"html-keyboard-response","167","241888","0.0-10.0-0.78","5e8b66490d48450346bf2755","650c16f0f2faf8d7a0d14c09","651c1e7ef0bb5a0f4ba59ecd","null","null","<p style=""font-size: 60px; font-family: BACS"">tcYbdPEdK</p>","","","","","","","","","",""
"html-keyboard-response","168","242905","0.0-10.0-0.79","5e8b66490d48450346bf2755","650c16f0f2faf8d7a0d14c09","651c1e7ef0bb5a0f4ba59ecd","null","null","<p style=""font-size: 60px; font-family: BACS"">cuOJbNmAG</p>","","","","","","","","","",""
"html-keyboard-response","169","247309","0.0-11.0","5e8b66490d48450346bf2755","650c16f0f2faf8d7a0d14c09","651c1e7ef0bb5a0f4ba59ecd","4403"," ","<p>Great, you've seen the second block of words. You may now take a short break.</p>
      <p>Press the spacebar when you're ready to continue.</p>","","","","","","","","","",""
"html-keyboard-response","170","248321","0.0-12.0-0.0","5e8b66490d48450346bf2755","650c16f0f2faf8d7a0d14c09","651c1e7ef0bb5a0f4ba59ecd","null","null","<p style=""font-size: 60px; font-family: BACS"">DBlhcDR</p>","","","","","","","","","",""
"html-keyboard-response","171","249337","0.0-12.0-0.1","5e8b66490d48450346bf2755","650c16f0f2faf8d7a0d14c09","651c1e7ef0bb5a0f4ba59ecd","null","null","<p style=""font-size: 60px; font-family: BACS"">cuOJbkmU</p>","","","","","","","","","",""
"html-keyboard-response","172","250339","0.0-12.0-0.2","5e8b66490d48450346bf2755","650c16f0f2faf8d7a0d14c09","651c1e7ef0bb5a0f4ba59ecd","null","null","<p style=""font-size: 60px; font-family: BACS"">UdbdvJQ</p>","","","","","","","","","",""
"html-keyboard-response","173","251355","0.0-12.0-0.3","5e8b66490d48450346bf2755","650c16f0f2faf8d7a0d14c09","651c1e7ef0bb5a0f4ba59ecd","null","null","<p style=""font-size: 60px; font-family: BACS"">UvOGNmAG</p>","","","","","","","","","",""
"html-keyboard-response","174","252371","0.0-12.0-0.4","5e8b66490d48450346bf2755","650c16f0f2faf8d7a0d14c09","651c1e7ef0bb5a0f4ba59ecd","null","null","<p style=""font-size: 60px; font-family: BACS"">EhRmTmTm</p>","","","","","","","","","",""
"html-keyboard-response","175","253387","0.0-12.0-0.5","5e8b66490d48450346bf2755","650c16f0f2faf8d7a0d14c09","651c1e7ef0bb5a0f4ba59ecd","null","null","<p style=""font-size: 60px; font-family: BACS"">NLQGmuda</p>","","","","","","","","","",""
"html-keyboard-response","176","254390","0.0-12.0-0.6","5e8b66490d48450346bf2755","650c16f0f2faf8d7a0d14c09","651c1e7ef0bb5a0f4ba59ecd","null","null","<p style=""font-size: 60px; font-family: BACS"">cuOJbNmAG</p>","","","","","","","","","",""
"html-keyboard-response","177","255405","0.0-12.0-0.7","5e8b66490d48450346bf2755","650c16f0f2faf8d7a0d14c09","651c1e7ef0bb5a0f4ba59ecd","null","null","<p style=""font-size: 60px; font-family: BACS"">QbkAcuda</p>","","","","","","","","","",""
"html-keyboard-response","178","256408","0.0-12.0-0.8","5e8b66490d48450346bf2755","650c16f0f2faf8d7a0d14c09","651c1e7ef0bb5a0f4ba59ecd","null","null","<p style=""font-size: 60px; font-family: BACS"">kdaAJvJQ</p>","","","","","","","","","",""
"html-keyboard-response","179","257420","0.0-12.0-0.9","5e8b66490d48450346bf2755","650c16f0f2faf8d7a0d14c09","651c1e7ef0bb5a0f4ba59ecd","null","null","<p style=""font-size: 60px; font-family: BACS"">hBmMCPMYm</p>","","","","","","","","","",""
"html-keyboard-response","180","258437","0.0-12.0-0.10","5e8b66490d48450346bf2755","650c16f0f2faf8d7a0d14c09","651c1e7ef0bb5a0f4ba59ecd","null","null","<p style=""font-size: 60px; font-family: BACS"">OQarQuZc</p>","","","","","","","","","",""
"html-keyboard-response","181","259454","0.0-12.0-0.11","5e8b66490d48450346bf2755","650c16f0f2faf8d7a0d14c09","651c1e7ef0bb5a0f4ba59ecd","null","null","<p style=""font-size: 60px; font-family: BACS"">QbkAcNmAG</p>","","","","","","","","","",""
"html-keyboard-response","182","260456","0.0-12.0-0.12","5e8b66490d48450346bf2755","650c16f0f2faf8d7a0d14c09","651c1e7ef0bb5a0f4ba59ecd","null","null","<p style=""font-size: 60px; font-family: BACS"">rGUAYkmU</p>","","","","","","","","","",""
"html-keyboard-response","183","261469","0.0-12.0-0.13","5e8b66490d48450346bf2755","650c16f0f2faf8d7a0d14c09","651c1e7ef0bb5a0f4ba59ecd","null","null","<p style=""font-size: 60px; font-family: BACS"">EhRmPEdK</p>","","","","","","","","","",""
"html-keyboard-response","184","262472","0.0-12.0-0.14","5e8b66490d48450346bf2755","650c16f0f2faf8d7a0d14c09","651c1e7ef0bb5a0f4ba59ecd","null","null","<p style=""font-size: 60px; font-family: BACS"">TklDPMYm</p>","","","","","","","","","",""
"html-keyboard-response","185","263486","0.0-12.0-0.15","5e8b66490d48450346bf2755","650c16f0f2faf8d7a0d14c09","651c1e7ef0bb5a0f4ba59ecd","null","null","<p style=""font-size: 60px; font-family: BACS"">vblruZc</p>","","","","","","","","","",""
"html-keyboard-response","186","264504","0.0-12.0-0.16","5e8b66490d48450346bf2755","650c16f0f2faf8d7a0d14c09","651c1e7ef0bb5a0f4ba59ecd","null","null","<p style=""font-size: 60px; font-family: BACS"">kdaAJNmAG</p>","","","","","","","","","",""
"html-keyboard-response","187","265520","0.0-12.0-0.17","5e8b66490d48450346bf2755","650c16f0f2faf8d7a0d14c09","651c1e7ef0bb5a0f4ba59ecd","null","null","<p style=""font-size: 60px; font-family: BACS"">QbkAckmU</p>","","","","","","","","","",""
"html-keyboard-response","188","266537","0.0-12.0-0.18","5e8b66490d48450346bf2755","650c16f0f2faf8d7a0d14c09","651c1e7ef0bb5a0f4ba59ecd","null","null","<p style=""font-size: 60px; font-family: BACS"">hBmMCTmTm</p>","","","","","","","","","",""
"html-keyboard-response","189","267553","0.0-12.0-0.19","5e8b66490d48450346bf2755","650c16f0f2faf8d7a0d14c09","651c1e7ef0bb5a0f4ba59ecd","null","null","<p style=""font-size: 60px; font-family: BACS"">LNUrJkmU</p>","","","","","","","","","",""
"html-keyboard-response","190","268570","0.0-12.0-0.20","5e8b66490d48450346bf2755","650c16f0f2faf8d7a0d14c09","651c1e7ef0bb5a0f4ba59ecd","null","null","<p style=""font-size: 60px; font-family: BACS"">cuOJbvJQ</p>","","","","","","","","","",""
"html-keyboard-response","191","269585","0.0-12.0-0.21","5e8b66490d48450346bf2755","650c16f0f2faf8d7a0d14c09","651c1e7ef0bb5a0f4ba59ecd","null","null","<p style=""font-size: 60px; font-family: BACS"">NLQGmuZc</p>","","","","","","","","","",""
"html-keyboard-response","192","270588","0.0-12.0-0.22","5e8b66490d48450346bf2755","650c16f0f2faf8d7a0d14c09","651c1e7ef0bb5a0f4ba59ecd","null","null","<p style=""font-size: 60px; font-family: BACS"">hBmMCcDR</p>","","","","","","","","","",""
"html-keyboard-response","193","271602","0.0-12.0-0.23","5e8b66490d48450346bf2755","650c16f0f2faf8d7a0d14c09","651c1e7ef0bb5a0f4ba59ecd","null","null","<p style=""font-size: 60px; font-family: BACS"">bcOROBT</p>","","","","","","","","","",""
"html-keyboard-response","194","272604","0.0-12.0-0.24","5e8b66490d48450346bf2755","650c16f0f2faf8d7a0d14c09","651c1e7ef0bb5a0f4ba59ecd","null","null","<p style=""font-size: 60px; font-family: BACS"">BMEMAPMYm</p>","","","","","","","","","",""
"html-keyboard-response","195","273621","0.0-12.0-0.25","5e8b66490d48450346bf2755","650c16f0f2faf8d7a0d14c09","651c1e7ef0bb5a0f4ba59ecd","null","null","<p style=""font-size: 60px; font-family: BACS"">tmAKPEdK</p>","","","","","","","","","",""
"html-keyboard-response","196","274636","0.0-12.0-0.26","5e8b66490d48450346bf2755","650c16f0f2faf8d7a0d14c09","651c1e7ef0bb5a0f4ba59ecd","null","null","<p style=""font-size: 60px; font-family: BACS"">OQarQvJQ</p>","","","","","","","","","",""
"html-keyboard-response","197","275653","0.0-12.0-0.27","5e8b66490d48450346bf2755","650c16f0f2faf8d7a0d14c09","651c1e7ef0bb5a0f4ba59ecd","null","null","<p style=""font-size: 60px; font-family: BACS"">DBlhPEdK</p>","","","","","","","","","",""
"html-keyboard-response","198","276671","0.0-12.0-0.28","5e8b66490d48450346bf2755","650c16f0f2faf8d7a0d14c09","651c1e7ef0bb5a0f4ba59ecd","null","null","<p style=""font-size: 60px; font-family: BACS"">bmdABTmTm</p>","","","","","","","","","",""
"html-keyboard-response","199","277687","0.0-12.0-0.29","5e8b66490d48450346bf2755","650c16f0f2faf8d7a0d14c09","651c1e7ef0bb5a0f4ba59ecd","null","null","<p style=""font-size: 60px; font-family: BACS"">tmAKcDR</p>","","","","","","","","","",""
"html-keyboard-response","200","278703","0.0-12.0-0.30","5e8b66490d48450346bf2755","650c16f0f2faf8d7a0d14c09","651c1e7ef0bb5a0f4ba59ecd","null","null","<p style=""font-size: 60px; font-family: BACS"">TklDPEdK</p>","","","","","","","","","",""
"html-keyboard-response","201","279718","0.0-12.0-0.31","5e8b66490d48450346bf2755","650c16f0f2faf8d7a0d14c09","651c1e7ef0bb5a0f4ba59ecd","null","null","<p style=""font-size: 60px; font-family: BACS"">LNUrJvJQ</p>","","","","","","","","","",""
"html-keyboard-response","202","280722","0.0-12.0-0.32","5e8b66490d48450346bf2755","650c16f0f2faf8d7a0d14c09","651c1e7ef0bb5a0f4ba59ecd","null","null","<p style=""font-size: 60px; font-family: BACS"">BMEMAcDR</p>","","","","","","","","","",""
"html-keyboard-response","203","281736","0.0-12.0-0.33","5e8b66490d48450346bf2755","650c16f0f2faf8d7a0d14c09","651c1e7ef0bb5a0f4ba59ecd","null","null","<p style=""font-size: 60px; font-family: BACS"">vblruda</p>","","","","","","","","","",""
"html-keyboard-response","204","282752","0.0-12.0-0.34","5e8b66490d48450346bf2755","650c16f0f2faf8d7a0d14c09","651c1e7ef0bb5a0f4ba59ecd","null","null","<p style=""font-size: 60px; font-family: BACS"">TdTDPMYm</p>","","","","","","","","","",""
"html-keyboard-response","205","283755","0.0-12.0-0.35","5e8b66490d48450346bf2755","650c16f0f2faf8d7a0d14c09","651c1e7ef0bb5a0f4ba59ecd","null","null","<p style=""font-size: 60px; font-family: BACS"">tcYbdPEdK</p>","","","","","","","","","",""
"html-keyboard-response","206","284770","0.0-12.0-0.36","5e8b66490d48450346bf2755","650c16f0f2faf8d7a0d14c09","651c1e7ef0bb5a0f4ba59ecd","null","null","<p style=""font-size: 60px; font-family: BACS"">QbkAcvJQ</p>","","","","","","","","","",""
"html-keyboard-response","207","285786","0.0-12.0-0.37","5e8b66490d48450346bf2755","650c16f0f2faf8d7a0d14c09","651c1e7ef0bb5a0f4ba59ecd","null","null","<p style=""font-size: 60px; font-family: BACS"">bmdABOBT</p>","","","","","","","","","",""
"html-keyboard-response","208","286788","0.0-12.0-0.38","5e8b66490d48450346bf2755","650c16f0f2faf8d7a0d14c09","651c1e7ef0bb5a0f4ba59ecd","null","null","<p style=""font-size: 60px; font-family: BACS"">EhRmPMYm</p>","","","","","","","","","",""
"html-keyboard-response","209","287803","0.0-12.0-0.39","5e8b66490d48450346bf2755","650c16f0f2faf8d7a0d14c09","651c1e7ef0bb5a0f4ba59ecd","null","null","<p style=""font-size: 60px; font-family: BACS"">tcYbdTmTm</p>","","","","","","","","","",""
"html-keyboard-response","210","288819","0.0-12.0-0.40","5e8b66490d48450346bf2755","650c16f0f2faf8d7a0d14c09","651c1e7ef0bb5a0f4ba59ecd","null","null","<p style=""font-size: 60px; font-family: BACS"">TdTDOBT</p>","","","","","","","","","",""
"html-keyboard-response","211","289820","0.0-12.0-0.41","5e8b66490d48450346bf2755","650c16f0f2faf8d7a0d14c09","651c1e7ef0bb5a0f4ba59ecd","null","null","<p style=""font-size: 60px; font-family: BACS"">UvOGuZc</p>","","","","","","","","","",""
"html-keyboard-response","212","290835","0.0-12.0-0.42","5e8b66490d48450346bf2755","650c16f0f2faf8d7a0d14c09","651c1e7ef0bb5a0f4ba59ecd","null","null","<p style=""font-size: 60px; font-family: BACS"">rGUAYuda</p>","","","","","","","","","",""
"html-keyboard-response","213","291853","0.0-12.0-0.43","5e8b66490d48450346bf2755","650c16f0f2faf8d7a0d14c09","651c1e7ef0bb5a0f4ba59ecd","null","null","<p style=""font-size: 60px; font-family: BACS"">kdaAJuZc</p>","","","","","","","","","",""
"html-keyboard-response","214","292869","0.0-12.0-0.44","5e8b66490d48450346bf2755","650c16f0f2faf8d7a0d14c09","651c1e7ef0bb5a0f4ba59ecd","null","null","<p style=""font-size: 60px; font-family: BACS"">LNUrJNmAG</p>","","","","","","","","","",""
"html-keyboard-response","215","293886","0.0-12.0-0.45","5e8b66490d48450346bf2755","650c16f0f2faf8d7a0d14c09","651c1e7ef0bb5a0f4ba59ecd","null","null","<p style=""font-size: 60px; font-family: BACS"">kdaAJuda</p>","","","","","","","","","",""
"html-keyboard-response","216","294903","0.0-12.0-0.46","5e8b66490d48450346bf2755","650c16f0f2faf8d7a0d14c09","651c1e7ef0bb5a0f4ba59ecd","null","null","<p style=""font-size: 60px; font-family: BACS"">tmAKPMYm</p>","","","","","","","","","",""
"html-keyboard-response","217","295919","0.0-12.0-0.47","5e8b66490d48450346bf2755","650c16f0f2faf8d7a0d14c09","651c1e7ef0bb5a0f4ba59ecd","null","null","<p style=""font-size: 60px; font-family: BACS"">UvOGkmU</p>","","","","","","","","","",""
"html-keyboard-response","218","296935","0.0-12.0-0.48","5e8b66490d48450346bf2755","650c16f0f2faf8d7a0d14c09","651c1e7ef0bb5a0f4ba59ecd","null","null","<p style=""font-size: 60px; font-family: BACS"">TdTDcDR</p>","","","","","","","","","",""
"html-keyboard-response","219","297952","0.0-12.0-0.49","5e8b66490d48450346bf2755","650c16f0f2faf8d7a0d14c09","651c1e7ef0bb5a0f4ba59ecd","null","null","<p style=""font-size: 60px; font-family: BACS"">NLQGmvJQ</p>","","","","","","","","","",""
"html-keyboard-response","220","298969","0.0-12.0-0.50","5e8b66490d48450346bf2755","650c16f0f2faf8d7a0d14c09","651c1e7ef0bb5a0f4ba59ecd","null","null","<p style=""font-size: 60px; font-family: BACS"">vblrNmAG</p>","","","","","","","","","",""
"html-keyboard-response","221","299986","0.0-12.0-0.51","5e8b66490d48450346bf2755","650c16f0f2faf8d7a0d14c09","651c1e7ef0bb5a0f4ba59ecd","null","null","<p style=""font-size: 60px; font-family: BACS"">OQarQkmU</p>","","","","","","","","","",""
"html-keyboard-response","222","301003","0.0-12.0-0.52","5e8b66490d48450346bf2755","650c16f0f2faf8d7a0d14c09","651c1e7ef0bb5a0f4ba59ecd","null","null","<p style=""font-size: 60px; font-family: BACS"">TklDOBT</p>","","","","","","","","","",""
"html-keyboard-response","223","302019","0.0-12.0-0.53","5e8b66490d48450346bf2755","650c16f0f2faf8d7a0d14c09","651c1e7ef0bb5a0f4ba59ecd","null","null","<p style=""font-size: 60px; font-family: BACS"">UdbduZc</p>","","","","","","","","","",""
"html-keyboard-response","224","303035","0.0-12.0-0.54","5e8b66490d48450346bf2755","650c16f0f2faf8d7a0d14c09","651c1e7ef0bb5a0f4ba59ecd","null","null","<p style=""font-size: 60px; font-family: BACS"">rGUAYvJQ</p>","","","","","","","","","",""
"html-keyboard-response","225","304036","0.0-12.0-0.55","5e8b66490d48450346bf2755","650c16f0f2faf8d7a0d14c09","651c1e7ef0bb5a0f4ba59ecd","null","null","<p style=""font-size: 60px; font-family: BACS"">UdbdkmU</p>","","","","","","","","","",""
"html-keyboard-response","226","305054","0.0-12.0-0.56","5e8b66490d48450346bf2755","650c16f0f2faf8d7a0d14c09","651c1e7ef0bb5a0f4ba59ecd","null","null","<p style=""font-size: 60px; font-family: BACS"">EhRmcDR</p>","","","","","","","","","",""
"html-keyboard-response","227","306069","0.0-12.0-0.57","5e8b66490d48450346bf2755","650c16f0f2faf8d7a0d14c09","651c1e7ef0bb5a0f4ba59ecd","null","null","<p style=""font-size: 60px; font-family: BACS"">bcORPEdK</p>","","","","","","","","","",""
"html-keyboard-response","228","307075","0.0-12.0-0.58","5e8b66490d48450346bf2755","650c16f0f2faf8d7a0d14c09","651c1e7ef0bb5a0f4ba59ecd","null","null","<p style=""font-size: 60px; font-family: BACS"">DBlhPMYm</p>","","","","","","","","","",""
"html-keyboard-response","229","308084","0.0-12.0-0.59","5e8b66490d48450346bf2755","650c16f0f2faf8d7a0d14c09","651c1e7ef0bb5a0f4ba59ecd","null","null","<p style=""font-size: 60px; font-family: BACS"">tcYbdcDR</p>","","","","","","","","","",""
"html-keyboard-response","230","309274","0.0-12.0-0.60","5e8b66490d48450346bf2755","650c16f0f2faf8d7a0d14c09","651c1e7ef0bb5a0f4ba59ecd","null","null","<p style=""font-size: 60px; font-family: BACS"">BMEMAPEdK</p>","","","","","","","","","",""
"html-keyboard-response","231","310802","0.0-12.0-0.61","5e8b66490d48450346bf2755","650c16f0f2faf8d7a0d14c09","651c1e7ef0bb5a0f4ba59ecd","null","null","<p style=""font-size: 60px; font-family: BACS"">NLQGmNmAG</p>","","","","","","","","","",""
"html-keyboard-response","232","312533","0.0-12.0-0.62","5e8b66490d48450346bf2755","650c16f0f2faf8d7a0d14c09","651c1e7ef0bb5a0f4ba59ecd","null","null","<p style=""font-size: 60px; font-family: BACS"">TdTDTmTm</p>","","","","","","","","","",""
"html-keyboard-response","233","314620","0.0-12.0-0.63","5e8b66490d48450346bf2755","650c16f0f2faf8d7a0d14c09","651c1e7ef0bb5a0f4ba59ecd","null","null","<p style=""font-size: 60px; font-family: BACS"">bcORPMYm</p>","","","","","","","","","",""
"html-keyboard-response","234","316532","0.0-12.0-0.64","5e8b66490d48450346bf2755","650c16f0f2faf8d7a0d14c09","651c1e7ef0bb5a0f4ba59ecd","null","null","<p style=""font-size: 60px; font-family: BACS"">Udbduda</p>","","","","","","","","","",""
"html-keyboard-response","235","317536","0.0-12.0-0.65","5e8b66490d48450346bf2755","650c16f0f2faf8d7a0d14c09","651c1e7ef0bb5a0f4ba59ecd","null","null","<p style=""font-size: 60px; font-family: BACS"">tmAKOBT</p>","","","","","","","","","",""
"html-keyboard-response","236","319537","0.0-12.0-0.66","5e8b66490d48450346bf2755","650c16f0f2faf8d7a0d14c09","651c1e7ef0bb5a0f4ba59ecd","null","null","<p style=""font-size: 60px; font-family: BACS"">UvOGuda</p>","","","","","","","","","",""
"html-keyboard-response","237","320539","0.0-12.0-0.67","5e8b66490d48450346bf2755","650c16f0f2faf8d7a0d14c09","651c1e7ef0bb5a0f4ba59ecd","null","null","<p style=""font-size: 60px; font-family: BACS"">bcORTmTm</p>","","","","","","","","","",""
"html-keyboard-response","238","322531","0.0-12.0-0.68","5e8b66490d48450346bf2755","650c16f0f2faf8d7a0d14c09","651c1e7ef0bb5a0f4ba59ecd","null","null","<p style=""font-size: 60px; font-family: BACS"">vblrkmU</p>","","","","","","","","","",""
"html-keyboard-response","239","323547","0.0-12.0-0.69","5e8b66490d48450346bf2755","650c16f0f2faf8d7a0d14c09","651c1e7ef0bb5a0f4ba59ecd","null","null","<p style=""font-size: 60px; font-family: BACS"">rGUAYNmAG</p>","","","","","","","","","",""
"html-keyboard-response","240","324966","0.0-12.0-0.70","5e8b66490d48450346bf2755","650c16f0f2faf8d7a0d14c09","651c1e7ef0bb5a0f4ba59ecd","null","null","<p style=""font-size: 60px; font-family: BACS"">bmdABcDR</p>","","","","","","","","","",""
"html-keyboard-response","241","325971","0.0-12.0-0.71","5e8b66490d48450346bf2755","650c16f0f2faf8d7a0d14c09","651c1e7ef0bb5a0f4ba59ecd","null","null","<p style=""font-size: 60px; font-family: BACS"">BMEMATmTm</p>","","","","","","","","","",""
"html-keyboard-response","242","326974","0.0-12.0-0.72","5e8b66490d48450346bf2755","650c16f0f2faf8d7a0d14c09","651c1e7ef0bb5a0f4ba59ecd","null","null","<p style=""font-size: 60px; font-family: BACS"">hBmMCOBT</p>","","","","","","","","","",""
"html-keyboard-response","243","327976","0.0-12.0-0.73","5e8b66490d48450346bf2755","650c16f0f2faf8d7a0d14c09","651c1e7ef0bb5a0f4ba59ecd","null","null","<p style=""font-size: 60px; font-family: BACS"">bmdABPEdK</p>","","","","","","","","","",""
"html-keyboard-response","244","328983","0.0-12.0-0.74","5e8b66490d48450346bf2755","650c16f0f2faf8d7a0d14c09","651c1e7ef0bb5a0f4ba59ecd","null","null","<p style=""font-size: 60px; font-family: BACS"">TklDTmTm</p>","","","","","","","","","",""
"html-keyboard-response","245","330000","0.0-12.0-0.75","5e8b66490d48450346bf2755","650c16f0f2faf8d7a0d14c09","651c1e7ef0bb5a0f4ba59ecd","null","null","<p style=""font-size: 60px; font-family: BACS"">OQarQuda</p>","","","","","","","","","",""
"html-keyboard-response","246","331001","0.0-12.0-0.76","5e8b66490d48450346bf2755","650c16f0f2faf8d7a0d14c09","651c1e7ef0bb5a0f4ba59ecd","null","null","<p style=""font-size: 60px; font-family: BACS"">DBlhOBT</p>","","","","","","","","","",""
"html-keyboard-response","247","332003","0.0-12.0-0.77","5e8b66490d48450346bf2755","650c16f0f2faf8d7a0d14c09","651c1e7ef0bb5a0f4ba59ecd","null","null","<p style=""font-size: 60px; font-family: BACS"">LNUrJuZc</p>","","","","","","","","","",""
"html-keyboard-response","248","333016","0.0-12.0-0.78","5e8b66490d48450346bf2755","650c16f0f2faf8d7a0d14c09","651c1e7ef0bb5a0f4ba59ecd","null","null","<p style=""font-size: 60px; font-family: BACS"">tcYbdOBT</p>","","","","","","","","","",""
"html-keyboard-response","249","334018","0.0-12.0-0.79","5e8b66490d48450346bf2755","650c16f0f2faf8d7a0d14c09","651c1e7ef0bb5a0f4ba59ecd","null","null","<p style=""font-size: 60px; font-family: BACS"">cuOJbuZc</p>","","","","","","","","","",""
"html-keyboard-response","250","681568","0.0-13.0","5e8b66490d48450346bf2755","650c16f0f2faf8d7a0d14c09","651c1e7ef0bb5a0f4ba59ecd","347548"," ","<p>Great, you've seen the third block of words. You may now take a short break.</p>
      <p>Press the spacebar when you're ready to continue.</p>","","","","","","","","","",""
"html-keyboard-response","251","682571","0.0-14.0-0.0","5e8b66490d48450346bf2755","650c16f0f2faf8d7a0d14c09","651c1e7ef0bb5a0f4ba59ecd","null","null","<p style=""font-size: 60px; font-family: BACS"">bmdABOBT</p>","","","","","","","","","",""
"html-keyboard-response","252","683588","0.0-14.0-0.1","5e8b66490d48450346bf2755","650c16f0f2faf8d7a0d14c09","651c1e7ef0bb5a0f4ba59ecd","null","null","<p style=""font-size: 60px; font-family: BACS"">hBmMCcDR</p>","","","","","","","","","",""
"html-keyboard-response","253","684604","0.0-14.0-0.2","5e8b66490d48450346bf2755","650c16f0f2faf8d7a0d14c09","651c1e7ef0bb5a0f4ba59ecd","null","null","<p style=""font-size: 60px; font-family: BACS"">NLQGmuZc</p>","","","","","","","","","",""
"html-keyboard-response","254","685620","0.0-14.0-0.3","5e8b66490d48450346bf2755","650c16f0f2faf8d7a0d14c09","651c1e7ef0bb5a0f4ba59ecd","null","null","<p style=""font-size: 60px; font-family: BACS"">hBmMCPMYm</p>","","","","","","","","","",""
"html-keyboard-response","255","686621","0.0-14.0-0.4","5e8b66490d48450346bf2755","650c16f0f2faf8d7a0d14c09","651c1e7ef0bb5a0f4ba59ecd","null","null","<p style=""font-size: 60px; font-family: BACS"">tmAKcDR</p>","","","","","","","","","",""
"html-keyboard-response","256","687636","0.0-14.0-0.5","5e8b66490d48450346bf2755","650c16f0f2faf8d7a0d14c09","651c1e7ef0bb5a0f4ba59ecd","null","null","<p style=""font-size: 60px; font-family: BACS"">DBlhPEdK</p>","","","","","","","","","",""
"html-keyboard-response","257","688653","0.0-14.0-0.6","5e8b66490d48450346bf2755","650c16f0f2faf8d7a0d14c09","651c1e7ef0bb5a0f4ba59ecd","null","null","<p style=""font-size: 60px; font-family: BACS"">tcYbdOBT</p>","","","","","","","","","",""
"html-keyboard-response","258","689654","0.0-14.0-0.7","5e8b66490d48450346bf2755","650c16f0f2faf8d7a0d14c09","651c1e7ef0bb5a0f4ba59ecd","null","null","<p style=""font-size: 60px; font-family: BACS"">kdaAJNmAG</p>","","","","","","","","","",""
"html-keyboard-response","259","690670","0.0-14.0-0.8","5e8b66490d48450346bf2755","650c16f0f2faf8d7a0d14c09","651c1e7ef0bb5a0f4ba59ecd","null","null","<p style=""font-size: 60px; font-family: BACS"">cuOJbkmU</p>","","","","","","","","","",""
"html-keyboard-response","260","691687","0.0-14.0-0.9","5e8b66490d48450346bf2755","650c16f0f2faf8d7a0d14c09","651c1e7ef0bb5a0f4ba59ecd","null","null","<p style=""font-size: 60px; font-family: BACS"">UvOGuZc</p>","","","","","","","","","",""
"html-keyboard-response","261","692704","0.0-14.0-0.10","5e8b66490d48450346bf2755","650c16f0f2faf8d7a0d14c09","651c1e7ef0bb5a0f4ba59ecd","null","null","<p style=""font-size: 60px; font-family: BACS"">kdaAJuda</p>","","","","","","","","","",""
"html-keyboard-response","262","693722","0.0-14.0-0.11","5e8b66490d48450346bf2755","650c16f0f2faf8d7a0d14c09","651c1e7ef0bb5a0f4ba59ecd","null","null","<p style=""font-size: 60px; font-family: BACS"">OQarQvJQ</p>","","","","","","","","","",""
"html-keyboard-response","263","694735","0.0-14.0-0.12","5e8b66490d48450346bf2755","650c16f0f2faf8d7a0d14c09","651c1e7ef0bb5a0f4ba59ecd","null","null","<p style=""font-size: 60px; font-family: BACS"">NLQGmNmAG</p>","","","","","","","","","",""
"html-keyboard-response","264","695753","0.0-14.0-0.13","5e8b66490d48450346bf2755","650c16f0f2faf8d7a0d14c09","651c1e7ef0bb5a0f4ba59ecd","null","null","<p style=""font-size: 60px; font-family: BACS"">bmdABTmTm</p>","","","","","","","","","",""
"html-keyboard-response","265","696769","0.0-14.0-0.14","5e8b66490d48450346bf2755","650c16f0f2faf8d7a0d14c09","651c1e7ef0bb5a0f4ba59ecd","null","null","<p style=""font-size: 60px; font-family: BACS"">LNUrJkmU</p>","","","","","","","","","",""
"html-keyboard-response","266","697786","0.0-14.0-0.15","5e8b66490d48450346bf2755","650c16f0f2faf8d7a0d14c09","651c1e7ef0bb5a0f4ba59ecd","null","null","<p style=""font-size: 60px; font-family: BACS"">NLQGmvJQ</p>","","","","","","","","","",""
"html-keyboard-response","267","698802","0.0-14.0-0.16","5e8b66490d48450346bf2755","650c16f0f2faf8d7a0d14c09","651c1e7ef0bb5a0f4ba59ecd","null","null","<p style=""font-size: 60px; font-family: BACS"">QbkAcNmAG</p>","","","","","","","","","",""
"html-keyboard-response","268","699820","0.0-14.0-0.17","5e8b66490d48450346bf2755","650c16f0f2faf8d7a0d14c09","651c1e7ef0bb5a0f4ba59ecd","null","null","<p style=""font-size: 60px; font-family: BACS"">tcYbdPEdK</p>","","","","","","","","","",""
"html-keyboard-response","269","700835","0.0-14.0-0.18","5e8b66490d48450346bf2755","650c16f0f2faf8d7a0d14c09","651c1e7ef0bb5a0f4ba59ecd","null","null","<p style=""font-size: 60px; font-family: BACS"">TklDOBT</p>","","","","","","","","","",""
"html-keyboard-response","270","701852","0.0-14.0-0.19","5e8b66490d48450346bf2755","650c16f0f2faf8d7a0d14c09","651c1e7ef0bb5a0f4ba59ecd","null","null","<p style=""font-size: 60px; font-family: BACS"">LNUrJNmAG</p>","","","","","","","","","",""
"html-keyboard-response","271","702869","0.0-14.0-0.20","5e8b66490d48450346bf2755","650c16f0f2faf8d7a0d14c09","651c1e7ef0bb5a0f4ba59ecd","null","null","<p style=""font-size: 60px; font-family: BACS"">QbkAckmU</p>","","","","","","","","","",""
"html-keyboard-response","272","703871","0.0-14.0-0.21","5e8b66490d48450346bf2755","650c16f0f2faf8d7a0d14c09","651c1e7ef0bb5a0f4ba59ecd","null","null","<p style=""font-size: 60px; font-family: BACS"">rGUAYuda</p>","","","","","","","","","",""
"html-keyboard-response","273","704885","0.0-14.0-0.22","5e8b66490d48450346bf2755","650c16f0f2faf8d7a0d14c09","651c1e7ef0bb5a0f4ba59ecd","null","null","<p style=""font-size: 60px; font-family: BACS"">vblrkmU</p>","","","","","","","","","",""
"html-keyboard-response","274","705902","0.0-14.0-0.23","5e8b66490d48450346bf2755","650c16f0f2faf8d7a0d14c09","651c1e7ef0bb5a0f4ba59ecd","null","null","<p style=""font-size: 60px; font-family: BACS"">TdTDTmTm</p>","","","","","","","","","",""
"html-keyboard-response","275","706919","0.0-14.0-0.24","5e8b66490d48450346bf2755","650c16f0f2faf8d7a0d14c09","651c1e7ef0bb5a0f4ba59ecd","null","null","<p style=""font-size: 60px; font-family: BACS"">cuOJbvJQ</p>","","","","","","","","","",""
"html-keyboard-response","276","707920","0.0-14.0-0.25","5e8b66490d48450346bf2755","650c16f0f2faf8d7a0d14c09","651c1e7ef0bb5a0f4ba59ecd","null","null","<p style=""font-size: 60px; font-family: BACS"">UvOGuda</p>","","","","","","","","","",""
"html-keyboard-response","277","708935","0.0-14.0-0.26","5e8b66490d48450346bf2755","650c16f0f2faf8d7a0d14c09","651c1e7ef0bb5a0f4ba59ecd","null","null","<p style=""font-size: 60px; font-family: BACS"">rGUAYvJQ</p>","","","","","","","","","",""
"html-keyboard-response","278","709953","0.0-14.0-0.27","5e8b66490d48450346bf2755","650c16f0f2faf8d7a0d14c09","651c1e7ef0bb5a0f4ba59ecd","null","null","<p style=""font-size: 60px; font-family: BACS"">tcYbdTmTm</p>","","","","","","","","","",""
"html-keyboard-response","279","710968","0.0-14.0-0.28","5e8b66490d48450346bf2755","650c16f0f2faf8d7a0d14c09","651c1e7ef0bb5a0f4ba59ecd","null","null","<p style=""font-size: 60px; font-family: BACS"">bcORPEdK</p>","","","","","","","","","",""
"html-keyboard-response","280","711970","0.0-14.0-0.29","5e8b66490d48450346bf2755","650c16f0f2faf8d7a0d14c09","651c1e7ef0bb5a0f4ba59ecd","null","null","<p style=""font-size: 60px; font-family: BACS"">vblruZc</p>","","","","","","","","","",""
"html-keyboard-response","281","712986","0.0-14.0-0.30","5e8b66490d48450346bf2755","650c16f0f2faf8d7a0d14c09","651c1e7ef0bb5a0f4ba59ecd","null","null","<p style=""font-size: 60px; font-family: BACS"">Udbduda</p>","","","","","","","","","",""
"html-keyboard-response","282","714002","0.0-14.0-0.31","5e8b66490d48450346bf2755","650c16f0f2faf8d7a0d14c09","651c1e7ef0bb5a0f4ba59ecd","null","null","<p style=""font-size: 60px; font-family: BACS"">DBlhOBT</p>","","","","","","","","","",""
"html-keyboard-response","283","715019","0.0-14.0-0.32","5e8b66490d48450346bf2755","650c16f0f2faf8d7a0d14c09","651c1e7ef0bb5a0f4ba59ecd","null","null","<p style=""font-size: 60px; font-family: BACS"">TklDPMYm</p>","","","","","","","","","",""
"html-keyboard-response","284","716036","0.0-14.0-0.33","5e8b66490d48450346bf2755","650c16f0f2faf8d7a0d14c09","651c1e7ef0bb5a0f4ba59ecd","null","null","<p style=""font-size: 60px; font-family: BACS"">cuOJbuZc</p>","","","","","","","","","",""
"html-keyboard-response","285","717053","0.0-14.0-0.34","5e8b66490d48450346bf2755","650c16f0f2faf8d7a0d14c09","651c1e7ef0bb5a0f4ba59ecd","null","null","<p style=""font-size: 60px; font-family: BACS"">vblruda</p>","","","","","","","","","",""
"html-keyboard-response","286","718068","0.0-14.0-0.35","5e8b66490d48450346bf2755","650c16f0f2faf8d7a0d14c09","651c1e7ef0bb5a0f4ba59ecd","null","null","<p style=""font-size: 60px; font-family: BACS"">tmAKOBT</p>","","","","","","","","","",""
"html-keyboard-response","287","719086","0.0-14.0-0.36","5e8b66490d48450346bf2755","650c16f0f2faf8d7a0d14c09","651c1e7ef0bb5a0f4ba59ecd","null","null","<p style=""font-size: 60px; font-family: BACS"">OQarQuZc</p>","","","","","","","","","",""
"html-keyboard-response","288","720087","0.0-14.0-0.37","5e8b66490d48450346bf2755","650c16f0f2faf8d7a0d14c09","651c1e7ef0bb5a0f4ba59ecd","null","null","<p style=""font-size: 60px; font-family: BACS"">DBlhPMYm</p>","","","","","","","","","",""
"html-keyboard-response","289","721103","0.0-14.0-0.38","5e8b66490d48450346bf2755","650c16f0f2faf8d7a0d14c09","651c1e7ef0bb5a0f4ba59ecd","null","null","<p style=""font-size: 60px; font-family: BACS"">QbkAcvJQ</p>","","","","","","","","","",""
"html-keyboard-response","290","722119","0.0-14.0-0.39","5e8b66490d48450346bf2755","650c16f0f2faf8d7a0d14c09","651c1e7ef0bb5a0f4ba59ecd","null","null","<p style=""font-size: 60px; font-family: BACS"">bmdABcDR</p>","","","","","","","","","",""
"html-keyboard-response","291","723136","0.0-14.0-0.40","5e8b66490d48450346bf2755","650c16f0f2faf8d7a0d14c09","651c1e7ef0bb5a0f4ba59ecd","null","null","<p style=""font-size: 60px; font-family: BACS"">TklDTmTm</p>","","","","","","","","","",""
"html-keyboard-response","292","724152","0.0-14.0-0.41","5e8b66490d48450346bf2755","650c16f0f2faf8d7a0d14c09","651c1e7ef0bb5a0f4ba59ecd","null","null","<p style=""font-size: 60px; font-family: BACS"">LNUrJuZc</p>","","","","","","","","","",""
"html-keyboard-response","293","725168","0.0-14.0-0.42","5e8b66490d48450346bf2755","650c16f0f2faf8d7a0d14c09","651c1e7ef0bb5a0f4ba59ecd","null","null","<p style=""font-size: 60px; font-family: BACS"">TdTDcDR</p>","","","","","","","","","",""
"html-keyboard-response","294","726185","0.0-14.0-0.43","5e8b66490d48450346bf2755","650c16f0f2faf8d7a0d14c09","651c1e7ef0bb5a0f4ba59ecd","null","null","<p style=""font-size: 60px; font-family: BACS"">UvOGNmAG</p>","","","","","","","","","",""
"html-keyboard-response","295","727202","0.0-14.0-0.44","5e8b66490d48450346bf2755","650c16f0f2faf8d7a0d14c09","651c1e7ef0bb5a0f4ba59ecd","null","null","<p style=""font-size: 60px; font-family: BACS"">NLQGmuda</p>","","","","","","","","","",""
"html-keyboard-response","296","728218","0.0-14.0-0.45","5e8b66490d48450346bf2755","650c16f0f2faf8d7a0d14c09","651c1e7ef0bb5a0f4ba59ecd","null","null","<p style=""font-size: 60px; font-family: BACS"">EhRmTmTm</p>","","","","","","","","","",""
"html-keyboard-response","297","729235","0.0-14.0-0.46","5e8b66490d48450346bf2755","650c16f0f2faf8d7a0d14c09","651c1e7ef0bb5a0f4ba59ecd","null","null","<p style=""font-size: 60px; font-family: BACS"">OQarQkmU</p>","","","","","","","","","",""
"html-keyboard-response","298","730252","0.0-14.0-0.47","5e8b66490d48450346bf2755","650c16f0f2faf8d7a0d14c09","651c1e7ef0bb5a0f4ba59ecd","null","null","<p style=""font-size: 60px; font-family: BACS"">bmdABPEdK</p>","","","","","","","","","",""
"html-keyboard-response","299","731268","0.0-14.0-0.48","5e8b66490d48450346bf2755","650c16f0f2faf8d7a0d14c09","651c1e7ef0bb5a0f4ba59ecd","null","null","<p style=""font-size: 60px; font-family: BACS"">rGUAYkmU</p>","","","","","","","","","",""
"html-keyboard-response","300","732284","0.0-14.0-0.49","5e8b66490d48450346bf2755","650c16f0f2faf8d7a0d14c09","651c1e7ef0bb5a0f4ba59ecd","null","null","<p style=""font-size: 60px; font-family: BACS"">BMEMAPEdK</p>","","","","","","","","","",""
"html-keyboard-response","301","733300","0.0-14.0-0.50","5e8b66490d48450346bf2755","650c16f0f2faf8d7a0d14c09","651c1e7ef0bb5a0f4ba59ecd","null","null","<p style=""font-size: 60px; font-family: BACS"">bcOROBT</p>","","","","","","","","","",""
"html-keyboard-response","302","734303","0.0-14.0-0.51","5e8b66490d48450346bf2755","650c16f0f2faf8d7a0d14c09","651c1e7ef0bb5a0f4ba59ecd","null","null","<p style=""font-size: 60px; font-family: BACS"">rGUAYNmAG</p>","","","","","","","","","",""
"html-keyboard-response","303","735318","0.0-14.0-0.52","5e8b66490d48450346bf2755","650c16f0f2faf8d7a0d14c09","651c1e7ef0bb5a0f4ba59ecd","null","null","<p style=""font-size: 60px; font-family: BACS"">EhRmPEdK</p>","","","","","","","","","",""
"html-keyboard-response","304","736335","0.0-14.0-0.53","5e8b66490d48450346bf2755","650c16f0f2faf8d7a0d14c09","651c1e7ef0bb5a0f4ba59ecd","null","null","<p style=""font-size: 60px; font-family: BACS"">TdTDOBT</p>","","","","","","","","","",""
"html-keyboard-response","305","737351","0.0-14.0-0.54","5e8b66490d48450346bf2755","650c16f0f2faf8d7a0d14c09","651c1e7ef0bb5a0f4ba59ecd","null","null","<p style=""font-size: 60px; font-family: BACS"">OQarQuda</p>","","","","","","","","","",""
"html-keyboard-response","306","738367","0.0-14.0-0.55","5e8b66490d48450346bf2755","650c16f0f2faf8d7a0d14c09","651c1e7ef0bb5a0f4ba59ecd","null","null","<p style=""font-size: 60px; font-family: BACS"">UdbduZc</p>","","","","","","","","","",""
"html-keyboard-response","307","739384","0.0-14.0-0.56","5e8b66490d48450346bf2755","650c16f0f2faf8d7a0d14c09","651c1e7ef0bb5a0f4ba59ecd","null","null","<p style=""font-size: 60px; font-family: BACS"">BMEMATmTm</p>","","","","","","","","","",""
"html-keyboard-response","308","740401","0.0-14.0-0.57","5e8b66490d48450346bf2755","650c16f0f2faf8d7a0d14c09","651c1e7ef0bb5a0f4ba59ecd","null","null","<p style=""font-size: 60px; font-family: BACS"">DBlhcDR</p>","","","","","","","","","",""
"html-keyboard-response","309","741417","0.0-14.0-0.58","5e8b66490d48450346bf2755","650c16f0f2faf8d7a0d14c09","651c1e7ef0bb5a0f4ba59ecd","null","null","<p style=""font-size: 60px; font-family: BACS"">hBmMCTmTm</p>","","","","","","","","","",""
"html-keyboard-response","310","742434","0.0-14.0-0.59","5e8b66490d48450346bf2755","650c16f0f2faf8d7a0d14c09","651c1e7ef0bb5a0f4ba59ecd","null","null","<p style=""font-size: 60px; font-family: BACS"">cuOJbNmAG</p>","","","","","","","","","",""
"html-keyboard-response","311","743446","0.0-14.0-0.60","5e8b66490d48450346bf2755","650c16f0f2faf8d7a0d14c09","651c1e7ef0bb5a0f4ba59ecd","null","null","<p style=""font-size: 60px; font-family: BACS"">hBmMCOBT</p>","","","","","","","","","",""
"html-keyboard-response","312","744452","0.0-14.0-0.61","5e8b66490d48450346bf2755","650c16f0f2faf8d7a0d14c09","651c1e7ef0bb5a0f4ba59ecd","null","null","<p style=""font-size: 60px; font-family: BACS"">vblrNmAG</p>","","","","","","","","","",""
"html-keyboard-response","313","745455","0.0-14.0-0.62","5e8b66490d48450346bf2755","650c16f0f2faf8d7a0d14c09","651c1e7ef0bb5a0f4ba59ecd","null","null","<p style=""font-size: 60px; font-family: BACS"">EhRmPMYm</p>","","","","","","","","","",""
"html-keyboard-response","314","746468","0.0-14.0-0.63","5e8b66490d48450346bf2755","650c16f0f2faf8d7a0d14c09","651c1e7ef0bb5a0f4ba59ecd","null","null","<p style=""font-size: 60px; font-family: BACS"">tcYbdcDR</p>","","","","","","","","","",""
"html-keyboard-response","315","747484","0.0-14.0-0.64","5e8b66490d48450346bf2755","650c16f0f2faf8d7a0d14c09","651c1e7ef0bb5a0f4ba59ecd","null","null","<p style=""font-size: 60px; font-family: BACS"">UvOGkmU</p>","","","","","","","","","",""
"html-keyboard-response","316","748501","0.0-14.0-0.65","5e8b66490d48450346bf2755","650c16f0f2faf8d7a0d14c09","651c1e7ef0bb5a0f4ba59ecd","null","null","<p style=""font-size: 60px; font-family: BACS"">TklDPEdK</p>","","","","","","","","","",""
"html-keyboard-response","317","749518","0.0-14.0-0.66","5e8b66490d48450346bf2755","650c16f0f2faf8d7a0d14c09","651c1e7ef0bb5a0f4ba59ecd","null","null","<p style=""font-size: 60px; font-family: BACS"">bcORTmTm</p>","","","","","","","","","",""
"html-keyboard-response","318","750533","0.0-14.0-0.67","5e8b66490d48450346bf2755","650c16f0f2faf8d7a0d14c09","651c1e7ef0bb5a0f4ba59ecd","null","null","<p style=""font-size: 60px; font-family: BACS"">EhRmcDR</p>","","","","","","","","","",""
"html-keyboard-response","319","751536","0.0-14.0-0.68","5e8b66490d48450346bf2755","650c16f0f2faf8d7a0d14c09","651c1e7ef0bb5a0f4ba59ecd","null","null","<p style=""font-size: 60px; font-family: BACS"">tmAKPMYm</p>","","","","","","","","","",""
"html-keyboard-response","320","752550","0.0-14.0-0.69","5e8b66490d48450346bf2755","650c16f0f2faf8d7a0d14c09","651c1e7ef0bb5a0f4ba59ecd","null","null","<p style=""font-size: 60px; font-family: BACS"">LNUrJvJQ</p>","","","","","","","","","",""
"html-keyboard-response","321","753567","0.0-14.0-0.70","5e8b66490d48450346bf2755","650c16f0f2faf8d7a0d14c09","651c1e7ef0bb5a0f4ba59ecd","null","null","<p style=""font-size: 60px; font-family: BACS"">BMEMAcDR</p>","","","","","","","","","",""
"html-keyboard-response","322","754570","0.0-14.0-0.71","5e8b66490d48450346bf2755","650c16f0f2faf8d7a0d14c09","651c1e7ef0bb5a0f4ba59ecd","null","null","<p style=""font-size: 60px; font-family: BACS"">UdbdvJQ</p>","","","","","","","","","",""
"html-keyboard-response","323","755584","0.0-14.0-0.72","5e8b66490d48450346bf2755","650c16f0f2faf8d7a0d14c09","651c1e7ef0bb5a0f4ba59ecd","null","null","<p style=""font-size: 60px; font-family: BACS"">tmAKPEdK</p>","","","","","","","","","",""
"html-keyboard-response","324","756600","0.0-14.0-0.73","5e8b66490d48450346bf2755","650c16f0f2faf8d7a0d14c09","651c1e7ef0bb5a0f4ba59ecd","null","null","<p style=""font-size: 60px; font-family: BACS"">UdbdkmU</p>","","","","","","","","","",""
"html-keyboard-response","325","757604","0.0-14.0-0.74","5e8b66490d48450346bf2755","650c16f0f2faf8d7a0d14c09","651c1e7ef0bb5a0f4ba59ecd","null","null","<p style=""font-size: 60px; font-family: BACS"">bcORPMYm</p>","","","","","","","","","",""
"html-keyboard-response","326","758616","0.0-14.0-0.75","5e8b66490d48450346bf2755","650c16f0f2faf8d7a0d14c09","651c1e7ef0bb5a0f4ba59ecd","null","null","<p style=""font-size: 60px; font-family: BACS"">kdaAJuZc</p>","","","","","","","","","",""
"html-keyboard-response","327","759618","0.0-14.0-0.76","5e8b66490d48450346bf2755","650c16f0f2faf8d7a0d14c09","651c1e7ef0bb5a0f4ba59ecd","null","null","<p style=""font-size: 60px; font-family: BACS"">BMEMAPMYm</p>","","","","","","","","","",""
"html-keyboard-response","328","760634","0.0-14.0-0.77","5e8b66490d48450346bf2755","650c16f0f2faf8d7a0d14c09","651c1e7ef0bb5a0f4ba59ecd","null","null","<p style=""font-size: 60px; font-family: BACS"">kdaAJvJQ</p>","","","","","","","","","",""
"html-keyboard-response","329","761649","0.0-14.0-0.78","5e8b66490d48450346bf2755","650c16f0f2faf8d7a0d14c09","651c1e7ef0bb5a0f4ba59ecd","null","null","<p style=""font-size: 60px; font-family: BACS"">QbkAcuda</p>","","","","","","","","","",""
"html-keyboard-response","330","762666","0.0-14.0-0.79","5e8b66490d48450346bf2755","650c16f0f2faf8d7a0d14c09","651c1e7ef0bb5a0f4ba59ecd","null","null","<p style=""font-size: 60px; font-family: BACS"">TdTDPMYm</p>","","","","","","","","","",""
"html-keyboard-response","331","768730","0.0-15.0","5e8b66490d48450346bf2755","650c16f0f2faf8d7a0d14c09","651c1e7ef0bb5a0f4ba59ecd","6063"," ","<p>Great, you've seen the fourth block of words. You may now take a short break.</p>
      <p>Press the spacebar when you're ready to continue.</p>","","","","","","","","","",""
"html-keyboard-response","332","769734","0.0-16.0-0.0","5e8b66490d48450346bf2755","650c16f0f2faf8d7a0d14c09","651c1e7ef0bb5a0f4ba59ecd","null","null","<p style=""font-size: 60px; font-family: BACS"">LNUrJkmU</p>","","","","","","","","","",""
"html-keyboard-response","333","770749","0.0-16.0-0.1","5e8b66490d48450346bf2755","650c16f0f2faf8d7a0d14c09","651c1e7ef0bb5a0f4ba59ecd","null","null","<p style=""font-size: 60px; font-family: BACS"">LNUrJkmU</p>","","","","","","","","","",""
"html-keyboard-response","334","771766","0.0-16.0-0.2","5e8b66490d48450346bf2755","650c16f0f2faf8d7a0d14c09","651c1e7ef0bb5a0f4ba59ecd","null","null","<p style=""font-size: 60px; font-family: BACS"">LNUrJkmU</p>","","","","","","","","","",""
"html-keyboard-response","335","772783","0.0-16.0-0.3","5e8b66490d48450346bf2755","650c16f0f2faf8d7a0d14c09","651c1e7ef0bb5a0f4ba59ecd","null","null","<p style=""font-size: 60px; font-family: BACS"">LNUrJkmU</p>","","","","","","","","","",""
"html-keyboard-response","336","773784","0.0-16.0-0.4","5e8b66490d48450346bf2755","650c16f0f2faf8d7a0d14c09","651c1e7ef0bb5a0f4ba59ecd","null","null","<p style=""font-size: 60px; font-family: BACS"">LNUrJkmU</p>","","","","","","","","","",""
"html-keyboard-response","337","774799","0.0-16.0-0.5","5e8b66490d48450346bf2755","650c16f0f2faf8d7a0d14c09","651c1e7ef0bb5a0f4ba59ecd","null","null","<p style=""font-size: 60px; font-family: BACS"">LNUrJkmU</p>","","","","","","","","","",""
"html-keyboard-response","338","775816","0.0-16.0-0.6","5e8b66490d48450346bf2755","650c16f0f2faf8d7a0d14c09","651c1e7ef0bb5a0f4ba59ecd","null","null","<p style=""font-size: 60px; font-family: BACS"">LNUrJkmU</p>","","","","","","","","","",""
"html-keyboard-response","339","776817","0.0-16.0-0.7","5e8b66490d48450346bf2755","650c16f0f2faf8d7a0d14c09","651c1e7ef0bb5a0f4ba59ecd","null","null","<p style=""font-size: 60px; font-family: BACS"">LNUrJkmU</p>","","","","","","","","","",""
"html-keyboard-response","340","777833","0.0-16.0-0.8","5e8b66490d48450346bf2755","650c16f0f2faf8d7a0d14c09","651c1e7ef0bb5a0f4ba59ecd","null","null","<p style=""font-size: 60px; font-family: BACS"">LNUrJkmU</p>","","","","","","","","","",""
"html-keyboard-response","341","778850","0.0-16.0-0.9","5e8b66490d48450346bf2755","650c16f0f2faf8d7a0d14c09","651c1e7ef0bb5a0f4ba59ecd","null","null","<p style=""font-size: 60px; font-family: BACS"">LNUrJkmU</p>","","","","","","","","","",""
"html-keyboard-response","342","779867","0.0-16.0-0.10","5e8b66490d48450346bf2755","650c16f0f2faf8d7a0d14c09","651c1e7ef0bb5a0f4ba59ecd","null","null","<p style=""font-size: 60px; font-family: BACS"">LNUrJkmU</p>","","","","","","","","","",""
"html-keyboard-response","343","780882","0.0-16.0-0.11","5e8b66490d48450346bf2755","650c16f0f2faf8d7a0d14c09","651c1e7ef0bb5a0f4ba59ecd","null","null","<p style=""font-size: 60px; font-family: BACS"">LNUrJkmU</p>","","","","","","","","","",""
"html-keyboard-response","344","781899","0.0-16.0-0.12","5e8b66490d48450346bf2755","650c16f0f2faf8d7a0d14c09","651c1e7ef0bb5a0f4ba59ecd","null","null","<p style=""font-size: 60px; font-family: BACS"">LNUrJkmU</p>","","","","","","","","","",""
"html-keyboard-response","345","782916","0.0-16.0-0.13","5e8b66490d48450346bf2755","650c16f0f2faf8d7a0d14c09","651c1e7ef0bb5a0f4ba59ecd","null","null","<p style=""font-size: 60px; font-family: BACS"">LNUrJkmU</p>","","","","","","","","","",""
"html-keyboard-response","346","783920","0.0-16.0-0.14","5e8b66490d48450346bf2755","650c16f0f2faf8d7a0d14c09","651c1e7ef0bb5a0f4ba59ecd","null","null","<p style=""font-size: 60px; font-family: BACS"">LNUrJkmU</p>","","","","","","","","","",""
"html-keyboard-response","347","784933","0.0-16.0-0.15","5e8b66490d48450346bf2755","650c16f0f2faf8d7a0d14c09","651c1e7ef0bb5a0f4ba59ecd","null","null","<p style=""font-size: 60px; font-family: BACS"">LNUrJkmU</p>","","","","","","","","","",""
"html-keyboard-response","348","785949","0.0-16.0-0.16","5e8b66490d48450346bf2755","650c16f0f2faf8d7a0d14c09","651c1e7ef0bb5a0f4ba59ecd","null","null","<p style=""font-size: 60px; font-family: BACS"">LNUrJkmU</p>","","","","","","","","","",""
"html-keyboard-response","349","786951","0.0-16.0-0.17","5e8b66490d48450346bf2755","650c16f0f2faf8d7a0d14c09","651c1e7ef0bb5a0f4ba59ecd","null","null","<p style=""font-size: 60px; font-family: BACS"">LNUrJkmU</p>","","","","","","","","","",""
"html-keyboard-response","350","787967","0.0-16.0-0.18","5e8b66490d48450346bf2755","650c16f0f2faf8d7a0d14c09","651c1e7ef0bb5a0f4ba59ecd","null","null","<p style=""font-size: 60px; font-family: BACS"">LNUrJkmU</p>","","","","","","","","","",""
"html-keyboard-response","351","788983","0.0-16.0-0.19","5e8b66490d48450346bf2755","650c16f0f2faf8d7a0d14c09","651c1e7ef0bb5a0f4ba59ecd","null","null","<p style=""font-size: 60px; font-family: BACS"">LNUrJkmU</p>","","","","","","","","","",""
"html-keyboard-response","352","790000","0.0-16.0-0.20","5e8b66490d48450346bf2755","650c16f0f2faf8d7a0d14c09","651c1e7ef0bb5a0f4ba59ecd","null","null","<p style=""font-size: 60px; font-family: BACS"">LNUrJkmU</p>","","","","","","","","","",""
"html-keyboard-response","353","791016","0.0-16.0-0.21","5e8b66490d48450346bf2755","650c16f0f2faf8d7a0d14c09","651c1e7ef0bb5a0f4ba59ecd","null","null","<p style=""font-size: 60px; font-family: BACS"">LNUrJkmU</p>","","","","","","","","","",""
"html-keyboard-response","354","792032","0.0-16.0-0.22","5e8b66490d48450346bf2755","650c16f0f2faf8d7a0d14c09","651c1e7ef0bb5a0f4ba59ecd","null","null","<p style=""font-size: 60px; font-family: BACS"">LNUrJkmU</p>","","","","","","","","","",""
"html-keyboard-response","355","793049","0.0-16.0-0.23","5e8b66490d48450346bf2755","650c16f0f2faf8d7a0d14c09","651c1e7ef0bb5a0f4ba59ecd","null","null","<p style=""font-size: 60px; font-family: BACS"">LNUrJkmU</p>","","","","","","","","","",""
"html-keyboard-response","356","794050","0.0-16.0-0.24","5e8b66490d48450346bf2755","650c16f0f2faf8d7a0d14c09","651c1e7ef0bb5a0f4ba59ecd","null","null","<p style=""font-size: 60px; font-family: BACS"">LNUrJkmU</p>","","","","","","","","","",""
"html-keyboard-response","357","795065","0.0-16.0-0.25","5e8b66490d48450346bf2755","650c16f0f2faf8d7a0d14c09","651c1e7ef0bb5a0f4ba59ecd","null","null","<p style=""font-size: 60px; font-family: BACS"">LNUrJkmU</p>","","","","","","","","","",""
"html-keyboard-response","358","796082","0.0-16.0-0.26","5e8b66490d48450346bf2755","650c16f0f2faf8d7a0d14c09","651c1e7ef0bb5a0f4ba59ecd","null","null","<p style=""font-size: 60px; font-family: BACS"">LNUrJkmU</p>","","","","","","","","","",""
"html-keyboard-response","359","797100","0.0-16.0-0.27","5e8b66490d48450346bf2755","650c16f0f2faf8d7a0d14c09","651c1e7ef0bb5a0f4ba59ecd","null","null","<p style=""font-size: 60px; font-family: BACS"">LNUrJkmU</p>","","","","","","","","","",""
"html-keyboard-response","360","798116","0.0-16.0-0.28","5e8b66490d48450346bf2755","650c16f0f2faf8d7a0d14c09","651c1e7ef0bb5a0f4ba59ecd","null","null","<p style=""font-size: 60px; font-family: BACS"">LNUrJkmU</p>","","","","","","","","","",""
"html-keyboard-response","361","799132","0.0-16.0-0.29","5e8b66490d48450346bf2755","650c16f0f2faf8d7a0d14c09","651c1e7ef0bb5a0f4ba59ecd","null","null","<p style=""font-size: 60px; font-family: BACS"">LNUrJkmU</p>","","","","","","","","","",""
"html-keyboard-response","362","800148","0.0-16.0-0.30","5e8b66490d48450346bf2755","650c16f0f2faf8d7a0d14c09","651c1e7ef0bb5a0f4ba59ecd","null","null","<p style=""font-size: 60px; font-family: BACS"">LNUrJkmU</p>","","","","","","","","","",""
"html-keyboard-response","363","801165","0.0-16.0-0.31","5e8b66490d48450346bf2755","650c16f0f2faf8d7a0d14c09","651c1e7ef0bb5a0f4ba59ecd","null","null","<p style=""font-size: 60px; font-family: BACS"">LNUrJkmU</p>","","","","","","","","","",""
"html-keyboard-response","364","802182","0.0-16.0-0.32","5e8b66490d48450346bf2755","650c16f0f2faf8d7a0d14c09","651c1e7ef0bb5a0f4ba59ecd","null","null","<p style=""font-size: 60px; font-family: BACS"">LNUrJkmU</p>","","","","","","","","","",""
"html-keyboard-response","365","803198","0.0-16.0-0.33","5e8b66490d48450346bf2755","650c16f0f2faf8d7a0d14c09","651c1e7ef0bb5a0f4ba59ecd","null","null","<p style=""font-size: 60px; font-family: BACS"">LNUrJkmU</p>","","","","","","","","","",""
"html-keyboard-response","366","804216","0.0-16.0-0.34","5e8b66490d48450346bf2755","650c16f0f2faf8d7a0d14c09","651c1e7ef0bb5a0f4ba59ecd","null","null","<p style=""font-size: 60px; font-family: BACS"">LNUrJkmU</p>","","","","","","","","","",""
"html-keyboard-response","367","805233","0.0-16.0-0.35","5e8b66490d48450346bf2755","650c16f0f2faf8d7a0d14c09","651c1e7ef0bb5a0f4ba59ecd","null","null","<p style=""font-size: 60px; font-family: BACS"">LNUrJkmU</p>","","","","","","","","","",""
"html-keyboard-response","368","806248","0.0-16.0-0.36","5e8b66490d48450346bf2755","650c16f0f2faf8d7a0d14c09","651c1e7ef0bb5a0f4ba59ecd","null","null","<p style=""font-size: 60px; font-family: BACS"">LNUrJkmU</p>","","","","","","","","","",""
"html-keyboard-response","369","807250","0.0-16.0-0.37","5e8b66490d48450346bf2755","650c16f0f2faf8d7a0d14c09","651c1e7ef0bb5a0f4ba59ecd","null","null","<p style=""font-size: 60px; font-family: BACS"">LNUrJkmU</p>","","","","","","","","","",""
"html-keyboard-response","370","808265","0.0-16.0-0.38","5e8b66490d48450346bf2755","650c16f0f2faf8d7a0d14c09","651c1e7ef0bb5a0f4ba59ecd","null","null","<p style=""font-size: 60px; font-family: BACS"">LNUrJkmU</p>","","","","","","","","","",""
"html-keyboard-response","371","809282","0.0-16.0-0.39","5e8b66490d48450346bf2755","650c16f0f2faf8d7a0d14c09","651c1e7ef0bb5a0f4ba59ecd","null","null","<p style=""font-size: 60px; font-family: BACS"">LNUrJkmU</p>","","","","","","","","","",""
"html-keyboard-response","372","810284","0.0-16.0-0.40","5e8b66490d48450346bf2755","650c16f0f2faf8d7a0d14c09","651c1e7ef0bb5a0f4ba59ecd","null","null","<p style=""font-size: 60px; font-family: BACS"">LNUrJkmU</p>","","","","","","","","","",""
"html-keyboard-response","373","811299","0.0-16.0-0.41","5e8b66490d48450346bf2755","650c16f0f2faf8d7a0d14c09","651c1e7ef0bb5a0f4ba59ecd","null","null","<p style=""font-size: 60px; font-family: BACS"">LNUrJkmU</p>","","","","","","","","","",""
"html-keyboard-response","374","812314","0.0-16.0-0.42","5e8b66490d48450346bf2755","650c16f0f2faf8d7a0d14c09","651c1e7ef0bb5a0f4ba59ecd","null","null","<p style=""font-size: 60px; font-family: BACS"">LNUrJkmU</p>","","","","","","","","","",""
"html-keyboard-response","375","813332","0.0-16.0-0.43","5e8b66490d48450346bf2755","650c16f0f2faf8d7a0d14c09","651c1e7ef0bb5a0f4ba59ecd","null","null","<p style=""font-size: 60px; font-family: BACS"">LNUrJkmU</p>","","","","","","","","","",""
"html-keyboard-response","376","814349","0.0-16.0-0.44","5e8b66490d48450346bf2755","650c16f0f2faf8d7a0d14c09","651c1e7ef0bb5a0f4ba59ecd","null","null","<p style=""font-size: 60px; font-family: BACS"">LNUrJkmU</p>","","","","","","","","","",""
"html-keyboard-response","377","815365","0.0-16.0-0.45","5e8b66490d48450346bf2755","650c16f0f2faf8d7a0d14c09","651c1e7ef0bb5a0f4ba59ecd","null","null","<p style=""font-size: 60px; font-family: BACS"">LNUrJkmU</p>","","","","","","","","","",""
"html-keyboard-response","378","816382","0.0-16.0-0.46","5e8b66490d48450346bf2755","650c16f0f2faf8d7a0d14c09","651c1e7ef0bb5a0f4ba59ecd","null","null","<p style=""font-size: 60px; font-family: BACS"">LNUrJkmU</p>","","","","","","","","","",""
"html-keyboard-response","379","817399","0.0-16.0-0.47","5e8b66490d48450346bf2755","650c16f0f2faf8d7a0d14c09","651c1e7ef0bb5a0f4ba59ecd","null","null","<p style=""font-size: 60px; font-family: BACS"">LNUrJkmU</p>","","","","","","","","","",""
"html-keyboard-response","380","818414","0.0-16.0-0.48","5e8b66490d48450346bf2755","650c16f0f2faf8d7a0d14c09","651c1e7ef0bb5a0f4ba59ecd","null","null","<p style=""font-size: 60px; font-family: BACS"">LNUrJkmU</p>","","","","","","","","","",""
"html-keyboard-response","381","819430","0.0-16.0-0.49","5e8b66490d48450346bf2755","650c16f0f2faf8d7a0d14c09","651c1e7ef0bb5a0f4ba59ecd","null","null","<p style=""font-size: 60px; font-family: BACS"">LNUrJkmU</p>","","","","","","","","","",""
"html-keyboard-response","382","820447","0.0-16.0-0.50","5e8b66490d48450346bf2755","650c16f0f2faf8d7a0d14c09","651c1e7ef0bb5a0f4ba59ecd","null","null","<p style=""font-size: 60px; font-family: BACS"">LNUrJkmU</p>","","","","","","","","","",""
"html-keyboard-response","383","821464","0.0-16.0-0.51","5e8b66490d48450346bf2755","650c16f0f2faf8d7a0d14c09","651c1e7ef0bb5a0f4ba59ecd","null","null","<p style=""font-size: 60px; font-family: BACS"">LNUrJkmU</p>","","","","","","","","","",""
"html-keyboard-response","384","822481","0.0-16.0-0.52","5e8b66490d48450346bf2755","650c16f0f2faf8d7a0d14c09","651c1e7ef0bb5a0f4ba59ecd","null","null","<p style=""font-size: 60px; font-family: BACS"">LNUrJkmU</p>","","","","","","","","","",""
"html-keyboard-response","385","823482","0.0-16.0-0.53","5e8b66490d48450346bf2755","650c16f0f2faf8d7a0d14c09","651c1e7ef0bb5a0f4ba59ecd","null","null","<p style=""font-size: 60px; font-family: BACS"">LNUrJkmU</p>","","","","","","","","","",""
"html-keyboard-response","386","824497","0.0-16.0-0.54","5e8b66490d48450346bf2755","650c16f0f2faf8d7a0d14c09","651c1e7ef0bb5a0f4ba59ecd","null","null","<p style=""font-size: 60px; font-family: BACS"">LNUrJkmU</p>","","","","","","","","","",""
"html-keyboard-response","387","825499","0.0-16.0-0.55","5e8b66490d48450346bf2755","650c16f0f2faf8d7a0d14c09","651c1e7ef0bb5a0f4ba59ecd","null","null","<p style=""font-size: 60px; font-family: BACS"">LNUrJkmU</p>","","","","","","","","","",""
"html-keyboard-response","388","826514","0.0-16.0-0.56","5e8b66490d48450346bf2755","650c16f0f2faf8d7a0d14c09","651c1e7ef0bb5a0f4ba59ecd","null","null","<p style=""font-size: 60px; font-family: BACS"">LNUrJkmU</p>","","","","","","","","","",""
"html-keyboard-response","389","827530","0.0-16.0-0.57","5e8b66490d48450346bf2755","650c16f0f2faf8d7a0d14c09","651c1e7ef0bb5a0f4ba59ecd","null","null","<p style=""font-size: 60px; font-family: BACS"">LNUrJkmU</p>","","","","","","","","","",""
"html-keyboard-response","390","828546","0.0-16.0-0.58","5e8b66490d48450346bf2755","650c16f0f2faf8d7a0d14c09","651c1e7ef0bb5a0f4ba59ecd","null","null","<p style=""font-size: 60px; font-family: BACS"">LNUrJkmU</p>","","","","","","","","","",""
"html-keyboard-response","391","829564","0.0-16.0-0.59","5e8b66490d48450346bf2755","650c16f0f2faf8d7a0d14c09","651c1e7ef0bb5a0f4ba59ecd","null","null","<p style=""font-size: 60px; font-family: BACS"">LNUrJkmU</p>","","","","","","","","","",""
"html-keyboard-response","392","830581","0.0-16.0-0.60","5e8b66490d48450346bf2755","650c16f0f2faf8d7a0d14c09","651c1e7ef0bb5a0f4ba59ecd","null","null","<p style=""font-size: 60px; font-family: BACS"">LNUrJkmU</p>","","","","","","","","","",""
"html-keyboard-response","393","831597","0.0-16.0-0.61","5e8b66490d48450346bf2755","650c16f0f2faf8d7a0d14c09","651c1e7ef0bb5a0f4ba59ecd","null","null","<p style=""font-size: 60px; font-family: BACS"">LNUrJkmU</p>","","","","","","","","","",""
