"trial_type","trial_index","time_elapsed","internal_node_id","subject_id","study_id","session_id","rt","response","stimulus","success","item","task","correct_response","testing_condition","correct","target","confound","name","view_history"
"pavlovia","0","1643","0.0-0.0","614e230ff8700b32ea648508","64e77d7b61f440b60e28659d","64eca31c1eee01edbbc9cffa","","","","","","","","","","","","",""
"survey-html-form","1","275754","0.0-1.0","614e230ff8700b32ea648508","64e77d7b61f440b60e28659d","64eca31c1eee01edbbc9cffa","274108","{""ID"":""614e230ff8700b32ea648508""}","","","","","","","","","","",""
"html-keyboard-response","2","398543","0.0-2.0","614e230ff8700b32ea648508","64e77d7b61f440b60e28659d","64eca31c1eee01edbbc9cffa","122787"," ","<p style=""font-size: 15px;"">Before beginning, we ask that you read the consent information and confirm your agreement to participate in the experiment.</p>
      <p style=""font-size: 15px;""> We ask that you remember that this is a research project and that your participation is entirely voluntary. You can stop your participation at any time, without needing to provide any explanation. The study we're asking you to participate in aims at examining how readers process written words. You will be engaged in a session of apprximately 20 minutes, followed by a brief questionnaire. You will have the opportunity to take a few breaks during the experiment. You will be paid £4 for your participation, corresponding to a rate of £8/hour. While this experiment looks at cognitive faculties, this experiment doesn't constitute clinical proof of eventual pathologies.</p>
      <p style=""font-size: 15px;"">All of the information collected thanks to yours and others' participation will be held in a secure password-protected server, and will not be shared with anyone not authorised to view it. Your personal information will be kept with an arbitrary participant ID. Thanks to this data anonymity process, any researcher analysing the data won't be able to track the information back to a specific participant. Therefore, this process will make identifying you impossibile, even when results from the study will be published in scientific reviews, presented at congresses, or at any other public forum. More generally, the collected data will be treated in accordance with the laws on privacy and conformity to the Legislative Degree n. 196 ""Code regarding the protection of personal data"" of the 30th of June 2003 and to the European Regulation 2016/670 (General Data Protection Regulation - GDPR). The Data Protection Officer is Avv. Valentina Carollo, who can be contacted at the following email addresses: <a href=""mailto:dpo@sissa.it"">dpo@sissa.it</a> or <a href=""mailto:rpd@sissa.it"">rpd@sissa.it</a> - PEC: <a href=""mailto:protocollo@pec.sissa.it"">protocollo@pec.sissa.it</a>.</p>
      <p style=""font-size: 15px;""> Before expressing your consent to participate, we would like to remind you again that in case you need explanations on any aspect of the experimental procedure, the researcher is at your disposition (<a href=""mailto:aliebelt@sissa.it"">aliebelt@sissa.it</a>, <a href=""mailto:davide.crepaldi@sissa.it"">davide.crepaldi@sissa.it</a>).</p>
      <p style=""font-size: 15px;"">If you would like to download the informed consent form, you can do so here: <a href=""BASL-Informed_Consent.pdf"" download>informed consent form</a>.</p>
      <p style=""font-size: 15px;"">We ask that you press the spacebar to proceed to the consent section.</p>","","","","","","","","","",""
"survey-html-form","3","476209","0.0-3.0","614e230ff8700b32ea648508","64e77d7b61f440b60e28659d","64eca31c1eee01edbbc9cffa","77665","{""consent1"":""YES"",""consent2"":""YES"",""consent3"":""YES"",""consent4"":""YES"",""consent5"":""YES"",""consent6"":""YES""}","","","","","","","","","","",""
"fullscreen","4","488539","0.0-4.0","614e230ff8700b32ea648508","64e77d7b61f440b60e28659d","64eca31c1eee01edbbc9cffa","","","","true","","","","","","","","",""
"html-keyboard-response","5","517899","0.0-5.0","614e230ff8700b32ea648508","64e77d7b61f440b60e28659d","64eca31c1eee01edbbc9cffa","29358"," ","<p>Welcome, and thank you very much for your time!</p>
      <p>In this experiment, you'll be a language expert who's been asked to take a look at words that Earth has received in its first communication with aliens. Your task, in this first part of the experiment, is to pay close attention to the words you'll be shown; later, world leaders will ask you questions on what you saw. The words will be shown to you quite quickly; it seems that the aliens were in a hurry :-)</p>
      <p>Press the spacebar to continue.<p>","","","","","","","","","",""
"html-keyboard-response","6","542795","0.0-6.0","614e230ff8700b32ea648508","64e77d7b61f440b60e28659d","64eca31c1eee01edbbc9cffa","24895"," ","<p>Here is an example of the words you'll see:</p>
      <img src='esempio.png' height='400px'>
      <p>When you're ready to begin, press the spacebar.</p></div>","","","","","","","","","",""
"html-keyboard-response","7","543806","0.0-7.0-0.0","614e230ff8700b32ea648508","64e77d7b61f440b60e28659d","64eca31c1eee01edbbc9cffa","null","null","<p style=""font-size: 60px; font-family: BACS"">LGkAQONk</p>","","","","","","","","","",""
"html-keyboard-response","8","544824","0.0-7.0-0.1","614e230ff8700b32ea648508","64e77d7b61f440b60e28659d","64eca31c1eee01edbbc9cffa","null","null","<p style=""font-size: 60px; font-family: BACS"">QOLmukdrO</p>","","","","","","","","","",""
"html-keyboard-response","9","545826","0.0-7.0-0.2","614e230ff8700b32ea648508","64e77d7b61f440b60e28659d","64eca31c1eee01edbbc9cffa","null","null","<p style=""font-size: 60px; font-family: BACS"">PlEKPEdK</p>","","","","","","","","","",""
"html-keyboard-response","10","546843","0.0-7.0-0.3","614e230ff8700b32ea648508","64e77d7b61f440b60e28659d","64eca31c1eee01edbbc9cffa","null","null","<p style=""font-size: 60px; font-family: BACS"">hCktmCd</p>","","","","","","","","","",""
"html-keyboard-response","11","547860","0.0-7.0-0.4","614e230ff8700b32ea648508","64e77d7b61f440b60e28659d","64eca31c1eee01edbbc9cffa","null","null","<p style=""font-size: 60px; font-family: BACS"">dkLlOcZJ</p>","","","","","","","","","",""
"html-keyboard-response","12","548862","0.0-7.0-0.5","614e230ff8700b32ea648508","64e77d7b61f440b60e28659d","64eca31c1eee01edbbc9cffa","null","null","<p style=""font-size: 60px; font-family: BACS"">kdEdYmCd</p>","","","","","","","","","",""
"html-keyboard-response","13","549879","0.0-7.0-0.6","614e230ff8700b32ea648508","64e77d7b61f440b60e28659d","64eca31c1eee01edbbc9cffa","null","null","<p style=""font-size: 60px; font-family: BACS"">QOLmuOcZJ</p>","","","","","","","","","",""
"html-keyboard-response","14","550895","0.0-7.0-0.7","614e230ff8700b32ea648508","64e77d7b61f440b60e28659d","64eca31c1eee01edbbc9cffa","null","null","<p style=""font-size: 60px; font-family: BACS"">dkLlOJlN</p>","","","","","","","","","",""
"html-keyboard-response","15","551898","0.0-7.0-0.8","614e230ff8700b32ea648508","64e77d7b61f440b60e28659d","64eca31c1eee01edbbc9cffa","null","null","<p style=""font-size: 60px; font-family: BACS"">GZJYGQYQ</p>","","","","","","","","","",""
"html-keyboard-response","16","552914","0.0-7.0-0.9","614e230ff8700b32ea648508","64e77d7b61f440b60e28659d","64eca31c1eee01edbbc9cffa","null","null","<p style=""font-size: 60px; font-family: BACS"">PCPDhPEdK</p>","","","","","","","","","",""
"html-keyboard-response","17","553917","0.0-7.0-0.10","614e230ff8700b32ea648508","64e77d7b61f440b60e28659d","64eca31c1eee01edbbc9cffa","null","null","<p style=""font-size: 60px; font-family: BACS"">hCktPTl</p>","","","","","","","","","",""
"html-keyboard-response","18","554933","0.0-7.0-0.11","614e230ff8700b32ea648508","64e77d7b61f440b60e28659d","64eca31c1eee01edbbc9cffa","null","null","<p style=""font-size: 60px; font-family: BACS"">EhbtPMYm</p>","","","","","","","","","",""
"html-keyboard-response","19","555946","0.0-7.0-0.12","614e230ff8700b32ea648508","64e77d7b61f440b60e28659d","64eca31c1eee01edbbc9cffa","null","null","<p style=""font-size: 60px; font-family: BACS"">UdumdQONk</p>","","","","","","","","","",""
"html-keyboard-response","20","556948","0.0-7.0-0.13","614e230ff8700b32ea648508","64e77d7b61f440b60e28659d","64eca31c1eee01edbbc9cffa","null","null","<p style=""font-size: 60px; font-family: BACS"">mBmlAPEdK</p>","","","","","","","","","",""
"html-keyboard-response","21","557953","0.0-7.0-0.14","614e230ff8700b32ea648508","64e77d7b61f440b60e28659d","64eca31c1eee01edbbc9cffa","null","null","<p style=""font-size: 60px; font-family: BACS"">DBPhcPTl</p>","","","","","","","","","",""
"html-keyboard-response","22","558955","0.0-7.0-0.15","614e230ff8700b32ea648508","64e77d7b61f440b60e28659d","64eca31c1eee01edbbc9cffa","null","null","<p style=""font-size: 60px; font-family: BACS"">PCPDhPMYm</p>","","","","","","","","","",""
"html-keyboard-response","23","559957","0.0-7.0-0.16","614e230ff8700b32ea648508","64e77d7b61f440b60e28659d","64eca31c1eee01edbbc9cffa","null","null","<p style=""font-size: 60px; font-family: BACS"">ktBdmCd</p>","","","","","","","","","",""
"html-keyboard-response","24","560973","0.0-7.0-0.17","614e230ff8700b32ea648508","64e77d7b61f440b60e28659d","64eca31c1eee01edbbc9cffa","null","null","<p style=""font-size: 60px; font-family: BACS"">QcQAJQONk</p>","","","","","","","","","",""
"html-keyboard-response","25","561975","0.0-7.0-0.18","614e230ff8700b32ea648508","64e77d7b61f440b60e28659d","64eca31c1eee01edbbc9cffa","null","null","<p style=""font-size: 60px; font-family: BACS"">GLYrAGQYQ</p>","","","","","","","","","",""
"html-keyboard-response","26","562977","0.0-7.0-0.19","614e230ff8700b32ea648508","64e77d7b61f440b60e28659d","64eca31c1eee01edbbc9cffa","null","null","<p style=""font-size: 60px; font-family: BACS"">JdGmOJlN</p>","","","","","","","","","",""
"html-keyboard-response","27","563992","0.0-7.0-0.20","614e230ff8700b32ea648508","64e77d7b61f440b60e28659d","64eca31c1eee01edbbc9cffa","null","null","<p style=""font-size: 60px; font-family: BACS"">AbKDmCd</p>","","","","","","","","","",""
"html-keyboard-response","28","564995","0.0-7.0-0.21","614e230ff8700b32ea648508","64e77d7b61f440b60e28659d","64eca31c1eee01edbbc9cffa","null","null","<p style=""font-size: 60px; font-family: BACS"">DBPhcPMYm</p>","","","","","","","","","",""
"html-keyboard-response","29","566011","0.0-7.0-0.22","614e230ff8700b32ea648508","64e77d7b61f440b60e28659d","64eca31c1eee01edbbc9cffa","null","null","<p style=""font-size: 60px; font-family: BACS"">NaJbOJlN</p>","","","","","","","","","",""
"html-keyboard-response","30","567014","0.0-7.0-0.23","614e230ff8700b32ea648508","64e77d7b61f440b60e28659d","64eca31c1eee01edbbc9cffa","null","null","<p style=""font-size: 60px; font-family: BACS"">AbKDOYK</p>","","","","","","","","","",""
"html-keyboard-response","31","568029","0.0-7.0-0.24","614e230ff8700b32ea648508","64e77d7b61f440b60e28659d","64eca31c1eee01edbbc9cffa","null","null","<p style=""font-size: 60px; font-family: BACS"">ktBdPTl</p>","","","","","","","","","",""
"html-keyboard-response","32","569031","0.0-7.0-0.25","614e230ff8700b32ea648508","64e77d7b61f440b60e28659d","64eca31c1eee01edbbc9cffa","null","null","<p style=""font-size: 60px; font-family: BACS"">PCPDhmCd</p>","","","","","","","","","",""
"html-keyboard-response","33","570032","0.0-7.0-0.26","614e230ff8700b32ea648508","64e77d7b61f440b60e28659d","64eca31c1eee01edbbc9cffa","null","null","<p style=""font-size: 60px; font-family: BACS"">QOLmuGQYQ</p>","","","","","","","","","",""
"html-keyboard-response","34","571049","0.0-7.0-0.27","614e230ff8700b32ea648508","64e77d7b61f440b60e28659d","64eca31c1eee01edbbc9cffa","null","null","<p style=""font-size: 60px; font-family: BACS"">EhbtPEdK</p>","","","","","","","","","",""
"html-keyboard-response","35","572054","0.0-7.0-0.28","614e230ff8700b32ea648508","64e77d7b61f440b60e28659d","64eca31c1eee01edbbc9cffa","null","null","<p style=""font-size: 60px; font-family: BACS"">QcQAJkdrO</p>","","","","","","","","","",""
"html-keyboard-response","36","573068","0.0-7.0-0.29","614e230ff8700b32ea648508","64e77d7b61f440b60e28659d","64eca31c1eee01edbbc9cffa","null","null","<p style=""font-size: 60px; font-family: BACS"">PCPDhOYK</p>","","","","","","","","","",""
"html-keyboard-response","37","574070","0.0-7.0-0.30","614e230ff8700b32ea648508","64e77d7b61f440b60e28659d","64eca31c1eee01edbbc9cffa","null","null","<p style=""font-size: 60px; font-family: BACS"">kdEdYPMYm</p>","","","","","","","","","",""
"html-keyboard-response","38","575071","0.0-7.0-0.31","614e230ff8700b32ea648508","64e77d7b61f440b60e28659d","64eca31c1eee01edbbc9cffa","null","null","<p style=""font-size: 60px; font-family: BACS"">PcBTPTl</p>","","","","","","","","","",""
"html-keyboard-response","39","576088","0.0-7.0-0.32","614e230ff8700b32ea648508","64e77d7b61f440b60e28659d","64eca31c1eee01edbbc9cffa","null","null","<p style=""font-size: 60px; font-family: BACS"">laYmrOcZJ</p>","","","","","","","","","",""
"html-keyboard-response","40","577091","0.0-7.0-0.33","614e230ff8700b32ea648508","64e77d7b61f440b60e28659d","64eca31c1eee01edbbc9cffa","null","null","<p style=""font-size: 60px; font-family: BACS"">UdumdGQYQ</p>","","","","","","","","","",""
"html-keyboard-response","41","578107","0.0-7.0-0.34","614e230ff8700b32ea648508","64e77d7b61f440b60e28659d","64eca31c1eee01edbbc9cffa","null","null","<p style=""font-size: 60px; font-family: BACS"">mBmlAmCd</p>","","","","","","","","","",""
"html-keyboard-response","42","579108","0.0-7.0-0.35","614e230ff8700b32ea648508","64e77d7b61f440b60e28659d","64eca31c1eee01edbbc9cffa","null","null","<p style=""font-size: 60px; font-family: BACS"">kdEdYPEdK</p>","","","","","","","","","",""
"html-keyboard-response","43","580125","0.0-7.0-0.36","614e230ff8700b32ea648508","64e77d7b61f440b60e28659d","64eca31c1eee01edbbc9cffa","null","null","<p style=""font-size: 60px; font-family: BACS"">NaJbQONk</p>","","","","","","","","","",""
"html-keyboard-response","44","581127","0.0-7.0-0.37","614e230ff8700b32ea648508","64e77d7b61f440b60e28659d","64eca31c1eee01edbbc9cffa","null","null","<p style=""font-size: 60px; font-family: BACS"">PlEKOYK</p>","","","","","","","","","",""
"html-keyboard-response","45","582143","0.0-7.0-0.38","614e230ff8700b32ea648508","64e77d7b61f440b60e28659d","64eca31c1eee01edbbc9cffa","null","null","<p style=""font-size: 60px; font-family: BACS"">UdumdkdrO</p>","","","","","","","","","",""
"html-keyboard-response","46","583145","0.0-7.0-0.39","614e230ff8700b32ea648508","64e77d7b61f440b60e28659d","64eca31c1eee01edbbc9cffa","null","null","<p style=""font-size: 60px; font-family: BACS"">hCktPEdK</p>","","","","","","","","","",""
"html-keyboard-response","47","584162","0.0-7.0-0.40","614e230ff8700b32ea648508","64e77d7b61f440b60e28659d","64eca31c1eee01edbbc9cffa","null","null","<p style=""font-size: 60px; font-family: BACS"">QcQAJOJlN</p>","","","","","","","","","",""
"html-keyboard-response","48","585165","0.0-7.0-0.41","614e230ff8700b32ea648508","64e77d7b61f440b60e28659d","64eca31c1eee01edbbc9cffa","null","null","<p style=""font-size: 60px; font-family: BACS"">dkLlGQYQ</p>","","","","","","","","","",""
"html-keyboard-response","49","586181","0.0-7.0-0.42","614e230ff8700b32ea648508","64e77d7b61f440b60e28659d","64eca31c1eee01edbbc9cffa","null","null","<p style=""font-size: 60px; font-family: BACS"">hCktOYK</p>","","","","","","","","","",""
"html-keyboard-response","50","587183","0.0-7.0-0.43","614e230ff8700b32ea648508","64e77d7b61f440b60e28659d","64eca31c1eee01edbbc9cffa","null","null","<p style=""font-size: 60px; font-family: BACS"">laYmrQONk</p>","","","","","","","","","",""
"html-keyboard-response","51","588200","0.0-7.0-0.44","614e230ff8700b32ea648508","64e77d7b61f440b60e28659d","64eca31c1eee01edbbc9cffa","null","null","<p style=""font-size: 60px; font-family: BACS"">dkLlkdrO</p>","","","","","","","","","",""
"html-keyboard-response","52","589203","0.0-7.0-0.45","614e230ff8700b32ea648508","64e77d7b61f440b60e28659d","64eca31c1eee01edbbc9cffa","null","null","<p style=""font-size: 60px; font-family: BACS"">AbKDPMYm</p>","","","","","","","","","",""
"html-keyboard-response","53","590219","0.0-7.0-0.46","614e230ff8700b32ea648508","64e77d7b61f440b60e28659d","64eca31c1eee01edbbc9cffa","null","null","<p style=""font-size: 60px; font-family: BACS"">GZJYQONk</p>","","","","","","","","","",""
"html-keyboard-response","54","591221","0.0-7.0-0.47","614e230ff8700b32ea648508","64e77d7b61f440b60e28659d","64eca31c1eee01edbbc9cffa","null","null","<p style=""font-size: 60px; font-family: BACS"">JdGmOcZJ</p>","","","","","","","","","",""
"html-keyboard-response","55","592237","0.0-7.0-0.48","614e230ff8700b32ea648508","64e77d7b61f440b60e28659d","64eca31c1eee01edbbc9cffa","null","null","<p style=""font-size: 60px; font-family: BACS"">DBPhcPEdK</p>","","","","","","","","","",""
"html-keyboard-response","56","593239","0.0-7.0-0.49","614e230ff8700b32ea648508","64e77d7b61f440b60e28659d","64eca31c1eee01edbbc9cffa","null","null","<p style=""font-size: 60px; font-family: BACS"">EhbtOYK</p>","","","","","","","","","",""
"html-keyboard-response","57","594241","0.0-7.0-0.50","614e230ff8700b32ea648508","64e77d7b61f440b60e28659d","64eca31c1eee01edbbc9cffa","null","null","<p style=""font-size: 60px; font-family: BACS"">GZJYOcZJ</p>","","","","","","","","","",""
"html-keyboard-response","58","595257","0.0-7.0-0.51","614e230ff8700b32ea648508","64e77d7b61f440b60e28659d","64eca31c1eee01edbbc9cffa","null","null","<p style=""font-size: 60px; font-family: BACS"">NaJbGQYQ</p>","","","","","","","","","",""
"html-keyboard-response","59","596274","0.0-7.0-0.52","614e230ff8700b32ea648508","64e77d7b61f440b60e28659d","64eca31c1eee01edbbc9cffa","null","null","<p style=""font-size: 60px; font-family: BACS"">QOLmuQONk</p>","","","","","","","","","",""
"html-keyboard-response","60","597276","0.0-7.0-0.53","614e230ff8700b32ea648508","64e77d7b61f440b60e28659d","64eca31c1eee01edbbc9cffa","null","null","<p style=""font-size: 60px; font-family: BACS"">PcBTOYK</p>","","","","","","","","","",""
"html-keyboard-response","61","598293","0.0-7.0-0.54","614e230ff8700b32ea648508","64e77d7b61f440b60e28659d","64eca31c1eee01edbbc9cffa","null","null","<p style=""font-size: 60px; font-family: BACS"">laYmrOJlN</p>","","","","","","","","","",""
"html-keyboard-response","62","599296","0.0-7.0-0.55","614e230ff8700b32ea648508","64e77d7b61f440b60e28659d","64eca31c1eee01edbbc9cffa","null","null","<p style=""font-size: 60px; font-family: BACS"">PcBTmCd</p>","","","","","","","","","",""
"html-keyboard-response","63","600297","0.0-7.0-0.56","614e230ff8700b32ea648508","64e77d7b61f440b60e28659d","64eca31c1eee01edbbc9cffa","null","null","<p style=""font-size: 60px; font-family: BACS"">ktBdPEdK</p>","","","","","","","","","",""
"html-keyboard-response","64","601314","0.0-7.0-0.57","614e230ff8700b32ea648508","64e77d7b61f440b60e28659d","64eca31c1eee01edbbc9cffa","null","null","<p style=""font-size: 60px; font-family: BACS"">mBmlAPTl</p>","","","","","","","","","",""
"html-keyboard-response","65","602330","0.0-7.0-0.58","614e230ff8700b32ea648508","64e77d7b61f440b60e28659d","64eca31c1eee01edbbc9cffa","null","null","<p style=""font-size: 60px; font-family: BACS"">UdumdOJlN</p>","","","","","","","","","",""
"html-keyboard-response","66","603333","0.0-7.0-0.59","614e230ff8700b32ea648508","64e77d7b61f440b60e28659d","64eca31c1eee01edbbc9cffa","null","null","<p style=""font-size: 60px; font-family: BACS"">GLYrAQONk</p>","","","","","","","","","",""
"html-keyboard-response","67","604349","0.0-7.0-0.60","614e230ff8700b32ea648508","64e77d7b61f440b60e28659d","64eca31c1eee01edbbc9cffa","null","null","<p style=""font-size: 60px; font-family: BACS"">ktBdPMYm</p>","","","","","","","","","",""
"html-keyboard-response","68","605352","0.0-7.0-0.61","614e230ff8700b32ea648508","64e77d7b61f440b60e28659d","64eca31c1eee01edbbc9cffa","null","null","<p style=""font-size: 60px; font-family: BACS"">AbKDPTl</p>","","","","","","","","","",""
"html-keyboard-response","69","606368","0.0-7.0-0.62","614e230ff8700b32ea648508","64e77d7b61f440b60e28659d","64eca31c1eee01edbbc9cffa","null","null","<p style=""font-size: 60px; font-family: BACS"">PlEKPMYm</p>","","","","","","","","","",""
"html-keyboard-response","70","607371","0.0-7.0-0.63","614e230ff8700b32ea648508","64e77d7b61f440b60e28659d","64eca31c1eee01edbbc9cffa","null","null","<p style=""font-size: 60px; font-family: BACS"">QcQAJOcZJ</p>","","","","","","","","","",""
"html-keyboard-response","71","608387","0.0-7.0-0.64","614e230ff8700b32ea648508","64e77d7b61f440b60e28659d","64eca31c1eee01edbbc9cffa","null","null","<p style=""font-size: 60px; font-family: BACS"">EhbtPTl</p>","","","","","","","","","",""
"html-keyboard-response","72","609389","0.0-7.0-0.65","614e230ff8700b32ea648508","64e77d7b61f440b60e28659d","64eca31c1eee01edbbc9cffa","null","null","<p style=""font-size: 60px; font-family: BACS"">mBmlAOYK</p>","","","","","","","","","",""
"html-keyboard-response","73","610405","0.0-7.0-0.66","614e230ff8700b32ea648508","64e77d7b61f440b60e28659d","64eca31c1eee01edbbc9cffa","null","null","<p style=""font-size: 60px; font-family: BACS"">GLYrAkdrO</p>","","","","","","","","","",""
"html-keyboard-response","74","611407","0.0-7.0-0.67","614e230ff8700b32ea648508","64e77d7b61f440b60e28659d","64eca31c1eee01edbbc9cffa","null","null","<p style=""font-size: 60px; font-family: BACS"">PcBTPMYm</p>","","","","","","","","","",""
"html-keyboard-response","75","612409","0.0-7.0-0.68","614e230ff8700b32ea648508","64e77d7b61f440b60e28659d","64eca31c1eee01edbbc9cffa","null","null","<p style=""font-size: 60px; font-family: BACS"">LGkAGQYQ</p>","","","","","","","","","",""
"html-keyboard-response","76","613425","0.0-7.0-0.69","614e230ff8700b32ea648508","64e77d7b61f440b60e28659d","64eca31c1eee01edbbc9cffa","null","null","<p style=""font-size: 60px; font-family: BACS"">kdEdYPTl</p>","","","","","","","","","",""
"html-keyboard-response","77","614427","0.0-7.0-0.70","614e230ff8700b32ea648508","64e77d7b61f440b60e28659d","64eca31c1eee01edbbc9cffa","null","null","<p style=""font-size: 60px; font-family: BACS"">NaJbOcZJ</p>","","","","","","","","","",""
"html-keyboard-response","78","615443","0.0-7.0-0.71","614e230ff8700b32ea648508","64e77d7b61f440b60e28659d","64eca31c1eee01edbbc9cffa","null","null","<p style=""font-size: 60px; font-family: BACS"">PlEKmCd</p>","","","","","","","","","",""
"html-keyboard-response","79","616445","0.0-7.0-0.72","614e230ff8700b32ea648508","64e77d7b61f440b60e28659d","64eca31c1eee01edbbc9cffa","null","null","<p style=""font-size: 60px; font-family: BACS"">GZJYOJlN</p>","","","","","","","","","",""
"html-keyboard-response","80","617447","0.0-7.0-0.73","614e230ff8700b32ea648508","64e77d7b61f440b60e28659d","64eca31c1eee01edbbc9cffa","null","null","<p style=""font-size: 60px; font-family: BACS"">LGkAkdrO</p>","","","","","","","","","",""
"html-keyboard-response","81","618448","0.0-7.0-0.74","614e230ff8700b32ea648508","64e77d7b61f440b60e28659d","64eca31c1eee01edbbc9cffa","null","null","<p style=""font-size: 60px; font-family: BACS"">DBPhcOYK</p>","","","","","","","","","",""
"html-keyboard-response","82","619464","0.0-7.0-0.75","614e230ff8700b32ea648508","64e77d7b61f440b60e28659d","64eca31c1eee01edbbc9cffa","null","null","<p style=""font-size: 60px; font-family: BACS"">JdGmkdrO</p>","","","","","","","","","",""
"html-keyboard-response","83","620467","0.0-7.0-0.76","614e230ff8700b32ea648508","64e77d7b61f440b60e28659d","64eca31c1eee01edbbc9cffa","null","null","<p style=""font-size: 60px; font-family: BACS"">LGkAOcZJ</p>","","","","","","","","","",""
"html-keyboard-response","84","621483","0.0-7.0-0.77","614e230ff8700b32ea648508","64e77d7b61f440b60e28659d","64eca31c1eee01edbbc9cffa","null","null","<p style=""font-size: 60px; font-family: BACS"">GLYrAOJlN</p>","","","","","","","","","",""
"html-keyboard-response","85","622486","0.0-7.0-0.78","614e230ff8700b32ea648508","64e77d7b61f440b60e28659d","64eca31c1eee01edbbc9cffa","null","null","<p style=""font-size: 60px; font-family: BACS"">JdGmGQYQ</p>","","","","","","","","","",""
"html-keyboard-response","86","623503","0.0-7.0-0.79","614e230ff8700b32ea648508","64e77d7b61f440b60e28659d","64eca31c1eee01edbbc9cffa","null","null","<p style=""font-size: 60px; font-family: BACS"">laYmrkdrO</p>","","","","","","","","","",""
"html-keyboard-response","87","1171613","0.0-8.0","614e230ff8700b32ea648508","64e77d7b61f440b60e28659d","64eca31c1eee01edbbc9cffa","548123"," ","<p>Great, you've seen the first block of words. You may now take a short break.</p>
      <p>Press the spacebar when you're ready to continue.</p>","","","","","","","","","",""
"html-keyboard-response","88","1172620","0.0-9.0-0.0","614e230ff8700b32ea648508","64e77d7b61f440b60e28659d","64eca31c1eee01edbbc9cffa","null","null","<p style=""font-size: 60px; font-family: BACS"">QcQAJQONk</p>","","","","","","","","","",""
"html-keyboard-response","89","1173636","0.0-9.0-0.1","614e230ff8700b32ea648508","64e77d7b61f440b60e28659d","64eca31c1eee01edbbc9cffa","null","null","<p style=""font-size: 60px; font-family: BACS"">AbKDPMYm</p>","","","","","","","","","",""
"html-keyboard-response","90","1174639","0.0-9.0-0.2","614e230ff8700b32ea648508","64e77d7b61f440b60e28659d","64eca31c1eee01edbbc9cffa","null","null","<p style=""font-size: 60px; font-family: BACS"">hCktmCd</p>","","","","","","","","","",""
"html-keyboard-response","91","1175656","0.0-9.0-0.3","614e230ff8700b32ea648508","64e77d7b61f440b60e28659d","64eca31c1eee01edbbc9cffa","null","null","<p style=""font-size: 60px; font-family: BACS"">DBPhcPEdK</p>","","","","","","","","","",""
"html-keyboard-response","92","1176672","0.0-9.0-0.4","614e230ff8700b32ea648508","64e77d7b61f440b60e28659d","64eca31c1eee01edbbc9cffa","null","null","<p style=""font-size: 60px; font-family: BACS"">hCktOYK</p>","","","","","","","","","",""
"html-keyboard-response","93","1177674","0.0-9.0-0.5","614e230ff8700b32ea648508","64e77d7b61f440b60e28659d","64eca31c1eee01edbbc9cffa","null","null","<p style=""font-size: 60px; font-family: BACS"">QOLmuQONk</p>","","","","","","","","","",""
"html-keyboard-response","94","1178676","0.0-9.0-0.6","614e230ff8700b32ea648508","64e77d7b61f440b60e28659d","64eca31c1eee01edbbc9cffa","null","null","<p style=""font-size: 60px; font-family: BACS"">dkLlOJlN</p>","","","","","","","","","",""
"html-keyboard-response","95","1179692","0.0-9.0-0.7","614e230ff8700b32ea648508","64e77d7b61f440b60e28659d","64eca31c1eee01edbbc9cffa","null","null","<p style=""font-size: 60px; font-family: BACS"">EhbtPMYm</p>","","","","","","","","","",""
"html-keyboard-response","96","1180695","0.0-9.0-0.8","614e230ff8700b32ea648508","64e77d7b61f440b60e28659d","64eca31c1eee01edbbc9cffa","null","null","<p style=""font-size: 60px; font-family: BACS"">PlEKmCd</p>","","","","","","","","","",""
"html-keyboard-response","97","1181711","0.0-9.0-0.9","614e230ff8700b32ea648508","64e77d7b61f440b60e28659d","64eca31c1eee01edbbc9cffa","null","null","<p style=""font-size: 60px; font-family: BACS"">LGkAkdrO</p>","","","","","","","","","",""
"html-keyboard-response","98","1182712","0.0-9.0-0.10","614e230ff8700b32ea648508","64e77d7b61f440b60e28659d","64eca31c1eee01edbbc9cffa","null","null","<p style=""font-size: 60px; font-family: BACS"">PCPDhmCd</p>","","","","","","","","","",""
"html-keyboard-response","99","1183714","0.0-9.0-0.11","614e230ff8700b32ea648508","64e77d7b61f440b60e28659d","64eca31c1eee01edbbc9cffa","null","null","<p style=""font-size: 60px; font-family: BACS"">ktBdPEdK</p>","","","","","","","","","",""
"html-keyboard-response","100","1184730","0.0-9.0-0.12","614e230ff8700b32ea648508","64e77d7b61f440b60e28659d","64eca31c1eee01edbbc9cffa","null","null","<p style=""font-size: 60px; font-family: BACS"">QOLmuGQYQ</p>","","","","","","","","","",""
"html-keyboard-response","101","1185739","0.0-9.0-0.13","614e230ff8700b32ea648508","64e77d7b61f440b60e28659d","64eca31c1eee01edbbc9cffa","null","null","<p style=""font-size: 60px; font-family: BACS"">GZJYOJlN</p>","","","","","","","","","",""
"html-keyboard-response","102","1186750","0.0-9.0-0.14","614e230ff8700b32ea648508","64e77d7b61f440b60e28659d","64eca31c1eee01edbbc9cffa","null","null","<p style=""font-size: 60px; font-family: BACS"">QOLmuOcZJ</p>","","","","","","","","","",""
"html-keyboard-response","103","1187752","0.0-9.0-0.15","614e230ff8700b32ea648508","64e77d7b61f440b60e28659d","64eca31c1eee01edbbc9cffa","null","null","<p style=""font-size: 60px; font-family: BACS"">mBmlAPEdK</p>","","","","","","","","","",""
"html-keyboard-response","104","1188769","0.0-9.0-0.16","614e230ff8700b32ea648508","64e77d7b61f440b60e28659d","64eca31c1eee01edbbc9cffa","null","null","<p style=""font-size: 60px; font-family: BACS"">NaJbQONk</p>","","","","","","","","","",""
"html-keyboard-response","105","1189769","0.0-9.0-0.17","614e230ff8700b32ea648508","64e77d7b61f440b60e28659d","64eca31c1eee01edbbc9cffa","null","null","<p style=""font-size: 60px; font-family: BACS"">GLYrAGQYQ</p>","","","","","","","","","",""
"html-keyboard-response","106","1190770","0.0-9.0-0.18","614e230ff8700b32ea648508","64e77d7b61f440b60e28659d","64eca31c1eee01edbbc9cffa","null","null","<p style=""font-size: 60px; font-family: BACS"">PCPDhPEdK</p>","","","","","","","","","",""
"html-keyboard-response","107","1191772","0.0-9.0-0.19","614e230ff8700b32ea648508","64e77d7b61f440b60e28659d","64eca31c1eee01edbbc9cffa","null","null","<p style=""font-size: 60px; font-family: BACS"">GLYrAOJlN</p>","","","","","","","","","",""
"html-keyboard-response","108","1192788","0.0-9.0-0.20","614e230ff8700b32ea648508","64e77d7b61f440b60e28659d","64eca31c1eee01edbbc9cffa","null","null","<p style=""font-size: 60px; font-family: BACS"">NaJbGQYQ</p>","","","","","","","","","",""
"html-keyboard-response","109","1193791","0.0-9.0-0.21","614e230ff8700b32ea648508","64e77d7b61f440b60e28659d","64eca31c1eee01edbbc9cffa","null","null","<p style=""font-size: 60px; font-family: BACS"">PcBTPTl</p>","","","","","","","","","",""
"html-keyboard-response","110","1194807","0.0-9.0-0.22","614e230ff8700b32ea648508","64e77d7b61f440b60e28659d","64eca31c1eee01edbbc9cffa","null","null","<p style=""font-size: 60px; font-family: BACS"">laYmrOcZJ</p>","","","","","","","","","",""
"html-keyboard-response","111","1195809","0.0-9.0-0.23","614e230ff8700b32ea648508","64e77d7b61f440b60e28659d","64eca31c1eee01edbbc9cffa","null","null","<p style=""font-size: 60px; font-family: BACS"">PCPDhOYK</p>","","","","","","","","","",""
"html-keyboard-response","112","1196810","0.0-9.0-0.24","614e230ff8700b32ea648508","64e77d7b61f440b60e28659d","64eca31c1eee01edbbc9cffa","null","null","<p style=""font-size: 60px; font-family: BACS"">kdEdYPMYm</p>","","","","","","","","","",""
"html-keyboard-response","113","1197827","0.0-9.0-0.25","614e230ff8700b32ea648508","64e77d7b61f440b60e28659d","64eca31c1eee01edbbc9cffa","null","null","<p style=""font-size: 60px; font-family: BACS"">mBmlAOYK</p>","","","","","","","","","",""
"html-keyboard-response","114","1198828","0.0-9.0-0.26","614e230ff8700b32ea648508","64e77d7b61f440b60e28659d","64eca31c1eee01edbbc9cffa","null","null","<p style=""font-size: 60px; font-family: BACS"">laYmrQONk</p>","","","","","","","","","",""
"html-keyboard-response","115","1199846","0.0-9.0-0.27","614e230ff8700b32ea648508","64e77d7b61f440b60e28659d","64eca31c1eee01edbbc9cffa","null","null","<p style=""font-size: 60px; font-family: BACS"">PcBTOYK</p>","","","","","","","","","",""
"html-keyboard-response","116","1200857","0.0-9.0-0.28","614e230ff8700b32ea648508","64e77d7b61f440b60e28659d","64eca31c1eee01edbbc9cffa","null","null","<p style=""font-size: 60px; font-family: BACS"">QcQAJOcZJ</p>","","","","","","","","","",""
"html-keyboard-response","117","1201872","0.0-9.0-0.29","614e230ff8700b32ea648508","64e77d7b61f440b60e28659d","64eca31c1eee01edbbc9cffa","null","null","<p style=""font-size: 60px; font-family: BACS"">kdEdYPEdK</p>","","","","","","","","","",""
"html-keyboard-response","118","1202882","0.0-9.0-0.30","614e230ff8700b32ea648508","64e77d7b61f440b60e28659d","64eca31c1eee01edbbc9cffa","null","null","<p style=""font-size: 60px; font-family: BACS"">mBmlAPTl</p>","","","","","","","","","",""
"html-keyboard-response","119","1203885","0.0-9.0-0.31","614e230ff8700b32ea648508","64e77d7b61f440b60e28659d","64eca31c1eee01edbbc9cffa","null","null","<p style=""font-size: 60px; font-family: BACS"">AbKDmCd</p>","","","","","","","","","",""
"html-keyboard-response","120","1204901","0.0-9.0-0.32","614e230ff8700b32ea648508","64e77d7b61f440b60e28659d","64eca31c1eee01edbbc9cffa","null","null","<p style=""font-size: 60px; font-family: BACS"">LGkAQONk</p>","","","","","","","","","",""
"html-keyboard-response","121","1205918","0.0-9.0-0.33","614e230ff8700b32ea648508","64e77d7b61f440b60e28659d","64eca31c1eee01edbbc9cffa","null","null","<p style=""font-size: 60px; font-family: BACS"">UdumdkdrO</p>","","","","","","","","","",""
"html-keyboard-response","122","1206920","0.0-9.0-0.34","614e230ff8700b32ea648508","64e77d7b61f440b60e28659d","64eca31c1eee01edbbc9cffa","null","null","<p style=""font-size: 60px; font-family: BACS"">GZJYQONk</p>","","","","","","","","","",""
"html-keyboard-response","123","1207936","0.0-9.0-0.35","614e230ff8700b32ea648508","64e77d7b61f440b60e28659d","64eca31c1eee01edbbc9cffa","null","null","<p style=""font-size: 60px; font-family: BACS"">DBPhcPMYm</p>","","","","","","","","","",""
"html-keyboard-response","124","1208939","0.0-9.0-0.36","614e230ff8700b32ea648508","64e77d7b61f440b60e28659d","64eca31c1eee01edbbc9cffa","null","null","<p style=""font-size: 60px; font-family: BACS"">kdEdYPTl</p>","","","","","","","","","",""
"html-keyboard-response","125","1209955","0.0-9.0-0.37","614e230ff8700b32ea648508","64e77d7b61f440b60e28659d","64eca31c1eee01edbbc9cffa","null","null","<p style=""font-size: 60px; font-family: BACS"">mBmlAmCd</p>","","","","","","","","","",""
"html-keyboard-response","126","1210958","0.0-9.0-0.38","614e230ff8700b32ea648508","64e77d7b61f440b60e28659d","64eca31c1eee01edbbc9cffa","null","null","<p style=""font-size: 60px; font-family: BACS"">LGkAGQYQ</p>","","","","","","","","","",""
"html-keyboard-response","127","1211974","0.0-9.0-0.39","614e230ff8700b32ea648508","64e77d7b61f440b60e28659d","64eca31c1eee01edbbc9cffa","null","null","<p style=""font-size: 60px; font-family: BACS"">AbKDPTl</p>","","","","","","","","","",""
"html-keyboard-response","128","1212976","0.0-9.0-0.40","614e230ff8700b32ea648508","64e77d7b61f440b60e28659d","64eca31c1eee01edbbc9cffa","null","null","<p style=""font-size: 60px; font-family: BACS"">NaJbOcZJ</p>","","","","","","","","","",""
"html-keyboard-response","129","1213991","0.0-9.0-0.41","614e230ff8700b32ea648508","64e77d7b61f440b60e28659d","64eca31c1eee01edbbc9cffa","null","null","<p style=""font-size: 60px; font-family: BACS"">kdEdYmCd</p>","","","","","","","","","",""
"html-keyboard-response","130","1215000","0.0-9.0-0.42","614e230ff8700b32ea648508","64e77d7b61f440b60e28659d","64eca31c1eee01edbbc9cffa","null","null","<p style=""font-size: 60px; font-family: BACS"">hCktPTl</p>","","","","","","","","","",""
"html-keyboard-response","131","1216012","0.0-9.0-0.43","614e230ff8700b32ea648508","64e77d7b61f440b60e28659d","64eca31c1eee01edbbc9cffa","null","null","<p style=""font-size: 60px; font-family: BACS"">UdumdOJlN</p>","","","","","","","","","",""
"html-keyboard-response","132","1217015","0.0-9.0-0.44","614e230ff8700b32ea648508","64e77d7b61f440b60e28659d","64eca31c1eee01edbbc9cffa","null","null","<p style=""font-size: 60px; font-family: BACS"">GZJYGQYQ</p>","","","","","","","","","",""
"html-keyboard-response","133","1218030","0.0-9.0-0.45","614e230ff8700b32ea648508","64e77d7b61f440b60e28659d","64eca31c1eee01edbbc9cffa","null","null","<p style=""font-size: 60px; font-family: BACS"">PlEKOYK</p>","","","","","","","","","",""
"html-keyboard-response","134","1219033","0.0-9.0-0.46","614e230ff8700b32ea648508","64e77d7b61f440b60e28659d","64eca31c1eee01edbbc9cffa","null","null","<p style=""font-size: 60px; font-family: BACS"">laYmrOJlN</p>","","","","","","","","","",""
"html-keyboard-response","135","1220049","0.0-9.0-0.47","614e230ff8700b32ea648508","64e77d7b61f440b60e28659d","64eca31c1eee01edbbc9cffa","null","null","<p style=""font-size: 60px; font-family: BACS"">EhbtPEdK</p>","","","","","","","","","",""
"html-keyboard-response","136","1221052","0.0-9.0-0.48","614e230ff8700b32ea648508","64e77d7b61f440b60e28659d","64eca31c1eee01edbbc9cffa","null","null","<p style=""font-size: 60px; font-family: BACS"">dkLlGQYQ</p>","","","","","","","","","",""
"html-keyboard-response","137","1222067","0.0-9.0-0.49","614e230ff8700b32ea648508","64e77d7b61f440b60e28659d","64eca31c1eee01edbbc9cffa","null","null","<p style=""font-size: 60px; font-family: BACS"">ktBdPMYm</p>","","","","","","","","","",""
"html-keyboard-response","138","1223069","0.0-9.0-0.50","614e230ff8700b32ea648508","64e77d7b61f440b60e28659d","64eca31c1eee01edbbc9cffa","null","null","<p style=""font-size: 60px; font-family: BACS"">JdGmOJlN</p>","","","","","","","","","",""
"html-keyboard-response","139","1224087","0.0-9.0-0.51","614e230ff8700b32ea648508","64e77d7b61f440b60e28659d","64eca31c1eee01edbbc9cffa","null","null","<p style=""font-size: 60px; font-family: BACS"">ktBdmCd</p>","","","","","","","","","",""
"html-keyboard-response","140","1225103","0.0-9.0-0.52","614e230ff8700b32ea648508","64e77d7b61f440b60e28659d","64eca31c1eee01edbbc9cffa","null","null","<p style=""font-size: 60px; font-family: BACS"">hCktPEdK</p>","","","","","","","","","",""
"html-keyboard-response","141","1226106","0.0-9.0-0.53","614e230ff8700b32ea648508","64e77d7b61f440b60e28659d","64eca31c1eee01edbbc9cffa","null","null","<p style=""font-size: 60px; font-family: BACS"">EhbtOYK</p>","","","","","","","","","",""
"html-keyboard-response","142","1227123","0.0-9.0-0.54","614e230ff8700b32ea648508","64e77d7b61f440b60e28659d","64eca31c1eee01edbbc9cffa","null","null","<p style=""font-size: 60px; font-family: BACS"">GLYrAQONk</p>","","","","","","","","","",""
"html-keyboard-response","143","1228125","0.0-9.0-0.55","614e230ff8700b32ea648508","64e77d7b61f440b60e28659d","64eca31c1eee01edbbc9cffa","null","null","<p style=""font-size: 60px; font-family: BACS"">QcQAJkdrO</p>","","","","","","","","","",""
"html-keyboard-response","144","1229141","0.0-9.0-0.56","614e230ff8700b32ea648508","64e77d7b61f440b60e28659d","64eca31c1eee01edbbc9cffa","null","null","<p style=""font-size: 60px; font-family: BACS"">ktBdPTl</p>","","","","","","","","","",""
"html-keyboard-response","145","1230143","0.0-9.0-0.57","614e230ff8700b32ea648508","64e77d7b61f440b60e28659d","64eca31c1eee01edbbc9cffa","null","null","<p style=""font-size: 60px; font-family: BACS"">GZJYOcZJ</p>","","","","","","","","","",""
"html-keyboard-response","146","1231147","0.0-9.0-0.58","614e230ff8700b32ea648508","64e77d7b61f440b60e28659d","64eca31c1eee01edbbc9cffa","null","null","<p style=""font-size: 60px; font-family: BACS"">AbKDOYK</p>","","","","","","","","","",""
"html-keyboard-response","147","1232174","0.0-9.0-0.59","614e230ff8700b32ea648508","64e77d7b61f440b60e28659d","64eca31c1eee01edbbc9cffa","null","null","<p style=""font-size: 60px; font-family: BACS"">PlEKPEdK</p>","","","","","","","","","",""
"html-keyboard-response","148","1233176","0.0-9.0-0.60","614e230ff8700b32ea648508","64e77d7b61f440b60e28659d","64eca31c1eee01edbbc9cffa","null","null","<p style=""font-size: 60px; font-family: BACS"">laYmrkdrO</p>","","","","","","","","","",""
"html-keyboard-response","149","1234192","0.0-9.0-0.61","614e230ff8700b32ea648508","64e77d7b61f440b60e28659d","64eca31c1eee01edbbc9cffa","null","null","<p style=""font-size: 60px; font-family: BACS"">PcBTPMYm</p>","","","","","","","","","",""
"html-keyboard-response","150","1235194","0.0-9.0-0.62","614e230ff8700b32ea648508","64e77d7b61f440b60e28659d","64eca31c1eee01edbbc9cffa","null","null","<p style=""font-size: 60px; font-family: BACS"">JdGmkdrO</p>","","","","","","","","","",""
"html-keyboard-response","151","1236196","0.0-9.0-0.63","614e230ff8700b32ea648508","64e77d7b61f440b60e28659d","64eca31c1eee01edbbc9cffa","null","null","<p style=""font-size: 60px; font-family: BACS"">UdumdQONk</p>","","","","","","","","","",""
"html-keyboard-response","152","1237212","0.0-9.0-0.64","614e230ff8700b32ea648508","64e77d7b61f440b60e28659d","64eca31c1eee01edbbc9cffa","null","null","<p style=""font-size: 60px; font-family: BACS"">dkLlkdrO</p>","","","","","","","","","",""
"html-keyboard-response","153","1238213","0.0-9.0-0.65","614e230ff8700b32ea648508","64e77d7b61f440b60e28659d","64eca31c1eee01edbbc9cffa","null","null","<p style=""font-size: 60px; font-family: BACS"">EhbtPTl</p>","","","","","","","","","",""
"html-keyboard-response","154","1239218","0.0-9.0-0.66","614e230ff8700b32ea648508","64e77d7b61f440b60e28659d","64eca31c1eee01edbbc9cffa","null","null","<p style=""font-size: 60px; font-family: BACS"">UdumdGQYQ</p>","","","","","","","","","",""
"html-keyboard-response","155","1240231","0.0-9.0-0.67","614e230ff8700b32ea648508","64e77d7b61f440b60e28659d","64eca31c1eee01edbbc9cffa","null","null","<p style=""font-size: 60px; font-family: BACS"">NaJbOJlN</p>","","","","","","","","","",""
"html-keyboard-response","156","1241234","0.0-9.0-0.68","614e230ff8700b32ea648508","64e77d7b61f440b60e28659d","64eca31c1eee01edbbc9cffa","null","null","<p style=""font-size: 60px; font-family: BACS"">PlEKPMYm</p>","","","","","","","","","",""
"html-keyboard-response","157","1242236","0.0-9.0-0.69","614e230ff8700b32ea648508","64e77d7b61f440b60e28659d","64eca31c1eee01edbbc9cffa","null","null","<p style=""font-size: 60px; font-family: BACS"">PcBTmCd</p>","","","","","","","","","",""
"html-keyboard-response","158","1243251","0.0-9.0-0.70","614e230ff8700b32ea648508","64e77d7b61f440b60e28659d","64eca31c1eee01edbbc9cffa","null","null","<p style=""font-size: 60px; font-family: BACS"">DBPhcPTl</p>","","","","","","","","","",""
"html-keyboard-response","159","1244254","0.0-9.0-0.71","614e230ff8700b32ea648508","64e77d7b61f440b60e28659d","64eca31c1eee01edbbc9cffa","null","null","<p style=""font-size: 60px; font-family: BACS"">QcQAJOJlN</p>","","","","","","","","","",""
"html-keyboard-response","160","1245270","0.0-9.0-0.72","614e230ff8700b32ea648508","64e77d7b61f440b60e28659d","64eca31c1eee01edbbc9cffa","null","null","<p style=""font-size: 60px; font-family: BACS"">DBPhcOYK</p>","","","","","","","","","",""
"html-keyboard-response","161","1246287","0.0-9.0-0.73","614e230ff8700b32ea648508","64e77d7b61f440b60e28659d","64eca31c1eee01edbbc9cffa","null","null","<p style=""font-size: 60px; font-family: BACS"">PCPDhPMYm</p>","","","","","","","","","",""
"html-keyboard-response","162","1247290","0.0-9.0-0.74","614e230ff8700b32ea648508","64e77d7b61f440b60e28659d","64eca31c1eee01edbbc9cffa","null","null","<p style=""font-size: 60px; font-family: BACS"">JdGmOcZJ</p>","","","","","","","","","",""
"html-keyboard-response","163","1248306","0.0-9.0-0.75","614e230ff8700b32ea648508","64e77d7b61f440b60e28659d","64eca31c1eee01edbbc9cffa","null","null","<p style=""font-size: 60px; font-family: BACS"">GLYrAkdrO</p>","","","","","","","","","",""
"html-keyboard-response","164","1249308","0.0-9.0-0.76","614e230ff8700b32ea648508","64e77d7b61f440b60e28659d","64eca31c1eee01edbbc9cffa","null","null","<p style=""font-size: 60px; font-family: BACS"">JdGmGQYQ</p>","","","","","","","","","",""
"html-keyboard-response","165","1250325","0.0-9.0-0.77","614e230ff8700b32ea648508","64e77d7b61f440b60e28659d","64eca31c1eee01edbbc9cffa","null","null","<p style=""font-size: 60px; font-family: BACS"">dkLlOcZJ</p>","","","","","","","","","",""
"html-keyboard-response","166","1251327","0.0-9.0-0.78","614e230ff8700b32ea648508","64e77d7b61f440b60e28659d","64eca31c1eee01edbbc9cffa","null","null","<p style=""font-size: 60px; font-family: BACS"">QOLmukdrO</p>","","","","","","","","","",""
"html-keyboard-response","167","1252329","0.0-9.0-0.79","614e230ff8700b32ea648508","64e77d7b61f440b60e28659d","64eca31c1eee01edbbc9cffa","null","null","<p style=""font-size: 60px; font-family: BACS"">LGkAOcZJ</p>","","","","","","","","","",""
"html-keyboard-response","168","1683196","0.0-10.0","614e230ff8700b32ea648508","64e77d7b61f440b60e28659d","64eca31c1eee01edbbc9cffa","430879"," ","<p>Great, you've seen the second block of words. You may now take a short break.</p>
      <p>Press the spacebar when you're ready to continue.</p>","","","","","","","","","",""
"html-keyboard-response","169","1684212","0.0-11.0-0.0","614e230ff8700b32ea648508","64e77d7b61f440b60e28659d","64eca31c1eee01edbbc9cffa","null","null","<p style=""font-size: 60px; font-family: BACS"">ktBdPMYm</p>","","","","","","","","","",""
"html-keyboard-response","170","1685214","0.0-11.0-0.1","614e230ff8700b32ea648508","64e77d7b61f440b60e28659d","64eca31c1eee01edbbc9cffa","null","null","<p style=""font-size: 60px; font-family: BACS"">DBPhcPTl</p>","","","","","","","","","",""
"html-keyboard-response","171","1686230","0.0-11.0-0.2","614e230ff8700b32ea648508","64e77d7b61f440b60e28659d","64eca31c1eee01edbbc9cffa","null","null","<p style=""font-size: 60px; font-family: BACS"">GLYrAQONk</p>","","","","","","","","","",""
"html-keyboard-response","172","1687233","0.0-11.0-0.3","614e230ff8700b32ea648508","64e77d7b61f440b60e28659d","64eca31c1eee01edbbc9cffa","null","null","<p style=""font-size: 60px; font-family: BACS"">kdEdYPMYm</p>","","","","","","","","","",""
"html-keyboard-response","173","1688249","0.0-11.0-0.4","614e230ff8700b32ea648508","64e77d7b61f440b60e28659d","64eca31c1eee01edbbc9cffa","null","null","<p style=""font-size: 60px; font-family: BACS"">laYmrOJlN</p>","","","","","","","","","",""
"html-keyboard-response","174","1689252","0.0-11.0-0.5","614e230ff8700b32ea648508","64e77d7b61f440b60e28659d","64eca31c1eee01edbbc9cffa","null","null","<p style=""font-size: 60px; font-family: BACS"">kdEdYPTl</p>","","","","","","","","","",""
"html-keyboard-response","175","1690268","0.0-11.0-0.6","614e230ff8700b32ea648508","64e77d7b61f440b60e28659d","64eca31c1eee01edbbc9cffa","null","null","<p style=""font-size: 60px; font-family: BACS"">dkLlOJlN</p>","","","","","","","","","",""
"html-keyboard-response","176","1691270","0.0-11.0-0.7","614e230ff8700b32ea648508","64e77d7b61f440b60e28659d","64eca31c1eee01edbbc9cffa","null","null","<p style=""font-size: 60px; font-family: BACS"">EhbtPMYm</p>","","","","","","","","","",""
"html-keyboard-response","177","1692271","0.0-11.0-0.8","614e230ff8700b32ea648508","64e77d7b61f440b60e28659d","64eca31c1eee01edbbc9cffa","null","null","<p style=""font-size: 60px; font-family: BACS"">GLYrAOJlN</p>","","","","","","","","","",""
"html-keyboard-response","178","1693287","0.0-11.0-0.9","614e230ff8700b32ea648508","64e77d7b61f440b60e28659d","64eca31c1eee01edbbc9cffa","null","null","<p style=""font-size: 60px; font-family: BACS"">PCPDhOYK</p>","","","","","","","","","",""
"html-keyboard-response","179","1694290","0.0-11.0-0.10","614e230ff8700b32ea648508","64e77d7b61f440b60e28659d","64eca31c1eee01edbbc9cffa","null","null","<p style=""font-size: 60px; font-family: BACS"">QOLmukdrO</p>","","","","","","","","","",""
"html-keyboard-response","180","1695306","0.0-11.0-0.11","614e230ff8700b32ea648508","64e77d7b61f440b60e28659d","64eca31c1eee01edbbc9cffa","null","null","<p style=""font-size: 60px; font-family: BACS"">AbKDPMYm</p>","","","","","","","","","",""
"html-keyboard-response","181","1696307","0.0-11.0-0.12","614e230ff8700b32ea648508","64e77d7b61f440b60e28659d","64eca31c1eee01edbbc9cffa","null","null","<p style=""font-size: 60px; font-family: BACS"">QOLmuGQYQ</p>","","","","","","","","","",""
"html-keyboard-response","182","1697323","0.0-11.0-0.13","614e230ff8700b32ea648508","64e77d7b61f440b60e28659d","64eca31c1eee01edbbc9cffa","null","null","<p style=""font-size: 60px; font-family: BACS"">hCktOYK</p>","","","","","","","","","",""
"html-keyboard-response","183","1698327","0.0-11.0-0.14","614e230ff8700b32ea648508","64e77d7b61f440b60e28659d","64eca31c1eee01edbbc9cffa","null","null","<p style=""font-size: 60px; font-family: BACS"">PCPDhPMYm</p>","","","","","","","","","",""
"html-keyboard-response","184","1699343","0.0-11.0-0.15","614e230ff8700b32ea648508","64e77d7b61f440b60e28659d","64eca31c1eee01edbbc9cffa","null","null","<p style=""font-size: 60px; font-family: BACS"">LGkAQONk</p>","","","","","","","","","",""
"html-keyboard-response","185","1700346","0.0-11.0-0.16","614e230ff8700b32ea648508","64e77d7b61f440b60e28659d","64eca31c1eee01edbbc9cffa","null","null","<p style=""font-size: 60px; font-family: BACS"">hCktmCd</p>","","","","","","","","","",""
"html-keyboard-response","186","1701363","0.0-11.0-0.17","614e230ff8700b32ea648508","64e77d7b61f440b60e28659d","64eca31c1eee01edbbc9cffa","null","null","<p style=""font-size: 60px; font-family: BACS"">LGkAOcZJ</p>","","","","","","","","","",""
"html-keyboard-response","187","1702380","0.0-11.0-0.18","614e230ff8700b32ea648508","64e77d7b61f440b60e28659d","64eca31c1eee01edbbc9cffa","null","null","<p style=""font-size: 60px; font-family: BACS"">JdGmOJlN</p>","","","","","","","","","",""
"html-keyboard-response","188","1703381","0.0-11.0-0.19","614e230ff8700b32ea648508","64e77d7b61f440b60e28659d","64eca31c1eee01edbbc9cffa","null","null","<p style=""font-size: 60px; font-family: BACS"">UdumdQONk</p>","","","","","","","","","",""
"html-keyboard-response","189","1704383","0.0-11.0-0.20","614e230ff8700b32ea648508","64e77d7b61f440b60e28659d","64eca31c1eee01edbbc9cffa","null","null","<p style=""font-size: 60px; font-family: BACS"">PCPDhPEdK</p>","","","","","","","","","",""
"html-keyboard-response","190","1705399","0.0-11.0-0.21","614e230ff8700b32ea648508","64e77d7b61f440b60e28659d","64eca31c1eee01edbbc9cffa","null","null","<p style=""font-size: 60px; font-family: BACS"">JdGmOcZJ</p>","","","","","","","","","",""
"html-keyboard-response","191","1706401","0.0-11.0-0.22","614e230ff8700b32ea648508","64e77d7b61f440b60e28659d","64eca31c1eee01edbbc9cffa","null","null","<p style=""font-size: 60px; font-family: BACS"">EhbtOYK</p>","","","","","","","","","",""
"html-keyboard-response","192","1707402","0.0-11.0-0.23","614e230ff8700b32ea648508","64e77d7b61f440b60e28659d","64eca31c1eee01edbbc9cffa","null","null","<p style=""font-size: 60px; font-family: BACS"">GZJYOJlN</p>","","","","","","","","","",""
"html-keyboard-response","193","1708404","0.0-11.0-0.24","614e230ff8700b32ea648508","64e77d7b61f440b60e28659d","64eca31c1eee01edbbc9cffa","null","null","<p style=""font-size: 60px; font-family: BACS"">ktBdPTl</p>","","","","","","","","","",""
"html-keyboard-response","194","1709419","0.0-11.0-0.25","614e230ff8700b32ea648508","64e77d7b61f440b60e28659d","64eca31c1eee01edbbc9cffa","null","null","<p style=""font-size: 60px; font-family: BACS"">NaJbOJlN</p>","","","","","","","","","",""
"html-keyboard-response","195","1710422","0.0-11.0-0.26","614e230ff8700b32ea648508","64e77d7b61f440b60e28659d","64eca31c1eee01edbbc9cffa","null","null","<p style=""font-size: 60px; font-family: BACS"">dkLlOcZJ</p>","","","","","","","","","",""
"html-keyboard-response","196","1711438","0.0-11.0-0.27","614e230ff8700b32ea648508","64e77d7b61f440b60e28659d","64eca31c1eee01edbbc9cffa","null","null","<p style=""font-size: 60px; font-family: BACS"">NaJbGQYQ</p>","","","","","","","","","",""
"html-keyboard-response","197","1712440","0.0-11.0-0.28","614e230ff8700b32ea648508","64e77d7b61f440b60e28659d","64eca31c1eee01edbbc9cffa","null","null","<p style=""font-size: 60px; font-family: BACS"">laYmrOcZJ</p>","","","","","","","","","",""
"html-keyboard-response","198","1713441","0.0-11.0-0.29","614e230ff8700b32ea648508","64e77d7b61f440b60e28659d","64eca31c1eee01edbbc9cffa","null","null","<p style=""font-size: 60px; font-family: BACS"">dkLlkdrO</p>","","","","","","","","","",""
"html-keyboard-response","199","1714443","0.0-11.0-0.30","614e230ff8700b32ea648508","64e77d7b61f440b60e28659d","64eca31c1eee01edbbc9cffa","null","null","<p style=""font-size: 60px; font-family: BACS"">QcQAJQONk</p>","","","","","","","","","",""
"html-keyboard-response","200","1715459","0.0-11.0-0.31","614e230ff8700b32ea648508","64e77d7b61f440b60e28659d","64eca31c1eee01edbbc9cffa","null","null","<p style=""font-size: 60px; font-family: BACS"">PcBTPMYm</p>","","","","","","","","","",""
"html-keyboard-response","201","1716476","0.0-11.0-0.32","614e230ff8700b32ea648508","64e77d7b61f440b60e28659d","64eca31c1eee01edbbc9cffa","null","null","<p style=""font-size: 60px; font-family: BACS"">UdumdGQYQ</p>","","","","","","","","","",""
"html-keyboard-response","202","1717480","0.0-11.0-0.33","614e230ff8700b32ea648508","64e77d7b61f440b60e28659d","64eca31c1eee01edbbc9cffa","null","null","<p style=""font-size: 60px; font-family: BACS"">PlEKPMYm</p>","","","","","","","","","",""
"html-keyboard-response","203","1718496","0.0-11.0-0.34","614e230ff8700b32ea648508","64e77d7b61f440b60e28659d","64eca31c1eee01edbbc9cffa","null","null","<p style=""font-size: 60px; font-family: BACS"">laYmrQONk</p>","","","","","","","","","",""
"html-keyboard-response","204","1719499","0.0-11.0-0.35","614e230ff8700b32ea648508","64e77d7b61f440b60e28659d","64eca31c1eee01edbbc9cffa","null","null","<p style=""font-size: 60px; font-family: BACS"">QcQAJOJlN</p>","","","","","","","","","",""
"html-keyboard-response","205","1720514","0.0-11.0-0.36","614e230ff8700b32ea648508","64e77d7b61f440b60e28659d","64eca31c1eee01edbbc9cffa","null","null","<p style=""font-size: 60px; font-family: BACS"">mBmlAOYK</p>","","","","","","","","","",""
"html-keyboard-response","206","1721517","0.0-11.0-0.37","614e230ff8700b32ea648508","64e77d7b61f440b60e28659d","64eca31c1eee01edbbc9cffa","null","null","<p style=""font-size: 60px; font-family: BACS"">LGkAGQYQ</p>","","","","","","","","","",""
"html-keyboard-response","207","1722532","0.0-11.0-0.38","614e230ff8700b32ea648508","64e77d7b61f440b60e28659d","64eca31c1eee01edbbc9cffa","null","null","<p style=""font-size: 60px; font-family: BACS"">QcQAJOcZJ</p>","","","","","","","","","",""
"html-keyboard-response","208","1723535","0.0-11.0-0.39","614e230ff8700b32ea648508","64e77d7b61f440b60e28659d","64eca31c1eee01edbbc9cffa","null","null","<p style=""font-size: 60px; font-family: BACS"">AbKDPTl</p>","","","","","","","","","",""
"html-keyboard-response","209","1724551","0.0-11.0-0.40","614e230ff8700b32ea648508","64e77d7b61f440b60e28659d","64eca31c1eee01edbbc9cffa","null","null","<p style=""font-size: 60px; font-family: BACS"">dkLlGQYQ</p>","","","","","","","","","",""
"html-keyboard-response","210","1725554","0.0-11.0-0.41","614e230ff8700b32ea648508","64e77d7b61f440b60e28659d","64eca31c1eee01edbbc9cffa","null","null","<p style=""font-size: 60px; font-family: BACS"">NaJbQONk</p>","","","","","","","","","",""
"html-keyboard-response","211","1726571","0.0-11.0-0.42","614e230ff8700b32ea648508","64e77d7b61f440b60e28659d","64eca31c1eee01edbbc9cffa","null","null","<p style=""font-size: 60px; font-family: BACS"">DBPhcPMYm</p>","","","","","","","","","",""
"html-keyboard-response","212","1727588","0.0-11.0-0.43","614e230ff8700b32ea648508","64e77d7b61f440b60e28659d","64eca31c1eee01edbbc9cffa","null","null","<p style=""font-size: 60px; font-family: BACS"">JdGmGQYQ</p>","","","","","","","","","",""
"html-keyboard-response","213","1728591","0.0-11.0-0.44","614e230ff8700b32ea648508","64e77d7b61f440b60e28659d","64eca31c1eee01edbbc9cffa","null","null","<p style=""font-size: 60px; font-family: BACS"">NaJbOcZJ</p>","","","","","","","","","",""
"html-keyboard-response","214","1729607","0.0-11.0-0.45","614e230ff8700b32ea648508","64e77d7b61f440b60e28659d","64eca31c1eee01edbbc9cffa","null","null","<p style=""font-size: 60px; font-family: BACS"">PCPDhmCd</p>","","","","","","","","","",""
"html-keyboard-response","215","1730609","0.0-11.0-0.46","614e230ff8700b32ea648508","64e77d7b61f440b60e28659d","64eca31c1eee01edbbc9cffa","null","null","<p style=""font-size: 60px; font-family: BACS"">JdGmkdrO</p>","","","","","","","","","",""
"html-keyboard-response","216","1731611","0.0-11.0-0.47","614e230ff8700b32ea648508","64e77d7b61f440b60e28659d","64eca31c1eee01edbbc9cffa","null","null","<p style=""font-size: 60px; font-family: BACS"">PcBTPTl</p>","","","","","","","","","",""
"html-keyboard-response","217","1732626","0.0-11.0-0.48","614e230ff8700b32ea648508","64e77d7b61f440b60e28659d","64eca31c1eee01edbbc9cffa","null","null","<p style=""font-size: 60px; font-family: BACS"">PlEKOYK</p>","","","","","","","","","",""
"html-keyboard-response","218","1733628","0.0-11.0-0.49","614e230ff8700b32ea648508","64e77d7b61f440b60e28659d","64eca31c1eee01edbbc9cffa","null","null","<p style=""font-size: 60px; font-family: BACS"">ktBdmCd</p>","","","","","","","","","",""
"html-keyboard-response","219","1734630","0.0-11.0-0.50","614e230ff8700b32ea648508","64e77d7b61f440b60e28659d","64eca31c1eee01edbbc9cffa","null","null","<p style=""font-size: 60px; font-family: BACS"">laYmrkdrO</p>","","","","","","","","","",""
"html-keyboard-response","220","1735646","0.0-11.0-0.51","614e230ff8700b32ea648508","64e77d7b61f440b60e28659d","64eca31c1eee01edbbc9cffa","null","null","<p style=""font-size: 60px; font-family: BACS"">GZJYOcZJ</p>","","","","","","","","","",""
"html-keyboard-response","221","1736648","0.0-11.0-0.52","614e230ff8700b32ea648508","64e77d7b61f440b60e28659d","64eca31c1eee01edbbc9cffa","null","null","<p style=""font-size: 60px; font-family: BACS"">DBPhcOYK</p>","","","","","","","","","",""
"html-keyboard-response","222","1737664","0.0-11.0-0.53","614e230ff8700b32ea648508","64e77d7b61f440b60e28659d","64eca31c1eee01edbbc9cffa","null","null","<p style=""font-size: 60px; font-family: BACS"">mBmlAPTl</p>","","","","","","","","","",""
"html-keyboard-response","223","1738668","0.0-11.0-0.54","614e230ff8700b32ea648508","64e77d7b61f440b60e28659d","64eca31c1eee01edbbc9cffa","null","null","<p style=""font-size: 60px; font-family: BACS"">EhbtPEdK</p>","","","","","","","","","",""
"html-keyboard-response","224","1739683","0.0-11.0-0.55","614e230ff8700b32ea648508","64e77d7b61f440b60e28659d","64eca31c1eee01edbbc9cffa","null","null","<p style=""font-size: 60px; font-family: BACS"">mBmlAmCd</p>","","","","","","","","","",""
"html-keyboard-response","225","1740698","0.0-11.0-0.56","614e230ff8700b32ea648508","64e77d7b61f440b60e28659d","64eca31c1eee01edbbc9cffa","null","null","<p style=""font-size: 60px; font-family: BACS"">AbKDOYK</p>","","","","","","","","","",""
"html-keyboard-response","226","1741704","0.0-11.0-0.57","614e230ff8700b32ea648508","64e77d7b61f440b60e28659d","64eca31c1eee01edbbc9cffa","null","null","<p style=""font-size: 60px; font-family: BACS"">UdumdOJlN</p>","","","","","","","","","",""
"html-keyboard-response","227","1742720","0.0-11.0-0.58","614e230ff8700b32ea648508","64e77d7b61f440b60e28659d","64eca31c1eee01edbbc9cffa","null","null","<p style=""font-size: 60px; font-family: BACS"">AbKDmCd</p>","","","","","","","","","",""
"html-keyboard-response","228","1743733","0.0-11.0-0.59","614e230ff8700b32ea648508","64e77d7b61f440b60e28659d","64eca31c1eee01edbbc9cffa","null","null","<p style=""font-size: 60px; font-family: BACS"">GZJYGQYQ</p>","","","","","","","","","",""
"html-keyboard-response","229","1744750","0.0-11.0-0.60","614e230ff8700b32ea648508","64e77d7b61f440b60e28659d","64eca31c1eee01edbbc9cffa","null","null","<p style=""font-size: 60px; font-family: BACS"">ktBdPEdK</p>","","","","","","","","","",""
"html-keyboard-response","230","1745752","0.0-11.0-0.61","614e230ff8700b32ea648508","64e77d7b61f440b60e28659d","64eca31c1eee01edbbc9cffa","null","null","<p style=""font-size: 60px; font-family: BACS"">GLYrAkdrO</p>","","","","","","","","","",""
"html-keyboard-response","231","1746769","0.0-11.0-0.62","614e230ff8700b32ea648508","64e77d7b61f440b60e28659d","64eca31c1eee01edbbc9cffa","null","null","<p style=""font-size: 60px; font-family: BACS"">EhbtPTl</p>","","","","","","","","","",""
"html-keyboard-response","232","1747771","0.0-11.0-0.63","614e230ff8700b32ea648508","64e77d7b61f440b60e28659d","64eca31c1eee01edbbc9cffa","null","null","<p style=""font-size: 60px; font-family: BACS"">PlEKPEdK</p>","","","","","","","","","",""
"html-keyboard-response","233","1748786","0.0-11.0-0.64","614e230ff8700b32ea648508","64e77d7b61f440b60e28659d","64eca31c1eee01edbbc9cffa","null","null","<p style=""font-size: 60px; font-family: BACS"">PcBTmCd</p>","","","","","","","","","",""
"html-keyboard-response","234","1749789","0.0-11.0-0.65","614e230ff8700b32ea648508","64e77d7b61f440b60e28659d","64eca31c1eee01edbbc9cffa","null","null","<p style=""font-size: 60px; font-family: BACS"">LGkAkdrO</p>","","","","","","","","","",""
"html-keyboard-response","235","1750806","0.0-11.0-0.66","614e230ff8700b32ea648508","64e77d7b61f440b60e28659d","64eca31c1eee01edbbc9cffa","null","null","<p style=""font-size: 60px; font-family: BACS"">kdEdYmCd</p>","","","","","","","","","",""
"html-keyboard-response","236","1751807","0.0-11.0-0.67","614e230ff8700b32ea648508","64e77d7b61f440b60e28659d","64eca31c1eee01edbbc9cffa","null","null","<p style=""font-size: 60px; font-family: BACS"">UdumdkdrO</p>","","","","","","","","","",""
"html-keyboard-response","237","1752824","0.0-11.0-0.68","614e230ff8700b32ea648508","64e77d7b61f440b60e28659d","64eca31c1eee01edbbc9cffa","null","null","<p style=""font-size: 60px; font-family: BACS"">GLYrAGQYQ</p>","","","","","","","","","",""
"html-keyboard-response","238","1753827","0.0-11.0-0.69","614e230ff8700b32ea648508","64e77d7b61f440b60e28659d","64eca31c1eee01edbbc9cffa","null","null","<p style=""font-size: 60px; font-family: BACS"">QOLmuOcZJ</p>","","","","","","","","","",""
"html-keyboard-response","239","1754842","0.0-11.0-0.70","614e230ff8700b32ea648508","64e77d7b61f440b60e28659d","64eca31c1eee01edbbc9cffa","null","null","<p style=""font-size: 60px; font-family: BACS"">DBPhcPEdK</p>","","","","","","","","","",""
"html-keyboard-response","240","1755845","0.0-11.0-0.71","614e230ff8700b32ea648508","64e77d7b61f440b60e28659d","64eca31c1eee01edbbc9cffa","null","null","<p style=""font-size: 60px; font-family: BACS"">QcQAJkdrO</p>","","","","","","","","","",""
"html-keyboard-response","241","1756846","0.0-11.0-0.72","614e230ff8700b32ea648508","64e77d7b61f440b60e28659d","64eca31c1eee01edbbc9cffa","null","null","<p style=""font-size: 60px; font-family: BACS"">QOLmuQONk</p>","","","","","","","","","",""
"html-keyboard-response","242","1757847","0.0-11.0-0.73","614e230ff8700b32ea648508","64e77d7b61f440b60e28659d","64eca31c1eee01edbbc9cffa","null","null","<p style=""font-size: 60px; font-family: BACS"">PlEKmCd</p>","","","","","","","","","",""
"html-keyboard-response","243","1758864","0.0-11.0-0.74","614e230ff8700b32ea648508","64e77d7b61f440b60e28659d","64eca31c1eee01edbbc9cffa","null","null","<p style=""font-size: 60px; font-family: BACS"">kdEdYPEdK</p>","","","","","","","","","",""
"html-keyboard-response","244","1759866","0.0-11.0-0.75","614e230ff8700b32ea648508","64e77d7b61f440b60e28659d","64eca31c1eee01edbbc9cffa","null","null","<p style=""font-size: 60px; font-family: BACS"">PcBTOYK</p>","","","","","","","","","",""
"html-keyboard-response","245","1760868","0.0-11.0-0.76","614e230ff8700b32ea648508","64e77d7b61f440b60e28659d","64eca31c1eee01edbbc9cffa","null","null","<p style=""font-size: 60px; font-family: BACS"">hCktPTl</p>","","","","","","","","","",""
"html-keyboard-response","246","1761883","0.0-11.0-0.77","614e230ff8700b32ea648508","64e77d7b61f440b60e28659d","64eca31c1eee01edbbc9cffa","null","null","<p style=""font-size: 60px; font-family: BACS"">mBmlAPEdK</p>","","","","","","","","","",""
"html-keyboard-response","247","1762885","0.0-11.0-0.78","614e230ff8700b32ea648508","64e77d7b61f440b60e28659d","64eca31c1eee01edbbc9cffa","null","null","<p style=""font-size: 60px; font-family: BACS"">GZJYQONk</p>","","","","","","","","","",""
"html-keyboard-response","248","1763902","0.0-11.0-0.79","614e230ff8700b32ea648508","64e77d7b61f440b60e28659d","64eca31c1eee01edbbc9cffa","null","null","<p style=""font-size: 60px; font-family: BACS"">hCktPEdK</p>","","","","","","","","","",""
"html-keyboard-response","249","1853556","0.0-12.0","614e230ff8700b32ea648508","64e77d7b61f440b60e28659d","64eca31c1eee01edbbc9cffa","89662"," ","<p>Great, you've seen the third block of words. You may now take a short break.</p>
      <p>Press the spacebar when you're ready to continue.</p>","","","","","","","","","",""
"html-keyboard-response","250","1854566","0.0-13.0-0.0","614e230ff8700b32ea648508","64e77d7b61f440b60e28659d","64eca31c1eee01edbbc9cffa","null","null","<p style=""font-size: 60px; font-family: BACS"">PcBTPMYm</p>","","","","","","","","","",""
"html-keyboard-response","251","1855583","0.0-13.0-0.1","614e230ff8700b32ea648508","64e77d7b61f440b60e28659d","64eca31c1eee01edbbc9cffa","null","null","<p style=""font-size: 60px; font-family: BACS"">AbKDPTl</p>","","","","","","","","","",""
"html-keyboard-response","252","1856586","0.0-13.0-0.2","614e230ff8700b32ea648508","64e77d7b61f440b60e28659d","64eca31c1eee01edbbc9cffa","null","null","<p style=""font-size: 60px; font-family: BACS"">PcBTmCd</p>","","","","","","","","","",""
"html-keyboard-response","253","1857602","0.0-13.0-0.3","614e230ff8700b32ea648508","64e77d7b61f440b60e28659d","64eca31c1eee01edbbc9cffa","null","null","<p style=""font-size: 60px; font-family: BACS"">QOLmuGQYQ</p>","","","","","","","","","",""
"html-keyboard-response","254","1858604","0.0-13.0-0.4","614e230ff8700b32ea648508","64e77d7b61f440b60e28659d","64eca31c1eee01edbbc9cffa","null","null","<p style=""font-size: 60px; font-family: BACS"">UdumdQONk</p>","","","","","","","","","",""
"html-keyboard-response","255","1859606","0.0-13.0-0.5","614e230ff8700b32ea648508","64e77d7b61f440b60e28659d","64eca31c1eee01edbbc9cffa","null","null","<p style=""font-size: 60px; font-family: BACS"">dkLlkdrO</p>","","","","","","","","","",""
"html-keyboard-response","256","1860607","0.0-13.0-0.6","614e230ff8700b32ea648508","64e77d7b61f440b60e28659d","64eca31c1eee01edbbc9cffa","null","null","<p style=""font-size: 60px; font-family: BACS"">PCPDhmCd</p>","","","","","","","","","",""
"html-keyboard-response","257","1861623","0.0-13.0-0.7","614e230ff8700b32ea648508","64e77d7b61f440b60e28659d","64eca31c1eee01edbbc9cffa","null","null","<p style=""font-size: 60px; font-family: BACS"">QcQAJkdrO</p>","","","","","","","","","",""
"html-keyboard-response","258","1862639","0.0-13.0-0.8","614e230ff8700b32ea648508","64e77d7b61f440b60e28659d","64eca31c1eee01edbbc9cffa","null","null","<p style=""font-size: 60px; font-family: BACS"">PCPDhOYK</p>","","","","","","","","","",""
"html-keyboard-response","259","1863643","0.0-13.0-0.9","614e230ff8700b32ea648508","64e77d7b61f440b60e28659d","64eca31c1eee01edbbc9cffa","null","null","<p style=""font-size: 60px; font-family: BACS"">PlEKmCd</p>","","","","","","","","","",""
"html-keyboard-response","260","1864659","0.0-13.0-0.10","614e230ff8700b32ea648508","64e77d7b61f440b60e28659d","64eca31c1eee01edbbc9cffa","null","null","<p style=""font-size: 60px; font-family: BACS"">hCktPTl</p>","","","","","","","","","",""
"html-keyboard-response","261","1865661","0.0-13.0-0.11","614e230ff8700b32ea648508","64e77d7b61f440b60e28659d","64eca31c1eee01edbbc9cffa","null","null","<p style=""font-size: 60px; font-family: BACS"">GZJYQONk</p>","","","","","","","","","",""
"html-keyboard-response","262","1866663","0.0-13.0-0.12","614e230ff8700b32ea648508","64e77d7b61f440b60e28659d","64eca31c1eee01edbbc9cffa","null","null","<p style=""font-size: 60px; font-family: BACS"">PcBTPTl</p>","","","","","","","","","",""
"html-keyboard-response","263","1867678","0.0-13.0-0.13","614e230ff8700b32ea648508","64e77d7b61f440b60e28659d","64eca31c1eee01edbbc9cffa","null","null","<p style=""font-size: 60px; font-family: BACS"">AbKDOYK</p>","","","","","","","","","",""
"html-keyboard-response","264","1868680","0.0-13.0-0.14","614e230ff8700b32ea648508","64e77d7b61f440b60e28659d","64eca31c1eee01edbbc9cffa","null","null","<p style=""font-size: 60px; font-family: BACS"">QcQAJOJlN</p>","","","","","","","","","",""
"html-keyboard-response","265","1869682","0.0-13.0-0.15","614e230ff8700b32ea648508","64e77d7b61f440b60e28659d","64eca31c1eee01edbbc9cffa","null","null","<p style=""font-size: 60px; font-family: BACS"">DBPhcPMYm</p>","","","","","","","","","",""
"html-keyboard-response","266","1870699","0.0-13.0-0.16","614e230ff8700b32ea648508","64e77d7b61f440b60e28659d","64eca31c1eee01edbbc9cffa","null","null","<p style=""font-size: 60px; font-family: BACS"">JdGmOcZJ</p>","","","","","","","","","",""
"html-keyboard-response","267","1871702","0.0-13.0-0.17","614e230ff8700b32ea648508","64e77d7b61f440b60e28659d","64eca31c1eee01edbbc9cffa","null","null","<p style=""font-size: 60px; font-family: BACS"">mBmlAmCd</p>","","","","","","","","","",""
"html-keyboard-response","268","1872717","0.0-13.0-0.18","614e230ff8700b32ea648508","64e77d7b61f440b60e28659d","64eca31c1eee01edbbc9cffa","null","null","<p style=""font-size: 60px; font-family: BACS"">QOLmuOcZJ</p>","","","","","","","","","",""
"html-keyboard-response","269","1873719","0.0-13.0-0.19","614e230ff8700b32ea648508","64e77d7b61f440b60e28659d","64eca31c1eee01edbbc9cffa","null","null","<p style=""font-size: 60px; font-family: BACS"">hCktPEdK</p>","","","","","","","","","",""
"html-keyboard-response","270","1874736","0.0-13.0-0.20","614e230ff8700b32ea648508","64e77d7b61f440b60e28659d","64eca31c1eee01edbbc9cffa","null","null","<p style=""font-size: 60px; font-family: BACS"">UdumdGQYQ</p>","","","","","","","","","",""
"html-keyboard-response","271","1875739","0.0-13.0-0.21","614e230ff8700b32ea648508","64e77d7b61f440b60e28659d","64eca31c1eee01edbbc9cffa","null","null","<p style=""font-size: 60px; font-family: BACS"">DBPhcOYK</p>","","","","","","","","","",""
"html-keyboard-response","272","1876753","0.0-13.0-0.22","614e230ff8700b32ea648508","64e77d7b61f440b60e28659d","64eca31c1eee01edbbc9cffa","null","null","<p style=""font-size: 60px; font-family: BACS"">JdGmOJlN</p>","","","","","","","","","",""
"html-keyboard-response","273","1877755","0.0-13.0-0.23","614e230ff8700b32ea648508","64e77d7b61f440b60e28659d","64eca31c1eee01edbbc9cffa","null","null","<p style=""font-size: 60px; font-family: BACS"">LGkAkdrO</p>","","","","","","","","","",""
"html-keyboard-response","274","1878759","0.0-13.0-0.24","614e230ff8700b32ea648508","64e77d7b61f440b60e28659d","64eca31c1eee01edbbc9cffa","null","null","<p style=""font-size: 60px; font-family: BACS"">dkLlOJlN</p>","","","","","","","","","",""
"html-keyboard-response","275","1879774","0.0-13.0-0.25","614e230ff8700b32ea648508","64e77d7b61f440b60e28659d","64eca31c1eee01edbbc9cffa","null","null","<p style=""font-size: 60px; font-family: BACS"">GLYrAQONk</p>","","","","","","","","","",""
"html-keyboard-response","276","1880777","0.0-13.0-0.26","614e230ff8700b32ea648508","64e77d7b61f440b60e28659d","64eca31c1eee01edbbc9cffa","null","null","<p style=""font-size: 60px; font-family: BACS"">ktBdPTl</p>","","","","","","","","","",""
"html-keyboard-response","277","1881793","0.0-13.0-0.27","614e230ff8700b32ea648508","64e77d7b61f440b60e28659d","64eca31c1eee01edbbc9cffa","null","null","<p style=""font-size: 60px; font-family: BACS"">GZJYOcZJ</p>","","","","","","","","","",""
"html-keyboard-response","278","1882795","0.0-13.0-0.28","614e230ff8700b32ea648508","64e77d7b61f440b60e28659d","64eca31c1eee01edbbc9cffa","null","null","<p style=""font-size: 60px; font-family: BACS"">GLYrAOJlN</p>","","","","","","","","","",""
"html-keyboard-response","279","1883812","0.0-13.0-0.29","614e230ff8700b32ea648508","64e77d7b61f440b60e28659d","64eca31c1eee01edbbc9cffa","null","null","<p style=""font-size: 60px; font-family: BACS"">JdGmkdrO</p>","","","","","","","","","",""
"html-keyboard-response","280","1884815","0.0-13.0-0.30","614e230ff8700b32ea648508","64e77d7b61f440b60e28659d","64eca31c1eee01edbbc9cffa","null","null","<p style=""font-size: 60px; font-family: BACS"">EhbtPMYm</p>","","","","","","","","","",""
"html-keyboard-response","281","1885831","0.0-13.0-0.31","614e230ff8700b32ea648508","64e77d7b61f440b60e28659d","64eca31c1eee01edbbc9cffa","null","null","<p style=""font-size: 60px; font-family: BACS"">GLYrAkdrO</p>","","","","","","","","","",""
"html-keyboard-response","282","1886833","0.0-13.0-0.32","614e230ff8700b32ea648508","64e77d7b61f440b60e28659d","64eca31c1eee01edbbc9cffa","null","null","<p style=""font-size: 60px; font-family: BACS"">laYmrOcZJ</p>","","","","","","","","","",""
"html-keyboard-response","283","1887849","0.0-13.0-0.33","614e230ff8700b32ea648508","64e77d7b61f440b60e28659d","64eca31c1eee01edbbc9cffa","null","null","<p style=""font-size: 60px; font-family: BACS"">ktBdmCd</p>","","","","","","","","","",""
"html-keyboard-response","284","1888852","0.0-13.0-0.34","614e230ff8700b32ea648508","64e77d7b61f440b60e28659d","64eca31c1eee01edbbc9cffa","null","null","<p style=""font-size: 60px; font-family: BACS"">PCPDhPMYm</p>","","","","","","","","","",""
"html-keyboard-response","285","1889868","0.0-13.0-0.35","614e230ff8700b32ea648508","64e77d7b61f440b60e28659d","64eca31c1eee01edbbc9cffa","null","null","<p style=""font-size: 60px; font-family: BACS"">UdumdOJlN</p>","","","","","","","","","",""
"html-keyboard-response","286","1890869","0.0-13.0-0.36","614e230ff8700b32ea648508","64e77d7b61f440b60e28659d","64eca31c1eee01edbbc9cffa","null","null","<p style=""font-size: 60px; font-family: BACS"">LGkAOcZJ</p>","","","","","","","","","",""
"html-keyboard-response","287","1891871","0.0-13.0-0.37","614e230ff8700b32ea648508","64e77d7b61f440b60e28659d","64eca31c1eee01edbbc9cffa","null","null","<p style=""font-size: 60px; font-family: BACS"">QOLmuQONk</p>","","","","","","","","","",""
"html-keyboard-response","288","1892887","0.0-13.0-0.38","614e230ff8700b32ea648508","64e77d7b61f440b60e28659d","64eca31c1eee01edbbc9cffa","null","null","<p style=""font-size: 60px; font-family: BACS"">PlEKPEdK</p>","","","","","","","","","",""
"html-keyboard-response","289","1893889","0.0-13.0-0.39","614e230ff8700b32ea648508","64e77d7b61f440b60e28659d","64eca31c1eee01edbbc9cffa","null","null","<p style=""font-size: 60px; font-family: BACS"">dkLlGQYQ</p>","","","","","","","","","",""
"html-keyboard-response","290","1894891","0.0-13.0-0.40","614e230ff8700b32ea648508","64e77d7b61f440b60e28659d","64eca31c1eee01edbbc9cffa","null","null","<p style=""font-size: 60px; font-family: BACS"">laYmrQONk</p>","","","","","","","","","",""
"html-keyboard-response","291","1895907","0.0-13.0-0.41","614e230ff8700b32ea648508","64e77d7b61f440b60e28659d","64eca31c1eee01edbbc9cffa","null","null","<p style=""font-size: 60px; font-family: BACS"">NaJbGQYQ</p>","","","","","","","","","",""
"html-keyboard-response","292","1896909","0.0-13.0-0.42","614e230ff8700b32ea648508","64e77d7b61f440b60e28659d","64eca31c1eee01edbbc9cffa","null","null","<p style=""font-size: 60px; font-family: BACS"">PCPDhPEdK</p>","","","","","","","","","",""
"html-keyboard-response","293","1897911","0.0-13.0-0.43","614e230ff8700b32ea648508","64e77d7b61f440b60e28659d","64eca31c1eee01edbbc9cffa","null","null","<p style=""font-size: 60px; font-family: BACS"">hCktOYK</p>","","","","","","","","","",""
"html-keyboard-response","294","1898927","0.0-13.0-0.44","614e230ff8700b32ea648508","64e77d7b61f440b60e28659d","64eca31c1eee01edbbc9cffa","null","null","<p style=""font-size: 60px; font-family: BACS"">JdGmGQYQ</p>","","","","","","","","","",""
"html-keyboard-response","295","1899929","0.0-13.0-0.45","614e230ff8700b32ea648508","64e77d7b61f440b60e28659d","64eca31c1eee01edbbc9cffa","null","null","<p style=""font-size: 60px; font-family: BACS"">DBPhcPTl</p>","","","","","","","","","",""
"html-keyboard-response","296","1900946","0.0-13.0-0.46","614e230ff8700b32ea648508","64e77d7b61f440b60e28659d","64eca31c1eee01edbbc9cffa","null","null","<p style=""font-size: 60px; font-family: BACS"">QOLmukdrO</p>","","","","","","","","","",""
"html-keyboard-response","297","1901964","0.0-13.0-0.47","614e230ff8700b32ea648508","64e77d7b61f440b60e28659d","64eca31c1eee01edbbc9cffa","null","null","<p style=""font-size: 60px; font-family: BACS"">DBPhcPEdK</p>","","","","","","","","","",""
"html-keyboard-response","298","1902980","0.0-13.0-0.48","614e230ff8700b32ea648508","64e77d7b61f440b60e28659d","64eca31c1eee01edbbc9cffa","null","null","<p style=""font-size: 60px; font-family: BACS"">ktBdPMYm</p>","","","","","","","","","",""
"html-keyboard-response","299","1903983","0.0-13.0-0.49","614e230ff8700b32ea648508","64e77d7b61f440b60e28659d","64eca31c1eee01edbbc9cffa","null","null","<p style=""font-size: 60px; font-family: BACS"">kdEdYPEdK</p>","","","","","","","","","",""
"html-keyboard-response","300","1904999","0.0-13.0-0.50","614e230ff8700b32ea648508","64e77d7b61f440b60e28659d","64eca31c1eee01edbbc9cffa","null","null","<p style=""font-size: 60px; font-family: BACS"">GZJYGQYQ</p>","","","","","","","","","",""
"html-keyboard-response","301","1906002","0.0-13.0-0.51","614e230ff8700b32ea648508","64e77d7b61f440b60e28659d","64eca31c1eee01edbbc9cffa","null","null","<p style=""font-size: 60px; font-family: BACS"">mBmlAOYK</p>","","","","","","","","","",""
"html-keyboard-response","302","1907017","0.0-13.0-0.52","614e230ff8700b32ea648508","64e77d7b61f440b60e28659d","64eca31c1eee01edbbc9cffa","null","null","<p style=""font-size: 60px; font-family: BACS"">kdEdYmCd</p>","","","","","","","","","",""
"html-keyboard-response","303","1908020","0.0-13.0-0.53","614e230ff8700b32ea648508","64e77d7b61f440b60e28659d","64eca31c1eee01edbbc9cffa","null","null","<p style=""font-size: 60px; font-family: BACS"">PcBTOYK</p>","","","","","","","","","",""
"html-keyboard-response","304","1909036","0.0-13.0-0.54","614e230ff8700b32ea648508","64e77d7b61f440b60e28659d","64eca31c1eee01edbbc9cffa","null","null","<p style=""font-size: 60px; font-family: BACS"">QcQAJOcZJ</p>","","","","","","","","","",""
"html-keyboard-response","305","1910038","0.0-13.0-0.55","614e230ff8700b32ea648508","64e77d7b61f440b60e28659d","64eca31c1eee01edbbc9cffa","null","null","<p style=""font-size: 60px; font-family: BACS"">mBmlAPEdK</p>","","","","","","","","","",""
"html-keyboard-response","306","1911041","0.0-13.0-0.56","614e230ff8700b32ea648508","64e77d7b61f440b60e28659d","64eca31c1eee01edbbc9cffa","null","null","<p style=""font-size: 60px; font-family: BACS"">UdumdkdrO</p>","","","","","","","","","",""
"html-keyboard-response","307","1912057","0.0-13.0-0.57","614e230ff8700b32ea648508","64e77d7b61f440b60e28659d","64eca31c1eee01edbbc9cffa","null","null","<p style=""font-size: 60px; font-family: BACS"">AbKDPMYm</p>","","","","","","","","","",""
"html-keyboard-response","308","1913060","0.0-13.0-0.58","614e230ff8700b32ea648508","64e77d7b61f440b60e28659d","64eca31c1eee01edbbc9cffa","null","null","<p style=""font-size: 60px; font-family: BACS"">laYmrkdrO</p>","","","","","","","","","",""
"html-keyboard-response","309","1914084","0.0-13.0-0.59","614e230ff8700b32ea648508","64e77d7b61f440b60e28659d","64eca31c1eee01edbbc9cffa","null","null","<p style=""font-size: 60px; font-family: BACS"">NaJbOcZJ</p>","","","","","","","","","",""
"html-keyboard-response","310","1915087","0.0-13.0-0.60","614e230ff8700b32ea648508","64e77d7b61f440b60e28659d","64eca31c1eee01edbbc9cffa","null","null","<p style=""font-size: 60px; font-family: BACS"">LGkAGQYQ</p>","","","","","","","","","",""
"html-keyboard-response","311","1916104","0.0-13.0-0.61","614e230ff8700b32ea648508","64e77d7b61f440b60e28659d","64eca31c1eee01edbbc9cffa","null","null","<p style=""font-size: 60px; font-family: BACS"">NaJbQONk</p>","","","","","","","","","",""
"html-keyboard-response","312","1917120","0.0-13.0-0.62","614e230ff8700b32ea648508","64e77d7b61f440b60e28659d","64eca31c1eee01edbbc9cffa","null","null","<p style=""font-size: 60px; font-family: BACS"">EhbtPEdK</p>","","","","","","","","","",""
"html-keyboard-response","313","1918123","0.0-13.0-0.63","614e230ff8700b32ea648508","64e77d7b61f440b60e28659d","64eca31c1eee01edbbc9cffa","null","null","<p style=""font-size: 60px; font-family: BACS"">LGkAQONk</p>","","","","","","","","","",""
"html-keyboard-response","314","1919124","0.0-13.0-0.64","614e230ff8700b32ea648508","64e77d7b61f440b60e28659d","64eca31c1eee01edbbc9cffa","null","null","<p style=""font-size: 60px; font-family: BACS"">EhbtOYK</p>","","","","","","","","","",""
"html-keyboard-response","315","1920140","0.0-13.0-0.65","614e230ff8700b32ea648508","64e77d7b61f440b60e28659d","64eca31c1eee01edbbc9cffa","null","null","<p style=""font-size: 60px; font-family: BACS"">kdEdYPTl</p>","","","","","","","","","",""
"html-keyboard-response","316","1921148","0.0-13.0-0.66","614e230ff8700b32ea648508","64e77d7b61f440b60e28659d","64eca31c1eee01edbbc9cffa","null","null","<p style=""font-size: 60px; font-family: BACS"">NaJbOJlN</p>","","","","","","","","","",""
"html-keyboard-response","317","1922154","0.0-13.0-0.67","614e230ff8700b32ea648508","64e77d7b61f440b60e28659d","64eca31c1eee01edbbc9cffa","null","null","<p style=""font-size: 60px; font-family: BACS"">dkLlOcZJ</p>","","","","","","","","","",""
"html-keyboard-response","318","1923160","0.0-13.0-0.68","614e230ff8700b32ea648508","64e77d7b61f440b60e28659d","64eca31c1eee01edbbc9cffa","null","null","<p style=""font-size: 60px; font-family: BACS"">AbKDmCd</p>","","","","","","","","","",""
"html-keyboard-response","319","1924163","0.0-13.0-0.69","614e230ff8700b32ea648508","64e77d7b61f440b60e28659d","64eca31c1eee01edbbc9cffa","null","null","<p style=""font-size: 60px; font-family: BACS"">kdEdYPMYm</p>","","","","","","","","","",""
"html-keyboard-response","320","1925170","0.0-13.0-0.70","614e230ff8700b32ea648508","64e77d7b61f440b60e28659d","64eca31c1eee01edbbc9cffa","null","null","<p style=""font-size: 60px; font-family: BACS"">EhbtPTl</p>","","","","","","","","","",""
"html-keyboard-response","321","1926180","0.0-13.0-0.71","614e230ff8700b32ea648508","64e77d7b61f440b60e28659d","64eca31c1eee01edbbc9cffa","null","null","<p style=""font-size: 60px; font-family: BACS"">hCktmCd</p>","","","","","","","","","",""
"html-keyboard-response","322","1927182","0.0-13.0-0.72","614e230ff8700b32ea648508","64e77d7b61f440b60e28659d","64eca31c1eee01edbbc9cffa","null","null","<p style=""font-size: 60px; font-family: BACS"">PlEKPMYm</p>","","","","","","","","","",""
"html-keyboard-response","323","1928198","0.0-13.0-0.73","614e230ff8700b32ea648508","64e77d7b61f440b60e28659d","64eca31c1eee01edbbc9cffa","null","null","<p style=""font-size: 60px; font-family: BACS"">QcQAJQONk</p>","","","","","","","","","",""
"html-keyboard-response","324","1929200","0.0-13.0-0.74","614e230ff8700b32ea648508","64e77d7b61f440b60e28659d","64eca31c1eee01edbbc9cffa","null","null","<p style=""font-size: 60px; font-family: BACS"">GZJYOJlN</p>","","","","","","","","","",""
"html-keyboard-response","325","1930202","0.0-13.0-0.75","614e230ff8700b32ea648508","64e77d7b61f440b60e28659d","64eca31c1eee01edbbc9cffa","null","null","<p style=""font-size: 60px; font-family: BACS"">mBmlAPTl</p>","","","","","","","","","",""
"html-keyboard-response","326","1931218","0.0-13.0-0.76","614e230ff8700b32ea648508","64e77d7b61f440b60e28659d","64eca31c1eee01edbbc9cffa","null","null","<p style=""font-size: 60px; font-family: BACS"">PlEKOYK</p>","","","","","","","","","",""
"html-keyboard-response","327","1932221","0.0-13.0-0.77","614e230ff8700b32ea648508","64e77d7b61f440b60e28659d","64eca31c1eee01edbbc9cffa","null","null","<p style=""font-size: 60px; font-family: BACS"">GLYrAGQYQ</p>","","","","","","","","","",""
"html-keyboard-response","328","1933237","0.0-13.0-0.78","614e230ff8700b32ea648508","64e77d7b61f440b60e28659d","64eca31c1eee01edbbc9cffa","null","null","<p style=""font-size: 60px; font-family: BACS"">ktBdPEdK</p>","","","","","","","","","",""
"html-keyboard-response","329","1934238","0.0-13.0-0.79","614e230ff8700b32ea648508","64e77d7b61f440b60e28659d","64eca31c1eee01edbbc9cffa","null","null","<p style=""font-size: 60px; font-family: BACS"">laYmrOJlN</p>","","","","","","","","","",""
"html-keyboard-response","330","1985475","0.0-14.0","614e230ff8700b32ea648508","64e77d7b61f440b60e28659d","64eca31c1eee01edbbc9cffa","51237"," ","<p>Great, you've seen the fourth block of words. You may now take a short break.</p>
      <p>Press the spacebar when you're ready to continue.</p>","","","","","","","","","",""
"html-keyboard-response","331","1986489","0.0-15.0-0.0","614e230ff8700b32ea648508","64e77d7b61f440b60e28659d","64eca31c1eee01edbbc9cffa","null","null","<p style=""font-size: 60px; font-family: BACS"">laYmrkdrO</p>","","","","","","","","","",""
"html-keyboard-response","332","1987491","0.0-15.0-0.1","614e230ff8700b32ea648508","64e77d7b61f440b60e28659d","64eca31c1eee01edbbc9cffa","null","null","<p style=""font-size: 60px; font-family: BACS"">laYmrkdrO</p>","","","","","","","","","",""
"html-keyboard-response","333","1988492","0.0-15.0-0.2","614e230ff8700b32ea648508","64e77d7b61f440b60e28659d","64eca31c1eee01edbbc9cffa","null","null","<p style=""font-size: 60px; font-family: BACS"">laYmrkdrO</p>","","","","","","","","","",""
"html-keyboard-response","334","1989507","0.0-15.0-0.3","614e230ff8700b32ea648508","64e77d7b61f440b60e28659d","64eca31c1eee01edbbc9cffa","null","null","<p style=""font-size: 60px; font-family: BACS"">laYmrkdrO</p>","","","","","","","","","",""
"html-keyboard-response","335","1990511","0.0-15.0-0.4","614e230ff8700b32ea648508","64e77d7b61f440b60e28659d","64eca31c1eee01edbbc9cffa","null","null","<p style=""font-size: 60px; font-family: BACS"">laYmrkdrO</p>","","","","","","","","","",""
"html-keyboard-response","336","1991528","0.0-15.0-0.5","614e230ff8700b32ea648508","64e77d7b61f440b60e28659d","64eca31c1eee01edbbc9cffa","null","null","<p style=""font-size: 60px; font-family: BACS"">laYmrkdrO</p>","","","","","","","","","",""
"html-keyboard-response","337","1992530","0.0-15.0-0.6","614e230ff8700b32ea648508","64e77d7b61f440b60e28659d","64eca31c1eee01edbbc9cffa","null","null","<p style=""font-size: 60px; font-family: BACS"">laYmrkdrO</p>","","","","","","","","","",""
"html-keyboard-response","338","1993531","0.0-15.0-0.7","614e230ff8700b32ea648508","64e77d7b61f440b60e28659d","64eca31c1eee01edbbc9cffa","null","null","<p style=""font-size: 60px; font-family: BACS"">laYmrkdrO</p>","","","","","","","","","",""
"html-keyboard-response","339","1994532","0.0-15.0-0.8","614e230ff8700b32ea648508","64e77d7b61f440b60e28659d","64eca31c1eee01edbbc9cffa","null","null","<p style=""font-size: 60px; font-family: BACS"">laYmrkdrO</p>","","","","","","","","","",""
"html-keyboard-response","340","1995548","0.0-15.0-0.9","614e230ff8700b32ea648508","64e77d7b61f440b60e28659d","64eca31c1eee01edbbc9cffa","null","null","<p style=""font-size: 60px; font-family: BACS"">laYmrkdrO</p>","","","","","","","","","",""
"html-keyboard-response","341","1996550","0.0-15.0-0.10","614e230ff8700b32ea648508","64e77d7b61f440b60e28659d","64eca31c1eee01edbbc9cffa","null","null","<p style=""font-size: 60px; font-family: BACS"">laYmrkdrO</p>","","","","","","","","","",""
"html-keyboard-response","342","1997567","0.0-15.0-0.11","614e230ff8700b32ea648508","64e77d7b61f440b60e28659d","64eca31c1eee01edbbc9cffa","null","null","<p style=""font-size: 60px; font-family: BACS"">laYmrkdrO</p>","","","","","","","","","",""
"html-keyboard-response","343","1998568","0.0-15.0-0.12","614e230ff8700b32ea648508","64e77d7b61f440b60e28659d","64eca31c1eee01edbbc9cffa","null","null","<p style=""font-size: 60px; font-family: BACS"">laYmrkdrO</p>","","","","","","","","","",""
"html-keyboard-response","344","1999571","0.0-15.0-0.13","614e230ff8700b32ea648508","64e77d7b61f440b60e28659d","64eca31c1eee01edbbc9cffa","null","null","<p style=""font-size: 60px; font-family: BACS"">laYmrkdrO</p>","","","","","","","","","",""
"html-keyboard-response","345","2000586","0.0-15.0-0.14","614e230ff8700b32ea648508","64e77d7b61f440b60e28659d","64eca31c1eee01edbbc9cffa","null","null","<p style=""font-size: 60px; font-family: BACS"">laYmrkdrO</p>","","","","","","","","","",""
"html-keyboard-response","346","2001588","0.0-15.0-0.15","614e230ff8700b32ea648508","64e77d7b61f440b60e28659d","64eca31c1eee01edbbc9cffa","null","null","<p style=""font-size: 60px; font-family: BACS"">laYmrkdrO</p>","","","","","","","","","",""
"html-keyboard-response","347","2002590","0.0-15.0-0.16","614e230ff8700b32ea648508","64e77d7b61f440b60e28659d","64eca31c1eee01edbbc9cffa","null","null","<p style=""font-size: 60px; font-family: BACS"">laYmrkdrO</p>","","","","","","","","","",""
"html-keyboard-response","348","2003607","0.0-15.0-0.17","614e230ff8700b32ea648508","64e77d7b61f440b60e28659d","64eca31c1eee01edbbc9cffa","null","null","<p style=""font-size: 60px; font-family: BACS"">laYmrkdrO</p>","","","","","","","","","",""
"html-keyboard-response","349","2004608","0.0-15.0-0.18","614e230ff8700b32ea648508","64e77d7b61f440b60e28659d","64eca31c1eee01edbbc9cffa","null","null","<p style=""font-size: 60px; font-family: BACS"">laYmrkdrO</p>","","","","","","","","","",""
"html-keyboard-response","350","2005610","0.0-15.0-0.19","614e230ff8700b32ea648508","64e77d7b61f440b60e28659d","64eca31c1eee01edbbc9cffa","null","null","<p style=""font-size: 60px; font-family: BACS"">laYmrkdrO</p>","","","","","","","","","",""
"html-keyboard-response","351","2006626","0.0-15.0-0.20","614e230ff8700b32ea648508","64e77d7b61f440b60e28659d","64eca31c1eee01edbbc9cffa","null","null","<p style=""font-size: 60px; font-family: BACS"">laYmrkdrO</p>","","","","","","","","","",""
"html-keyboard-response","352","2007628","0.0-15.0-0.21","614e230ff8700b32ea648508","64e77d7b61f440b60e28659d","64eca31c1eee01edbbc9cffa","null","null","<p style=""font-size: 60px; font-family: BACS"">laYmrkdrO</p>","","","","","","","","","",""
"html-keyboard-response","353","2008644","0.0-15.0-0.22","614e230ff8700b32ea648508","64e77d7b61f440b60e28659d","64eca31c1eee01edbbc9cffa","null","null","<p style=""font-size: 60px; font-family: BACS"">laYmrkdrO</p>","","","","","","","","","",""
"html-keyboard-response","354","2009646","0.0-15.0-0.23","614e230ff8700b32ea648508","64e77d7b61f440b60e28659d","64eca31c1eee01edbbc9cffa","null","null","<p style=""font-size: 60px; font-family: BACS"">laYmrkdrO</p>","","","","","","","","","",""
"html-keyboard-response","355","2010651","0.0-15.0-0.24","614e230ff8700b32ea648508","64e77d7b61f440b60e28659d","64eca31c1eee01edbbc9cffa","null","null","<p style=""font-size: 60px; font-family: BACS"">laYmrkdrO</p>","","","","","","","","","",""
"html-keyboard-response","356","2011665","0.0-15.0-0.25","614e230ff8700b32ea648508","64e77d7b61f440b60e28659d","64eca31c1eee01edbbc9cffa","null","null","<p style=""font-size: 60px; font-family: BACS"">laYmrkdrO</p>","","","","","","","","","",""
"html-keyboard-response","357","2012681","0.0-15.0-0.26","614e230ff8700b32ea648508","64e77d7b61f440b60e28659d","64eca31c1eee01edbbc9cffa","null","null","<p style=""font-size: 60px; font-family: BACS"">laYmrkdrO</p>","","","","","","","","","",""
"html-keyboard-response","358","2013684","0.0-15.0-0.27","614e230ff8700b32ea648508","64e77d7b61f440b60e28659d","64eca31c1eee01edbbc9cffa","null","null","<p style=""font-size: 60px; font-family: BACS"">laYmrkdrO</p>","","","","","","","","","",""
"html-keyboard-response","359","2014685","0.0-15.0-0.28","614e230ff8700b32ea648508","64e77d7b61f440b60e28659d","64eca31c1eee01edbbc9cffa","null","null","<p style=""font-size: 60px; font-family: BACS"">laYmrkdrO</p>","","","","","","","","","",""
"html-keyboard-response","360","2015687","0.0-15.0-0.29","614e230ff8700b32ea648508","64e77d7b61f440b60e28659d","64eca31c1eee01edbbc9cffa","null","null","<p style=""font-size: 60px; font-family: BACS"">laYmrkdrO</p>","","","","","","","","","",""
"html-keyboard-response","361","2016703","0.0-15.0-0.30","614e230ff8700b32ea648508","64e77d7b61f440b60e28659d","64eca31c1eee01edbbc9cffa","null","null","<p style=""font-size: 60px; font-family: BACS"">laYmrkdrO</p>","","","","","","","","","",""
"html-keyboard-response","362","2017720","0.0-15.0-0.31","614e230ff8700b32ea648508","64e77d7b61f440b60e28659d","64eca31c1eee01edbbc9cffa","null","null","<p style=""font-size: 60px; font-family: BACS"">laYmrkdrO</p>","","","","","","","","","",""
"html-keyboard-response","363","2018722","0.0-15.0-0.32","614e230ff8700b32ea648508","64e77d7b61f440b60e28659d","64eca31c1eee01edbbc9cffa","null","null","<p style=""font-size: 60px; font-family: BACS"">laYmrkdrO</p>","","","","","","","","","",""
"html-keyboard-response","364","2019739","0.0-15.0-0.33","614e230ff8700b32ea648508","64e77d7b61f440b60e28659d","64eca31c1eee01edbbc9cffa","null","null","<p style=""font-size: 60px; font-family: BACS"">laYmrkdrO</p>","","","","","","","","","",""
"html-keyboard-response","365","2020755","0.0-15.0-0.34","614e230ff8700b32ea648508","64e77d7b61f440b60e28659d","64eca31c1eee01edbbc9cffa","null","null","<p style=""font-size: 60px; font-family: BACS"">laYmrkdrO</p>","","","","","","","","","",""
"html-keyboard-response","366","2021758","0.0-15.0-0.35","614e230ff8700b32ea648508","64e77d7b61f440b60e28659d","64eca31c1eee01edbbc9cffa","null","null","<p style=""font-size: 60px; font-family: BACS"">laYmrkdrO</p>","","","","","","","","","",""
"html-keyboard-response","367","2022760","0.0-15.0-0.36","614e230ff8700b32ea648508","64e77d7b61f440b60e28659d","64eca31c1eee01edbbc9cffa","null","null","<p style=""font-size: 60px; font-family: BACS"">laYmrkdrO</p>","","","","","","","","","",""
"html-keyboard-response","368","2023761","0.0-15.0-0.37","614e230ff8700b32ea648508","64e77d7b61f440b60e28659d","64eca31c1eee01edbbc9cffa","null","null","<p style=""font-size: 60px; font-family: BACS"">laYmrkdrO</p>","","","","","","","","","",""
"html-keyboard-response","369","2024762","0.0-15.0-0.38","614e230ff8700b32ea648508","64e77d7b61f440b60e28659d","64eca31c1eee01edbbc9cffa","null","null","<p style=""font-size: 60px; font-family: BACS"">laYmrkdrO</p>","","","","","","","","","",""
"html-keyboard-response","370","2025778","0.0-15.0-0.39","614e230ff8700b32ea648508","64e77d7b61f440b60e28659d","64eca31c1eee01edbbc9cffa","null","null","<p style=""font-size: 60px; font-family: BACS"">laYmrkdrO</p>","","","","","","","","","",""
"html-keyboard-response","371","2026781","0.0-15.0-0.40","614e230ff8700b32ea648508","64e77d7b61f440b60e28659d","64eca31c1eee01edbbc9cffa","null","null","<p style=""font-size: 60px; font-family: BACS"">laYmrkdrO</p>","","","","","","","","","",""
"html-keyboard-response","372","2027797","0.0-15.0-0.41","614e230ff8700b32ea648508","64e77d7b61f440b60e28659d","64eca31c1eee01edbbc9cffa","null","null","<p style=""font-size: 60px; font-family: BACS"">laYmrkdrO</p>","","","","","","","","","",""
"html-keyboard-response","373","2028800","0.0-15.0-0.42","614e230ff8700b32ea648508","64e77d7b61f440b60e28659d","64eca31c1eee01edbbc9cffa","null","null","<p style=""font-size: 60px; font-family: BACS"">laYmrkdrO</p>","","","","","","","","","",""
"html-keyboard-response","374","2029816","0.0-15.0-0.43","614e230ff8700b32ea648508","64e77d7b61f440b60e28659d","64eca31c1eee01edbbc9cffa","null","null","<p style=""font-size: 60px; font-family: BACS"">laYmrkdrO</p>","","","","","","","","","",""
"html-keyboard-response","375","2030818","0.0-15.0-0.44","614e230ff8700b32ea648508","64e77d7b61f440b60e28659d","64eca31c1eee01edbbc9cffa","null","null","<p style=""font-size: 60px; font-family: BACS"">laYmrkdrO</p>","","","","","","","","","",""
"html-keyboard-response","376","2031820","0.0-15.0-0.45","614e230ff8700b32ea648508","64e77d7b61f440b60e28659d","64eca31c1eee01edbbc9cffa","null","null","<p style=""font-size: 60px; font-family: BACS"">laYmrkdrO</p>","","","","","","","","","",""
"html-keyboard-response","377","2032821","0.0-15.0-0.46","614e230ff8700b32ea648508","64e77d7b61f440b60e28659d","64eca31c1eee01edbbc9cffa","null","null","<p style=""font-size: 60px; font-family: BACS"">laYmrkdrO</p>","","","","","","","","","",""
"html-keyboard-response","378","2033837","0.0-15.0-0.47","614e230ff8700b32ea648508","64e77d7b61f440b60e28659d","64eca31c1eee01edbbc9cffa","null","null","<p style=""font-size: 60px; font-family: BACS"">laYmrkdrO</p>","","","","","","","","","",""
"html-keyboard-response","379","2034839","0.0-15.0-0.48","614e230ff8700b32ea648508","64e77d7b61f440b60e28659d","64eca31c1eee01edbbc9cffa","null","null","<p style=""font-size: 60px; font-family: BACS"">laYmrkdrO</p>","","","","","","","","","",""
"html-keyboard-response","380","2035854","0.0-15.0-0.49","614e230ff8700b32ea648508","64e77d7b61f440b60e28659d","64eca31c1eee01edbbc9cffa","null","null","<p style=""font-size: 60px; font-family: BACS"">laYmrkdrO</p>","","","","","","","","","",""
"html-keyboard-response","381","2036858","0.0-15.0-0.50","614e230ff8700b32ea648508","64e77d7b61f440b60e28659d","64eca31c1eee01edbbc9cffa","null","null","<p style=""font-size: 60px; font-family: BACS"">laYmrkdrO</p>","","","","","","","","","",""
"html-keyboard-response","382","2037874","0.0-15.0-0.51","614e230ff8700b32ea648508","64e77d7b61f440b60e28659d","64eca31c1eee01edbbc9cffa","null","null","<p style=""font-size: 60px; font-family: BACS"">laYmrkdrO</p>","","","","","","","","","",""
"html-keyboard-response","383","2038875","0.0-15.0-0.52","614e230ff8700b32ea648508","64e77d7b61f440b60e28659d","64eca31c1eee01edbbc9cffa","null","null","<p style=""font-size: 60px; font-family: BACS"">laYmrkdrO</p>","","","","","","","","","",""
"html-keyboard-response","384","2039892","0.0-15.0-0.53","614e230ff8700b32ea648508","64e77d7b61f440b60e28659d","64eca31c1eee01edbbc9cffa","null","null","<p style=""font-size: 60px; font-family: BACS"">laYmrkdrO</p>","","","","","","","","","",""
"html-keyboard-response","385","2040905","0.0-15.0-0.54","614e230ff8700b32ea648508","64e77d7b61f440b60e28659d","64eca31c1eee01edbbc9cffa","null","null","<p style=""font-size: 60px; font-family: BACS"">laYmrkdrO</p>","","","","","","","","","",""
"html-keyboard-response","386","2041912","0.0-15.0-0.55","614e230ff8700b32ea648508","64e77d7b61f440b60e28659d","64eca31c1eee01edbbc9cffa","null","null","<p style=""font-size: 60px; font-family: BACS"">laYmrkdrO</p>","","","","","","","","","",""
"html-keyboard-response","387","2042928","0.0-15.0-0.56","614e230ff8700b32ea648508","64e77d7b61f440b60e28659d","64eca31c1eee01edbbc9cffa","null","null","<p style=""font-size: 60px; font-family: BACS"">laYmrkdrO</p>","","","","","","","","","",""
"html-keyboard-response","388","2043931","0.0-15.0-0.57","614e230ff8700b32ea648508","64e77d7b61f440b60e28659d","64eca31c1eee01edbbc9cffa","null","null","<p style=""font-size: 60px; font-family: BACS"">laYmrkdrO</p>","","","","","","","","","",""
"html-keyboard-response","389","2044933","0.0-15.0-0.58","614e230ff8700b32ea648508","64e77d7b61f440b60e28659d","64eca31c1eee01edbbc9cffa","null","null","<p style=""font-size: 60px; font-family: BACS"">laYmrkdrO</p>","","","","","","","","","",""
"html-keyboard-response","390","2045936","0.0-15.0-0.59","614e230ff8700b32ea648508","64e77d7b61f440b60e28659d","64eca31c1eee01edbbc9cffa","null","null","<p style=""font-size: 60px; font-family: BACS"">laYmrkdrO</p>","","","","","","","","","",""
"html-keyboard-response","391","2046949","0.0-15.0-0.60","614e230ff8700b32ea648508","64e77d7b61f440b60e28659d","64eca31c1eee01edbbc9cffa","null","null","<p style=""font-size: 60px; font-family: BACS"">laYmrkdrO</p>","","","","","","","","","",""
