"trial_type","trial_index","time_elapsed","internal_node_id","subject_id","study_id","session_id","rt","response","stimulus","success","item","task","correct_response","testing_condition","correct","target","confound","name"
"pavlovia","0","699","0.0-0.0","5bcd11401662020001fe82c1","650c16f0f2faf8d7a0d14c09","651c1ae1ac30c695c2238d43","","","","","","","","","","","",""
"survey-html-form","1","21018","0.0-1.0","5bcd11401662020001fe82c1","650c16f0f2faf8d7a0d14c09","651c1ae1ac30c695c2238d43","20319","{""ID"":""5bcd11401662020001fe82c1""}","","","","","","","","","",""
"html-keyboard-response","2","39279","0.0-2.0","5bcd11401662020001fe82c1","650c16f0f2faf8d7a0d14c09","651c1ae1ac30c695c2238d43","18260"," ","<p style=""font-size: 15px;"">Before beginning, we ask that you read the consent information and confirm your agreement to participate in the experiment.</p>
      <p style=""font-size: 15px;""> We ask that you remember that this is a research project and that your participation is entirely voluntary. You can stop your participation at any time, without needing to provide any explanation. The study we're asking you to participate in aims at examining how readers process written words. You will be engaged in a session of apprximately 20 minutes, followed by a brief questionnaire. You will have the opportunity to take a few breaks during the experiment. You will be paid £4 for your participation, corresponding to a rate of £8/hour. While this experiment looks at cognitive faculties, this experiment doesn't constitute clinical proof of eventual pathologies.</p>
      <p style=""font-size: 15px;"">All of the information collected thanks to yours and others' participation will be held in a secure password-protected server, and will not be shared with anyone not authorised to view it. Your personal information will be kept with an arbitrary participant ID. Thanks to this data anonymity process, any researcher analysing the data won't be able to track the information back to a specific participant. Therefore, this process will make identifying you impossibile, even when results from the study will be published in scientific reviews, presented at congresses, or at any other public forum. More generally, the collected data will be treated in accordance with the laws on privacy and conformity to the Legislative Degree n. 196 ""Code regarding the protection of personal data"" of the 30th of June 2003 and to the European Regulation 2016/670 (General Data Protection Regulation - GDPR). The Data Protection Officer is Avv. Valentina Carollo, who can be contacted at the following email addresses: <a href=""mailto:dpo@sissa.it"">dpo@sissa.it</a> or <a href=""mailto:rpd@sissa.it"">rpd@sissa.it</a> - PEC: <a href=""mailto:protocollo@pec.sissa.it"">protocollo@pec.sissa.it</a>.</p>
      <p style=""font-size: 15px;""> Before expressing your consent to participate, we would like to remind you again that in case you need explanations on any aspect of the experimental procedure, the researcher is at your disposition (<a href=""mailto:aliebelt@sissa.it"">aliebelt@sissa.it</a>, <a href=""mailto:davide.crepaldi@sissa.it"">davide.crepaldi@sissa.it</a>).</p>
      <p style=""font-size: 15px;"">If you would like to download the informed consent form, you can do so here: <a href=""BASL-Informed_Consent.pdf"" download>informed consent form</a>.</p>
      <p style=""font-size: 15px;"">We ask that you press the spacebar to proceed to the consent section.</p>","","","","","","","","",""
"survey-html-form","3","49829","0.0-3.0","5bcd11401662020001fe82c1","650c16f0f2faf8d7a0d14c09","651c1ae1ac30c695c2238d43","10549","{""consent1"":""YES"",""consent2"":""YES"",""consent3"":""YES"",""consent4"":""YES"",""consent5"":""YES"",""consent6"":""YES""}","","","","","","","","","",""
"fullscreen","4","54983","0.0-4.0","5bcd11401662020001fe82c1","650c16f0f2faf8d7a0d14c09","651c1ae1ac30c695c2238d43","","","","true","","","","","","","",""
"html-keyboard-response","5","58702","0.0-5.0","5bcd11401662020001fe82c1","650c16f0f2faf8d7a0d14c09","651c1ae1ac30c695c2238d43","3718"," ","<p>Welcome, and thank you very much for your time!</p>
      <p>In this experiment, you'll be a language expert who's been asked to take a look at words that Earth has received in its first communication with aliens. Your task, in this first part of the experiment, is to pay close attention to the words you'll be shown; later, world leaders will ask you questions on what you saw. The words will be shown to you quite quickly; it seems that the aliens were in a hurry :-)</p>
      <p>Press the spacebar to continue.<p>","","","","","","","","",""
"html-keyboard-response","6","58753","0.0-6.0","5bcd11401662020001fe82c1","650c16f0f2faf8d7a0d14c09","651c1ae1ac30c695c2238d43","null","null","<p style=""font-size: 120px; font-family: BACS""> </p>","","","","","","","","",""
"html-keyboard-response","7","61407","0.0-7.0","5bcd11401662020001fe82c1","650c16f0f2faf8d7a0d14c09","651c1ae1ac30c695c2238d43","2654"," ","<p>Here is an example of the words you'll see:</p>
      <img src='esempio.png' height='400px'>
      <p>When you're ready to begin, press the spacebar.</p></div>","","","","","","","","",""
"html-keyboard-response","8","62422","0.0-8.0-0.0","5bcd11401662020001fe82c1","650c16f0f2faf8d7a0d14c09","651c1ae1ac30c695c2238d43","null","null","<p style=""font-size: 60px; font-family: BACS"">dRbDbAPEM</p>","","","","","","","","",""
"html-keyboard-response","9","63429","0.0-8.0-0.1","5bcd11401662020001fe82c1","650c16f0f2faf8d7a0d14c09","651c1ae1ac30c695c2238d43","null","null","<p style=""font-size: 60px; font-family: BACS"">TklDmtKP</p>","","","","","","","","",""
"html-keyboard-response","10","64436","0.0-8.0-0.2","5bcd11401662020001fe82c1","650c16f0f2faf8d7a0d14c09","651c1ae1ac30c695c2238d43","null","null","<p style=""font-size: 60px; font-family: BACS"">NAacQkGua</p>","","","","","","","","",""
"html-keyboard-response","11","65444","0.0-8.0-0.3","5bcd11401662020001fe82c1","650c16f0f2faf8d7a0d14c09","651c1ae1ac30c695c2238d43","null","null","<p style=""font-size: 60px; font-family: BACS"">uvaUrkra</p>","","","","","","","","",""
"html-keyboard-response","12","66449","0.0-8.0-0.4","5bcd11401662020001fe82c1","650c16f0f2faf8d7a0d14c09","651c1ae1ac30c695c2238d43","null","null","<p style=""font-size: 60px; font-family: BACS"">mhtcOBT</p>","","","","","","","","",""
"html-keyboard-response","13","67455","0.0-8.0-0.5","5bcd11401662020001fe82c1","650c16f0f2faf8d7a0d14c09","651c1ae1ac30c695c2238d43","null","null","<p style=""font-size: 60px; font-family: BACS"">kKRCPMd</p>","","","","","","","","",""
"html-keyboard-response","14","68464","0.0-8.0-0.6","5bcd11401662020001fe82c1","650c16f0f2faf8d7a0d14c09","651c1ae1ac30c695c2238d43","null","null","<p style=""font-size: 60px; font-family: BACS"">rLaZYbN</p>","","","","","","","","",""
"html-keyboard-response","15","69472","0.0-8.0-0.7","5bcd11401662020001fe82c1","650c16f0f2faf8d7a0d14c09","651c1ae1ac30c695c2238d43","null","null","<p style=""font-size: 60px; font-family: BACS"">OmtlDOBT</p>","","","","","","","","",""
"html-keyboard-response","16","70478","0.0-8.0-0.8","5bcd11401662020001fe82c1","650c16f0f2faf8d7a0d14c09","651c1ae1ac30c695c2238d43","null","null","<p style=""font-size: 60px; font-family: BACS"">GLYrAYbN</p>","","","","","","","","",""
"html-keyboard-response","17","71486","0.0-8.0-0.9","5bcd11401662020001fe82c1","650c16f0f2faf8d7a0d14c09","651c1ae1ac30c695c2238d43","null","null","<p style=""font-size: 60px; font-family: BACS"">UvOGJcL</p>","","","","","","","","",""
"html-keyboard-response","18","72492","0.0-8.0-0.10","5bcd11401662020001fe82c1","650c16f0f2faf8d7a0d14c09","651c1ae1ac30c695c2238d43","null","null","<p style=""font-size: 60px; font-family: BACS"">TklDPMd</p>","","","","","","","","",""
"html-keyboard-response","19","73501","0.0-8.0-0.11","5bcd11401662020001fe82c1","650c16f0f2faf8d7a0d14c09","651c1ae1ac30c695c2238d43","null","null","<p style=""font-size: 60px; font-family: BACS"">kKRCAPEM</p>","","","","","","","","",""
"html-keyboard-response","20","74509","0.0-8.0-0.12","5bcd11401662020001fe82c1","650c16f0f2faf8d7a0d14c09","651c1ae1ac30c695c2238d43","null","null","<p style=""font-size: 60px; font-family: BACS"">GNAcaJcL</p>","","","","","","","","",""
"html-keyboard-response","21","75517","0.0-8.0-0.13","5bcd11401662020001fe82c1","650c16f0f2faf8d7a0d14c09","651c1ae1ac30c695c2238d43","null","null","<p style=""font-size: 60px; font-family: BACS"">dClOCAPEM</p>","","","","","","","","",""
"html-keyboard-response","22","76519","0.0-8.0-0.14","5bcd11401662020001fe82c1","650c16f0f2faf8d7a0d14c09","651c1ae1ac30c695c2238d43","null","null","<p style=""font-size: 60px; font-family: BACS"">BlmclmtKP</p>","","","","","","","","",""
"html-keyboard-response","23","77526","0.0-8.0-0.15","5bcd11401662020001fe82c1","650c16f0f2faf8d7a0d14c09","651c1ae1ac30c695c2238d43","null","null","<p style=""font-size: 60px; font-family: BACS"">GNAcakbu</p>","","","","","","","","",""
"html-keyboard-response","24","78532","0.0-8.0-0.16","5bcd11401662020001fe82c1","650c16f0f2faf8d7a0d14c09","651c1ae1ac30c695c2238d43","null","null","<p style=""font-size: 60px; font-family: BACS"">dmZvmkGua</p>","","","","","","","","",""
"html-keyboard-response","25","79540","0.0-8.0-0.17","5bcd11401662020001fe82c1","650c16f0f2faf8d7a0d14c09","651c1ae1ac30c695c2238d43","null","null","<p style=""font-size: 60px; font-family: BACS"">mhtcAPEM</p>","","","","","","","","",""
"html-keyboard-response","26","80546","0.0-8.0-0.18","5bcd11401662020001fe82c1","650c16f0f2faf8d7a0d14c09","651c1ae1ac30c695c2238d43","null","null","<p style=""font-size: 60px; font-family: BACS"">UvOGYbN</p>","","","","","","","","",""
"html-keyboard-response","27","81554","0.0-8.0-0.19","5bcd11401662020001fe82c1","650c16f0f2faf8d7a0d14c09","651c1ae1ac30c695c2238d43","null","null","<p style=""font-size: 60px; font-family: BACS"">DBklBYhT</p>","","","","","","","","",""
"html-keyboard-response","28","82563","0.0-8.0-0.20","5bcd11401662020001fe82c1","650c16f0f2faf8d7a0d14c09","651c1ae1ac30c695c2238d43","null","null","<p style=""font-size: 60px; font-family: BACS"">ZNLOvrkra</p>","","","","","","","","",""
"html-keyboard-response","29","83571","0.0-8.0-0.21","5bcd11401662020001fe82c1","650c16f0f2faf8d7a0d14c09","651c1ae1ac30c695c2238d43","null","null","<p style=""font-size: 60px; font-family: BACS"">BlmclOBT</p>","","","","","","","","",""
"html-keyboard-response","30","84573","0.0-8.0-0.22","5bcd11401662020001fe82c1","650c16f0f2faf8d7a0d14c09","651c1ae1ac30c695c2238d43","null","null","<p style=""font-size: 60px; font-family: BACS"">AlNUYbN</p>","","","","","","","","",""
"html-keyboard-response","31","85581","0.0-8.0-0.23","5bcd11401662020001fe82c1","650c16f0f2faf8d7a0d14c09","651c1ae1ac30c695c2238d43","null","null","<p style=""font-size: 60px; font-family: BACS"">OmtlDPMd</p>","","","","","","","","",""
"html-keyboard-response","32","86590","0.0-8.0-0.24","5bcd11401662020001fe82c1","650c16f0f2faf8d7a0d14c09","651c1ae1ac30c695c2238d43","null","null","<p style=""font-size: 60px; font-family: BACS"">UYZlZYbN</p>","","","","","","","","",""
"html-keyboard-response","33","87598","0.0-8.0-0.25","5bcd11401662020001fe82c1","650c16f0f2faf8d7a0d14c09","651c1ae1ac30c695c2238d43","null","null","<p style=""font-size: 60px; font-family: BACS"">dRbDbOBT</p>","","","","","","","","",""
"html-keyboard-response","34","88606","0.0-8.0-0.26","5bcd11401662020001fe82c1","650c16f0f2faf8d7a0d14c09","651c1ae1ac30c695c2238d43","null","null","<p style=""font-size: 60px; font-family: BACS"">OmtlDAPEM</p>","","","","","","","","",""
"html-keyboard-response","35","89612","0.0-8.0-0.27","5bcd11401662020001fe82c1","650c16f0f2faf8d7a0d14c09","651c1ae1ac30c695c2238d43","null","null","<p style=""font-size: 60px; font-family: BACS"">DBklPMd</p>","","","","","","","","",""
"html-keyboard-response","36","90620","0.0-8.0-0.28","5bcd11401662020001fe82c1","650c16f0f2faf8d7a0d14c09","651c1ae1ac30c695c2238d43","null","null","<p style=""font-size: 60px; font-family: BACS"">KdAROBT</p>","","","","","","","","",""
"html-keyboard-response","37","91625","0.0-8.0-0.29","5bcd11401662020001fe82c1","650c16f0f2faf8d7a0d14c09","651c1ae1ac30c695c2238d43","null","null","<p style=""font-size: 60px; font-family: BACS"">GLYrAJcL</p>","","","","","","","","",""
"html-keyboard-response","38","92633","0.0-8.0-0.30","5bcd11401662020001fe82c1","650c16f0f2faf8d7a0d14c09","651c1ae1ac30c695c2238d43","null","null","<p style=""font-size: 60px; font-family: BACS"">dClOCmtKP</p>","","","","","","","","",""
"html-keyboard-response","39","93641","0.0-8.0-0.31","5bcd11401662020001fe82c1","650c16f0f2faf8d7a0d14c09","651c1ae1ac30c695c2238d43","null","null","<p style=""font-size: 60px; font-family: BACS"">UYZlZkGua</p>","","","","","","","","",""
"html-keyboard-response","40","94647","0.0-8.0-0.32","5bcd11401662020001fe82c1","650c16f0f2faf8d7a0d14c09","651c1ae1ac30c695c2238d43","null","null","<p style=""font-size: 60px; font-family: BACS"">dClOCOBT</p>","","","","","","","","",""
"html-keyboard-response","41","95656","0.0-8.0-0.33","5bcd11401662020001fe82c1","650c16f0f2faf8d7a0d14c09","651c1ae1ac30c695c2238d43","null","null","<p style=""font-size: 60px; font-family: BACS"">AlNUkGua</p>","","","","","","","","",""
"html-keyboard-response","42","96662","0.0-8.0-0.34","5bcd11401662020001fe82c1","650c16f0f2faf8d7a0d14c09","651c1ae1ac30c695c2238d43","null","null","<p style=""font-size: 60px; font-family: BACS"">OmtlDBYhT</p>","","","","","","","","",""
"html-keyboard-response","43","97668","0.0-8.0-0.35","5bcd11401662020001fe82c1","650c16f0f2faf8d7a0d14c09","651c1ae1ac30c695c2238d43","null","null","<p style=""font-size: 60px; font-family: BACS"">UvOGkbu</p>","","","","","","","","",""
"html-keyboard-response","44","98674","0.0-8.0-0.36","5bcd11401662020001fe82c1","650c16f0f2faf8d7a0d14c09","651c1ae1ac30c695c2238d43","null","null","<p style=""font-size: 60px; font-family: BACS"">DBklAPEM</p>","","","","","","","","",""
"html-keyboard-response","45","99683","0.0-8.0-0.37","5bcd11401662020001fe82c1","650c16f0f2faf8d7a0d14c09","651c1ae1ac30c695c2238d43","null","null","<p style=""font-size: 60px; font-family: BACS"">AlNUrkra</p>","","","","","","","","",""
"html-keyboard-response","46","100691","0.0-8.0-0.38","5bcd11401662020001fe82c1","650c16f0f2faf8d7a0d14c09","651c1ae1ac30c695c2238d43","null","null","<p style=""font-size: 60px; font-family: BACS"">GNAcaYbN</p>","","","","","","","","",""
"html-keyboard-response","47","101697","0.0-8.0-0.39","5bcd11401662020001fe82c1","650c16f0f2faf8d7a0d14c09","651c1ae1ac30c695c2238d43","null","null","<p style=""font-size: 60px; font-family: BACS"">KdARBYhT</p>","","","","","","","","",""
"html-keyboard-response","48","102699","0.0-8.0-0.40","5bcd11401662020001fe82c1","650c16f0f2faf8d7a0d14c09","651c1ae1ac30c695c2238d43","null","null","<p style=""font-size: 60px; font-family: BACS"">GLYrAkGua</p>","","","","","","","","",""
"html-keyboard-response","49","103705","0.0-8.0-0.41","5bcd11401662020001fe82c1","650c16f0f2faf8d7a0d14c09","651c1ae1ac30c695c2238d43","null","null","<p style=""font-size: 60px; font-family: BACS"">ZNLOvJcL</p>","","","","","","","","",""
"html-keyboard-response","50","104714","0.0-8.0-0.42","5bcd11401662020001fe82c1","650c16f0f2faf8d7a0d14c09","651c1ae1ac30c695c2238d43","null","null","<p style=""font-size: 60px; font-family: BACS"">NAacQYbN</p>","","","","","","","","",""
"html-keyboard-response","51","105722","0.0-8.0-0.43","5bcd11401662020001fe82c1","650c16f0f2faf8d7a0d14c09","651c1ae1ac30c695c2238d43","null","null","<p style=""font-size: 60px; font-family: BACS"">UYZlZJcL</p>","","","","","","","","",""
"html-keyboard-response","52","106730","0.0-8.0-0.44","5bcd11401662020001fe82c1","650c16f0f2faf8d7a0d14c09","651c1ae1ac30c695c2238d43","null","null","<p style=""font-size: 60px; font-family: BACS"">rLaZkbu</p>","","","","","","","","",""
"html-keyboard-response","53","107736","0.0-8.0-0.45","5bcd11401662020001fe82c1","650c16f0f2faf8d7a0d14c09","651c1ae1ac30c695c2238d43","null","null","<p style=""font-size: 60px; font-family: BACS"">KdARPMd</p>","","","","","","","","",""
"html-keyboard-response","54","108745","0.0-8.0-0.46","5bcd11401662020001fe82c1","650c16f0f2faf8d7a0d14c09","651c1ae1ac30c695c2238d43","null","null","<p style=""font-size: 60px; font-family: BACS"">uvaUJcL</p>","","","","","","","","",""
"html-keyboard-response","55","109751","0.0-8.0-0.47","5bcd11401662020001fe82c1","650c16f0f2faf8d7a0d14c09","651c1ae1ac30c695c2238d43","null","null","<p style=""font-size: 60px; font-family: BACS"">AlNUkbu</p>","","","","","","","","",""
"html-keyboard-response","56","110757","0.0-8.0-0.48","5bcd11401662020001fe82c1","650c16f0f2faf8d7a0d14c09","651c1ae1ac30c695c2238d43","null","null","<p style=""font-size: 60px; font-family: BACS"">TklDOBT</p>","","","","","","","","",""
"html-keyboard-response","57","111765","0.0-8.0-0.49","5bcd11401662020001fe82c1","650c16f0f2faf8d7a0d14c09","651c1ae1ac30c695c2238d43","null","null","<p style=""font-size: 60px; font-family: BACS"">BlmclPMd</p>","","","","","","","","",""
"html-keyboard-response","58","112773","0.0-8.0-0.50","5bcd11401662020001fe82c1","650c16f0f2faf8d7a0d14c09","651c1ae1ac30c695c2238d43","null","null","<p style=""font-size: 60px; font-family: BACS"">PhktkAPEM</p>","","","","","","","","",""
"html-keyboard-response","59","113782","0.0-8.0-0.51","5bcd11401662020001fe82c1","650c16f0f2faf8d7a0d14c09","651c1ae1ac30c695c2238d43","null","null","<p style=""font-size: 60px; font-family: BACS"">KdARmtKP</p>","","","","","","","","",""
"html-keyboard-response","60","114790","0.0-8.0-0.52","5bcd11401662020001fe82c1","650c16f0f2faf8d7a0d14c09","651c1ae1ac30c695c2238d43","null","null","<p style=""font-size: 60px; font-family: BACS"">kKRCOBT</p>","","","","","","","","",""
"html-keyboard-response","61","115796","0.0-8.0-0.53","5bcd11401662020001fe82c1","650c16f0f2faf8d7a0d14c09","651c1ae1ac30c695c2238d43","null","null","<p style=""font-size: 60px; font-family: BACS"">NAacQkbu</p>","","","","","","","","",""
"html-keyboard-response","62","116802","0.0-8.0-0.54","5bcd11401662020001fe82c1","650c16f0f2faf8d7a0d14c09","651c1ae1ac30c695c2238d43","null","null","<p style=""font-size: 60px; font-family: BACS"">ZNLOvkGua</p>","","","","","","","","",""
"html-keyboard-response","63","117811","0.0-8.0-0.55","5bcd11401662020001fe82c1","650c16f0f2faf8d7a0d14c09","651c1ae1ac30c695c2238d43","null","null","<p style=""font-size: 60px; font-family: BACS"">rLaZJcL</p>","","","","","","","","",""
"html-keyboard-response","64","118819","0.0-8.0-0.56","5bcd11401662020001fe82c1","650c16f0f2faf8d7a0d14c09","651c1ae1ac30c695c2238d43","null","null","<p style=""font-size: 60px; font-family: BACS"">uvaUkGua</p>","","","","","","","","",""
"html-keyboard-response","65","119825","0.0-8.0-0.57","5bcd11401662020001fe82c1","650c16f0f2faf8d7a0d14c09","651c1ae1ac30c695c2238d43","null","null","<p style=""font-size: 60px; font-family: BACS"">GLYrArkra</p>","","","","","","","","",""
"html-keyboard-response","66","120833","0.0-8.0-0.58","5bcd11401662020001fe82c1","650c16f0f2faf8d7a0d14c09","651c1ae1ac30c695c2238d43","null","null","<p style=""font-size: 60px; font-family: BACS"">dClOCBYhT</p>","","","","","","","","",""
"html-keyboard-response","67","121839","0.0-8.0-0.59","5bcd11401662020001fe82c1","650c16f0f2faf8d7a0d14c09","651c1ae1ac30c695c2238d43","null","null","<p style=""font-size: 60px; font-family: BACS"">UYZlZrkra</p>","","","","","","","","",""
"html-keyboard-response","68","122846","0.0-8.0-0.60","5bcd11401662020001fe82c1","650c16f0f2faf8d7a0d14c09","651c1ae1ac30c695c2238d43","null","null","<p style=""font-size: 60px; font-family: BACS"">PhktkBYhT</p>","","","","","","","","",""
"html-keyboard-response","69","123854","0.0-8.0-0.61","5bcd11401662020001fe82c1","650c16f0f2faf8d7a0d14c09","651c1ae1ac30c695c2238d43","null","null","<p style=""font-size: 60px; font-family: BACS"">ZNLOvkbu</p>","","","","","","","","",""
"html-keyboard-response","70","124862","0.0-8.0-0.62","5bcd11401662020001fe82c1","650c16f0f2faf8d7a0d14c09","651c1ae1ac30c695c2238d43","null","null","<p style=""font-size: 60px; font-family: BACS"">mhtcBYhT</p>","","","","","","","","",""
"html-keyboard-response","71","125870","0.0-8.0-0.63","5bcd11401662020001fe82c1","650c16f0f2faf8d7a0d14c09","651c1ae1ac30c695c2238d43","null","null","<p style=""font-size: 60px; font-family: BACS"">DBklmtKP</p>","","","","","","","","",""
"html-keyboard-response","72","126879","0.0-8.0-0.64","5bcd11401662020001fe82c1","650c16f0f2faf8d7a0d14c09","651c1ae1ac30c695c2238d43","null","null","<p style=""font-size: 60px; font-family: BACS"">dmZvmrkra</p>","","","","","","","","",""
"html-keyboard-response","73","127886","0.0-8.0-0.65","5bcd11401662020001fe82c1","650c16f0f2faf8d7a0d14c09","651c1ae1ac30c695c2238d43","null","null","<p style=""font-size: 60px; font-family: BACS"">TklDBYhT</p>","","","","","","","","",""
"html-keyboard-response","74","128891","0.0-8.0-0.66","5bcd11401662020001fe82c1","650c16f0f2faf8d7a0d14c09","651c1ae1ac30c695c2238d43","null","null","<p style=""font-size: 60px; font-family: BACS"">NAacQJcL</p>","","","","","","","","",""
"html-keyboard-response","75","129897","0.0-8.0-0.67","5bcd11401662020001fe82c1","650c16f0f2faf8d7a0d14c09","651c1ae1ac30c695c2238d43","null","null","<p style=""font-size: 60px; font-family: BACS"">rLaZkGua</p>","","","","","","","","",""
"html-keyboard-response","76","130903","0.0-8.0-0.68","5bcd11401662020001fe82c1","650c16f0f2faf8d7a0d14c09","651c1ae1ac30c695c2238d43","null","null","<p style=""font-size: 60px; font-family: BACS"">dmZvmYbN</p>","","","","","","","","",""
"html-keyboard-response","77","131911","0.0-8.0-0.69","5bcd11401662020001fe82c1","650c16f0f2faf8d7a0d14c09","651c1ae1ac30c695c2238d43","null","null","<p style=""font-size: 60px; font-family: BACS"">uvaUkbu</p>","","","","","","","","",""
"html-keyboard-response","78","132920","0.0-8.0-0.70","5bcd11401662020001fe82c1","650c16f0f2faf8d7a0d14c09","651c1ae1ac30c695c2238d43","null","null","<p style=""font-size: 60px; font-family: BACS"">dRbDbmtKP</p>","","","","","","","","",""
"html-keyboard-response","79","133926","0.0-8.0-0.71","5bcd11401662020001fe82c1","650c16f0f2faf8d7a0d14c09","651c1ae1ac30c695c2238d43","null","null","<p style=""font-size: 60px; font-family: BACS"">dmZvmkbu</p>","","","","","","","","",""
"html-keyboard-response","80","134934","0.0-8.0-0.72","5bcd11401662020001fe82c1","650c16f0f2faf8d7a0d14c09","651c1ae1ac30c695c2238d43","null","null","<p style=""font-size: 60px; font-family: BACS"">kKRCmtKP</p>","","","","","","","","",""
"html-keyboard-response","81","135939","0.0-8.0-0.73","5bcd11401662020001fe82c1","650c16f0f2faf8d7a0d14c09","651c1ae1ac30c695c2238d43","null","null","<p style=""font-size: 60px; font-family: BACS"">PhktkPMd</p>","","","","","","","","",""
"html-keyboard-response","82","136947","0.0-8.0-0.74","5bcd11401662020001fe82c1","650c16f0f2faf8d7a0d14c09","651c1ae1ac30c695c2238d43","null","null","<p style=""font-size: 60px; font-family: BACS"">UvOGrkra</p>","","","","","","","","",""
"html-keyboard-response","83","137949","0.0-8.0-0.75","5bcd11401662020001fe82c1","650c16f0f2faf8d7a0d14c09","651c1ae1ac30c695c2238d43","null","null","<p style=""font-size: 60px; font-family: BACS"">PhktkmtKP</p>","","","","","","","","",""
"html-keyboard-response","84","138953","0.0-8.0-0.76","5bcd11401662020001fe82c1","650c16f0f2faf8d7a0d14c09","651c1ae1ac30c695c2238d43","null","null","<p style=""font-size: 60px; font-family: BACS"">BlmclAPEM</p>","","","","","","","","",""
"html-keyboard-response","85","139961","0.0-8.0-0.77","5bcd11401662020001fe82c1","650c16f0f2faf8d7a0d14c09","651c1ae1ac30c695c2238d43","null","null","<p style=""font-size: 60px; font-family: BACS"">mhtcPMd</p>","","","","","","","","",""
"html-keyboard-response","86","140969","0.0-8.0-0.78","5bcd11401662020001fe82c1","650c16f0f2faf8d7a0d14c09","651c1ae1ac30c695c2238d43","null","null","<p style=""font-size: 60px; font-family: BACS"">GNAcarkra</p>","","","","","","","","",""
"html-keyboard-response","87","141978","0.0-8.0-0.79","5bcd11401662020001fe82c1","650c16f0f2faf8d7a0d14c09","651c1ae1ac30c695c2238d43","null","null","<p style=""font-size: 60px; font-family: BACS"">dRbDbBYhT</p>","","","","","","","","",""
"html-keyboard-response","88","476639","0.0-9.0","5bcd11401662020001fe82c1","650c16f0f2faf8d7a0d14c09","651c1ae1ac30c695c2238d43","334661"," ","<p>Great, you've seen the first block of words. You may now take a short break.</p>
      <p>Press the spacebar when you're ready to continue.</p>","","","","","","","","",""
"html-keyboard-response","89","477654","0.0-10.0-0.0","5bcd11401662020001fe82c1","650c16f0f2faf8d7a0d14c09","651c1ae1ac30c695c2238d43","null","null","<p style=""font-size: 60px; font-family: BACS"">GNAcaYbN</p>","","","","","","","","",""
"html-keyboard-response","90","478658","0.0-10.0-0.1","5bcd11401662020001fe82c1","650c16f0f2faf8d7a0d14c09","651c1ae1ac30c695c2238d43","null","null","<p style=""font-size: 60px; font-family: BACS"">BlmclmtKP</p>","","","","","","","","",""
"html-keyboard-response","91","479664","0.0-10.0-0.2","5bcd11401662020001fe82c1","650c16f0f2faf8d7a0d14c09","651c1ae1ac30c695c2238d43","null","null","<p style=""font-size: 60px; font-family: BACS"">GLYrAJcL</p>","","","","","","","","",""
"html-keyboard-response","92","480673","0.0-10.0-0.3","5bcd11401662020001fe82c1","650c16f0f2faf8d7a0d14c09","651c1ae1ac30c695c2238d43","null","null","<p style=""font-size: 60px; font-family: BACS"">dClOCAPEM</p>","","","","","","","","",""
"html-keyboard-response","93","481681","0.0-10.0-0.4","5bcd11401662020001fe82c1","650c16f0f2faf8d7a0d14c09","651c1ae1ac30c695c2238d43","null","null","<p style=""font-size: 60px; font-family: BACS"">kKRCmtKP</p>","","","","","","","","",""
"html-keyboard-response","94","482689","0.0-10.0-0.5","5bcd11401662020001fe82c1","650c16f0f2faf8d7a0d14c09","651c1ae1ac30c695c2238d43","null","null","<p style=""font-size: 60px; font-family: BACS"">dClOCBYhT</p>","","","","","","","","",""
"html-keyboard-response","95","483693","0.0-10.0-0.6","5bcd11401662020001fe82c1","650c16f0f2faf8d7a0d14c09","651c1ae1ac30c695c2238d43","null","null","<p style=""font-size: 60px; font-family: BACS"">DBklmtKP</p>","","","","","","","","",""
"html-keyboard-response","96","484701","0.0-10.0-0.7","5bcd11401662020001fe82c1","650c16f0f2faf8d7a0d14c09","651c1ae1ac30c695c2238d43","null","null","<p style=""font-size: 60px; font-family: BACS"">uvaUkbu</p>","","","","","","","","",""
"html-keyboard-response","97","485710","0.0-10.0-0.8","5bcd11401662020001fe82c1","650c16f0f2faf8d7a0d14c09","651c1ae1ac30c695c2238d43","null","null","<p style=""font-size: 60px; font-family: BACS"">kKRCAPEM</p>","","","","","","","","",""
"html-keyboard-response","98","486716","0.0-10.0-0.9","5bcd11401662020001fe82c1","650c16f0f2faf8d7a0d14c09","651c1ae1ac30c695c2238d43","null","null","<p style=""font-size: 60px; font-family: BACS"">ZNLOvkbu</p>","","","","","","","","",""
"html-keyboard-response","99","487722","0.0-10.0-0.10","5bcd11401662020001fe82c1","650c16f0f2faf8d7a0d14c09","651c1ae1ac30c695c2238d43","null","null","<p style=""font-size: 60px; font-family: BACS"">KdAROBT</p>","","","","","","","","",""
"html-keyboard-response","100","488730","0.0-10.0-0.11","5bcd11401662020001fe82c1","650c16f0f2faf8d7a0d14c09","651c1ae1ac30c695c2238d43","null","null","<p style=""font-size: 60px; font-family: BACS"">PhktkAPEM</p>","","","","","","","","",""
"html-keyboard-response","101","489739","0.0-10.0-0.12","5bcd11401662020001fe82c1","650c16f0f2faf8d7a0d14c09","651c1ae1ac30c695c2238d43","null","null","<p style=""font-size: 60px; font-family: BACS"">uvaUkGua</p>","","","","","","","","",""
"html-keyboard-response","102","490745","0.0-10.0-0.13","5bcd11401662020001fe82c1","650c16f0f2faf8d7a0d14c09","651c1ae1ac30c695c2238d43","null","null","<p style=""font-size: 60px; font-family: BACS"">KdARmtKP</p>","","","","","","","","",""
"html-keyboard-response","103","491753","0.0-10.0-0.14","5bcd11401662020001fe82c1","650c16f0f2faf8d7a0d14c09","651c1ae1ac30c695c2238d43","null","null","<p style=""font-size: 60px; font-family: BACS"">dmZvmrkra</p>","","","","","","","","",""
"html-keyboard-response","104","492757","0.0-10.0-0.15","5bcd11401662020001fe82c1","650c16f0f2faf8d7a0d14c09","651c1ae1ac30c695c2238d43","null","null","<p style=""font-size: 60px; font-family: BACS"">TklDmtKP</p>","","","","","","","","",""
"html-keyboard-response","105","493766","0.0-10.0-0.16","5bcd11401662020001fe82c1","650c16f0f2faf8d7a0d14c09","651c1ae1ac30c695c2238d43","null","null","<p style=""font-size: 60px; font-family: BACS"">UYZlZkGua</p>","","","","","","","","",""
"html-keyboard-response","106","494774","0.0-10.0-0.17","5bcd11401662020001fe82c1","650c16f0f2faf8d7a0d14c09","651c1ae1ac30c695c2238d43","null","null","<p style=""font-size: 60px; font-family: BACS"">dRbDbBYhT</p>","","","","","","","","",""
"html-keyboard-response","107","495782","0.0-10.0-0.18","5bcd11401662020001fe82c1","650c16f0f2faf8d7a0d14c09","651c1ae1ac30c695c2238d43","null","null","<p style=""font-size: 60px; font-family: BACS"">NAacQkbu</p>","","","","","","","","",""
"html-keyboard-response","108","496789","0.0-10.0-0.19","5bcd11401662020001fe82c1","650c16f0f2faf8d7a0d14c09","651c1ae1ac30c695c2238d43","null","null","<p style=""font-size: 60px; font-family: BACS"">uvaUJcL</p>","","","","","","","","",""
"html-keyboard-response","109","497796","0.0-10.0-0.20","5bcd11401662020001fe82c1","650c16f0f2faf8d7a0d14c09","651c1ae1ac30c695c2238d43","null","null","<p style=""font-size: 60px; font-family: BACS"">dClOCmtKP</p>","","","","","","","","",""
"html-keyboard-response","110","498803","0.0-10.0-0.21","5bcd11401662020001fe82c1","650c16f0f2faf8d7a0d14c09","651c1ae1ac30c695c2238d43","null","null","<p style=""font-size: 60px; font-family: BACS"">ZNLOvJcL</p>","","","","","","","","",""
"html-keyboard-response","111","499809","0.0-10.0-0.22","5bcd11401662020001fe82c1","650c16f0f2faf8d7a0d14c09","651c1ae1ac30c695c2238d43","null","null","<p style=""font-size: 60px; font-family: BACS"">dmZvmkGua</p>","","","","","","","","",""
"html-keyboard-response","112","500817","0.0-10.0-0.23","5bcd11401662020001fe82c1","650c16f0f2faf8d7a0d14c09","651c1ae1ac30c695c2238d43","null","null","<p style=""font-size: 60px; font-family: BACS"">mhtcOBT</p>","","","","","","","","",""
"html-keyboard-response","113","501819","0.0-10.0-0.24","5bcd11401662020001fe82c1","650c16f0f2faf8d7a0d14c09","651c1ae1ac30c695c2238d43","null","null","<p style=""font-size: 60px; font-family: BACS"">TklDBYhT</p>","","","","","","","","",""
"html-keyboard-response","114","502827","0.0-10.0-0.25","5bcd11401662020001fe82c1","650c16f0f2faf8d7a0d14c09","651c1ae1ac30c695c2238d43","null","null","<p style=""font-size: 60px; font-family: BACS"">dmZvmYbN</p>","","","","","","","","",""
"html-keyboard-response","115","503834","0.0-10.0-0.26","5bcd11401662020001fe82c1","650c16f0f2faf8d7a0d14c09","651c1ae1ac30c695c2238d43","null","null","<p style=""font-size: 60px; font-family: BACS"">UYZlZrkra</p>","","","","","","","","",""
"html-keyboard-response","116","504842","0.0-10.0-0.27","5bcd11401662020001fe82c1","650c16f0f2faf8d7a0d14c09","651c1ae1ac30c695c2238d43","null","null","<p style=""font-size: 60px; font-family: BACS"">AlNUkGua</p>","","","","","","","","",""
"html-keyboard-response","117","505850","0.0-10.0-0.28","5bcd11401662020001fe82c1","650c16f0f2faf8d7a0d14c09","651c1ae1ac30c695c2238d43","null","null","<p style=""font-size: 60px; font-family: BACS"">PhktkmtKP</p>","","","","","","","","",""
"html-keyboard-response","118","506856","0.0-10.0-0.29","5bcd11401662020001fe82c1","650c16f0f2faf8d7a0d14c09","651c1ae1ac30c695c2238d43","null","null","<p style=""font-size: 60px; font-family: BACS"">BlmclAPEM</p>","","","","","","","","",""
"html-keyboard-response","119","507865","0.0-10.0-0.30","5bcd11401662020001fe82c1","650c16f0f2faf8d7a0d14c09","651c1ae1ac30c695c2238d43","null","null","<p style=""font-size: 60px; font-family: BACS"">uvaUrkra</p>","","","","","","","","",""
"html-keyboard-response","120","508873","0.0-10.0-0.31","5bcd11401662020001fe82c1","650c16f0f2faf8d7a0d14c09","651c1ae1ac30c695c2238d43","null","null","<p style=""font-size: 60px; font-family: BACS"">UYZlZJcL</p>","","","","","","","","",""
"html-keyboard-response","121","509877","0.0-10.0-0.32","5bcd11401662020001fe82c1","650c16f0f2faf8d7a0d14c09","651c1ae1ac30c695c2238d43","null","null","<p style=""font-size: 60px; font-family: BACS"">KdARBYhT</p>","","","","","","","","",""
"html-keyboard-response","122","510883","0.0-10.0-0.33","5bcd11401662020001fe82c1","650c16f0f2faf8d7a0d14c09","651c1ae1ac30c695c2238d43","null","null","<p style=""font-size: 60px; font-family: BACS"">BlmclPMd</p>","","","","","","","","",""
"html-keyboard-response","123","511891","0.0-10.0-0.34","5bcd11401662020001fe82c1","650c16f0f2faf8d7a0d14c09","651c1ae1ac30c695c2238d43","null","null","<p style=""font-size: 60px; font-family: BACS"">PhktkBYhT</p>","","","","","","","","",""
"html-keyboard-response","124","512900","0.0-10.0-0.35","5bcd11401662020001fe82c1","650c16f0f2faf8d7a0d14c09","651c1ae1ac30c695c2238d43","null","null","<p style=""font-size: 60px; font-family: BACS"">mhtcPMd</p>","","","","","","","","",""
"html-keyboard-response","125","513906","0.0-10.0-0.36","5bcd11401662020001fe82c1","650c16f0f2faf8d7a0d14c09","651c1ae1ac30c695c2238d43","null","null","<p style=""font-size: 60px; font-family: BACS"">AlNUrkra</p>","","","","","","","","",""
"html-keyboard-response","126","514912","0.0-10.0-0.37","5bcd11401662020001fe82c1","650c16f0f2faf8d7a0d14c09","651c1ae1ac30c695c2238d43","null","null","<p style=""font-size: 60px; font-family: BACS"">dRbDbOBT</p>","","","","","","","","",""
"html-keyboard-response","127","515920","0.0-10.0-0.38","5bcd11401662020001fe82c1","650c16f0f2faf8d7a0d14c09","651c1ae1ac30c695c2238d43","null","null","<p style=""font-size: 60px; font-family: BACS"">KdARPMd</p>","","","","","","","","",""
"html-keyboard-response","128","516929","0.0-10.0-0.39","5bcd11401662020001fe82c1","650c16f0f2faf8d7a0d14c09","651c1ae1ac30c695c2238d43","null","null","<p style=""font-size: 60px; font-family: BACS"">dClOCOBT</p>","","","","","","","","",""
"html-keyboard-response","129","517937","0.0-10.0-0.40","5bcd11401662020001fe82c1","650c16f0f2faf8d7a0d14c09","651c1ae1ac30c695c2238d43","null","null","<p style=""font-size: 60px; font-family: BACS"">GNAcaJcL</p>","","","","","","","","",""
"html-keyboard-response","130","518945","0.0-10.0-0.41","5bcd11401662020001fe82c1","650c16f0f2faf8d7a0d14c09","651c1ae1ac30c695c2238d43","null","null","<p style=""font-size: 60px; font-family: BACS"">UvOGkbu</p>","","","","","","","","",""
"html-keyboard-response","131","519951","0.0-10.0-0.42","5bcd11401662020001fe82c1","650c16f0f2faf8d7a0d14c09","651c1ae1ac30c695c2238d43","null","null","<p style=""font-size: 60px; font-family: BACS"">TklDPMd</p>","","","","","","","","",""
"html-keyboard-response","132","520956","0.0-10.0-0.43","5bcd11401662020001fe82c1","650c16f0f2faf8d7a0d14c09","651c1ae1ac30c695c2238d43","null","null","<p style=""font-size: 60px; font-family: BACS"">AlNUYbN</p>","","","","","","","","",""
"html-keyboard-response","133","521962","0.0-10.0-0.44","5bcd11401662020001fe82c1","650c16f0f2faf8d7a0d14c09","651c1ae1ac30c695c2238d43","null","null","<p style=""font-size: 60px; font-family: BACS"">rLaZkbu</p>","","","","","","","","",""
"html-keyboard-response","134","522970","0.0-10.0-0.45","5bcd11401662020001fe82c1","650c16f0f2faf8d7a0d14c09","651c1ae1ac30c695c2238d43","null","null","<p style=""font-size: 60px; font-family: BACS"">OmtlDAPEM</p>","","","","","","","","",""
"html-keyboard-response","135","523978","0.0-10.0-0.46","5bcd11401662020001fe82c1","650c16f0f2faf8d7a0d14c09","651c1ae1ac30c695c2238d43","null","null","<p style=""font-size: 60px; font-family: BACS"">PhktkPMd</p>","","","","","","","","",""
"html-keyboard-response","136","524984","0.0-10.0-0.47","5bcd11401662020001fe82c1","650c16f0f2faf8d7a0d14c09","651c1ae1ac30c695c2238d43","null","null","<p style=""font-size: 60px; font-family: BACS"">NAacQkGua</p>","","","","","","","","",""
"html-keyboard-response","137","525993","0.0-10.0-0.48","5bcd11401662020001fe82c1","650c16f0f2faf8d7a0d14c09","651c1ae1ac30c695c2238d43","null","null","<p style=""font-size: 60px; font-family: BACS"">UvOGrkra</p>","","","","","","","","",""
"html-keyboard-response","138","526997","0.0-10.0-0.49","5bcd11401662020001fe82c1","650c16f0f2faf8d7a0d14c09","651c1ae1ac30c695c2238d43","null","null","<p style=""font-size: 60px; font-family: BACS"">BlmclOBT</p>","","","","","","","","",""
"html-keyboard-response","139","528001","0.0-10.0-0.50","5bcd11401662020001fe82c1","650c16f0f2faf8d7a0d14c09","651c1ae1ac30c695c2238d43","null","null","<p style=""font-size: 60px; font-family: BACS"">mhtcBYhT</p>","","","","","","","","",""
"html-keyboard-response","140","529009","0.0-10.0-0.51","5bcd11401662020001fe82c1","650c16f0f2faf8d7a0d14c09","651c1ae1ac30c695c2238d43","null","null","<p style=""font-size: 60px; font-family: BACS"">UvOGYbN</p>","","","","","","","","",""
"html-keyboard-response","141","530014","0.0-10.0-0.52","5bcd11401662020001fe82c1","650c16f0f2faf8d7a0d14c09","651c1ae1ac30c695c2238d43","null","null","<p style=""font-size: 60px; font-family: BACS"">dmZvmkbu</p>","","","","","","","","",""
"html-keyboard-response","142","531022","0.0-10.0-0.53","5bcd11401662020001fe82c1","650c16f0f2faf8d7a0d14c09","651c1ae1ac30c695c2238d43","null","null","<p style=""font-size: 60px; font-family: BACS"">mhtcAPEM</p>","","","","","","","","",""
"html-keyboard-response","143","532028","0.0-10.0-0.54","5bcd11401662020001fe82c1","650c16f0f2faf8d7a0d14c09","651c1ae1ac30c695c2238d43","null","null","<p style=""font-size: 60px; font-family: BACS"">ZNLOvkGua</p>","","","","","","","","",""
"html-keyboard-response","144","533030","0.0-10.0-0.55","5bcd11401662020001fe82c1","650c16f0f2faf8d7a0d14c09","651c1ae1ac30c695c2238d43","null","null","<p style=""font-size: 60px; font-family: BACS"">GNAcakbu</p>","","","","","","","","",""
"html-keyboard-response","145","534038","0.0-10.0-0.56","5bcd11401662020001fe82c1","650c16f0f2faf8d7a0d14c09","651c1ae1ac30c695c2238d43","null","null","<p style=""font-size: 60px; font-family: BACS"">TklDOBT</p>","","","","","","","","",""
"html-keyboard-response","146","535047","0.0-10.0-0.57","5bcd11401662020001fe82c1","650c16f0f2faf8d7a0d14c09","651c1ae1ac30c695c2238d43","null","null","<p style=""font-size: 60px; font-family: BACS"">AlNUkbu</p>","","","","","","","","",""
"html-keyboard-response","147","536053","0.0-10.0-0.58","5bcd11401662020001fe82c1","650c16f0f2faf8d7a0d14c09","651c1ae1ac30c695c2238d43","null","null","<p style=""font-size: 60px; font-family: BACS"">rLaZkGua</p>","","","","","","","","",""
"html-keyboard-response","148","537061","0.0-10.0-0.59","5bcd11401662020001fe82c1","650c16f0f2faf8d7a0d14c09","651c1ae1ac30c695c2238d43","null","null","<p style=""font-size: 60px; font-family: BACS"">ZNLOvrkra</p>","","","","","","","","",""
"html-keyboard-response","149","538069","0.0-10.0-0.60","5bcd11401662020001fe82c1","650c16f0f2faf8d7a0d14c09","651c1ae1ac30c695c2238d43","null","null","<p style=""font-size: 60px; font-family: BACS"">kKRCPMd</p>","","","","","","","","",""
"html-keyboard-response","150","539077","0.0-10.0-0.61","5bcd11401662020001fe82c1","650c16f0f2faf8d7a0d14c09","651c1ae1ac30c695c2238d43","null","null","<p style=""font-size: 60px; font-family: BACS"">GLYrAkGua</p>","","","","","","","","",""
"html-keyboard-response","151","540086","0.0-10.0-0.62","5bcd11401662020001fe82c1","650c16f0f2faf8d7a0d14c09","651c1ae1ac30c695c2238d43","null","null","<p style=""font-size: 60px; font-family: BACS"">rLaZJcL</p>","","","","","","","","",""
"html-keyboard-response","152","541092","0.0-10.0-0.63","5bcd11401662020001fe82c1","650c16f0f2faf8d7a0d14c09","651c1ae1ac30c695c2238d43","null","null","<p style=""font-size: 60px; font-family: BACS"">GLYrArkra</p>","","","","","","","","",""
"html-keyboard-response","153","542100","0.0-10.0-0.64","5bcd11401662020001fe82c1","650c16f0f2faf8d7a0d14c09","651c1ae1ac30c695c2238d43","null","null","<p style=""font-size: 60px; font-family: BACS"">OmtlDOBT</p>","","","","","","","","",""
"html-keyboard-response","154","543106","0.0-10.0-0.65","5bcd11401662020001fe82c1","650c16f0f2faf8d7a0d14c09","651c1ae1ac30c695c2238d43","null","null","<p style=""font-size: 60px; font-family: BACS"">NAacQYbN</p>","","","","","","","","",""
"html-keyboard-response","155","544114","0.0-10.0-0.66","5bcd11401662020001fe82c1","650c16f0f2faf8d7a0d14c09","651c1ae1ac30c695c2238d43","null","null","<p style=""font-size: 60px; font-family: BACS"">GNAcarkra</p>","","","","","","","","",""
"html-keyboard-response","156","545121","0.0-10.0-0.67","5bcd11401662020001fe82c1","650c16f0f2faf8d7a0d14c09","651c1ae1ac30c695c2238d43","null","null","<p style=""font-size: 60px; font-family: BACS"">dRbDbmtKP</p>","","","","","","","","",""
"html-keyboard-response","157","546129","0.0-10.0-0.68","5bcd11401662020001fe82c1","650c16f0f2faf8d7a0d14c09","651c1ae1ac30c695c2238d43","null","null","<p style=""font-size: 60px; font-family: BACS"">kKRCOBT</p>","","","","","","","","",""
"html-keyboard-response","158","547137","0.0-10.0-0.69","5bcd11401662020001fe82c1","650c16f0f2faf8d7a0d14c09","651c1ae1ac30c695c2238d43","null","null","<p style=""font-size: 60px; font-family: BACS"">dRbDbAPEM</p>","","","","","","","","",""
"html-keyboard-response","159","548145","0.0-10.0-0.70","5bcd11401662020001fe82c1","650c16f0f2faf8d7a0d14c09","651c1ae1ac30c695c2238d43","null","null","<p style=""font-size: 60px; font-family: BACS"">UYZlZYbN</p>","","","","","","","","",""
"html-keyboard-response","160","549152","0.0-10.0-0.71","5bcd11401662020001fe82c1","650c16f0f2faf8d7a0d14c09","651c1ae1ac30c695c2238d43","null","null","<p style=""font-size: 60px; font-family: BACS"">OmtlDPMd</p>","","","","","","","","",""
"html-keyboard-response","161","550158","0.0-10.0-0.72","5bcd11401662020001fe82c1","650c16f0f2faf8d7a0d14c09","651c1ae1ac30c695c2238d43","null","null","<p style=""font-size: 60px; font-family: BACS"">DBklBYhT</p>","","","","","","","","",""
"html-keyboard-response","162","551166","0.0-10.0-0.73","5bcd11401662020001fe82c1","650c16f0f2faf8d7a0d14c09","651c1ae1ac30c695c2238d43","null","null","<p style=""font-size: 60px; font-family: BACS"">GLYrAYbN</p>","","","","","","","","",""
"html-keyboard-response","163","552174","0.0-10.0-0.74","5bcd11401662020001fe82c1","650c16f0f2faf8d7a0d14c09","651c1ae1ac30c695c2238d43","null","null","<p style=""font-size: 60px; font-family: BACS"">NAacQJcL</p>","","","","","","","","",""
"html-keyboard-response","164","553182","0.0-10.0-0.75","5bcd11401662020001fe82c1","650c16f0f2faf8d7a0d14c09","651c1ae1ac30c695c2238d43","null","null","<p style=""font-size: 60px; font-family: BACS"">rLaZYbN</p>","","","","","","","","",""
"html-keyboard-response","165","554189","0.0-10.0-0.76","5bcd11401662020001fe82c1","650c16f0f2faf8d7a0d14c09","651c1ae1ac30c695c2238d43","null","null","<p style=""font-size: 60px; font-family: BACS"">DBklPMd</p>","","","","","","","","",""
"html-keyboard-response","166","555197","0.0-10.0-0.77","5bcd11401662020001fe82c1","650c16f0f2faf8d7a0d14c09","651c1ae1ac30c695c2238d43","null","null","<p style=""font-size: 60px; font-family: BACS"">UvOGJcL</p>","","","","","","","","",""
"html-keyboard-response","167","556203","0.0-10.0-0.78","5bcd11401662020001fe82c1","650c16f0f2faf8d7a0d14c09","651c1ae1ac30c695c2238d43","null","null","<p style=""font-size: 60px; font-family: BACS"">OmtlDBYhT</p>","","","","","","","","",""
"html-keyboard-response","168","557209","0.0-10.0-0.79","5bcd11401662020001fe82c1","650c16f0f2faf8d7a0d14c09","651c1ae1ac30c695c2238d43","null","null","<p style=""font-size: 60px; font-family: BACS"">DBklAPEM</p>","","","","","","","","",""
"html-keyboard-response","169","582046","0.0-11.0","5bcd11401662020001fe82c1","650c16f0f2faf8d7a0d14c09","651c1ae1ac30c695c2238d43","24837"," ","<p>Great, you've seen the second block of words. You may now take a short break.</p>
      <p>Press the spacebar when you're ready to continue.</p>","","","","","","","","",""
"html-keyboard-response","170","583061","0.0-12.0-0.0","5bcd11401662020001fe82c1","650c16f0f2faf8d7a0d14c09","651c1ae1ac30c695c2238d43","null","null","<p style=""font-size: 60px; font-family: BACS"">UYZlZkGua</p>","","","","","","","","",""
"html-keyboard-response","171","584069","0.0-12.0-0.1","5bcd11401662020001fe82c1","650c16f0f2faf8d7a0d14c09","651c1ae1ac30c695c2238d43","null","null","<p style=""font-size: 60px; font-family: BACS"">BlmclPMd</p>","","","","","","","","",""
"html-keyboard-response","172","585076","0.0-12.0-0.2","5bcd11401662020001fe82c1","650c16f0f2faf8d7a0d14c09","651c1ae1ac30c695c2238d43","null","null","<p style=""font-size: 60px; font-family: BACS"">TklDBYhT</p>","","","","","","","","",""
"html-keyboard-response","173","586084","0.0-12.0-0.3","5bcd11401662020001fe82c1","650c16f0f2faf8d7a0d14c09","651c1ae1ac30c695c2238d43","null","null","<p style=""font-size: 60px; font-family: BACS"">ZNLOvJcL</p>","","","","","","","","",""
"html-keyboard-response","174","587090","0.0-12.0-0.4","5bcd11401662020001fe82c1","650c16f0f2faf8d7a0d14c09","651c1ae1ac30c695c2238d43","null","null","<p style=""font-size: 60px; font-family: BACS"">dClOCBYhT</p>","","","","","","","","",""
"html-keyboard-response","175","588098","0.0-12.0-0.5","5bcd11401662020001fe82c1","650c16f0f2faf8d7a0d14c09","651c1ae1ac30c695c2238d43","null","null","<p style=""font-size: 60px; font-family: BACS"">NAacQkGua</p>","","","","","","","","",""
"html-keyboard-response","176","589107","0.0-12.0-0.6","5bcd11401662020001fe82c1","650c16f0f2faf8d7a0d14c09","651c1ae1ac30c695c2238d43","null","null","<p style=""font-size: 60px; font-family: BACS"">GNAcakbu</p>","","","","","","","","",""
"html-keyboard-response","177","590113","0.0-12.0-0.7","5bcd11401662020001fe82c1","650c16f0f2faf8d7a0d14c09","651c1ae1ac30c695c2238d43","null","null","<p style=""font-size: 60px; font-family: BACS"">PhktkAPEM</p>","","","","","","","","",""
"html-keyboard-response","178","591119","0.0-12.0-0.8","5bcd11401662020001fe82c1","650c16f0f2faf8d7a0d14c09","651c1ae1ac30c695c2238d43","null","null","<p style=""font-size: 60px; font-family: BACS"">OmtlDBYhT</p>","","","","","","","","",""
"html-keyboard-response","179","592127","0.0-12.0-0.9","5bcd11401662020001fe82c1","650c16f0f2faf8d7a0d14c09","651c1ae1ac30c695c2238d43","null","null","<p style=""font-size: 60px; font-family: BACS"">GLYrAkGua</p>","","","","","","","","",""
"html-keyboard-response","180","593133","0.0-12.0-0.10","5bcd11401662020001fe82c1","650c16f0f2faf8d7a0d14c09","651c1ae1ac30c695c2238d43","null","null","<p style=""font-size: 60px; font-family: BACS"">OmtlDOBT</p>","","","","","","","","",""
"html-keyboard-response","181","594142","0.0-12.0-0.11","5bcd11401662020001fe82c1","650c16f0f2faf8d7a0d14c09","651c1ae1ac30c695c2238d43","null","null","<p style=""font-size: 60px; font-family: BACS"">GLYrAJcL</p>","","","","","","","","",""
"html-keyboard-response","182","595150","0.0-12.0-0.12","5bcd11401662020001fe82c1","650c16f0f2faf8d7a0d14c09","651c1ae1ac30c695c2238d43","null","null","<p style=""font-size: 60px; font-family: BACS"">dRbDbmtKP</p>","","","","","","","","",""
"html-keyboard-response","183","596158","0.0-12.0-0.13","5bcd11401662020001fe82c1","650c16f0f2faf8d7a0d14c09","651c1ae1ac30c695c2238d43","null","null","<p style=""font-size: 60px; font-family: BACS"">TklDOBT</p>","","","","","","","","",""
"html-keyboard-response","184","597166","0.0-12.0-0.14","5bcd11401662020001fe82c1","650c16f0f2faf8d7a0d14c09","651c1ae1ac30c695c2238d43","null","null","<p style=""font-size: 60px; font-family: BACS"">UYZlZJcL</p>","","","","","","","","",""
"html-keyboard-response","185","598175","0.0-12.0-0.15","5bcd11401662020001fe82c1","650c16f0f2faf8d7a0d14c09","651c1ae1ac30c695c2238d43","null","null","<p style=""font-size: 60px; font-family: BACS"">TklDmtKP</p>","","","","","","","","",""
"html-keyboard-response","186","599178","0.0-12.0-0.16","5bcd11401662020001fe82c1","650c16f0f2faf8d7a0d14c09","651c1ae1ac30c695c2238d43","null","null","<p style=""font-size: 60px; font-family: BACS"">uvaUrkra</p>","","","","","","","","",""
"html-keyboard-response","187","600186","0.0-12.0-0.17","5bcd11401662020001fe82c1","650c16f0f2faf8d7a0d14c09","651c1ae1ac30c695c2238d43","null","null","<p style=""font-size: 60px; font-family: BACS"">dClOCmtKP</p>","","","","","","","","",""
"html-keyboard-response","188","601194","0.0-12.0-0.18","5bcd11401662020001fe82c1","650c16f0f2faf8d7a0d14c09","651c1ae1ac30c695c2238d43","null","null","<p style=""font-size: 60px; font-family: BACS"">UYZlZYbN</p>","","","","","","","","",""
"html-keyboard-response","189","602202","0.0-12.0-0.19","5bcd11401662020001fe82c1","650c16f0f2faf8d7a0d14c09","651c1ae1ac30c695c2238d43","null","null","<p style=""font-size: 60px; font-family: BACS"">kKRCmtKP</p>","","","","","","","","",""
"html-keyboard-response","190","603209","0.0-12.0-0.20","5bcd11401662020001fe82c1","650c16f0f2faf8d7a0d14c09","651c1ae1ac30c695c2238d43","null","null","<p style=""font-size: 60px; font-family: BACS"">GNAcarkra</p>","","","","","","","","",""
"html-keyboard-response","191","604215","0.0-12.0-0.21","5bcd11401662020001fe82c1","650c16f0f2faf8d7a0d14c09","651c1ae1ac30c695c2238d43","null","null","<p style=""font-size: 60px; font-family: BACS"">uvaUkGua</p>","","","","","","","","",""
"html-keyboard-response","192","605221","0.0-12.0-0.22","5bcd11401662020001fe82c1","650c16f0f2faf8d7a0d14c09","651c1ae1ac30c695c2238d43","null","null","<p style=""font-size: 60px; font-family: BACS"">DBklPMd</p>","","","","","","","","",""
"html-keyboard-response","193","606229","0.0-12.0-0.23","5bcd11401662020001fe82c1","650c16f0f2faf8d7a0d14c09","651c1ae1ac30c695c2238d43","null","null","<p style=""font-size: 60px; font-family: BACS"">uvaUJcL</p>","","","","","","","","",""
"html-keyboard-response","194","607238","0.0-12.0-0.24","5bcd11401662020001fe82c1","650c16f0f2faf8d7a0d14c09","651c1ae1ac30c695c2238d43","null","null","<p style=""font-size: 60px; font-family: BACS"">KdARPMd</p>","","","","","","","","",""
"html-keyboard-response","195","608246","0.0-12.0-0.25","5bcd11401662020001fe82c1","650c16f0f2faf8d7a0d14c09","651c1ae1ac30c695c2238d43","null","null","<p style=""font-size: 60px; font-family: BACS"">NAacQYbN</p>","","","","","","","","",""
"html-keyboard-response","196","609254","0.0-12.0-0.26","5bcd11401662020001fe82c1","650c16f0f2faf8d7a0d14c09","651c1ae1ac30c695c2238d43","null","null","<p style=""font-size: 60px; font-family: BACS"">kKRCOBT</p>","","","","","","","","",""
"html-keyboard-response","197","610260","0.0-12.0-0.27","5bcd11401662020001fe82c1","650c16f0f2faf8d7a0d14c09","651c1ae1ac30c695c2238d43","null","null","<p style=""font-size: 60px; font-family: BACS"">NAacQJcL</p>","","","","","","","","",""
"html-keyboard-response","198","611266","0.0-12.0-0.28","5bcd11401662020001fe82c1","650c16f0f2faf8d7a0d14c09","651c1ae1ac30c695c2238d43","null","null","<p style=""font-size: 60px; font-family: BACS"">dmZvmYbN</p>","","","","","","","","",""
"html-keyboard-response","199","612273","0.0-12.0-0.29","5bcd11401662020001fe82c1","650c16f0f2faf8d7a0d14c09","651c1ae1ac30c695c2238d43","null","null","<p style=""font-size: 60px; font-family: BACS"">PhktkBYhT</p>","","","","","","","","",""
"html-keyboard-response","200","613279","0.0-12.0-0.30","5bcd11401662020001fe82c1","650c16f0f2faf8d7a0d14c09","651c1ae1ac30c695c2238d43","null","null","<p style=""font-size: 60px; font-family: BACS"">DBklmtKP</p>","","","","","","","","",""
"html-keyboard-response","201","614285","0.0-12.0-0.31","5bcd11401662020001fe82c1","650c16f0f2faf8d7a0d14c09","651c1ae1ac30c695c2238d43","null","null","<p style=""font-size: 60px; font-family: BACS"">UvOGrkra</p>","","","","","","","","",""
"html-keyboard-response","202","615293","0.0-12.0-0.32","5bcd11401662020001fe82c1","650c16f0f2faf8d7a0d14c09","651c1ae1ac30c695c2238d43","null","null","<p style=""font-size: 60px; font-family: BACS"">dmZvmkGua</p>","","","","","","","","",""
"html-keyboard-response","203","616302","0.0-12.0-0.33","5bcd11401662020001fe82c1","650c16f0f2faf8d7a0d14c09","651c1ae1ac30c695c2238d43","null","null","<p style=""font-size: 60px; font-family: BACS"">rLaZYbN</p>","","","","","","","","",""
"html-keyboard-response","204","617310","0.0-12.0-0.34","5bcd11401662020001fe82c1","650c16f0f2faf8d7a0d14c09","651c1ae1ac30c695c2238d43","null","null","<p style=""font-size: 60px; font-family: BACS"">KdARmtKP</p>","","","","","","","","",""
"html-keyboard-response","205","618316","0.0-12.0-0.35","5bcd11401662020001fe82c1","650c16f0f2faf8d7a0d14c09","651c1ae1ac30c695c2238d43","null","null","<p style=""font-size: 60px; font-family: BACS"">dRbDbAPEM</p>","","","","","","","","",""
"html-keyboard-response","206","619322","0.0-12.0-0.36","5bcd11401662020001fe82c1","650c16f0f2faf8d7a0d14c09","651c1ae1ac30c695c2238d43","null","null","<p style=""font-size: 60px; font-family: BACS"">NAacQkbu</p>","","","","","","","","",""
"html-keyboard-response","207","620330","0.0-12.0-0.37","5bcd11401662020001fe82c1","650c16f0f2faf8d7a0d14c09","651c1ae1ac30c695c2238d43","null","null","<p style=""font-size: 60px; font-family: BACS"">AlNUYbN</p>","","","","","","","","",""
"html-keyboard-response","208","621333","0.0-12.0-0.38","5bcd11401662020001fe82c1","650c16f0f2faf8d7a0d14c09","651c1ae1ac30c695c2238d43","null","null","<p style=""font-size: 60px; font-family: BACS"">rLaZJcL</p>","","","","","","","","",""
"html-keyboard-response","209","622341","0.0-12.0-0.39","5bcd11401662020001fe82c1","650c16f0f2faf8d7a0d14c09","651c1ae1ac30c695c2238d43","null","null","<p style=""font-size: 60px; font-family: BACS"">mhtcPMd</p>","","","","","","","","",""
"html-keyboard-response","210","623349","0.0-12.0-0.40","5bcd11401662020001fe82c1","650c16f0f2faf8d7a0d14c09","651c1ae1ac30c695c2238d43","null","null","<p style=""font-size: 60px; font-family: BACS"">PhktkmtKP</p>","","","","","","","","",""
"html-keyboard-response","211","624357","0.0-12.0-0.41","5bcd11401662020001fe82c1","650c16f0f2faf8d7a0d14c09","651c1ae1ac30c695c2238d43","null","null","<p style=""font-size: 60px; font-family: BACS"">kKRCPMd</p>","","","","","","","","",""
"html-keyboard-response","212","625364","0.0-12.0-0.42","5bcd11401662020001fe82c1","650c16f0f2faf8d7a0d14c09","651c1ae1ac30c695c2238d43","null","null","<p style=""font-size: 60px; font-family: BACS"">ZNLOvrkra</p>","","","","","","","","",""
"html-keyboard-response","213","626370","0.0-12.0-0.43","5bcd11401662020001fe82c1","650c16f0f2faf8d7a0d14c09","651c1ae1ac30c695c2238d43","null","null","<p style=""font-size: 60px; font-family: BACS"">OmtlDPMd</p>","","","","","","","","",""
"html-keyboard-response","214","627378","0.0-12.0-0.44","5bcd11401662020001fe82c1","650c16f0f2faf8d7a0d14c09","651c1ae1ac30c695c2238d43","null","null","<p style=""font-size: 60px; font-family: BACS"">dClOCAPEM</p>","","","","","","","","",""
"html-keyboard-response","215","628382","0.0-12.0-0.45","5bcd11401662020001fe82c1","650c16f0f2faf8d7a0d14c09","651c1ae1ac30c695c2238d43","null","null","<p style=""font-size: 60px; font-family: BACS"">GNAcaYbN</p>","","","","","","","","",""
"html-keyboard-response","216","629391","0.0-12.0-0.46","5bcd11401662020001fe82c1","650c16f0f2faf8d7a0d14c09","651c1ae1ac30c695c2238d43","null","null","<p style=""font-size: 60px; font-family: BACS"">dmZvmkbu</p>","","","","","","","","",""
"html-keyboard-response","217","630397","0.0-12.0-0.47","5bcd11401662020001fe82c1","650c16f0f2faf8d7a0d14c09","651c1ae1ac30c695c2238d43","null","null","<p style=""font-size: 60px; font-family: BACS"">KdAROBT</p>","","","","","","","","",""
"html-keyboard-response","218","631405","0.0-12.0-0.48","5bcd11401662020001fe82c1","650c16f0f2faf8d7a0d14c09","651c1ae1ac30c695c2238d43","null","null","<p style=""font-size: 60px; font-family: BACS"">mhtcAPEM</p>","","","","","","","","",""
"html-keyboard-response","219","632413","0.0-12.0-0.49","5bcd11401662020001fe82c1","650c16f0f2faf8d7a0d14c09","651c1ae1ac30c695c2238d43","null","null","<p style=""font-size: 60px; font-family: BACS"">dClOCOBT</p>","","","","","","","","",""
"html-keyboard-response","220","633421","0.0-12.0-0.50","5bcd11401662020001fe82c1","650c16f0f2faf8d7a0d14c09","651c1ae1ac30c695c2238d43","null","null","<p style=""font-size: 60px; font-family: BACS"">KdARBYhT</p>","","","","","","","","",""
"html-keyboard-response","221","634430","0.0-12.0-0.51","5bcd11401662020001fe82c1","650c16f0f2faf8d7a0d14c09","651c1ae1ac30c695c2238d43","null","null","<p style=""font-size: 60px; font-family: BACS"">BlmclOBT</p>","","","","","","","","",""
"html-keyboard-response","222","635436","0.0-12.0-0.52","5bcd11401662020001fe82c1","650c16f0f2faf8d7a0d14c09","651c1ae1ac30c695c2238d43","null","null","<p style=""font-size: 60px; font-family: BACS"">uvaUkbu</p>","","","","","","","","",""
"html-keyboard-response","223","636444","0.0-12.0-0.53","5bcd11401662020001fe82c1","650c16f0f2faf8d7a0d14c09","651c1ae1ac30c695c2238d43","null","null","<p style=""font-size: 60px; font-family: BACS"">DBklAPEM</p>","","","","","","","","",""
"html-keyboard-response","224","637452","0.0-12.0-0.54","5bcd11401662020001fe82c1","650c16f0f2faf8d7a0d14c09","651c1ae1ac30c695c2238d43","null","null","<p style=""font-size: 60px; font-family: BACS"">mhtcBYhT</p>","","","","","","","","",""
"html-keyboard-response","225","638458","0.0-12.0-0.55","5bcd11401662020001fe82c1","650c16f0f2faf8d7a0d14c09","651c1ae1ac30c695c2238d43","null","null","<p style=""font-size: 60px; font-family: BACS"">kKRCAPEM</p>","","","","","","","","",""
"html-keyboard-response","226","639463","0.0-12.0-0.56","5bcd11401662020001fe82c1","650c16f0f2faf8d7a0d14c09","651c1ae1ac30c695c2238d43","null","null","<p style=""font-size: 60px; font-family: BACS"">BlmclmtKP</p>","","","","","","","","",""
"html-keyboard-response","227","640467","0.0-12.0-0.57","5bcd11401662020001fe82c1","650c16f0f2faf8d7a0d14c09","651c1ae1ac30c695c2238d43","null","null","<p style=""font-size: 60px; font-family: BACS"">ZNLOvkbu</p>","","","","","","","","",""
"html-keyboard-response","228","641473","0.0-12.0-0.58","5bcd11401662020001fe82c1","650c16f0f2faf8d7a0d14c09","651c1ae1ac30c695c2238d43","null","null","<p style=""font-size: 60px; font-family: BACS"">UYZlZrkra</p>","","","","","","","","",""
"html-keyboard-response","229","642481","0.0-12.0-0.59","5bcd11401662020001fe82c1","650c16f0f2faf8d7a0d14c09","651c1ae1ac30c695c2238d43","null","null","<p style=""font-size: 60px; font-family: BACS"">UvOGkbu</p>","","","","","","","","",""
"html-keyboard-response","230","643490","0.0-12.0-0.60","5bcd11401662020001fe82c1","650c16f0f2faf8d7a0d14c09","651c1ae1ac30c695c2238d43","null","null","<p style=""font-size: 60px; font-family: BACS"">mhtcOBT</p>","","","","","","","","",""
"html-keyboard-response","231","644496","0.0-12.0-0.61","5bcd11401662020001fe82c1","650c16f0f2faf8d7a0d14c09","651c1ae1ac30c695c2238d43","null","null","<p style=""font-size: 60px; font-family: BACS"">PhktkPMd</p>","","","","","","","","",""
"html-keyboard-response","232","645504","0.0-12.0-0.62","5bcd11401662020001fe82c1","650c16f0f2faf8d7a0d14c09","651c1ae1ac30c695c2238d43","null","null","<p style=""font-size: 60px; font-family: BACS"">AlNUkbu</p>","","","","","","","","",""
"html-keyboard-response","233","646510","0.0-12.0-0.63","5bcd11401662020001fe82c1","650c16f0f2faf8d7a0d14c09","651c1ae1ac30c695c2238d43","null","null","<p style=""font-size: 60px; font-family: BACS"">BlmclAPEM</p>","","","","","","","","",""
"html-keyboard-response","234","647517","0.0-12.0-0.64","5bcd11401662020001fe82c1","650c16f0f2faf8d7a0d14c09","651c1ae1ac30c695c2238d43","null","null","<p style=""font-size: 60px; font-family: BACS"">dmZvmrkra</p>","","","","","","","","",""
"html-keyboard-response","235","648525","0.0-12.0-0.65","5bcd11401662020001fe82c1","650c16f0f2faf8d7a0d14c09","651c1ae1ac30c695c2238d43","null","null","<p style=""font-size: 60px; font-family: BACS"">rLaZkGua</p>","","","","","","","","",""
"html-keyboard-response","236","649529","0.0-12.0-0.66","5bcd11401662020001fe82c1","650c16f0f2faf8d7a0d14c09","651c1ae1ac30c695c2238d43","null","null","<p style=""font-size: 60px; font-family: BACS"">AlNUrkra</p>","","","","","","","","",""
"html-keyboard-response","237","650535","0.0-12.0-0.67","5bcd11401662020001fe82c1","650c16f0f2faf8d7a0d14c09","651c1ae1ac30c695c2238d43","null","null","<p style=""font-size: 60px; font-family: BACS"">dRbDbOBT</p>","","","","","","","","",""
"html-keyboard-response","238","651543","0.0-12.0-0.68","5bcd11401662020001fe82c1","650c16f0f2faf8d7a0d14c09","651c1ae1ac30c695c2238d43","null","null","<p style=""font-size: 60px; font-family: BACS"">OmtlDAPEM</p>","","","","","","","","",""
"html-keyboard-response","239","652550","0.0-12.0-0.69","5bcd11401662020001fe82c1","650c16f0f2faf8d7a0d14c09","651c1ae1ac30c695c2238d43","null","null","<p style=""font-size: 60px; font-family: BACS"">UvOGJcL</p>","","","","","","","","",""
"html-keyboard-response","240","653558","0.0-12.0-0.70","5bcd11401662020001fe82c1","650c16f0f2faf8d7a0d14c09","651c1ae1ac30c695c2238d43","null","null","<p style=""font-size: 60px; font-family: BACS"">DBklBYhT</p>","","","","","","","","",""
"html-keyboard-response","241","654566","0.0-12.0-0.71","5bcd11401662020001fe82c1","650c16f0f2faf8d7a0d14c09","651c1ae1ac30c695c2238d43","null","null","<p style=""font-size: 60px; font-family: BACS"">ZNLOvkGua</p>","","","","","","","","",""
"html-keyboard-response","242","655572","0.0-12.0-0.72","5bcd11401662020001fe82c1","650c16f0f2faf8d7a0d14c09","651c1ae1ac30c695c2238d43","null","null","<p style=""font-size: 60px; font-family: BACS"">GLYrArkra</p>","","","","","","","","",""
"html-keyboard-response","243","656577","0.0-12.0-0.73","5bcd11401662020001fe82c1","650c16f0f2faf8d7a0d14c09","651c1ae1ac30c695c2238d43","null","null","<p style=""font-size: 60px; font-family: BACS"">TklDPMd</p>","","","","","","","","",""
"html-keyboard-response","244","657585","0.0-12.0-0.74","5bcd11401662020001fe82c1","650c16f0f2faf8d7a0d14c09","651c1ae1ac30c695c2238d43","null","null","<p style=""font-size: 60px; font-family: BACS"">AlNUkGua</p>","","","","","","","","",""
"html-keyboard-response","245","658593","0.0-12.0-0.75","5bcd11401662020001fe82c1","650c16f0f2faf8d7a0d14c09","651c1ae1ac30c695c2238d43","null","null","<p style=""font-size: 60px; font-family: BACS"">rLaZkbu</p>","","","","","","","","",""
"html-keyboard-response","246","659599","0.0-12.0-0.76","5bcd11401662020001fe82c1","650c16f0f2faf8d7a0d14c09","651c1ae1ac30c695c2238d43","null","null","<p style=""font-size: 60px; font-family: BACS"">GLYrAYbN</p>","","","","","","","","",""
"html-keyboard-response","247","660607","0.0-12.0-0.77","5bcd11401662020001fe82c1","650c16f0f2faf8d7a0d14c09","651c1ae1ac30c695c2238d43","null","null","<p style=""font-size: 60px; font-family: BACS"">GNAcaJcL</p>","","","","","","","","",""
"html-keyboard-response","248","661616","0.0-12.0-0.78","5bcd11401662020001fe82c1","650c16f0f2faf8d7a0d14c09","651c1ae1ac30c695c2238d43","null","null","<p style=""font-size: 60px; font-family: BACS"">UvOGYbN</p>","","","","","","","","",""
"html-keyboard-response","249","662622","0.0-12.0-0.79","5bcd11401662020001fe82c1","650c16f0f2faf8d7a0d14c09","651c1ae1ac30c695c2238d43","null","null","<p style=""font-size: 60px; font-family: BACS"">dRbDbBYhT</p>","","","","","","","","",""
"html-keyboard-response","250","674598","0.0-13.0","5bcd11401662020001fe82c1","650c16f0f2faf8d7a0d14c09","651c1ae1ac30c695c2238d43","11976"," ","<p>Great, you've seen the third block of words. You may now take a short break.</p>
      <p>Press the spacebar when you're ready to continue.</p>","","","","","","","","",""
"html-keyboard-response","251","675605","0.0-14.0-0.0","5bcd11401662020001fe82c1","650c16f0f2faf8d7a0d14c09","651c1ae1ac30c695c2238d43","null","null","<p style=""font-size: 60px; font-family: BACS"">ZNLOvrkra</p>","","","","","","","","",""
"html-keyboard-response","252","676613","0.0-14.0-0.1","5bcd11401662020001fe82c1","650c16f0f2faf8d7a0d14c09","651c1ae1ac30c695c2238d43","null","null","<p style=""font-size: 60px; font-family: BACS"">TklDPMd</p>","","","","","","","","",""
"html-keyboard-response","253","677619","0.0-14.0-0.2","5bcd11401662020001fe82c1","650c16f0f2faf8d7a0d14c09","651c1ae1ac30c695c2238d43","null","null","<p style=""font-size: 60px; font-family: BACS"">dClOCmtKP</p>","","","","","","","","",""
"html-keyboard-response","254","678625","0.0-14.0-0.3","5bcd11401662020001fe82c1","650c16f0f2faf8d7a0d14c09","651c1ae1ac30c695c2238d43","null","null","<p style=""font-size: 60px; font-family: BACS"">NAacQYbN</p>","","","","","","","","",""
"html-keyboard-response","255","679632","0.0-14.0-0.4","5bcd11401662020001fe82c1","650c16f0f2faf8d7a0d14c09","651c1ae1ac30c695c2238d43","null","null","<p style=""font-size: 60px; font-family: BACS"">uvaUkbu</p>","","","","","","","","",""
"html-keyboard-response","256","680638","0.0-14.0-0.5","5bcd11401662020001fe82c1","650c16f0f2faf8d7a0d14c09","651c1ae1ac30c695c2238d43","null","null","<p style=""font-size: 60px; font-family: BACS"">dRbDbmtKP</p>","","","","","","","","",""
"html-keyboard-response","257","681646","0.0-14.0-0.6","5bcd11401662020001fe82c1","650c16f0f2faf8d7a0d14c09","651c1ae1ac30c695c2238d43","null","null","<p style=""font-size: 60px; font-family: BACS"">PhktkBYhT</p>","","","","","","","","",""
"html-keyboard-response","258","682654","0.0-14.0-0.7","5bcd11401662020001fe82c1","650c16f0f2faf8d7a0d14c09","651c1ae1ac30c695c2238d43","null","null","<p style=""font-size: 60px; font-family: BACS"">KdAROBT</p>","","","","","","","","",""
"html-keyboard-response","259","683659","0.0-14.0-0.8","5bcd11401662020001fe82c1","650c16f0f2faf8d7a0d14c09","651c1ae1ac30c695c2238d43","null","null","<p style=""font-size: 60px; font-family: BACS"">dmZvmkGua</p>","","","","","","","","",""
"html-keyboard-response","260","684665","0.0-14.0-0.9","5bcd11401662020001fe82c1","650c16f0f2faf8d7a0d14c09","651c1ae1ac30c695c2238d43","null","null","<p style=""font-size: 60px; font-family: BACS"">mhtcOBT</p>","","","","","","","","",""
"html-keyboard-response","261","685671","0.0-14.0-0.10","5bcd11401662020001fe82c1","650c16f0f2faf8d7a0d14c09","651c1ae1ac30c695c2238d43","null","null","<p style=""font-size: 60px; font-family: BACS"">dRbDbAPEM</p>","","","","","","","","",""
"html-keyboard-response","262","686679","0.0-14.0-0.11","5bcd11401662020001fe82c1","650c16f0f2faf8d7a0d14c09","651c1ae1ac30c695c2238d43","null","null","<p style=""font-size: 60px; font-family: BACS"">dmZvmYbN</p>","","","","","","","","",""
"html-keyboard-response","263","687687","0.0-14.0-0.12","5bcd11401662020001fe82c1","650c16f0f2faf8d7a0d14c09","651c1ae1ac30c695c2238d43","null","null","<p style=""font-size: 60px; font-family: BACS"">OmtlDOBT</p>","","","","","","","","",""
"html-keyboard-response","264","688696","0.0-14.0-0.13","5bcd11401662020001fe82c1","650c16f0f2faf8d7a0d14c09","651c1ae1ac30c695c2238d43","null","null","<p style=""font-size: 60px; font-family: BACS"">AlNUYbN</p>","","","","","","","","",""
"html-keyboard-response","265","689702","0.0-14.0-0.14","5bcd11401662020001fe82c1","650c16f0f2faf8d7a0d14c09","651c1ae1ac30c695c2238d43","null","null","<p style=""font-size: 60px; font-family: BACS"">dRbDbBYhT</p>","","","","","","","","",""
"html-keyboard-response","266","690708","0.0-14.0-0.15","5bcd11401662020001fe82c1","650c16f0f2faf8d7a0d14c09","651c1ae1ac30c695c2238d43","null","null","<p style=""font-size: 60px; font-family: BACS"">GLYrAJcL</p>","","","","","","","","",""
"html-keyboard-response","267","691716","0.0-14.0-0.16","5bcd11401662020001fe82c1","650c16f0f2faf8d7a0d14c09","651c1ae1ac30c695c2238d43","null","null","<p style=""font-size: 60px; font-family: BACS"">BlmclAPEM</p>","","","","","","","","",""
"html-keyboard-response","268","692718","0.0-14.0-0.17","5bcd11401662020001fe82c1","650c16f0f2faf8d7a0d14c09","651c1ae1ac30c695c2238d43","null","null","<p style=""font-size: 60px; font-family: BACS"">TklDBYhT</p>","","","","","","","","",""
"html-keyboard-response","269","693725","0.0-14.0-0.18","5bcd11401662020001fe82c1","650c16f0f2faf8d7a0d14c09","651c1ae1ac30c695c2238d43","null","null","<p style=""font-size: 60px; font-family: BACS"">GNAcarkra</p>","","","","","","","","",""
"html-keyboard-response","270","694733","0.0-14.0-0.19","5bcd11401662020001fe82c1","650c16f0f2faf8d7a0d14c09","651c1ae1ac30c695c2238d43","null","null","<p style=""font-size: 60px; font-family: BACS"">dmZvmkbu</p>","","","","","","","","",""
"html-keyboard-response","271","695741","0.0-14.0-0.20","5bcd11401662020001fe82c1","650c16f0f2faf8d7a0d14c09","651c1ae1ac30c695c2238d43","null","null","<p style=""font-size: 60px; font-family: BACS"">PhktkPMd</p>","","","","","","","","",""
"html-keyboard-response","272","696749","0.0-14.0-0.21","5bcd11401662020001fe82c1","650c16f0f2faf8d7a0d14c09","651c1ae1ac30c695c2238d43","null","null","<p style=""font-size: 60px; font-family: BACS"">dRbDbOBT</p>","","","","","","","","",""
"html-keyboard-response","273","697756","0.0-14.0-0.22","5bcd11401662020001fe82c1","650c16f0f2faf8d7a0d14c09","651c1ae1ac30c695c2238d43","null","null","<p style=""font-size: 60px; font-family: BACS"">NAacQkGua</p>","","","","","","","","",""
"html-keyboard-response","274","698763","0.0-14.0-0.23","5bcd11401662020001fe82c1","650c16f0f2faf8d7a0d14c09","651c1ae1ac30c695c2238d43","null","null","<p style=""font-size: 60px; font-family: BACS"">BlmclPMd</p>","","","","","","","","",""
"html-keyboard-response","275","699771","0.0-14.0-0.24","5bcd11401662020001fe82c1","650c16f0f2faf8d7a0d14c09","651c1ae1ac30c695c2238d43","null","null","<p style=""font-size: 60px; font-family: BACS"">rLaZJcL</p>","","","","","","","","",""
"html-keyboard-response","276","700775","0.0-14.0-0.25","5bcd11401662020001fe82c1","650c16f0f2faf8d7a0d14c09","651c1ae1ac30c695c2238d43","null","null","<p style=""font-size: 60px; font-family: BACS"">TklDmtKP</p>","","","","","","","","",""
"html-keyboard-response","277","701782","0.0-14.0-0.26","5bcd11401662020001fe82c1","650c16f0f2faf8d7a0d14c09","651c1ae1ac30c695c2238d43","null","null","<p style=""font-size: 60px; font-family: BACS"">dClOCBYhT</p>","","","","","","","","",""
"html-keyboard-response","278","702786","0.0-14.0-0.27","5bcd11401662020001fe82c1","650c16f0f2faf8d7a0d14c09","651c1ae1ac30c695c2238d43","null","null","<p style=""font-size: 60px; font-family: BACS"">kKRCmtKP</p>","","","","","","","","",""
"html-keyboard-response","279","703792","0.0-14.0-0.28","5bcd11401662020001fe82c1","650c16f0f2faf8d7a0d14c09","651c1ae1ac30c695c2238d43","null","null","<p style=""font-size: 60px; font-family: BACS"">PhktkAPEM</p>","","","","","","","","",""
"html-keyboard-response","280","704796","0.0-14.0-0.29","5bcd11401662020001fe82c1","650c16f0f2faf8d7a0d14c09","651c1ae1ac30c695c2238d43","null","null","<p style=""font-size: 60px; font-family: BACS"">ZNLOvJcL</p>","","","","","","","","",""
"html-keyboard-response","281","705800","0.0-14.0-0.30","5bcd11401662020001fe82c1","650c16f0f2faf8d7a0d14c09","651c1ae1ac30c695c2238d43","null","null","<p style=""font-size: 60px; font-family: BACS"">UvOGYbN</p>","","","","","","","","",""
"html-keyboard-response","282","706809","0.0-14.0-0.31","5bcd11401662020001fe82c1","650c16f0f2faf8d7a0d14c09","651c1ae1ac30c695c2238d43","null","null","<p style=""font-size: 60px; font-family: BACS"">uvaUkGua</p>","","","","","","","","",""
"html-keyboard-response","283","707817","0.0-14.0-0.32","5bcd11401662020001fe82c1","650c16f0f2faf8d7a0d14c09","651c1ae1ac30c695c2238d43","null","null","<p style=""font-size: 60px; font-family: BACS"">mhtcBYhT</p>","","","","","","","","",""
"html-keyboard-response","284","708823","0.0-14.0-0.33","5bcd11401662020001fe82c1","650c16f0f2faf8d7a0d14c09","651c1ae1ac30c695c2238d43","null","null","<p style=""font-size: 60px; font-family: BACS"">BlmclOBT</p>","","","","","","","","",""
"html-keyboard-response","285","709831","0.0-14.0-0.34","5bcd11401662020001fe82c1","650c16f0f2faf8d7a0d14c09","651c1ae1ac30c695c2238d43","null","null","<p style=""font-size: 60px; font-family: BACS"">rLaZkGua</p>","","","","","","","","",""
"html-keyboard-response","286","710838","0.0-14.0-0.35","5bcd11401662020001fe82c1","650c16f0f2faf8d7a0d14c09","651c1ae1ac30c695c2238d43","null","null","<p style=""font-size: 60px; font-family: BACS"">UYZlZYbN</p>","","","","","","","","",""
"html-keyboard-response","287","711846","0.0-14.0-0.36","5bcd11401662020001fe82c1","650c16f0f2faf8d7a0d14c09","651c1ae1ac30c695c2238d43","null","null","<p style=""font-size: 60px; font-family: BACS"">GLYrArkra</p>","","","","","","","","",""
"html-keyboard-response","288","712852","0.0-14.0-0.37","5bcd11401662020001fe82c1","650c16f0f2faf8d7a0d14c09","651c1ae1ac30c695c2238d43","null","null","<p style=""font-size: 60px; font-family: BACS"">KdARmtKP</p>","","","","","","","","",""
"html-keyboard-response","289","713858","0.0-14.0-0.38","5bcd11401662020001fe82c1","650c16f0f2faf8d7a0d14c09","651c1ae1ac30c695c2238d43","null","null","<p style=""font-size: 60px; font-family: BACS"">uvaUrkra</p>","","","","","","","","",""
"html-keyboard-response","290","714865","0.0-14.0-0.39","5bcd11401662020001fe82c1","650c16f0f2faf8d7a0d14c09","651c1ae1ac30c695c2238d43","null","null","<p style=""font-size: 60px; font-family: BACS"">ZNLOvkGua</p>","","","","","","","","",""
"html-keyboard-response","291","715871","0.0-14.0-0.40","5bcd11401662020001fe82c1","650c16f0f2faf8d7a0d14c09","651c1ae1ac30c695c2238d43","null","null","<p style=""font-size: 60px; font-family: BACS"">UYZlZrkra</p>","","","","","","","","",""
"html-keyboard-response","292","716877","0.0-14.0-0.41","5bcd11401662020001fe82c1","650c16f0f2faf8d7a0d14c09","651c1ae1ac30c695c2238d43","null","null","<p style=""font-size: 60px; font-family: BACS"">GLYrAYbN</p>","","","","","","","","",""
"html-keyboard-response","293","717885","0.0-14.0-0.42","5bcd11401662020001fe82c1","650c16f0f2faf8d7a0d14c09","651c1ae1ac30c695c2238d43","null","null","<p style=""font-size: 60px; font-family: BACS"">mhtcAPEM</p>","","","","","","","","",""
"html-keyboard-response","294","718893","0.0-14.0-0.43","5bcd11401662020001fe82c1","650c16f0f2faf8d7a0d14c09","651c1ae1ac30c695c2238d43","null","null","<p style=""font-size: 60px; font-family: BACS"">GNAcakbu</p>","","","","","","","","",""
"html-keyboard-response","295","719902","0.0-14.0-0.44","5bcd11401662020001fe82c1","650c16f0f2faf8d7a0d14c09","651c1ae1ac30c695c2238d43","null","null","<p style=""font-size: 60px; font-family: BACS"">kKRCOBT</p>","","","","","","","","",""
"html-keyboard-response","296","720906","0.0-14.0-0.45","5bcd11401662020001fe82c1","650c16f0f2faf8d7a0d14c09","651c1ae1ac30c695c2238d43","null","null","<p style=""font-size: 60px; font-family: BACS"">rLaZYbN</p>","","","","","","","","",""
"html-keyboard-response","297","721914","0.0-14.0-0.46","5bcd11401662020001fe82c1","650c16f0f2faf8d7a0d14c09","651c1ae1ac30c695c2238d43","null","null","<p style=""font-size: 60px; font-family: BACS"">TklDOBT</p>","","","","","","","","",""
"html-keyboard-response","298","723561","0.0-14.0-0.47","5bcd11401662020001fe82c1","650c16f0f2faf8d7a0d14c09","651c1ae1ac30c695c2238d43","null","null","<p style=""font-size: 60px; font-family: BACS"">dmZvmrkra</p>","","","","","","","","",""
"html-keyboard-response","299","724565","0.0-14.0-0.48","5bcd11401662020001fe82c1","650c16f0f2faf8d7a0d14c09","651c1ae1ac30c695c2238d43","null","null","<p style=""font-size: 60px; font-family: BACS"">KdARPMd</p>","","","","","","","","",""
"html-keyboard-response","300","726563","0.0-14.0-0.49","5bcd11401662020001fe82c1","650c16f0f2faf8d7a0d14c09","651c1ae1ac30c695c2238d43","null","null","<p style=""font-size: 60px; font-family: BACS"">ZNLOvkbu</p>","","","","","","","","",""
"html-keyboard-response","301","728562","0.0-14.0-0.50","5bcd11401662020001fe82c1","650c16f0f2faf8d7a0d14c09","651c1ae1ac30c695c2238d43","null","null","<p style=""font-size: 60px; font-family: BACS"">KdARBYhT</p>","","","","","","","","",""
"html-keyboard-response","302","729568","0.0-14.0-0.51","5bcd11401662020001fe82c1","650c16f0f2faf8d7a0d14c09","651c1ae1ac30c695c2238d43","null","null","<p style=""font-size: 60px; font-family: BACS"">AlNUkbu</p>","","","","","","","","",""
"html-keyboard-response","303","731566","0.0-14.0-0.52","5bcd11401662020001fe82c1","650c16f0f2faf8d7a0d14c09","651c1ae1ac30c695c2238d43","null","null","<p style=""font-size: 60px; font-family: BACS"">dClOCOBT</p>","","","","","","","","",""
"html-keyboard-response","304","733565","0.0-14.0-0.53","5bcd11401662020001fe82c1","650c16f0f2faf8d7a0d14c09","651c1ae1ac30c695c2238d43","null","null","<p style=""font-size: 60px; font-family: BACS"">DBklmtKP</p>","","","","","","","","",""
"html-keyboard-response","305","735565","0.0-14.0-0.54","5bcd11401662020001fe82c1","650c16f0f2faf8d7a0d14c09","651c1ae1ac30c695c2238d43","null","null","<p style=""font-size: 60px; font-family: BACS"">UvOGJcL</p>","","","","","","","","",""
"html-keyboard-response","306","737166","0.0-14.0-0.55","5bcd11401662020001fe82c1","650c16f0f2faf8d7a0d14c09","651c1ae1ac30c695c2238d43","null","null","<p style=""font-size: 60px; font-family: BACS"">kKRCAPEM</p>","","","","","","","","",""
"html-keyboard-response","307","738172","0.0-14.0-0.56","5bcd11401662020001fe82c1","650c16f0f2faf8d7a0d14c09","651c1ae1ac30c695c2238d43","null","null","<p style=""font-size: 60px; font-family: BACS"">BlmclmtKP</p>","","","","","","","","",""
"html-keyboard-response","308","739180","0.0-14.0-0.57","5bcd11401662020001fe82c1","650c16f0f2faf8d7a0d14c09","651c1ae1ac30c695c2238d43","null","null","<p style=""font-size: 60px; font-family: BACS"">rLaZkbu</p>","","","","","","","","",""
"html-keyboard-response","309","740188","0.0-14.0-0.58","5bcd11401662020001fe82c1","650c16f0f2faf8d7a0d14c09","651c1ae1ac30c695c2238d43","null","null","<p style=""font-size: 60px; font-family: BACS"">GNAcaJcL</p>","","","","","","","","",""
"html-keyboard-response","310","741193","0.0-14.0-0.59","5bcd11401662020001fe82c1","650c16f0f2faf8d7a0d14c09","651c1ae1ac30c695c2238d43","null","null","<p style=""font-size: 60px; font-family: BACS"">mhtcPMd</p>","","","","","","","","",""
"html-keyboard-response","311","742201","0.0-14.0-0.60","5bcd11401662020001fe82c1","650c16f0f2faf8d7a0d14c09","651c1ae1ac30c695c2238d43","null","null","<p style=""font-size: 60px; font-family: BACS"">AlNUrkra</p>","","","","","","","","",""
"html-keyboard-response","312","743209","0.0-14.0-0.61","5bcd11401662020001fe82c1","650c16f0f2faf8d7a0d14c09","651c1ae1ac30c695c2238d43","null","null","<p style=""font-size: 60px; font-family: BACS"">DBklBYhT</p>","","","","","","","","",""
"html-keyboard-response","313","744215","0.0-14.0-0.62","5bcd11401662020001fe82c1","650c16f0f2faf8d7a0d14c09","651c1ae1ac30c695c2238d43","null","null","<p style=""font-size: 60px; font-family: BACS"">dClOCAPEM</p>","","","","","","","","",""
"html-keyboard-response","314","745221","0.0-14.0-0.63","5bcd11401662020001fe82c1","650c16f0f2faf8d7a0d14c09","651c1ae1ac30c695c2238d43","null","null","<p style=""font-size: 60px; font-family: BACS"">UvOGrkra</p>","","","","","","","","",""
"html-keyboard-response","315","746230","0.0-14.0-0.64","5bcd11401662020001fe82c1","650c16f0f2faf8d7a0d14c09","651c1ae1ac30c695c2238d43","null","null","<p style=""font-size: 60px; font-family: BACS"">kKRCPMd</p>","","","","","","","","",""
"html-keyboard-response","316","747234","0.0-14.0-0.65","5bcd11401662020001fe82c1","650c16f0f2faf8d7a0d14c09","651c1ae1ac30c695c2238d43","null","null","<p style=""font-size: 60px; font-family: BACS"">NAacQJcL</p>","","","","","","","","",""
"html-keyboard-response","317","748240","0.0-14.0-0.66","5bcd11401662020001fe82c1","650c16f0f2faf8d7a0d14c09","651c1ae1ac30c695c2238d43","null","null","<p style=""font-size: 60px; font-family: BACS"">OmtlDPMd</p>","","","","","","","","",""
"html-keyboard-response","318","749248","0.0-14.0-0.67","5bcd11401662020001fe82c1","650c16f0f2faf8d7a0d14c09","651c1ae1ac30c695c2238d43","null","null","<p style=""font-size: 60px; font-family: BACS"">UYZlZkGua</p>","","","","","","","","",""
"html-keyboard-response","319","750256","0.0-14.0-0.68","5bcd11401662020001fe82c1","650c16f0f2faf8d7a0d14c09","651c1ae1ac30c695c2238d43","null","null","<p style=""font-size: 60px; font-family: BACS"">PhktkmtKP</p>","","","","","","","","",""
"html-keyboard-response","320","751265","0.0-14.0-0.69","5bcd11401662020001fe82c1","650c16f0f2faf8d7a0d14c09","651c1ae1ac30c695c2238d43","null","null","<p style=""font-size: 60px; font-family: BACS"">DBklPMd</p>","","","","","","","","",""
"html-keyboard-response","321","752273","0.0-14.0-0.70","5bcd11401662020001fe82c1","650c16f0f2faf8d7a0d14c09","651c1ae1ac30c695c2238d43","null","null","<p style=""font-size: 60px; font-family: BACS"">OmtlDAPEM</p>","","","","","","","","",""
"html-keyboard-response","322","753281","0.0-14.0-0.71","5bcd11401662020001fe82c1","650c16f0f2faf8d7a0d14c09","651c1ae1ac30c695c2238d43","null","null","<p style=""font-size: 60px; font-family: BACS"">uvaUJcL</p>","","","","","","","","",""
"html-keyboard-response","323","754287","0.0-14.0-0.72","5bcd11401662020001fe82c1","650c16f0f2faf8d7a0d14c09","651c1ae1ac30c695c2238d43","null","null","<p style=""font-size: 60px; font-family: BACS"">NAacQkbu</p>","","","","","","","","",""
"html-keyboard-response","324","755294","0.0-14.0-0.73","5bcd11401662020001fe82c1","650c16f0f2faf8d7a0d14c09","651c1ae1ac30c695c2238d43","null","null","<p style=""font-size: 60px; font-family: BACS"">DBklAPEM</p>","","","","","","","","",""
"html-keyboard-response","325","756302","0.0-14.0-0.74","5bcd11401662020001fe82c1","650c16f0f2faf8d7a0d14c09","651c1ae1ac30c695c2238d43","null","null","<p style=""font-size: 60px; font-family: BACS"">UYZlZJcL</p>","","","","","","","","",""
"html-keyboard-response","326","757310","0.0-14.0-0.75","5bcd11401662020001fe82c1","650c16f0f2faf8d7a0d14c09","651c1ae1ac30c695c2238d43","null","null","<p style=""font-size: 60px; font-family: BACS"">AlNUkGua</p>","","","","","","","","",""
"html-keyboard-response","327","758318","0.0-14.0-0.76","5bcd11401662020001fe82c1","650c16f0f2faf8d7a0d14c09","651c1ae1ac30c695c2238d43","null","null","<p style=""font-size: 60px; font-family: BACS"">OmtlDBYhT</p>","","","","","","","","",""
"html-keyboard-response","328","759325","0.0-14.0-0.77","5bcd11401662020001fe82c1","650c16f0f2faf8d7a0d14c09","651c1ae1ac30c695c2238d43","null","null","<p style=""font-size: 60px; font-family: BACS"">UvOGkbu</p>","","","","","","","","",""
"html-keyboard-response","329","760333","0.0-14.0-0.78","5bcd11401662020001fe82c1","650c16f0f2faf8d7a0d14c09","651c1ae1ac30c695c2238d43","null","null","<p style=""font-size: 60px; font-family: BACS"">GNAcaYbN</p>","","","","","","","","",""
"html-keyboard-response","330","761341","0.0-14.0-0.79","5bcd11401662020001fe82c1","650c16f0f2faf8d7a0d14c09","651c1ae1ac30c695c2238d43","null","null","<p style=""font-size: 60px; font-family: BACS"">GLYrAkGua</p>","","","","","","","","",""
"html-keyboard-response","331","780140","0.0-15.0","5bcd11401662020001fe82c1","650c16f0f2faf8d7a0d14c09","651c1ae1ac30c695c2238d43","18799"," ","<p>Great, you've seen the fourth block of words. You may now take a short break.</p>
      <p>Press the spacebar when you're ready to continue.</p>","","","","","","","","",""
"html-keyboard-response","332","781149","0.0-16.0-0.0","5bcd11401662020001fe82c1","650c16f0f2faf8d7a0d14c09","651c1ae1ac30c695c2238d43","null","null","<p style=""font-size: 60px; font-family: BACS"">dRbDbBYhT</p>","","","","","","","","",""
"html-keyboard-response","333","782157","0.0-16.0-0.1","5bcd11401662020001fe82c1","650c16f0f2faf8d7a0d14c09","651c1ae1ac30c695c2238d43","null","null","<p style=""font-size: 60px; font-family: BACS"">dRbDbBYhT</p>","","","","","","","","",""
"html-keyboard-response","334","783166","0.0-16.0-0.2","5bcd11401662020001fe82c1","650c16f0f2faf8d7a0d14c09","651c1ae1ac30c695c2238d43","null","null","<p style=""font-size: 60px; font-family: BACS"">dRbDbBYhT</p>","","","","","","","","",""
"html-keyboard-response","335","784174","0.0-16.0-0.3","5bcd11401662020001fe82c1","650c16f0f2faf8d7a0d14c09","651c1ae1ac30c695c2238d43","null","null","<p style=""font-size: 60px; font-family: BACS"">dRbDbBYhT</p>","","","","","","","","",""
"html-keyboard-response","336","785182","0.0-16.0-0.4","5bcd11401662020001fe82c1","650c16f0f2faf8d7a0d14c09","651c1ae1ac30c695c2238d43","null","null","<p style=""font-size: 60px; font-family: BACS"">dRbDbBYhT</p>","","","","","","","","",""
"html-keyboard-response","337","786188","0.0-16.0-0.5","5bcd11401662020001fe82c1","650c16f0f2faf8d7a0d14c09","651c1ae1ac30c695c2238d43","null","null","<p style=""font-size: 60px; font-family: BACS"">dRbDbBYhT</p>","","","","","","","","",""
"html-keyboard-response","338","787196","0.0-16.0-0.6","5bcd11401662020001fe82c1","650c16f0f2faf8d7a0d14c09","651c1ae1ac30c695c2238d43","null","null","<p style=""font-size: 60px; font-family: BACS"">dRbDbBYhT</p>","","","","","","","","",""
"html-keyboard-response","339","788205","0.0-16.0-0.7","5bcd11401662020001fe82c1","650c16f0f2faf8d7a0d14c09","651c1ae1ac30c695c2238d43","null","null","<p style=""font-size: 60px; font-family: BACS"">dRbDbBYhT</p>","","","","","","","","",""
"html-keyboard-response","340","789211","0.0-16.0-0.8","5bcd11401662020001fe82c1","650c16f0f2faf8d7a0d14c09","651c1ae1ac30c695c2238d43","null","null","<p style=""font-size: 60px; font-family: BACS"">dRbDbBYhT</p>","","","","","","","","",""
"html-keyboard-response","341","790217","0.0-16.0-0.9","5bcd11401662020001fe82c1","650c16f0f2faf8d7a0d14c09","651c1ae1ac30c695c2238d43","null","null","<p style=""font-size: 60px; font-family: BACS"">dRbDbBYhT</p>","","","","","","","","",""
"html-keyboard-response","342","791221","0.0-16.0-0.10","5bcd11401662020001fe82c1","650c16f0f2faf8d7a0d14c09","651c1ae1ac30c695c2238d43","null","null","<p style=""font-size: 60px; font-family: BACS"">dRbDbBYhT</p>","","","","","","","","",""
"html-keyboard-response","343","792230","0.0-16.0-0.11","5bcd11401662020001fe82c1","650c16f0f2faf8d7a0d14c09","651c1ae1ac30c695c2238d43","null","null","<p style=""font-size: 60px; font-family: BACS"">dRbDbBYhT</p>","","","","","","","","",""
"html-keyboard-response","344","793238","0.0-16.0-0.12","5bcd11401662020001fe82c1","650c16f0f2faf8d7a0d14c09","651c1ae1ac30c695c2238d43","null","null","<p style=""font-size: 60px; font-family: BACS"">dRbDbBYhT</p>","","","","","","","","",""
"html-keyboard-response","345","794246","0.0-16.0-0.13","5bcd11401662020001fe82c1","650c16f0f2faf8d7a0d14c09","651c1ae1ac30c695c2238d43","null","null","<p style=""font-size: 60px; font-family: BACS"">dRbDbBYhT</p>","","","","","","","","",""
"html-keyboard-response","346","795252","0.0-16.0-0.14","5bcd11401662020001fe82c1","650c16f0f2faf8d7a0d14c09","651c1ae1ac30c695c2238d43","null","null","<p style=""font-size: 60px; font-family: BACS"">dRbDbBYhT</p>","","","","","","","","",""
"html-keyboard-response","347","796256","0.0-16.0-0.15","5bcd11401662020001fe82c1","650c16f0f2faf8d7a0d14c09","651c1ae1ac30c695c2238d43","null","null","<p style=""font-size: 60px; font-family: BACS"">dRbDbBYhT</p>","","","","","","","","",""
"html-keyboard-response","348","797263","0.0-16.0-0.16","5bcd11401662020001fe82c1","650c16f0f2faf8d7a0d14c09","651c1ae1ac30c695c2238d43","null","null","<p style=""font-size: 60px; font-family: BACS"">dRbDbBYhT</p>","","","","","","","","",""
"html-keyboard-response","349","798269","0.0-16.0-0.17","5bcd11401662020001fe82c1","650c16f0f2faf8d7a0d14c09","651c1ae1ac30c695c2238d43","null","null","<p style=""font-size: 60px; font-family: BACS"">dRbDbBYhT</p>","","","","","","","","",""
"html-keyboard-response","350","799277","0.0-16.0-0.18","5bcd11401662020001fe82c1","650c16f0f2faf8d7a0d14c09","651c1ae1ac30c695c2238d43","null","null","<p style=""font-size: 60px; font-family: BACS"">dRbDbBYhT</p>","","","","","","","","",""
"html-keyboard-response","351","800557","0.0-16.0-0.19","5bcd11401662020001fe82c1","650c16f0f2faf8d7a0d14c09","651c1ae1ac30c695c2238d43","null","null","<p style=""font-size: 60px; font-family: BACS"">dRbDbBYhT</p>","","","","","","","","",""
"html-keyboard-response","352","801566","0.0-16.0-0.20","5bcd11401662020001fe82c1","650c16f0f2faf8d7a0d14c09","651c1ae1ac30c695c2238d43","null","null","<p style=""font-size: 60px; font-family: BACS"">dRbDbBYhT</p>","","","","","","","","",""
"html-keyboard-response","353","803562","0.0-16.0-0.21","5bcd11401662020001fe82c1","650c16f0f2faf8d7a0d14c09","651c1ae1ac30c695c2238d43","null","null","<p style=""font-size: 60px; font-family: BACS"">dRbDbBYhT</p>","","","","","","","","",""
"html-keyboard-response","354","804568","0.0-16.0-0.22","5bcd11401662020001fe82c1","650c16f0f2faf8d7a0d14c09","651c1ae1ac30c695c2238d43","null","null","<p style=""font-size: 60px; font-family: BACS"">dRbDbBYhT</p>","","","","","","","","",""
"html-keyboard-response","355","805573","0.0-16.0-0.23","5bcd11401662020001fe82c1","650c16f0f2faf8d7a0d14c09","651c1ae1ac30c695c2238d43","null","null","<p style=""font-size: 60px; font-family: BACS"">dRbDbBYhT</p>","","","","","","","","",""
"html-keyboard-response","356","806581","0.0-16.0-0.24","5bcd11401662020001fe82c1","650c16f0f2faf8d7a0d14c09","651c1ae1ac30c695c2238d43","null","null","<p style=""font-size: 60px; font-family: BACS"">dRbDbBYhT</p>","","","","","","","","",""
"html-keyboard-response","357","807587","0.0-16.0-0.25","5bcd11401662020001fe82c1","650c16f0f2faf8d7a0d14c09","651c1ae1ac30c695c2238d43","null","null","<p style=""font-size: 60px; font-family: BACS"">dRbDbBYhT</p>","","","","","","","","",""
"html-keyboard-response","358","808593","0.0-16.0-0.26","5bcd11401662020001fe82c1","650c16f0f2faf8d7a0d14c09","651c1ae1ac30c695c2238d43","null","null","<p style=""font-size: 60px; font-family: BACS"">dRbDbBYhT</p>","","","","","","","","",""
"html-keyboard-response","359","809601","0.0-16.0-0.27","5bcd11401662020001fe82c1","650c16f0f2faf8d7a0d14c09","651c1ae1ac30c695c2238d43","null","null","<p style=""font-size: 60px; font-family: BACS"">dRbDbBYhT</p>","","","","","","","","",""
"html-keyboard-response","360","810606","0.0-16.0-0.28","5bcd11401662020001fe82c1","650c16f0f2faf8d7a0d14c09","651c1ae1ac30c695c2238d43","null","null","<p style=""font-size: 60px; font-family: BACS"">dRbDbBYhT</p>","","","","","","","","",""
"html-keyboard-response","361","811614","0.0-16.0-0.29","5bcd11401662020001fe82c1","650c16f0f2faf8d7a0d14c09","651c1ae1ac30c695c2238d43","null","null","<p style=""font-size: 60px; font-family: BACS"">dRbDbBYhT</p>","","","","","","","","",""
"html-keyboard-response","362","812620","0.0-16.0-0.30","5bcd11401662020001fe82c1","650c16f0f2faf8d7a0d14c09","651c1ae1ac30c695c2238d43","null","null","<p style=""font-size: 60px; font-family: BACS"">dRbDbBYhT</p>","","","","","","","","",""
"html-keyboard-response","363","813624","0.0-16.0-0.31","5bcd11401662020001fe82c1","650c16f0f2faf8d7a0d14c09","651c1ae1ac30c695c2238d43","null","null","<p style=""font-size: 60px; font-family: BACS"">dRbDbBYhT</p>","","","","","","","","",""
"html-keyboard-response","364","814628","0.0-16.0-0.32","5bcd11401662020001fe82c1","650c16f0f2faf8d7a0d14c09","651c1ae1ac30c695c2238d43","null","null","<p style=""font-size: 60px; font-family: BACS"">dRbDbBYhT</p>","","","","","","","","",""
"html-keyboard-response","365","815637","0.0-16.0-0.33","5bcd11401662020001fe82c1","650c16f0f2faf8d7a0d14c09","651c1ae1ac30c695c2238d43","null","null","<p style=""font-size: 60px; font-family: BACS"">dRbDbBYhT</p>","","","","","","","","",""
"html-keyboard-response","366","816645","0.0-16.0-0.34","5bcd11401662020001fe82c1","650c16f0f2faf8d7a0d14c09","651c1ae1ac30c695c2238d43","null","null","<p style=""font-size: 60px; font-family: BACS"">dRbDbBYhT</p>","","","","","","","","",""
"html-keyboard-response","367","817653","0.0-16.0-0.35","5bcd11401662020001fe82c1","650c16f0f2faf8d7a0d14c09","651c1ae1ac30c695c2238d43","null","null","<p style=""font-size: 60px; font-family: BACS"">dRbDbBYhT</p>","","","","","","","","",""
"html-keyboard-response","368","818661","0.0-16.0-0.36","5bcd11401662020001fe82c1","650c16f0f2faf8d7a0d14c09","651c1ae1ac30c695c2238d43","null","null","<p style=""font-size: 60px; font-family: BACS"">dRbDbBYhT</p>","","","","","","","","",""
"html-keyboard-response","369","819670","0.0-16.0-0.37","5bcd11401662020001fe82c1","650c16f0f2faf8d7a0d14c09","651c1ae1ac30c695c2238d43","null","null","<p style=""font-size: 60px; font-family: BACS"">dRbDbBYhT</p>","","","","","","","","",""
"html-keyboard-response","370","820676","0.0-16.0-0.38","5bcd11401662020001fe82c1","650c16f0f2faf8d7a0d14c09","651c1ae1ac30c695c2238d43","null","null","<p style=""font-size: 60px; font-family: BACS"">dRbDbBYhT</p>","","","","","","","","",""
"html-keyboard-response","371","821682","0.0-16.0-0.39","5bcd11401662020001fe82c1","650c16f0f2faf8d7a0d14c09","651c1ae1ac30c695c2238d43","null","null","<p style=""font-size: 60px; font-family: BACS"">dRbDbBYhT</p>","","","","","","","","",""
"html-keyboard-response","372","822688","0.0-16.0-0.40","5bcd11401662020001fe82c1","650c16f0f2faf8d7a0d14c09","651c1ae1ac30c695c2238d43","null","null","<p style=""font-size: 60px; font-family: BACS"">dRbDbBYhT</p>","","","","","","","","",""
"html-keyboard-response","373","823692","0.0-16.0-0.41","5bcd11401662020001fe82c1","650c16f0f2faf8d7a0d14c09","651c1ae1ac30c695c2238d43","null","null","<p style=""font-size: 60px; font-family: BACS"">dRbDbBYhT</p>","","","","","","","","",""
"html-keyboard-response","374","824701","0.0-16.0-0.42","5bcd11401662020001fe82c1","650c16f0f2faf8d7a0d14c09","651c1ae1ac30c695c2238d43","null","null","<p style=""font-size: 60px; font-family: BACS"">dRbDbBYhT</p>","","","","","","","","",""
"html-keyboard-response","375","825709","0.0-16.0-0.43","5bcd11401662020001fe82c1","650c16f0f2faf8d7a0d14c09","651c1ae1ac30c695c2238d43","null","null","<p style=""font-size: 60px; font-family: BACS"">dRbDbBYhT</p>","","","","","","","","",""
"html-keyboard-response","376","826716","0.0-16.0-0.44","5bcd11401662020001fe82c1","650c16f0f2faf8d7a0d14c09","651c1ae1ac30c695c2238d43","null","null","<p style=""font-size: 60px; font-family: BACS"">dRbDbBYhT</p>","","","","","","","","",""
"html-keyboard-response","377","827722","0.0-16.0-0.45","5bcd11401662020001fe82c1","650c16f0f2faf8d7a0d14c09","651c1ae1ac30c695c2238d43","null","null","<p style=""font-size: 60px; font-family: BACS"">dRbDbBYhT</p>","","","","","","","","",""
"html-keyboard-response","378","828728","0.0-16.0-0.46","5bcd11401662020001fe82c1","650c16f0f2faf8d7a0d14c09","651c1ae1ac30c695c2238d43","null","null","<p style=""font-size: 60px; font-family: BACS"">dRbDbBYhT</p>","","","","","","","","",""
"html-keyboard-response","379","829736","0.0-16.0-0.47","5bcd11401662020001fe82c1","650c16f0f2faf8d7a0d14c09","651c1ae1ac30c695c2238d43","null","null","<p style=""font-size: 60px; font-family: BACS"">dRbDbBYhT</p>","","","","","","","","",""
"html-keyboard-response","380","830742","0.0-16.0-0.48","5bcd11401662020001fe82c1","650c16f0f2faf8d7a0d14c09","651c1ae1ac30c695c2238d43","null","null","<p style=""font-size: 60px; font-family: BACS"">dRbDbBYhT</p>","","","","","","","","",""
"html-keyboard-response","381","831744","0.0-16.0-0.49","5bcd11401662020001fe82c1","650c16f0f2faf8d7a0d14c09","651c1ae1ac30c695c2238d43","null","null","<p style=""font-size: 60px; font-family: BACS"">dRbDbBYhT</p>","","","","","","","","",""
"html-keyboard-response","382","832751","0.0-16.0-0.50","5bcd11401662020001fe82c1","650c16f0f2faf8d7a0d14c09","651c1ae1ac30c695c2238d43","null","null","<p style=""font-size: 60px; font-family: BACS"">dRbDbBYhT</p>","","","","","","","","",""
"html-keyboard-response","383","833755","0.0-16.0-0.51","5bcd11401662020001fe82c1","650c16f0f2faf8d7a0d14c09","651c1ae1ac30c695c2238d43","null","null","<p style=""font-size: 60px; font-family: BACS"">dRbDbBYhT</p>","","","","","","","","",""
"html-keyboard-response","384","834761","0.0-16.0-0.52","5bcd11401662020001fe82c1","650c16f0f2faf8d7a0d14c09","651c1ae1ac30c695c2238d43","null","null","<p style=""font-size: 60px; font-family: BACS"">dRbDbBYhT</p>","","","","","","","","",""
"html-keyboard-response","385","835769","0.0-16.0-0.53","5bcd11401662020001fe82c1","650c16f0f2faf8d7a0d14c09","651c1ae1ac30c695c2238d43","null","null","<p style=""font-size: 60px; font-family: BACS"">dRbDbBYhT</p>","","","","","","","","",""
"html-keyboard-response","386","836773","0.0-16.0-0.54","5bcd11401662020001fe82c1","650c16f0f2faf8d7a0d14c09","651c1ae1ac30c695c2238d43","null","null","<p style=""font-size: 60px; font-family: BACS"">dRbDbBYhT</p>","","","","","","","","",""
"html-keyboard-response","387","837780","0.0-16.0-0.55","5bcd11401662020001fe82c1","650c16f0f2faf8d7a0d14c09","651c1ae1ac30c695c2238d43","null","null","<p style=""font-size: 60px; font-family: BACS"">dRbDbBYhT</p>","","","","","","","","",""
"html-keyboard-response","388","838788","0.0-16.0-0.56","5bcd11401662020001fe82c1","650c16f0f2faf8d7a0d14c09","651c1ae1ac30c695c2238d43","null","null","<p style=""font-size: 60px; font-family: BACS"">dRbDbBYhT</p>","","","","","","","","",""
"html-keyboard-response","389","839796","0.0-16.0-0.57","5bcd11401662020001fe82c1","650c16f0f2faf8d7a0d14c09","651c1ae1ac30c695c2238d43","null","null","<p style=""font-size: 60px; font-family: BACS"">dRbDbBYhT</p>","","","","","","","","",""
"html-keyboard-response","390","840801","0.0-16.0-0.58","5bcd11401662020001fe82c1","650c16f0f2faf8d7a0d14c09","651c1ae1ac30c695c2238d43","null","null","<p style=""font-size: 60px; font-family: BACS"">dRbDbBYhT</p>","","","","","","","","",""
"html-keyboard-response","391","841805","0.0-16.0-0.59","5bcd11401662020001fe82c1","650c16f0f2faf8d7a0d14c09","651c1ae1ac30c695c2238d43","null","null","<p style=""font-size: 60px; font-family: BACS"">dRbDbBYhT</p>","","","","","","","","",""
"html-keyboard-response","392","842813","0.0-16.0-0.60","5bcd11401662020001fe82c1","650c16f0f2faf8d7a0d14c09","651c1ae1ac30c695c2238d43","null","null","<p style=""font-size: 60px; font-family: BACS"">dRbDbBYhT</p>","","","","","","","","",""
"html-keyboard-response","393","843821","0.0-16.0-0.61","5bcd11401662020001fe82c1","650c16f0f2faf8d7a0d14c09","651c1ae1ac30c695c2238d43","null","null","<p style=""font-size: 60px; font-family: BACS"">dRbDbBYhT</p>","","","","","","","","",""
"html-keyboard-response","394","844827","0.0-16.0-0.62","5bcd11401662020001fe82c1","650c16f0f2faf8d7a0d14c09","651c1ae1ac30c695c2238d43","null","null","<p style=""font-size: 60px; font-family: BACS"">dRbDbBYhT</p>","","","","","","","","",""
"html-keyboard-response","395","845834","0.0-16.0-0.63","5bcd11401662020001fe82c1","650c16f0f2faf8d7a0d14c09","651c1ae1ac30c695c2238d43","null","null","<p style=""font-size: 60px; font-family: BACS"">dRbDbBYhT</p>","","","","","","","","",""
"html-keyboard-response","396","846842","0.0-16.0-0.64","5bcd11401662020001fe82c1","650c16f0f2faf8d7a0d14c09","651c1ae1ac30c695c2238d43","null","null","<p style=""font-size: 60px; font-family: BACS"">dRbDbBYhT</p>","","","","","","","","",""
"html-keyboard-response","397","847850","0.0-16.0-0.65","5bcd11401662020001fe82c1","650c16f0f2faf8d7a0d14c09","651c1ae1ac30c695c2238d43","null","null","<p style=""font-size: 60px; font-family: BACS"">dRbDbBYhT</p>","","","","","","","","",""
"html-keyboard-response","398","848856","0.0-16.0-0.66","5bcd11401662020001fe82c1","650c16f0f2faf8d7a0d14c09","651c1ae1ac30c695c2238d43","null","null","<p style=""font-size: 60px; font-family: BACS"">dRbDbBYhT</p>","","","","","","","","",""
