"trial_type","trial_index","time_elapsed","internal_node_id","subject_id","study_id","session_id","rt","response","stimulus","success","item","task","correct_response","testing_condition","correct","target","confound","name"
"pavlovia","0","784","0.0-0.0","5ee83da8817af0000d47448f","650c16f0f2faf8d7a0d14c09","651c0aa9d176484094718d20","","","","","","","","","","","",""
"survey-html-form","1","8147","0.0-1.0","5ee83da8817af0000d47448f","650c16f0f2faf8d7a0d14c09","651c0aa9d176484094718d20","7362","{""ID"":""5ee83da8817af0000d47448f""}","","","","","","","","","",""
"html-keyboard-response","2","87715","0.0-2.0","5ee83da8817af0000d47448f","650c16f0f2faf8d7a0d14c09","651c0aa9d176484094718d20","79567"," ","<p style=""font-size: 15px;"">Before beginning, we ask that you read the consent information and confirm your agreement to participate in the experiment.</p>
      <p style=""font-size: 15px;""> We ask that you remember that this is a research project and that your participation is entirely voluntary. You can stop your participation at any time, without needing to provide any explanation. The study we're asking you to participate in aims at examining how readers process written words. You will be engaged in a session of apprximately 20 minutes, followed by a brief questionnaire. You will have the opportunity to take a few breaks during the experiment. You will be paid £4 for your participation, corresponding to a rate of £8/hour. While this experiment looks at cognitive faculties, this experiment doesn't constitute clinical proof of eventual pathologies.</p>
      <p style=""font-size: 15px;"">All of the information collected thanks to yours and others' participation will be held in a secure password-protected server, and will not be shared with anyone not authorised to view it. Your personal information will be kept with an arbitrary participant ID. Thanks to this data anonymity process, any researcher analysing the data won't be able to track the information back to a specific participant. Therefore, this process will make identifying you impossibile, even when results from the study will be published in scientific reviews, presented at congresses, or at any other public forum. More generally, the collected data will be treated in accordance with the laws on privacy and conformity to the Legislative Degree n. 196 ""Code regarding the protection of personal data"" of the 30th of June 2003 and to the European Regulation 2016/670 (General Data Protection Regulation - GDPR). The Data Protection Officer is Avv. Valentina Carollo, who can be contacted at the following email addresses: <a href=""mailto:dpo@sissa.it"">dpo@sissa.it</a> or <a href=""mailto:rpd@sissa.it"">rpd@sissa.it</a> - PEC: <a href=""mailto:protocollo@pec.sissa.it"">protocollo@pec.sissa.it</a>.</p>
      <p style=""font-size: 15px;""> Before expressing your consent to participate, we would like to remind you again that in case you need explanations on any aspect of the experimental procedure, the researcher is at your disposition (<a href=""mailto:aliebelt@sissa.it"">aliebelt@sissa.it</a>, <a href=""mailto:davide.crepaldi@sissa.it"">davide.crepaldi@sissa.it</a>).</p>
      <p style=""font-size: 15px;"">If you would like to download the informed consent form, you can do so here: <a href=""BASL-Informed_Consent.pdf"" download>informed consent form</a>.</p>
      <p style=""font-size: 15px;"">We ask that you press the spacebar to proceed to the consent section.</p>","","","","","","","","",""
"survey-html-form","3","108336","0.0-3.0","5ee83da8817af0000d47448f","650c16f0f2faf8d7a0d14c09","651c0aa9d176484094718d20","20620","{""consent1"":""YES"",""consent2"":""YES"",""consent3"":""YES"",""consent4"":""YES"",""consent5"":""YES"",""consent6"":""YES""}","","","","","","","","","",""
"fullscreen","4","122579","0.0-4.0","5ee83da8817af0000d47448f","650c16f0f2faf8d7a0d14c09","651c0aa9d176484094718d20","","","","true","","","","","","","",""
"html-keyboard-response","5","137053","0.0-5.0","5ee83da8817af0000d47448f","650c16f0f2faf8d7a0d14c09","651c0aa9d176484094718d20","14474"," ","<p>Welcome, and thank you very much for your time!</p>
      <p>In this experiment, you'll be a language expert who's been asked to take a look at words that Earth has received in its first communication with aliens. Your task, in this first part of the experiment, is to pay close attention to the words you'll be shown; later, world leaders will ask you questions on what you saw. The words will be shown to you quite quickly; it seems that the aliens were in a hurry :-)</p>
      <p>Press the spacebar to continue.<p>","","","","","","","","",""
"html-keyboard-response","6","137116","0.0-6.0","5ee83da8817af0000d47448f","650c16f0f2faf8d7a0d14c09","651c0aa9d176484094718d20","null","null","<p style=""font-size: 120px; font-family: BACS""> </p>","","","","","","","","",""
"html-keyboard-response","7","142507","0.0-7.0","5ee83da8817af0000d47448f","650c16f0f2faf8d7a0d14c09","651c0aa9d176484094718d20","5390"," ","<p>Here is an example of the words you'll see:</p>
      <img src='esempio.png' height='400px'>
      <p>When you're ready to begin, press the spacebar.</p></div>","","","","","","","","",""
"html-keyboard-response","8","143509","0.0-8.0-0.0","5ee83da8817af0000d47448f","650c16f0f2faf8d7a0d14c09","651c0aa9d176484094718d20","null","null","<p style=""font-size: 60px; font-family: BACS"">AbkaGUa</p>","","","","","","","","",""
"html-keyboard-response","9","144519","0.0-8.0-0.1","5ee83da8817af0000d47448f","650c16f0f2faf8d7a0d14c09","651c0aa9d176484094718d20","null","null","<p style=""font-size: 60px; font-family: BACS"">bAdkEcR</p>","","","","","","","","",""
"html-keyboard-response","10","145538","0.0-8.0-0.2","5ee83da8817af0000d47448f","650c16f0f2faf8d7a0d14c09","651c0aa9d176484094718d20","null","null","<p style=""font-size: 60px; font-family: BACS"">AbkaLkNc</p>","","","","","","","","",""
"html-keyboard-response","11","146560","0.0-8.0-0.3","5ee83da8817af0000d47448f","650c16f0f2faf8d7a0d14c09","651c0aa9d176484094718d20","null","null","<p style=""font-size: 60px; font-family: BACS"">uvaUkam</p>","","","","","","","","",""
"html-keyboard-response","12","147578","0.0-8.0-0.4","5ee83da8817af0000d47448f","650c16f0f2faf8d7a0d14c09","651c0aa9d176484094718d20","null","null","<p style=""font-size: 60px; font-family: BACS"">KMDYtmCd</p>","","","","","","","","",""
"html-keyboard-response","13","148589","0.0-8.0-0.5","5ee83da8817af0000d47448f","650c16f0f2faf8d7a0d14c09","651c0aa9d176484094718d20","null","null","<p style=""font-size: 60px; font-family: BACS"">LcNUJLkNc</p>","","","","","","","","",""
"html-keyboard-response","14","149608","0.0-8.0-0.6","5ee83da8817af0000d47448f","650c16f0f2faf8d7a0d14c09","651c0aa9d176484094718d20","null","null","<p style=""font-size: 60px; font-family: BACS"">lYruakam</p>","","","","","","","","",""
"html-keyboard-response","15","150615","0.0-8.0-0.7","5ee83da8817af0000d47448f","650c16f0f2faf8d7a0d14c09","651c0aa9d176484094718d20","null","null","<p style=""font-size: 60px; font-family: BACS"">DBklmKcD</p>","","","","","","","","",""
"html-keyboard-response","16","151634","0.0-8.0-0.8","5ee83da8817af0000d47448f","650c16f0f2faf8d7a0d14c09","651c0aa9d176484094718d20","null","null","<p style=""font-size: 60px; font-family: BACS"">BKDRYEcR</p>","","","","","","","","",""
"html-keyboard-response","17","152639","0.0-8.0-0.9","5ee83da8817af0000d47448f","650c16f0f2faf8d7a0d14c09","651c0aa9d176484094718d20","null","null","<p style=""font-size: 60px; font-family: BACS"">lTmOBbM</p>","","","","","","","","",""
"html-keyboard-response","18","153640","0.0-8.0-0.10","5ee83da8817af0000d47448f","650c16f0f2faf8d7a0d14c09","651c0aa9d176484094718d20","null","null","<p style=""font-size: 60px; font-family: BACS"">YObAmKcD</p>","","","","","","","","",""
"html-keyboard-response","19","154645","0.0-8.0-0.11","5ee83da8817af0000d47448f","650c16f0f2faf8d7a0d14c09","651c0aa9d176484094718d20","null","null","<p style=""font-size: 60px; font-family: BACS"">kZUbZAUu</p>","","","","","","","","",""
"html-keyboard-response","20","155656","0.0-8.0-0.12","5ee83da8817af0000d47448f","650c16f0f2faf8d7a0d14c09","651c0aa9d176484094718d20","null","null","<p style=""font-size: 60px; font-family: BACS"">YKRkBbM</p>","","","","","","","","",""
"html-keyboard-response","21","156667","0.0-8.0-0.13","5ee83da8817af0000d47448f","650c16f0f2faf8d7a0d14c09","651c0aa9d176484094718d20","null","null","<p style=""font-size: 60px; font-family: BACS"">uvaULkNc</p>","","","","","","","","",""
"html-keyboard-response","22","157696","0.0-8.0-0.14","5ee83da8817af0000d47448f","650c16f0f2faf8d7a0d14c09","651c0aa9d176484094718d20","null","null","<p style=""font-size: 60px; font-family: BACS"">kZUbGUa</p>","","","","","","","","",""
"html-keyboard-response","23","158705","0.0-8.0-0.15","5ee83da8817af0000d47448f","650c16f0f2faf8d7a0d14c09","651c0aa9d176484094718d20","null","null","<p style=""font-size: 60px; font-family: BACS"">KMDYtBbM</p>","","","","","","","","",""
"html-keyboard-response","24","159705","0.0-8.0-0.16","5ee83da8817af0000d47448f","650c16f0f2faf8d7a0d14c09","651c0aa9d176484094718d20","null","null","<p style=""font-size: 60px; font-family: BACS"">bYuQZAUu</p>","","","","","","","","",""
"html-keyboard-response","25","160711","0.0-8.0-0.17","5ee83da8817af0000d47448f","650c16f0f2faf8d7a0d14c09","651c0aa9d176484094718d20","null","null","<p style=""font-size: 60px; font-family: BACS"">KMDYtmKcD</p>","","","","","","","","",""
"html-keyboard-response","26","161722","0.0-8.0-0.18","5ee83da8817af0000d47448f","650c16f0f2faf8d7a0d14c09","651c0aa9d176484094718d20","null","null","<p style=""font-size: 60px; font-family: BACS"">kZUbOcZJ</p>","","","","","","","","",""
"html-keyboard-response","27","162722","0.0-8.0-0.19","5ee83da8817af0000d47448f","650c16f0f2faf8d7a0d14c09","651c0aa9d176484094718d20","null","null","<p style=""font-size: 60px; font-family: BACS"">alJYZAUu</p>","","","","","","","","",""
"html-keyboard-response","28","163736","0.0-8.0-0.20","5ee83da8817af0000d47448f","650c16f0f2faf8d7a0d14c09","651c0aa9d176484094718d20","null","null","<p style=""font-size: 60px; font-family: BACS"">BKDRYBbM</p>","","","","","","","","",""
"html-keyboard-response","29","164746","0.0-8.0-0.21","5ee83da8817af0000d47448f","650c16f0f2faf8d7a0d14c09","651c0aa9d176484094718d20","null","null","<p style=""font-size: 60px; font-family: BACS"">bYuQkam</p>","","","","","","","","",""
"html-keyboard-response","30","165749","0.0-8.0-0.22","5ee83da8817af0000d47448f","650c16f0f2faf8d7a0d14c09","651c0aa9d176484094718d20","null","null","<p style=""font-size: 60px; font-family: BACS"">uAkrZAUu</p>","","","","","","","","",""
"html-keyboard-response","31","166757","0.0-8.0-0.23","5ee83da8817af0000d47448f","650c16f0f2faf8d7a0d14c09","651c0aa9d176484094718d20","null","null","<p style=""font-size: 60px; font-family: BACS"">bYuQLkNc</p>","","","","","","","","",""
"html-keyboard-response","32","167761","0.0-8.0-0.24","5ee83da8817af0000d47448f","650c16f0f2faf8d7a0d14c09","651c0aa9d176484094718d20","null","null","<p style=""font-size: 60px; font-family: BACS"">lTmOmCd</p>","","","","","","","","",""
"html-keyboard-response","33","168768","0.0-8.0-0.25","5ee83da8817af0000d47448f","650c16f0f2faf8d7a0d14c09","651c0aa9d176484094718d20","null","null","<p style=""font-size: 60px; font-family: BACS"">AbkaZAUu</p>","","","","","","","","",""
"html-keyboard-response","34","169771","0.0-8.0-0.26","5ee83da8817af0000d47448f","650c16f0f2faf8d7a0d14c09","651c0aa9d176484094718d20","null","null","<p style=""font-size: 60px; font-family: BACS"">YObAPMd</p>","","","","","","","","",""
"html-keyboard-response","35","170778","0.0-8.0-0.27","5ee83da8817af0000d47448f","650c16f0f2faf8d7a0d14c09","651c0aa9d176484094718d20","null","null","<p style=""font-size: 60px; font-family: BACS"">JdOAYGUa</p>","","","","","","","","",""
"html-keyboard-response","36","171809","0.0-8.0-0.28","5ee83da8817af0000d47448f","650c16f0f2faf8d7a0d14c09","651c0aa9d176484094718d20","null","null","<p style=""font-size: 60px; font-family: BACS"">alJYkam</p>","","","","","","","","",""
"html-keyboard-response","37","172819","0.0-8.0-0.29","5ee83da8817af0000d47448f","650c16f0f2faf8d7a0d14c09","651c0aa9d176484094718d20","null","null","<p style=""font-size: 60px; font-family: BACS"">bAdkPMd</p>","","","","","","","","",""
"html-keyboard-response","38","173834","0.0-8.0-0.30","5ee83da8817af0000d47448f","650c16f0f2faf8d7a0d14c09","651c0aa9d176484094718d20","null","null","<p style=""font-size: 60px; font-family: BACS"">BKDRYmCd</p>","","","","","","","","",""
"html-keyboard-response","39","174845","0.0-8.0-0.31","5ee83da8817af0000d47448f","650c16f0f2faf8d7a0d14c09","651c0aa9d176484094718d20","null","null","<p style=""font-size: 60px; font-family: BACS"">rvAJZAUu</p>","","","","","","","","",""
"html-keyboard-response","40","175852","0.0-8.0-0.32","5ee83da8817af0000d47448f","650c16f0f2faf8d7a0d14c09","651c0aa9d176484094718d20","null","null","<p style=""font-size: 60px; font-family: BACS"">bAdkmKcD</p>","","","","","","","","",""
"html-keyboard-response","41","176863","0.0-8.0-0.33","5ee83da8817af0000d47448f","650c16f0f2faf8d7a0d14c09","651c0aa9d176484094718d20","null","null","<p style=""font-size: 60px; font-family: BACS"">KMDYtEcR</p>","","","","","","","","",""
"html-keyboard-response","42","177867","0.0-8.0-0.34","5ee83da8817af0000d47448f","650c16f0f2faf8d7a0d14c09","651c0aa9d176484094718d20","null","null","<p style=""font-size: 60px; font-family: BACS"">PcBTmKcD</p>","","","","","","","","",""
"html-keyboard-response","43","178873","0.0-8.0-0.35","5ee83da8817af0000d47448f","650c16f0f2faf8d7a0d14c09","651c0aa9d176484094718d20","null","null","<p style=""font-size: 60px; font-family: BACS"">lYruaGUa</p>","","","","","","","","",""
"html-keyboard-response","44","179890","0.0-8.0-0.36","5ee83da8817af0000d47448f","650c16f0f2faf8d7a0d14c09","651c0aa9d176484094718d20","null","null","<p style=""font-size: 60px; font-family: BACS"">LcNUJkam</p>","","","","","","","","",""
"html-keyboard-response","45","180898","0.0-8.0-0.37","5ee83da8817af0000d47448f","650c16f0f2faf8d7a0d14c09","651c0aa9d176484094718d20","null","null","<p style=""font-size: 60px; font-family: BACS"">lTmOEcR</p>","","","","","","","","",""
"html-keyboard-response","46","181929","0.0-8.0-0.38","5ee83da8817af0000d47448f","650c16f0f2faf8d7a0d14c09","651c0aa9d176484094718d20","null","null","<p style=""font-size: 60px; font-family: BACS"">JdOAYLkNc</p>","","","","","","","","",""
"html-keyboard-response","47","182935","0.0-8.0-0.39","5ee83da8817af0000d47448f","650c16f0f2faf8d7a0d14c09","651c0aa9d176484094718d20","null","null","<p style=""font-size: 60px; font-family: BACS"">YKRkEcR</p>","","","","","","","","",""
"html-keyboard-response","48","183942","0.0-8.0-0.40","5ee83da8817af0000d47448f","650c16f0f2faf8d7a0d14c09","651c0aa9d176484094718d20","null","null","<p style=""font-size: 60px; font-family: BACS"">LcNUJGUa</p>","","","","","","","","",""
"html-keyboard-response","49","184949","0.0-8.0-0.41","5ee83da8817af0000d47448f","650c16f0f2faf8d7a0d14c09","651c0aa9d176484094718d20","null","null","<p style=""font-size: 60px; font-family: BACS"">rvAJOcZJ</p>","","","","","","","","",""
"html-keyboard-response","50","185980","0.0-8.0-0.42","5ee83da8817af0000d47448f","650c16f0f2faf8d7a0d14c09","651c0aa9d176484094718d20","null","null","<p style=""font-size: 60px; font-family: BACS"">DBklPMd</p>","","","","","","","","",""
"html-keyboard-response","51","186988","0.0-8.0-0.43","5ee83da8817af0000d47448f","650c16f0f2faf8d7a0d14c09","651c0aa9d176484094718d20","null","null","<p style=""font-size: 60px; font-family: BACS"">uvaUZAUu</p>","","","","","","","","",""
"html-keyboard-response","52","187990","0.0-8.0-0.44","5ee83da8817af0000d47448f","650c16f0f2faf8d7a0d14c09","651c0aa9d176484094718d20","null","null","<p style=""font-size: 60px; font-family: BACS"">COtBDPMd</p>","","","","","","","","",""
"html-keyboard-response","53","189002","0.0-8.0-0.45","5ee83da8817af0000d47448f","650c16f0f2faf8d7a0d14c09","651c0aa9d176484094718d20","null","null","<p style=""font-size: 60px; font-family: BACS"">YObAEcR</p>","","","","","","","","",""
"html-keyboard-response","54","190002","0.0-8.0-0.46","5ee83da8817af0000d47448f","650c16f0f2faf8d7a0d14c09","651c0aa9d176484094718d20","null","null","<p style=""font-size: 60px; font-family: BACS"">lYruaZAUu</p>","","","","","","","","",""
"html-keyboard-response","55","191023","0.0-8.0-0.47","5ee83da8817af0000d47448f","650c16f0f2faf8d7a0d14c09","651c0aa9d176484094718d20","null","null","<p style=""font-size: 60px; font-family: BACS"">COtBDmKcD</p>","","","","","","","","",""
"html-keyboard-response","56","192028","0.0-8.0-0.48","5ee83da8817af0000d47448f","650c16f0f2faf8d7a0d14c09","651c0aa9d176484094718d20","null","null","<p style=""font-size: 60px; font-family: BACS"">bYuQGUa</p>","","","","","","","","",""
"html-keyboard-response","57","193039","0.0-8.0-0.49","5ee83da8817af0000d47448f","650c16f0f2faf8d7a0d14c09","651c0aa9d176484094718d20","null","null","<p style=""font-size: 60px; font-family: BACS"">PcBTPMd</p>","","","","","","","","",""
"html-keyboard-response","58","194042","0.0-8.0-0.50","5ee83da8817af0000d47448f","650c16f0f2faf8d7a0d14c09","651c0aa9d176484094718d20","null","null","<p style=""font-size: 60px; font-family: BACS"">LcNUJOcZJ</p>","","","","","","","","",""
"html-keyboard-response","59","195048","0.0-8.0-0.51","5ee83da8817af0000d47448f","650c16f0f2faf8d7a0d14c09","651c0aa9d176484094718d20","null","null","<p style=""font-size: 60px; font-family: BACS"">OmtlDmCd</p>","","","","","","","","",""
"html-keyboard-response","60","196062","0.0-8.0-0.52","5ee83da8817af0000d47448f","650c16f0f2faf8d7a0d14c09","651c0aa9d176484094718d20","null","null","<p style=""font-size: 60px; font-family: BACS"">alJYOcZJ</p>","","","","","","","","",""
"html-keyboard-response","61","197067","0.0-8.0-0.53","5ee83da8817af0000d47448f","650c16f0f2faf8d7a0d14c09","651c0aa9d176484094718d20","null","null","<p style=""font-size: 60px; font-family: BACS"">Abkakam</p>","","","","","","","","",""
"html-keyboard-response","62","198068","0.0-8.0-0.54","5ee83da8817af0000d47448f","650c16f0f2faf8d7a0d14c09","651c0aa9d176484094718d20","null","null","<p style=""font-size: 60px; font-family: BACS"">DBklEcR</p>","","","","","","","","",""
"html-keyboard-response","63","199074","0.0-8.0-0.55","5ee83da8817af0000d47448f","650c16f0f2faf8d7a0d14c09","651c0aa9d176484094718d20","null","null","<p style=""font-size: 60px; font-family: BACS"">YKRkmCd</p>","","","","","","","","",""
"html-keyboard-response","64","200075","0.0-8.0-0.56","5ee83da8817af0000d47448f","650c16f0f2faf8d7a0d14c09","651c0aa9d176484094718d20","null","null","<p style=""font-size: 60px; font-family: BACS"">uAkrOcZJ</p>","","","","","","","","",""
"html-keyboard-response","65","201082","0.0-8.0-0.57","5ee83da8817af0000d47448f","650c16f0f2faf8d7a0d14c09","651c0aa9d176484094718d20","null","null","<p style=""font-size: 60px; font-family: BACS"">COtBDmCd</p>","","","","","","","","",""
"html-keyboard-response","66","202083","0.0-8.0-0.58","5ee83da8817af0000d47448f","650c16f0f2faf8d7a0d14c09","651c0aa9d176484094718d20","null","null","<p style=""font-size: 60px; font-family: BACS"">JdOAYOcZJ</p>","","","","","","","","",""
"html-keyboard-response","67","203091","0.0-8.0-0.59","5ee83da8817af0000d47448f","650c16f0f2faf8d7a0d14c09","651c0aa9d176484094718d20","null","null","<p style=""font-size: 60px; font-family: BACS"">YObAmCd</p>","","","","","","","","",""
"html-keyboard-response","68","204096","0.0-8.0-0.60","5ee83da8817af0000d47448f","650c16f0f2faf8d7a0d14c09","651c0aa9d176484094718d20","null","null","<p style=""font-size: 60px; font-family: BACS"">OmtlDPMd</p>","","","","","","","","",""
"html-keyboard-response","69","205104","0.0-8.0-0.61","5ee83da8817af0000d47448f","650c16f0f2faf8d7a0d14c09","651c0aa9d176484094718d20","null","null","<p style=""font-size: 60px; font-family: BACS"">COtBDBbM</p>","","","","","","","","",""
"html-keyboard-response","70","206108","0.0-8.0-0.62","5ee83da8817af0000d47448f","650c16f0f2faf8d7a0d14c09","651c0aa9d176484094718d20","null","null","<p style=""font-size: 60px; font-family: BACS"">rvAJGUa</p>","","","","","","","","",""
"html-keyboard-response","71","207113","0.0-8.0-0.63","5ee83da8817af0000d47448f","650c16f0f2faf8d7a0d14c09","651c0aa9d176484094718d20","null","null","<p style=""font-size: 60px; font-family: BACS"">YKRkmKcD</p>","","","","","","","","",""
"html-keyboard-response","72","208143","0.0-8.0-0.64","5ee83da8817af0000d47448f","650c16f0f2faf8d7a0d14c09","651c0aa9d176484094718d20","null","null","<p style=""font-size: 60px; font-family: BACS"">uAkrLkNc</p>","","","","","","","","",""
"html-keyboard-response","73","209151","0.0-8.0-0.65","5ee83da8817af0000d47448f","650c16f0f2faf8d7a0d14c09","651c0aa9d176484094718d20","null","null","<p style=""font-size: 60px; font-family: BACS"">bAdkBbM</p>","","","","","","","","",""
"html-keyboard-response","74","210183","0.0-8.0-0.66","5ee83da8817af0000d47448f","650c16f0f2faf8d7a0d14c09","651c0aa9d176484094718d20","null","null","<p style=""font-size: 60px; font-family: BACS"">OmtlDEcR</p>","","","","","","","","",""
"html-keyboard-response","75","211193","0.0-8.0-0.67","5ee83da8817af0000d47448f","650c16f0f2faf8d7a0d14c09","651c0aa9d176484094718d20","null","null","<p style=""font-size: 60px; font-family: BACS"">DBklBbM</p>","","","","","","","","",""
"html-keyboard-response","76","212197","0.0-8.0-0.68","5ee83da8817af0000d47448f","650c16f0f2faf8d7a0d14c09","651c0aa9d176484094718d20","null","null","<p style=""font-size: 60px; font-family: BACS"">alJYGUa</p>","","","","","","","","",""
"html-keyboard-response","77","213205","0.0-8.0-0.69","5ee83da8817af0000d47448f","650c16f0f2faf8d7a0d14c09","651c0aa9d176484094718d20","null","null","<p style=""font-size: 60px; font-family: BACS"">OmtlDmKcD</p>","","","","","","","","",""
"html-keyboard-response","78","214219","0.0-8.0-0.70","5ee83da8817af0000d47448f","650c16f0f2faf8d7a0d14c09","651c0aa9d176484094718d20","null","null","<p style=""font-size: 60px; font-family: BACS"">lTmOPMd</p>","","","","","","","","",""
"html-keyboard-response","79","215222","0.0-8.0-0.71","5ee83da8817af0000d47448f","650c16f0f2faf8d7a0d14c09","651c0aa9d176484094718d20","null","null","<p style=""font-size: 60px; font-family: BACS"">lYruaOcZJ</p>","","","","","","","","",""
"html-keyboard-response","80","216225","0.0-8.0-0.72","5ee83da8817af0000d47448f","650c16f0f2faf8d7a0d14c09","651c0aa9d176484094718d20","null","null","<p style=""font-size: 60px; font-family: BACS"">PcBTmCd</p>","","","","","","","","",""
"html-keyboard-response","81","217231","0.0-8.0-0.73","5ee83da8817af0000d47448f","650c16f0f2faf8d7a0d14c09","651c0aa9d176484094718d20","null","null","<p style=""font-size: 60px; font-family: BACS"">JdOAYkam</p>","","","","","","","","",""
"html-keyboard-response","82","218235","0.0-8.0-0.74","5ee83da8817af0000d47448f","650c16f0f2faf8d7a0d14c09","651c0aa9d176484094718d20","null","null","<p style=""font-size: 60px; font-family: BACS"">uvaUOcZJ</p>","","","","","","","","",""
"html-keyboard-response","83","219250","0.0-8.0-0.75","5ee83da8817af0000d47448f","650c16f0f2faf8d7a0d14c09","651c0aa9d176484094718d20","null","null","<p style=""font-size: 60px; font-family: BACS"">rvAJLkNc</p>","","","","","","","","",""
"html-keyboard-response","84","220271","0.0-8.0-0.76","5ee83da8817af0000d47448f","650c16f0f2faf8d7a0d14c09","651c0aa9d176484094718d20","null","null","<p style=""font-size: 60px; font-family: BACS"">BKDRYPMd</p>","","","","","","","","",""
"html-keyboard-response","85","221279","0.0-8.0-0.77","5ee83da8817af0000d47448f","650c16f0f2faf8d7a0d14c09","651c0aa9d176484094718d20","null","null","<p style=""font-size: 60px; font-family: BACS"">uAkrkam</p>","","","","","","","","",""
"html-keyboard-response","86","222281","0.0-8.0-0.78","5ee83da8817af0000d47448f","650c16f0f2faf8d7a0d14c09","651c0aa9d176484094718d20","null","null","<p style=""font-size: 60px; font-family: BACS"">kZUbLkNc</p>","","","","","","","","",""
"html-keyboard-response","87","223287","0.0-8.0-0.79","5ee83da8817af0000d47448f","650c16f0f2faf8d7a0d14c09","651c0aa9d176484094718d20","null","null","<p style=""font-size: 60px; font-family: BACS"">PcBTBbM</p>","","","","","","","","",""
"html-keyboard-response","88","227486","0.0-9.0","5ee83da8817af0000d47448f","650c16f0f2faf8d7a0d14c09","651c0aa9d176484094718d20","4199"," ","<p>Great, you've seen the first block of words. You may now take a short break.</p>
      <p>Press the spacebar when you're ready to continue.</p>","","","","","","","","",""
"html-keyboard-response","89","228488","0.0-10.0-0.0","5ee83da8817af0000d47448f","650c16f0f2faf8d7a0d14c09","651c0aa9d176484094718d20","null","null","<p style=""font-size: 60px; font-family: BACS"">alJYOcZJ</p>","","","","","","","","",""
"html-keyboard-response","90","229506","0.0-10.0-0.1","5ee83da8817af0000d47448f","650c16f0f2faf8d7a0d14c09","651c0aa9d176484094718d20","null","null","<p style=""font-size: 60px; font-family: BACS"">YKRkEcR</p>","","","","","","","","",""
"html-keyboard-response","91","230536","0.0-10.0-0.2","5ee83da8817af0000d47448f","650c16f0f2faf8d7a0d14c09","651c0aa9d176484094718d20","null","null","<p style=""font-size: 60px; font-family: BACS"">COtBDmCd</p>","","","","","","","","",""
"html-keyboard-response","92","231542","0.0-10.0-0.3","5ee83da8817af0000d47448f","650c16f0f2faf8d7a0d14c09","651c0aa9d176484094718d20","null","null","<p style=""font-size: 60px; font-family: BACS"">Abkakam</p>","","","","","","","","",""
"html-keyboard-response","93","232548","0.0-10.0-0.4","5ee83da8817af0000d47448f","650c16f0f2faf8d7a0d14c09","651c0aa9d176484094718d20","null","null","<p style=""font-size: 60px; font-family: BACS"">uAkrZAUu</p>","","","","","","","","",""
"html-keyboard-response","94","233554","0.0-10.0-0.5","5ee83da8817af0000d47448f","650c16f0f2faf8d7a0d14c09","651c0aa9d176484094718d20","null","null","<p style=""font-size: 60px; font-family: BACS"">YKRkBbM</p>","","","","","","","","",""
"html-keyboard-response","95","234573","0.0-10.0-0.6","5ee83da8817af0000d47448f","650c16f0f2faf8d7a0d14c09","651c0aa9d176484094718d20","null","null","<p style=""font-size: 60px; font-family: BACS"">rvAJOcZJ</p>","","","","","","","","",""
"html-keyboard-response","96","235583","0.0-10.0-0.7","5ee83da8817af0000d47448f","650c16f0f2faf8d7a0d14c09","651c0aa9d176484094718d20","null","null","<p style=""font-size: 60px; font-family: BACS"">BKDRYEcR</p>","","","","","","","","",""
"html-keyboard-response","97","236589","0.0-10.0-0.8","5ee83da8817af0000d47448f","650c16f0f2faf8d7a0d14c09","651c0aa9d176484094718d20","null","null","<p style=""font-size: 60px; font-family: BACS"">AbkaLkNc</p>","","","","","","","","",""
"html-keyboard-response","98","237596","0.0-10.0-0.9","5ee83da8817af0000d47448f","650c16f0f2faf8d7a0d14c09","651c0aa9d176484094718d20","null","null","<p style=""font-size: 60px; font-family: BACS"">OmtlDmCd</p>","","","","","","","","",""
"html-keyboard-response","99","238605","0.0-10.0-0.10","5ee83da8817af0000d47448f","650c16f0f2faf8d7a0d14c09","651c0aa9d176484094718d20","null","null","<p style=""font-size: 60px; font-family: BACS"">uvaUkam</p>","","","","","","","","",""
"html-keyboard-response","100","239618","0.0-10.0-0.11","5ee83da8817af0000d47448f","650c16f0f2faf8d7a0d14c09","651c0aa9d176484094718d20","null","null","<p style=""font-size: 60px; font-family: BACS"">DBklPMd</p>","","","","","","","","",""
"html-keyboard-response","101","240625","0.0-10.0-0.12","5ee83da8817af0000d47448f","650c16f0f2faf8d7a0d14c09","651c0aa9d176484094718d20","null","null","<p style=""font-size: 60px; font-family: BACS"">COtBDBbM</p>","","","","","","","","",""
"html-keyboard-response","102","241628","0.0-10.0-0.13","5ee83da8817af0000d47448f","650c16f0f2faf8d7a0d14c09","651c0aa9d176484094718d20","null","null","<p style=""font-size: 60px; font-family: BACS"">JdOAYLkNc</p>","","","","","","","","",""
"html-keyboard-response","103","242633","0.0-10.0-0.14","5ee83da8817af0000d47448f","650c16f0f2faf8d7a0d14c09","651c0aa9d176484094718d20","null","null","<p style=""font-size: 60px; font-family: BACS"">kZUbOcZJ</p>","","","","","","","","",""
"html-keyboard-response","104","243639","0.0-10.0-0.15","5ee83da8817af0000d47448f","650c16f0f2faf8d7a0d14c09","651c0aa9d176484094718d20","null","null","<p style=""font-size: 60px; font-family: BACS"">DBklEcR</p>","","","","","","","","",""
"html-keyboard-response","105","244642","0.0-10.0-0.16","5ee83da8817af0000d47448f","650c16f0f2faf8d7a0d14c09","651c0aa9d176484094718d20","null","null","<p style=""font-size: 60px; font-family: BACS"">KMDYtBbM</p>","","","","","","","","",""
"html-keyboard-response","106","245645","0.0-10.0-0.17","5ee83da8817af0000d47448f","650c16f0f2faf8d7a0d14c09","651c0aa9d176484094718d20","null","null","<p style=""font-size: 60px; font-family: BACS"">BKDRYmCd</p>","","","","","","","","",""
"html-keyboard-response","107","246652","0.0-10.0-0.18","5ee83da8817af0000d47448f","650c16f0f2faf8d7a0d14c09","651c0aa9d176484094718d20","null","null","<p style=""font-size: 60px; font-family: BACS"">KMDYtEcR</p>","","","","","","","","",""
"html-keyboard-response","108","247658","0.0-10.0-0.19","5ee83da8817af0000d47448f","650c16f0f2faf8d7a0d14c09","651c0aa9d176484094718d20","null","null","<p style=""font-size: 60px; font-family: BACS"">lTmOmCd</p>","","","","","","","","",""
"html-keyboard-response","109","248660","0.0-10.0-0.20","5ee83da8817af0000d47448f","650c16f0f2faf8d7a0d14c09","651c0aa9d176484094718d20","null","null","<p style=""font-size: 60px; font-family: BACS"">uvaUZAUu</p>","","","","","","","","",""
"html-keyboard-response","110","249674","0.0-10.0-0.21","5ee83da8817af0000d47448f","650c16f0f2faf8d7a0d14c09","651c0aa9d176484094718d20","null","null","<p style=""font-size: 60px; font-family: BACS"">PcBTmCd</p>","","","","","","","","",""
"html-keyboard-response","111","250677","0.0-10.0-0.22","5ee83da8817af0000d47448f","650c16f0f2faf8d7a0d14c09","651c0aa9d176484094718d20","null","null","<p style=""font-size: 60px; font-family: BACS"">LcNUJLkNc</p>","","","","","","","","",""
"html-keyboard-response","112","251681","0.0-10.0-0.23","5ee83da8817af0000d47448f","650c16f0f2faf8d7a0d14c09","651c0aa9d176484094718d20","null","null","<p style=""font-size: 60px; font-family: BACS"">KMDYtmCd</p>","","","","","","","","",""
"html-keyboard-response","113","252688","0.0-10.0-0.24","5ee83da8817af0000d47448f","650c16f0f2faf8d7a0d14c09","651c0aa9d176484094718d20","null","null","<p style=""font-size: 60px; font-family: BACS"">uvaUOcZJ</p>","","","","","","","","",""
"html-keyboard-response","114","253689","0.0-10.0-0.25","5ee83da8817af0000d47448f","650c16f0f2faf8d7a0d14c09","651c0aa9d176484094718d20","null","null","<p style=""font-size: 60px; font-family: BACS"">COtBDmKcD</p>","","","","","","","","",""
"html-keyboard-response","115","254696","0.0-10.0-0.26","5ee83da8817af0000d47448f","650c16f0f2faf8d7a0d14c09","651c0aa9d176484094718d20","null","null","<p style=""font-size: 60px; font-family: BACS"">LcNUJOcZJ</p>","","","","","","","","",""
"html-keyboard-response","116","255710","0.0-10.0-0.27","5ee83da8817af0000d47448f","650c16f0f2faf8d7a0d14c09","651c0aa9d176484094718d20","null","null","<p style=""font-size: 60px; font-family: BACS"">bAdkBbM</p>","","","","","","","","",""
"html-keyboard-response","117","256721","0.0-10.0-0.28","5ee83da8817af0000d47448f","650c16f0f2faf8d7a0d14c09","651c0aa9d176484094718d20","null","null","<p style=""font-size: 60px; font-family: BACS"">DBklmKcD</p>","","","","","","","","",""
"html-keyboard-response","118","257734","0.0-10.0-0.29","5ee83da8817af0000d47448f","650c16f0f2faf8d7a0d14c09","651c0aa9d176484094718d20","null","null","<p style=""font-size: 60px; font-family: BACS"">alJYGUa</p>","","","","","","","","",""
"html-keyboard-response","119","258744","0.0-10.0-0.30","5ee83da8817af0000d47448f","650c16f0f2faf8d7a0d14c09","651c0aa9d176484094718d20","null","null","<p style=""font-size: 60px; font-family: BACS"">PcBTmKcD</p>","","","","","","","","",""
"html-keyboard-response","120","259763","0.0-10.0-0.31","5ee83da8817af0000d47448f","650c16f0f2faf8d7a0d14c09","651c0aa9d176484094718d20","null","null","<p style=""font-size: 60px; font-family: BACS"">bYuQLkNc</p>","","","","","","","","",""
"html-keyboard-response","121","260767","0.0-10.0-0.32","5ee83da8817af0000d47448f","650c16f0f2faf8d7a0d14c09","651c0aa9d176484094718d20","null","null","<p style=""font-size: 60px; font-family: BACS"">uAkrkam</p>","","","","","","","","",""
"html-keyboard-response","122","261781","0.0-10.0-0.33","5ee83da8817af0000d47448f","650c16f0f2faf8d7a0d14c09","651c0aa9d176484094718d20","null","null","<p style=""font-size: 60px; font-family: BACS"">KMDYtmKcD</p>","","","","","","","","",""
"html-keyboard-response","123","262790","0.0-10.0-0.34","5ee83da8817af0000d47448f","650c16f0f2faf8d7a0d14c09","651c0aa9d176484094718d20","null","null","<p style=""font-size: 60px; font-family: BACS"">lYruaZAUu</p>","","","","","","","","",""
"html-keyboard-response","124","263805","0.0-10.0-0.35","5ee83da8817af0000d47448f","650c16f0f2faf8d7a0d14c09","651c0aa9d176484094718d20","null","null","<p style=""font-size: 60px; font-family: BACS"">LcNUJkam</p>","","","","","","","","",""
"html-keyboard-response","125","264816","0.0-10.0-0.36","5ee83da8817af0000d47448f","650c16f0f2faf8d7a0d14c09","651c0aa9d176484094718d20","null","null","<p style=""font-size: 60px; font-family: BACS"">OmtlDmKcD</p>","","","","","","","","",""
"html-keyboard-response","126","265822","0.0-10.0-0.37","5ee83da8817af0000d47448f","650c16f0f2faf8d7a0d14c09","651c0aa9d176484094718d20","null","null","<p style=""font-size: 60px; font-family: BACS"">uvaULkNc</p>","","","","","","","","",""
"html-keyboard-response","127","266828","0.0-10.0-0.38","5ee83da8817af0000d47448f","650c16f0f2faf8d7a0d14c09","651c0aa9d176484094718d20","null","null","<p style=""font-size: 60px; font-family: BACS"">alJYkam</p>","","","","","","","","",""
"html-keyboard-response","128","267846","0.0-10.0-0.39","5ee83da8817af0000d47448f","650c16f0f2faf8d7a0d14c09","651c0aa9d176484094718d20","null","null","<p style=""font-size: 60px; font-family: BACS"">lYruaOcZJ</p>","","","","","","","","",""
"html-keyboard-response","129","268850","0.0-10.0-0.40","5ee83da8817af0000d47448f","650c16f0f2faf8d7a0d14c09","651c0aa9d176484094718d20","null","null","<p style=""font-size: 60px; font-family: BACS"">YObAmCd</p>","","","","","","","","",""
"html-keyboard-response","130","269858","0.0-10.0-0.41","5ee83da8817af0000d47448f","650c16f0f2faf8d7a0d14c09","651c0aa9d176484094718d20","null","null","<p style=""font-size: 60px; font-family: BACS"">alJYZAUu</p>","","","","","","","","",""
"html-keyboard-response","131","270863","0.0-10.0-0.42","5ee83da8817af0000d47448f","650c16f0f2faf8d7a0d14c09","651c0aa9d176484094718d20","null","null","<p style=""font-size: 60px; font-family: BACS"">lTmOBbM</p>","","","","","","","","",""
"html-keyboard-response","132","271864","0.0-10.0-0.43","5ee83da8817af0000d47448f","650c16f0f2faf8d7a0d14c09","651c0aa9d176484094718d20","null","null","<p style=""font-size: 60px; font-family: BACS"">AbkaZAUu</p>","","","","","","","","",""
"html-keyboard-response","133","272872","0.0-10.0-0.44","5ee83da8817af0000d47448f","650c16f0f2faf8d7a0d14c09","651c0aa9d176484094718d20","null","null","<p style=""font-size: 60px; font-family: BACS"">uAkrLkNc</p>","","","","","","","","",""
"html-keyboard-response","134","273874","0.0-10.0-0.45","5ee83da8817af0000d47448f","650c16f0f2faf8d7a0d14c09","651c0aa9d176484094718d20","null","null","<p style=""font-size: 60px; font-family: BACS"">AbkaGUa</p>","","","","","","","","",""
"html-keyboard-response","135","274881","0.0-10.0-0.46","5ee83da8817af0000d47448f","650c16f0f2faf8d7a0d14c09","651c0aa9d176484094718d20","null","null","<p style=""font-size: 60px; font-family: BACS"">JdOAYOcZJ</p>","","","","","","","","",""
"html-keyboard-response","136","275888","0.0-10.0-0.47","5ee83da8817af0000d47448f","650c16f0f2faf8d7a0d14c09","651c0aa9d176484094718d20","null","null","<p style=""font-size: 60px; font-family: BACS"">PcBTPMd</p>","","","","","","","","",""
"html-keyboard-response","137","276897","0.0-10.0-0.48","5ee83da8817af0000d47448f","650c16f0f2faf8d7a0d14c09","651c0aa9d176484094718d20","null","null","<p style=""font-size: 60px; font-family: BACS"">bYuQGUa</p>","","","","","","","","",""
"html-keyboard-response","138","277898","0.0-10.0-0.49","5ee83da8817af0000d47448f","650c16f0f2faf8d7a0d14c09","651c0aa9d176484094718d20","null","null","<p style=""font-size: 60px; font-family: BACS"">OmtlDPMd</p>","","","","","","","","",""
"html-keyboard-response","139","278908","0.0-10.0-0.50","5ee83da8817af0000d47448f","650c16f0f2faf8d7a0d14c09","651c0aa9d176484094718d20","null","null","<p style=""font-size: 60px; font-family: BACS"">DBklBbM</p>","","","","","","","","",""
"html-keyboard-response","140","279909","0.0-10.0-0.51","5ee83da8817af0000d47448f","650c16f0f2faf8d7a0d14c09","651c0aa9d176484094718d20","null","null","<p style=""font-size: 60px; font-family: BACS"">rvAJLkNc</p>","","","","","","","","",""
"html-keyboard-response","141","280915","0.0-10.0-0.52","5ee83da8817af0000d47448f","650c16f0f2faf8d7a0d14c09","651c0aa9d176484094718d20","null","null","<p style=""font-size: 60px; font-family: BACS"">kZUbZAUu</p>","","","","","","","","",""
"html-keyboard-response","142","281932","0.0-10.0-0.53","5ee83da8817af0000d47448f","650c16f0f2faf8d7a0d14c09","651c0aa9d176484094718d20","null","null","<p style=""font-size: 60px; font-family: BACS"">BKDRYPMd</p>","","","","","","","","",""
"html-keyboard-response","143","282939","0.0-10.0-0.54","5ee83da8817af0000d47448f","650c16f0f2faf8d7a0d14c09","651c0aa9d176484094718d20","null","null","<p style=""font-size: 60px; font-family: BACS"">rvAJZAUu</p>","","","","","","","","",""
"html-keyboard-response","144","283942","0.0-10.0-0.55","5ee83da8817af0000d47448f","650c16f0f2faf8d7a0d14c09","651c0aa9d176484094718d20","null","null","<p style=""font-size: 60px; font-family: BACS"">YKRkmCd</p>","","","","","","","","",""
"html-keyboard-response","145","284953","0.0-10.0-0.56","5ee83da8817af0000d47448f","650c16f0f2faf8d7a0d14c09","651c0aa9d176484094718d20","null","null","<p style=""font-size: 60px; font-family: BACS"">JdOAYkam</p>","","","","","","","","",""
"html-keyboard-response","146","285962","0.0-10.0-0.57","5ee83da8817af0000d47448f","650c16f0f2faf8d7a0d14c09","651c0aa9d176484094718d20","null","null","<p style=""font-size: 60px; font-family: BACS"">bAdkPMd</p>","","","","","","","","",""
"html-keyboard-response","147","286969","0.0-10.0-0.58","5ee83da8817af0000d47448f","650c16f0f2faf8d7a0d14c09","651c0aa9d176484094718d20","null","null","<p style=""font-size: 60px; font-family: BACS"">rvAJGUa</p>","","","","","","","","",""
"html-keyboard-response","148","287975","0.0-10.0-0.59","5ee83da8817af0000d47448f","650c16f0f2faf8d7a0d14c09","651c0aa9d176484094718d20","null","null","<p style=""font-size: 60px; font-family: BACS"">kZUbLkNc</p>","","","","","","","","",""
"html-keyboard-response","149","288977","0.0-10.0-0.60","5ee83da8817af0000d47448f","650c16f0f2faf8d7a0d14c09","651c0aa9d176484094718d20","null","null","<p style=""font-size: 60px; font-family: BACS"">OmtlDEcR</p>","","","","","","","","",""
"html-keyboard-response","150","289982","0.0-10.0-0.61","5ee83da8817af0000d47448f","650c16f0f2faf8d7a0d14c09","651c0aa9d176484094718d20","null","null","<p style=""font-size: 60px; font-family: BACS"">bYuQkam</p>","","","","","","","","",""
"html-keyboard-response","151","290984","0.0-10.0-0.62","5ee83da8817af0000d47448f","650c16f0f2faf8d7a0d14c09","651c0aa9d176484094718d20","null","null","<p style=""font-size: 60px; font-family: BACS"">YObAmKcD</p>","","","","","","","","",""
"html-keyboard-response","152","292016","0.0-10.0-0.63","5ee83da8817af0000d47448f","650c16f0f2faf8d7a0d14c09","651c0aa9d176484094718d20","null","null","<p style=""font-size: 60px; font-family: BACS"">COtBDPMd</p>","","","","","","","","",""
"html-keyboard-response","153","293023","0.0-10.0-0.64","5ee83da8817af0000d47448f","650c16f0f2faf8d7a0d14c09","651c0aa9d176484094718d20","null","null","<p style=""font-size: 60px; font-family: BACS"">LcNUJGUa</p>","","","","","","","","",""
"html-keyboard-response","154","294031","0.0-10.0-0.65","5ee83da8817af0000d47448f","650c16f0f2faf8d7a0d14c09","651c0aa9d176484094718d20","null","null","<p style=""font-size: 60px; font-family: BACS"">YObAEcR</p>","","","","","","","","",""
"html-keyboard-response","155","295036","0.0-10.0-0.66","5ee83da8817af0000d47448f","650c16f0f2faf8d7a0d14c09","651c0aa9d176484094718d20","null","null","<p style=""font-size: 60px; font-family: BACS"">lYruaGUa</p>","","","","","","","","",""
"html-keyboard-response","156","296037","0.0-10.0-0.67","5ee83da8817af0000d47448f","650c16f0f2faf8d7a0d14c09","651c0aa9d176484094718d20","null","null","<p style=""font-size: 60px; font-family: BACS"">YKRkmKcD</p>","","","","","","","","",""
"html-keyboard-response","157","297064","0.0-10.0-0.68","5ee83da8817af0000d47448f","650c16f0f2faf8d7a0d14c09","651c0aa9d176484094718d20","null","null","<p style=""font-size: 60px; font-family: BACS"">kZUbGUa</p>","","","","","","","","",""
"html-keyboard-response","158","298067","0.0-10.0-0.69","5ee83da8817af0000d47448f","650c16f0f2faf8d7a0d14c09","651c0aa9d176484094718d20","null","null","<p style=""font-size: 60px; font-family: BACS"">bAdkmKcD</p>","","","","","","","","",""
"html-keyboard-response","159","299069","0.0-10.0-0.70","5ee83da8817af0000d47448f","650c16f0f2faf8d7a0d14c09","651c0aa9d176484094718d20","null","null","<p style=""font-size: 60px; font-family: BACS"">uAkrOcZJ</p>","","","","","","","","",""
"html-keyboard-response","160","300073","0.0-10.0-0.71","5ee83da8817af0000d47448f","650c16f0f2faf8d7a0d14c09","651c0aa9d176484094718d20","null","null","<p style=""font-size: 60px; font-family: BACS"">PcBTBbM</p>","","","","","","","","",""
"html-keyboard-response","161","301084","0.0-10.0-0.72","5ee83da8817af0000d47448f","650c16f0f2faf8d7a0d14c09","651c0aa9d176484094718d20","null","null","<p style=""font-size: 60px; font-family: BACS"">bAdkEcR</p>","","","","","","","","",""
"html-keyboard-response","162","302087","0.0-10.0-0.73","5ee83da8817af0000d47448f","650c16f0f2faf8d7a0d14c09","651c0aa9d176484094718d20","null","null","<p style=""font-size: 60px; font-family: BACS"">lTmOPMd</p>","","","","","","","","",""
"html-keyboard-response","163","303094","0.0-10.0-0.74","5ee83da8817af0000d47448f","650c16f0f2faf8d7a0d14c09","651c0aa9d176484094718d20","null","null","<p style=""font-size: 60px; font-family: BACS"">bYuQZAUu</p>","","","","","","","","",""
"html-keyboard-response","164","304108","0.0-10.0-0.75","5ee83da8817af0000d47448f","650c16f0f2faf8d7a0d14c09","651c0aa9d176484094718d20","null","null","<p style=""font-size: 60px; font-family: BACS"">BKDRYBbM</p>","","","","","","","","",""
"html-keyboard-response","165","305116","0.0-10.0-0.76","5ee83da8817af0000d47448f","650c16f0f2faf8d7a0d14c09","651c0aa9d176484094718d20","null","null","<p style=""font-size: 60px; font-family: BACS"">YObAPMd</p>","","","","","","","","",""
"html-keyboard-response","166","306145","0.0-10.0-0.77","5ee83da8817af0000d47448f","650c16f0f2faf8d7a0d14c09","651c0aa9d176484094718d20","null","null","<p style=""font-size: 60px; font-family: BACS"">lYruakam</p>","","","","","","","","",""
"html-keyboard-response","167","307152","0.0-10.0-0.78","5ee83da8817af0000d47448f","650c16f0f2faf8d7a0d14c09","651c0aa9d176484094718d20","null","null","<p style=""font-size: 60px; font-family: BACS"">JdOAYGUa</p>","","","","","","","","",""
"html-keyboard-response","168","308161","0.0-10.0-0.79","5ee83da8817af0000d47448f","650c16f0f2faf8d7a0d14c09","651c0aa9d176484094718d20","null","null","<p style=""font-size: 60px; font-family: BACS"">lTmOEcR</p>","","","","","","","","",""
"html-keyboard-response","169","329110","0.0-11.0","5ee83da8817af0000d47448f","650c16f0f2faf8d7a0d14c09","651c0aa9d176484094718d20","20948"," ","<p>Great, you've seen the second block of words. You may now take a short break.</p>
      <p>Press the spacebar when you're ready to continue.</p>","","","","","","","","",""
"html-keyboard-response","170","330125","0.0-12.0-0.0","5ee83da8817af0000d47448f","650c16f0f2faf8d7a0d14c09","651c0aa9d176484094718d20","null","null","<p style=""font-size: 60px; font-family: BACS"">BKDRYBbM</p>","","","","","","","","",""
"html-keyboard-response","171","331130","0.0-12.0-0.1","5ee83da8817af0000d47448f","650c16f0f2faf8d7a0d14c09","651c0aa9d176484094718d20","null","null","<p style=""font-size: 60px; font-family: BACS"">YObAPMd</p>","","","","","","","","",""
"html-keyboard-response","172","332131","0.0-12.0-0.2","5ee83da8817af0000d47448f","650c16f0f2faf8d7a0d14c09","651c0aa9d176484094718d20","null","null","<p style=""font-size: 60px; font-family: BACS"">rvAJLkNc</p>","","","","","","","","",""
"html-keyboard-response","173","333143","0.0-12.0-0.3","5ee83da8817af0000d47448f","650c16f0f2faf8d7a0d14c09","651c0aa9d176484094718d20","null","null","<p style=""font-size: 60px; font-family: BACS"">lYruaOcZJ</p>","","","","","","","","",""
"html-keyboard-response","174","334145","0.0-12.0-0.4","5ee83da8817af0000d47448f","650c16f0f2faf8d7a0d14c09","651c0aa9d176484094718d20","null","null","<p style=""font-size: 60px; font-family: BACS"">Abkakam</p>","","","","","","","","",""
"html-keyboard-response","175","335159","0.0-12.0-0.5","5ee83da8817af0000d47448f","650c16f0f2faf8d7a0d14c09","651c0aa9d176484094718d20","null","null","<p style=""font-size: 60px; font-family: BACS"">LcNUJGUa</p>","","","","","","","","",""
"html-keyboard-response","176","336162","0.0-12.0-0.6","5ee83da8817af0000d47448f","650c16f0f2faf8d7a0d14c09","651c0aa9d176484094718d20","null","null","<p style=""font-size: 60px; font-family: BACS"">YKRkEcR</p>","","","","","","","","",""
"html-keyboard-response","177","337183","0.0-12.0-0.7","5ee83da8817af0000d47448f","650c16f0f2faf8d7a0d14c09","651c0aa9d176484094718d20","null","null","<p style=""font-size: 60px; font-family: BACS"">KMDYtBbM</p>","","","","","","","","",""
"html-keyboard-response","178","338201","0.0-12.0-0.8","5ee83da8817af0000d47448f","650c16f0f2faf8d7a0d14c09","651c0aa9d176484094718d20","null","null","<p style=""font-size: 60px; font-family: BACS"">uvaUkam</p>","","","","","","","","",""
"html-keyboard-response","179","339210","0.0-12.0-0.9","5ee83da8817af0000d47448f","650c16f0f2faf8d7a0d14c09","651c0aa9d176484094718d20","null","null","<p style=""font-size: 60px; font-family: BACS"">COtBDmCd</p>","","","","","","","","",""
"html-keyboard-response","180","340215","0.0-12.0-0.10","5ee83da8817af0000d47448f","650c16f0f2faf8d7a0d14c09","651c0aa9d176484094718d20","null","null","<p style=""font-size: 60px; font-family: BACS"">lYruaGUa</p>","","","","","","","","",""
"html-keyboard-response","181","341226","0.0-12.0-0.11","5ee83da8817af0000d47448f","650c16f0f2faf8d7a0d14c09","651c0aa9d176484094718d20","null","null","<p style=""font-size: 60px; font-family: BACS"">kZUbOcZJ</p>","","","","","","","","",""
"html-keyboard-response","182","342231","0.0-12.0-0.12","5ee83da8817af0000d47448f","650c16f0f2faf8d7a0d14c09","651c0aa9d176484094718d20","null","null","<p style=""font-size: 60px; font-family: BACS"">rvAJGUa</p>","","","","","","","","",""
"html-keyboard-response","183","343240","0.0-12.0-0.13","5ee83da8817af0000d47448f","650c16f0f2faf8d7a0d14c09","651c0aa9d176484094718d20","null","null","<p style=""font-size: 60px; font-family: BACS"">bYuQZAUu</p>","","","","","","","","",""
"html-keyboard-response","184","344243","0.0-12.0-0.14","5ee83da8817af0000d47448f","650c16f0f2faf8d7a0d14c09","651c0aa9d176484094718d20","null","null","<p style=""font-size: 60px; font-family: BACS"">AbkaLkNc</p>","","","","","","","","",""
"html-keyboard-response","185","345251","0.0-12.0-0.15","5ee83da8817af0000d47448f","650c16f0f2faf8d7a0d14c09","651c0aa9d176484094718d20","null","null","<p style=""font-size: 60px; font-family: BACS"">LcNUJkam</p>","","","","","","","","",""
"html-keyboard-response","186","346255","0.0-12.0-0.16","5ee83da8817af0000d47448f","650c16f0f2faf8d7a0d14c09","651c0aa9d176484094718d20","null","null","<p style=""font-size: 60px; font-family: BACS"">PcBTmCd</p>","","","","","","","","",""
"html-keyboard-response","187","347264","0.0-12.0-0.17","5ee83da8817af0000d47448f","650c16f0f2faf8d7a0d14c09","651c0aa9d176484094718d20","null","null","<p style=""font-size: 60px; font-family: BACS"">AbkaGUa</p>","","","","","","","","",""
"html-keyboard-response","188","348268","0.0-12.0-0.18","5ee83da8817af0000d47448f","650c16f0f2faf8d7a0d14c09","651c0aa9d176484094718d20","null","null","<p style=""font-size: 60px; font-family: BACS"">YKRkBbM</p>","","","","","","","","",""
"html-keyboard-response","189","349274","0.0-12.0-0.19","5ee83da8817af0000d47448f","650c16f0f2faf8d7a0d14c09","651c0aa9d176484094718d20","null","null","<p style=""font-size: 60px; font-family: BACS"">lTmOEcR</p>","","","","","","","","",""
"html-keyboard-response","190","350278","0.0-12.0-0.20","5ee83da8817af0000d47448f","650c16f0f2faf8d7a0d14c09","651c0aa9d176484094718d20","null","null","<p style=""font-size: 60px; font-family: BACS"">DBklmKcD</p>","","","","","","","","",""
"html-keyboard-response","191","351287","0.0-12.0-0.21","5ee83da8817af0000d47448f","650c16f0f2faf8d7a0d14c09","651c0aa9d176484094718d20","null","null","<p style=""font-size: 60px; font-family: BACS"">KMDYtEcR</p>","","","","","","","","",""
"html-keyboard-response","192","352292","0.0-12.0-0.22","5ee83da8817af0000d47448f","650c16f0f2faf8d7a0d14c09","651c0aa9d176484094718d20","null","null","<p style=""font-size: 60px; font-family: BACS"">LcNUJOcZJ</p>","","","","","","","","",""
"html-keyboard-response","193","353298","0.0-12.0-0.23","5ee83da8817af0000d47448f","650c16f0f2faf8d7a0d14c09","651c0aa9d176484094718d20","null","null","<p style=""font-size: 60px; font-family: BACS"">KMDYtmCd</p>","","","","","","","","",""
"html-keyboard-response","194","354301","0.0-12.0-0.24","5ee83da8817af0000d47448f","650c16f0f2faf8d7a0d14c09","651c0aa9d176484094718d20","null","null","<p style=""font-size: 60px; font-family: BACS"">uvaUZAUu</p>","","","","","","","","",""
"html-keyboard-response","195","355315","0.0-12.0-0.25","5ee83da8817af0000d47448f","650c16f0f2faf8d7a0d14c09","651c0aa9d176484094718d20","null","null","<p style=""font-size: 60px; font-family: BACS"">YKRkmKcD</p>","","","","","","","","",""
"html-keyboard-response","196","356320","0.0-12.0-0.26","5ee83da8817af0000d47448f","650c16f0f2faf8d7a0d14c09","651c0aa9d176484094718d20","null","null","<p style=""font-size: 60px; font-family: BACS"">lYruakam</p>","","","","","","","","",""
"html-keyboard-response","197","357322","0.0-12.0-0.27","5ee83da8817af0000d47448f","650c16f0f2faf8d7a0d14c09","651c0aa9d176484094718d20","null","null","<p style=""font-size: 60px; font-family: BACS"">YObAmCd</p>","","","","","","","","",""
"html-keyboard-response","198","358326","0.0-12.0-0.28","5ee83da8817af0000d47448f","650c16f0f2faf8d7a0d14c09","651c0aa9d176484094718d20","null","null","<p style=""font-size: 60px; font-family: BACS"">lTmOPMd</p>","","","","","","","","",""
"html-keyboard-response","199","359329","0.0-12.0-0.29","5ee83da8817af0000d47448f","650c16f0f2faf8d7a0d14c09","651c0aa9d176484094718d20","null","null","<p style=""font-size: 60px; font-family: BACS"">uAkrOcZJ</p>","","","","","","","","",""
"html-keyboard-response","200","360335","0.0-12.0-0.30","5ee83da8817af0000d47448f","650c16f0f2faf8d7a0d14c09","651c0aa9d176484094718d20","null","null","<p style=""font-size: 60px; font-family: BACS"">BKDRYEcR</p>","","","","","","","","",""
"html-keyboard-response","201","361343","0.0-12.0-0.31","5ee83da8817af0000d47448f","650c16f0f2faf8d7a0d14c09","651c0aa9d176484094718d20","null","null","<p style=""font-size: 60px; font-family: BACS"">bAdkmKcD</p>","","","","","","","","",""
"html-keyboard-response","202","362346","0.0-12.0-0.32","5ee83da8817af0000d47448f","650c16f0f2faf8d7a0d14c09","651c0aa9d176484094718d20","null","null","<p style=""font-size: 60px; font-family: BACS"">bYuQGUa</p>","","","","","","","","",""
"html-keyboard-response","203","363351","0.0-12.0-0.33","5ee83da8817af0000d47448f","650c16f0f2faf8d7a0d14c09","651c0aa9d176484094718d20","null","null","<p style=""font-size: 60px; font-family: BACS"">OmtlDPMd</p>","","","","","","","","",""
"html-keyboard-response","204","364359","0.0-12.0-0.34","5ee83da8817af0000d47448f","650c16f0f2faf8d7a0d14c09","651c0aa9d176484094718d20","null","null","<p style=""font-size: 60px; font-family: BACS"">JdOAYOcZJ</p>","","","","","","","","",""
"html-keyboard-response","205","365364","0.0-12.0-0.35","5ee83da8817af0000d47448f","650c16f0f2faf8d7a0d14c09","651c0aa9d176484094718d20","null","null","<p style=""font-size: 60px; font-family: BACS"">kZUbZAUu</p>","","","","","","","","",""
"html-keyboard-response","206","366373","0.0-12.0-0.36","5ee83da8817af0000d47448f","650c16f0f2faf8d7a0d14c09","651c0aa9d176484094718d20","null","null","<p style=""font-size: 60px; font-family: BACS"">PcBTBbM</p>","","","","","","","","",""
"html-keyboard-response","207","367374","0.0-12.0-0.37","5ee83da8817af0000d47448f","650c16f0f2faf8d7a0d14c09","651c0aa9d176484094718d20","null","null","<p style=""font-size: 60px; font-family: BACS"">uAkrZAUu</p>","","","","","","","","",""
"html-keyboard-response","208","368381","0.0-12.0-0.38","5ee83da8817af0000d47448f","650c16f0f2faf8d7a0d14c09","651c0aa9d176484094718d20","null","null","<p style=""font-size: 60px; font-family: BACS"">JdOAYkam</p>","","","","","","","","",""
"html-keyboard-response","209","369384","0.0-12.0-0.39","5ee83da8817af0000d47448f","650c16f0f2faf8d7a0d14c09","651c0aa9d176484094718d20","null","null","<p style=""font-size: 60px; font-family: BACS"">bAdkEcR</p>","","","","","","","","",""
"html-keyboard-response","210","370390","0.0-12.0-0.40","5ee83da8817af0000d47448f","650c16f0f2faf8d7a0d14c09","651c0aa9d176484094718d20","null","null","<p style=""font-size: 60px; font-family: BACS"">BKDRYmCd</p>","","","","","","","","",""
"html-keyboard-response","211","371396","0.0-12.0-0.41","5ee83da8817af0000d47448f","650c16f0f2faf8d7a0d14c09","651c0aa9d176484094718d20","null","null","<p style=""font-size: 60px; font-family: BACS"">PcBTmKcD</p>","","","","","","","","",""
"html-keyboard-response","212","372401","0.0-12.0-0.42","5ee83da8817af0000d47448f","650c16f0f2faf8d7a0d14c09","651c0aa9d176484094718d20","null","null","<p style=""font-size: 60px; font-family: BACS"">lTmOmCd</p>","","","","","","","","",""
"html-keyboard-response","213","373409","0.0-12.0-0.43","5ee83da8817af0000d47448f","650c16f0f2faf8d7a0d14c09","651c0aa9d176484094718d20","null","null","<p style=""font-size: 60px; font-family: BACS"">BKDRYPMd</p>","","","","","","","","",""
"html-keyboard-response","214","374417","0.0-12.0-0.44","5ee83da8817af0000d47448f","650c16f0f2faf8d7a0d14c09","651c0aa9d176484094718d20","null","null","<p style=""font-size: 60px; font-family: BACS"">JdOAYGUa</p>","","","","","","","","",""
"html-keyboard-response","215","375422","0.0-12.0-0.45","5ee83da8817af0000d47448f","650c16f0f2faf8d7a0d14c09","651c0aa9d176484094718d20","null","null","<p style=""font-size: 60px; font-family: BACS"">rvAJZAUu</p>","","","","","","","","",""
"html-keyboard-response","216","376426","0.0-12.0-0.46","5ee83da8817af0000d47448f","650c16f0f2faf8d7a0d14c09","651c0aa9d176484094718d20","null","null","<p style=""font-size: 60px; font-family: BACS"">KMDYtmKcD</p>","","","","","","","","",""
"html-keyboard-response","217","377430","0.0-12.0-0.47","5ee83da8817af0000d47448f","650c16f0f2faf8d7a0d14c09","651c0aa9d176484094718d20","null","null","<p style=""font-size: 60px; font-family: BACS"">alJYkam</p>","","","","","","","","",""
"html-keyboard-response","218","378431","0.0-12.0-0.48","5ee83da8817af0000d47448f","650c16f0f2faf8d7a0d14c09","651c0aa9d176484094718d20","null","null","<p style=""font-size: 60px; font-family: BACS"">rvAJOcZJ</p>","","","","","","","","",""
"html-keyboard-response","219","379438","0.0-12.0-0.49","5ee83da8817af0000d47448f","650c16f0f2faf8d7a0d14c09","651c0aa9d176484094718d20","null","null","<p style=""font-size: 60px; font-family: BACS"">bYuQkam</p>","","","","","","","","",""
"html-keyboard-response","220","380444","0.0-12.0-0.50","5ee83da8817af0000d47448f","650c16f0f2faf8d7a0d14c09","651c0aa9d176484094718d20","null","null","<p style=""font-size: 60px; font-family: BACS"">bAdkBbM</p>","","","","","","","","",""
"html-keyboard-response","221","381454","0.0-12.0-0.51","5ee83da8817af0000d47448f","650c16f0f2faf8d7a0d14c09","651c0aa9d176484094718d20","null","null","<p style=""font-size: 60px; font-family: BACS"">uAkrkam</p>","","","","","","","","",""
"html-keyboard-response","222","382455","0.0-12.0-0.52","5ee83da8817af0000d47448f","650c16f0f2faf8d7a0d14c09","651c0aa9d176484094718d20","null","null","<p style=""font-size: 60px; font-family: BACS"">OmtlDEcR</p>","","","","","","","","",""
"html-keyboard-response","223","383456","0.0-12.0-0.53","5ee83da8817af0000d47448f","650c16f0f2faf8d7a0d14c09","651c0aa9d176484094718d20","null","null","<p style=""font-size: 60px; font-family: BACS"">COtBDPMd</p>","","","","","","","","",""
"html-keyboard-response","224","384461","0.0-12.0-0.54","5ee83da8817af0000d47448f","650c16f0f2faf8d7a0d14c09","651c0aa9d176484094718d20","null","null","<p style=""font-size: 60px; font-family: BACS"">uvaUOcZJ</p>","","","","","","","","",""
"html-keyboard-response","225","385465","0.0-12.0-0.55","5ee83da8817af0000d47448f","650c16f0f2faf8d7a0d14c09","651c0aa9d176484094718d20","null","null","<p style=""font-size: 60px; font-family: BACS"">alJYZAUu</p>","","","","","","","","",""
"html-keyboard-response","226","386471","0.0-12.0-0.56","5ee83da8817af0000d47448f","650c16f0f2faf8d7a0d14c09","651c0aa9d176484094718d20","null","null","<p style=""font-size: 60px; font-family: BACS"">JdOAYLkNc</p>","","","","","","","","",""
"html-keyboard-response","227","387473","0.0-12.0-0.57","5ee83da8817af0000d47448f","650c16f0f2faf8d7a0d14c09","651c0aa9d176484094718d20","null","null","<p style=""font-size: 60px; font-family: BACS"">DBklBbM</p>","","","","","","","","",""
"html-keyboard-response","228","388481","0.0-12.0-0.58","5ee83da8817af0000d47448f","650c16f0f2faf8d7a0d14c09","651c0aa9d176484094718d20","null","null","<p style=""font-size: 60px; font-family: BACS"">bAdkPMd</p>","","","","","","","","",""
"html-keyboard-response","229","389490","0.0-12.0-0.59","5ee83da8817af0000d47448f","650c16f0f2faf8d7a0d14c09","651c0aa9d176484094718d20","null","null","<p style=""font-size: 60px; font-family: BACS"">lTmOBbM</p>","","","","","","","","",""
"html-keyboard-response","230","390498","0.0-12.0-0.60","5ee83da8817af0000d47448f","650c16f0f2faf8d7a0d14c09","651c0aa9d176484094718d20","null","null","<p style=""font-size: 60px; font-family: BACS"">LcNUJLkNc</p>","","","","","","","","",""
"html-keyboard-response","231","391504","0.0-12.0-0.61","5ee83da8817af0000d47448f","650c16f0f2faf8d7a0d14c09","651c0aa9d176484094718d20","null","null","<p style=""font-size: 60px; font-family: BACS"">DBklPMd</p>","","","","","","","","",""
"html-keyboard-response","232","392510","0.0-12.0-0.62","5ee83da8817af0000d47448f","650c16f0f2faf8d7a0d14c09","651c0aa9d176484094718d20","null","null","<p style=""font-size: 60px; font-family: BACS"">alJYGUa</p>","","","","","","","","",""
"html-keyboard-response","233","393523","0.0-12.0-0.63","5ee83da8817af0000d47448f","650c16f0f2faf8d7a0d14c09","651c0aa9d176484094718d20","null","null","<p style=""font-size: 60px; font-family: BACS"">OmtlDmKcD</p>","","","","","","","","",""
"html-keyboard-response","234","394527","0.0-12.0-0.64","5ee83da8817af0000d47448f","650c16f0f2faf8d7a0d14c09","651c0aa9d176484094718d20","null","null","<p style=""font-size: 60px; font-family: BACS"">DBklEcR</p>","","","","","","","","",""
"html-keyboard-response","235","395531","0.0-12.0-0.65","5ee83da8817af0000d47448f","650c16f0f2faf8d7a0d14c09","651c0aa9d176484094718d20","null","null","<p style=""font-size: 60px; font-family: BACS"">uAkrLkNc</p>","","","","","","","","",""
"html-keyboard-response","236","396556","0.0-12.0-0.66","5ee83da8817af0000d47448f","650c16f0f2faf8d7a0d14c09","651c0aa9d176484094718d20","null","null","<p style=""font-size: 60px; font-family: BACS"">YKRkmCd</p>","","","","","","","","",""
"html-keyboard-response","237","397561","0.0-12.0-0.67","5ee83da8817af0000d47448f","650c16f0f2faf8d7a0d14c09","651c0aa9d176484094718d20","null","null","<p style=""font-size: 60px; font-family: BACS"">PcBTPMd</p>","","","","","","","","",""
"html-keyboard-response","238","398580","0.0-12.0-0.68","5ee83da8817af0000d47448f","650c16f0f2faf8d7a0d14c09","651c0aa9d176484094718d20","null","null","<p style=""font-size: 60px; font-family: BACS"">AbkaZAUu</p>","","","","","","","","",""
"html-keyboard-response","239","399593","0.0-12.0-0.69","5ee83da8817af0000d47448f","650c16f0f2faf8d7a0d14c09","651c0aa9d176484094718d20","null","null","<p style=""font-size: 60px; font-family: BACS"">COtBDBbM</p>","","","","","","","","",""
"html-keyboard-response","240","400617","0.0-12.0-0.70","5ee83da8817af0000d47448f","650c16f0f2faf8d7a0d14c09","651c0aa9d176484094718d20","null","null","<p style=""font-size: 60px; font-family: BACS"">OmtlDmCd</p>","","","","","","","","",""
"html-keyboard-response","241","401619","0.0-12.0-0.71","5ee83da8817af0000d47448f","650c16f0f2faf8d7a0d14c09","651c0aa9d176484094718d20","null","null","<p style=""font-size: 60px; font-family: BACS"">uvaULkNc</p>","","","","","","","","",""
"html-keyboard-response","242","402648","0.0-12.0-0.72","5ee83da8817af0000d47448f","650c16f0f2faf8d7a0d14c09","651c0aa9d176484094718d20","null","null","<p style=""font-size: 60px; font-family: BACS"">COtBDmKcD</p>","","","","","","","","",""
"html-keyboard-response","243","403651","0.0-12.0-0.73","5ee83da8817af0000d47448f","650c16f0f2faf8d7a0d14c09","651c0aa9d176484094718d20","null","null","<p style=""font-size: 60px; font-family: BACS"">bYuQLkNc</p>","","","","","","","","",""
"html-keyboard-response","244","404676","0.0-12.0-0.74","5ee83da8817af0000d47448f","650c16f0f2faf8d7a0d14c09","651c0aa9d176484094718d20","null","null","<p style=""font-size: 60px; font-family: BACS"">lYruaZAUu</p>","","","","","","","","",""
"html-keyboard-response","245","405677","0.0-12.0-0.75","5ee83da8817af0000d47448f","650c16f0f2faf8d7a0d14c09","651c0aa9d176484094718d20","null","null","<p style=""font-size: 60px; font-family: BACS"">YObAmKcD</p>","","","","","","","","",""
"html-keyboard-response","246","406685","0.0-12.0-0.76","5ee83da8817af0000d47448f","650c16f0f2faf8d7a0d14c09","651c0aa9d176484094718d20","null","null","<p style=""font-size: 60px; font-family: BACS"">kZUbGUa</p>","","","","","","","","",""
"html-keyboard-response","247","407702","0.0-12.0-0.77","5ee83da8817af0000d47448f","650c16f0f2faf8d7a0d14c09","651c0aa9d176484094718d20","null","null","<p style=""font-size: 60px; font-family: BACS"">YObAEcR</p>","","","","","","","","",""
"html-keyboard-response","248","408709","0.0-12.0-0.78","5ee83da8817af0000d47448f","650c16f0f2faf8d7a0d14c09","651c0aa9d176484094718d20","null","null","<p style=""font-size: 60px; font-family: BACS"">kZUbLkNc</p>","","","","","","","","",""
"html-keyboard-response","249","409711","0.0-12.0-0.79","5ee83da8817af0000d47448f","650c16f0f2faf8d7a0d14c09","651c0aa9d176484094718d20","null","null","<p style=""font-size: 60px; font-family: BACS"">alJYOcZJ</p>","","","","","","","","",""
"html-keyboard-response","250","422746","0.0-13.0","5ee83da8817af0000d47448f","650c16f0f2faf8d7a0d14c09","651c0aa9d176484094718d20","13035"," ","<p>Great, you've seen the third block of words. You may now take a short break.</p>
      <p>Press the spacebar when you're ready to continue.</p>","","","","","","","","",""
"html-keyboard-response","251","423747","0.0-14.0-0.0","5ee83da8817af0000d47448f","650c16f0f2faf8d7a0d14c09","651c0aa9d176484094718d20","null","null","<p style=""font-size: 60px; font-family: BACS"">PcBTmKcD</p>","","","","","","","","",""
"html-keyboard-response","252","424752","0.0-14.0-0.1","5ee83da8817af0000d47448f","650c16f0f2faf8d7a0d14c09","651c0aa9d176484094718d20","null","null","<p style=""font-size: 60px; font-family: BACS"">bAdkPMd</p>","","","","","","","","",""
"html-keyboard-response","253","425771","0.0-14.0-0.2","5ee83da8817af0000d47448f","650c16f0f2faf8d7a0d14c09","651c0aa9d176484094718d20","null","null","<p style=""font-size: 60px; font-family: BACS"">rvAJZAUu</p>","","","","","","","","",""
"html-keyboard-response","254","426778","0.0-14.0-0.3","5ee83da8817af0000d47448f","650c16f0f2faf8d7a0d14c09","651c0aa9d176484094718d20","null","null","<p style=""font-size: 60px; font-family: BACS"">DBklEcR</p>","","","","","","","","",""
"html-keyboard-response","255","427791","0.0-14.0-0.4","5ee83da8817af0000d47448f","650c16f0f2faf8d7a0d14c09","651c0aa9d176484094718d20","null","null","<p style=""font-size: 60px; font-family: BACS"">COtBDPMd</p>","","","","","","","","",""
"html-keyboard-response","256","428803","0.0-14.0-0.5","5ee83da8817af0000d47448f","650c16f0f2faf8d7a0d14c09","651c0aa9d176484094718d20","null","null","<p style=""font-size: 60px; font-family: BACS"">YKRkmKcD</p>","","","","","","","","",""
"html-keyboard-response","257","429806","0.0-14.0-0.6","5ee83da8817af0000d47448f","650c16f0f2faf8d7a0d14c09","651c0aa9d176484094718d20","null","null","<p style=""font-size: 60px; font-family: BACS"">AbkaZAUu</p>","","","","","","","","",""
"html-keyboard-response","258","430815","0.0-14.0-0.7","5ee83da8817af0000d47448f","650c16f0f2faf8d7a0d14c09","651c0aa9d176484094718d20","null","null","<p style=""font-size: 60px; font-family: BACS"">JdOAYkam</p>","","","","","","","","",""
"html-keyboard-response","259","431819","0.0-14.0-0.8","5ee83da8817af0000d47448f","650c16f0f2faf8d7a0d14c09","651c0aa9d176484094718d20","null","null","<p style=""font-size: 60px; font-family: BACS"">YObAPMd</p>","","","","","","","","",""
"html-keyboard-response","260","432824","0.0-14.0-0.9","5ee83da8817af0000d47448f","650c16f0f2faf8d7a0d14c09","651c0aa9d176484094718d20","null","null","<p style=""font-size: 60px; font-family: BACS"">YKRkEcR</p>","","","","","","","","",""
"html-keyboard-response","261","433831","0.0-14.0-0.10","5ee83da8817af0000d47448f","650c16f0f2faf8d7a0d14c09","651c0aa9d176484094718d20","null","null","<p style=""font-size: 60px; font-family: BACS"">kZUbLkNc</p>","","","","","","","","",""
"html-keyboard-response","262","434839","0.0-14.0-0.11","5ee83da8817af0000d47448f","650c16f0f2faf8d7a0d14c09","651c0aa9d176484094718d20","null","null","<p style=""font-size: 60px; font-family: BACS"">alJYOcZJ</p>","","","","","","","","",""
"html-keyboard-response","263","435843","0.0-14.0-0.12","5ee83da8817af0000d47448f","650c16f0f2faf8d7a0d14c09","651c0aa9d176484094718d20","null","null","<p style=""font-size: 60px; font-family: BACS"">KMDYtmKcD</p>","","","","","","","","",""
"html-keyboard-response","264","436850","0.0-14.0-0.13","5ee83da8817af0000d47448f","650c16f0f2faf8d7a0d14c09","651c0aa9d176484094718d20","null","null","<p style=""font-size: 60px; font-family: BACS"">JdOAYLkNc</p>","","","","","","","","",""
"html-keyboard-response","265","437851","0.0-14.0-0.14","5ee83da8817af0000d47448f","650c16f0f2faf8d7a0d14c09","651c0aa9d176484094718d20","null","null","<p style=""font-size: 60px; font-family: BACS"">YObAmCd</p>","","","","","","","","",""
"html-keyboard-response","266","438859","0.0-14.0-0.15","5ee83da8817af0000d47448f","650c16f0f2faf8d7a0d14c09","651c0aa9d176484094718d20","null","null","<p style=""font-size: 60px; font-family: BACS"">bYuQLkNc</p>","","","","","","","","",""
"html-keyboard-response","267","439872","0.0-14.0-0.16","5ee83da8817af0000d47448f","650c16f0f2faf8d7a0d14c09","651c0aa9d176484094718d20","null","null","<p style=""font-size: 60px; font-family: BACS"">bAdkEcR</p>","","","","","","","","",""
"html-keyboard-response","268","440879","0.0-14.0-0.17","5ee83da8817af0000d47448f","650c16f0f2faf8d7a0d14c09","651c0aa9d176484094718d20","null","null","<p style=""font-size: 60px; font-family: BACS"">rvAJLkNc</p>","","","","","","","","",""
"html-keyboard-response","269","441884","0.0-14.0-0.18","5ee83da8817af0000d47448f","650c16f0f2faf8d7a0d14c09","651c0aa9d176484094718d20","null","null","<p style=""font-size: 60px; font-family: BACS"">LcNUJkam</p>","","","","","","","","",""
"html-keyboard-response","270","442893","0.0-14.0-0.19","5ee83da8817af0000d47448f","650c16f0f2faf8d7a0d14c09","651c0aa9d176484094718d20","null","null","<p style=""font-size: 60px; font-family: BACS"">YKRkmCd</p>","","","","","","","","",""
"html-keyboard-response","271","443907","0.0-14.0-0.20","5ee83da8817af0000d47448f","650c16f0f2faf8d7a0d14c09","651c0aa9d176484094718d20","null","null","<p style=""font-size: 60px; font-family: BACS"">uvaULkNc</p>","","","","","","","","",""
"html-keyboard-response","272","444916","0.0-14.0-0.21","5ee83da8817af0000d47448f","650c16f0f2faf8d7a0d14c09","651c0aa9d176484094718d20","null","null","<p style=""font-size: 60px; font-family: BACS"">lTmOEcR</p>","","","","","","","","",""
"html-keyboard-response","273","445923","0.0-14.0-0.22","5ee83da8817af0000d47448f","650c16f0f2faf8d7a0d14c09","651c0aa9d176484094718d20","null","null","<p style=""font-size: 60px; font-family: BACS"">uAkrkam</p>","","","","","","","","",""
"html-keyboard-response","274","446931","0.0-14.0-0.23","5ee83da8817af0000d47448f","650c16f0f2faf8d7a0d14c09","651c0aa9d176484094718d20","null","null","<p style=""font-size: 60px; font-family: BACS"">DBklmKcD</p>","","","","","","","","",""
"html-keyboard-response","275","447932","0.0-14.0-0.24","5ee83da8817af0000d47448f","650c16f0f2faf8d7a0d14c09","651c0aa9d176484094718d20","null","null","<p style=""font-size: 60px; font-family: BACS"">PcBTPMd</p>","","","","","","","","",""
"html-keyboard-response","276","448942","0.0-14.0-0.25","5ee83da8817af0000d47448f","650c16f0f2faf8d7a0d14c09","651c0aa9d176484094718d20","null","null","<p style=""font-size: 60px; font-family: BACS"">JdOAYGUa</p>","","","","","","","","",""
"html-keyboard-response","277","449944","0.0-14.0-0.26","5ee83da8817af0000d47448f","650c16f0f2faf8d7a0d14c09","651c0aa9d176484094718d20","null","null","<p style=""font-size: 60px; font-family: BACS"">uAkrLkNc</p>","","","","","","","","",""
"html-keyboard-response","278","450952","0.0-14.0-0.27","5ee83da8817af0000d47448f","650c16f0f2faf8d7a0d14c09","651c0aa9d176484094718d20","null","null","<p style=""font-size: 60px; font-family: BACS"">DBklPMd</p>","","","","","","","","",""
"html-keyboard-response","279","451952","0.0-14.0-0.28","5ee83da8817af0000d47448f","650c16f0f2faf8d7a0d14c09","651c0aa9d176484094718d20","null","null","<p style=""font-size: 60px; font-family: BACS"">BKDRYEcR</p>","","","","","","","","",""
"html-keyboard-response","280","452955","0.0-14.0-0.29","5ee83da8817af0000d47448f","650c16f0f2faf8d7a0d14c09","651c0aa9d176484094718d20","null","null","<p style=""font-size: 60px; font-family: BACS"">YKRkBbM</p>","","","","","","","","",""
"html-keyboard-response","281","453986","0.0-14.0-0.30","5ee83da8817af0000d47448f","650c16f0f2faf8d7a0d14c09","651c0aa9d176484094718d20","null","null","<p style=""font-size: 60px; font-family: BACS"">alJYGUa</p>","","","","","","","","",""
"html-keyboard-response","282","454992","0.0-14.0-0.31","5ee83da8817af0000d47448f","650c16f0f2faf8d7a0d14c09","651c0aa9d176484094718d20","null","null","<p style=""font-size: 60px; font-family: BACS"">JdOAYOcZJ</p>","","","","","","","","",""
"html-keyboard-response","283","455995","0.0-14.0-0.32","5ee83da8817af0000d47448f","650c16f0f2faf8d7a0d14c09","651c0aa9d176484094718d20","null","null","<p style=""font-size: 60px; font-family: BACS"">alJYkam</p>","","","","","","","","",""
"html-keyboard-response","284","457002","0.0-14.0-0.33","5ee83da8817af0000d47448f","650c16f0f2faf8d7a0d14c09","651c0aa9d176484094718d20","null","null","<p style=""font-size: 60px; font-family: BACS"">lYruaGUa</p>","","","","","","","","",""
"html-keyboard-response","285","458017","0.0-14.0-0.34","5ee83da8817af0000d47448f","650c16f0f2faf8d7a0d14c09","651c0aa9d176484094718d20","null","null","<p style=""font-size: 60px; font-family: BACS"">bYuQkam</p>","","","","","","","","",""
"html-keyboard-response","286","459025","0.0-14.0-0.35","5ee83da8817af0000d47448f","650c16f0f2faf8d7a0d14c09","651c0aa9d176484094718d20","null","null","<p style=""font-size: 60px; font-family: BACS"">lTmOmCd</p>","","","","","","","","",""
"html-keyboard-response","287","460028","0.0-14.0-0.36","5ee83da8817af0000d47448f","650c16f0f2faf8d7a0d14c09","651c0aa9d176484094718d20","null","null","<p style=""font-size: 60px; font-family: BACS"">bYuQGUa</p>","","","","","","","","",""
"html-keyboard-response","288","461048","0.0-14.0-0.37","5ee83da8817af0000d47448f","650c16f0f2faf8d7a0d14c09","651c0aa9d176484094718d20","null","null","<p style=""font-size: 60px; font-family: BACS"">PcBTBbM</p>","","","","","","","","",""
"html-keyboard-response","289","462056","0.0-14.0-0.38","5ee83da8817af0000d47448f","650c16f0f2faf8d7a0d14c09","651c0aa9d176484094718d20","null","null","<p style=""font-size: 60px; font-family: BACS"">kZUbGUa</p>","","","","","","","","",""
"html-keyboard-response","290","463063","0.0-14.0-0.39","5ee83da8817af0000d47448f","650c16f0f2faf8d7a0d14c09","651c0aa9d176484094718d20","null","null","<p style=""font-size: 60px; font-family: BACS"">lTmOBbM</p>","","","","","","","","",""
"html-keyboard-response","291","464066","0.0-14.0-0.40","5ee83da8817af0000d47448f","650c16f0f2faf8d7a0d14c09","651c0aa9d176484094718d20","null","null","<p style=""font-size: 60px; font-family: BACS"">uvaUOcZJ</p>","","","","","","","","",""
"html-keyboard-response","292","465070","0.0-14.0-0.41","5ee83da8817af0000d47448f","650c16f0f2faf8d7a0d14c09","651c0aa9d176484094718d20","null","null","<p style=""font-size: 60px; font-family: BACS"">BKDRYPMd</p>","","","","","","","","",""
"html-keyboard-response","293","466072","0.0-14.0-0.42","5ee83da8817af0000d47448f","650c16f0f2faf8d7a0d14c09","651c0aa9d176484094718d20","null","null","<p style=""font-size: 60px; font-family: BACS"">lYruakam</p>","","","","","","","","",""
"html-keyboard-response","294","467083","0.0-14.0-0.43","5ee83da8817af0000d47448f","650c16f0f2faf8d7a0d14c09","651c0aa9d176484094718d20","null","null","<p style=""font-size: 60px; font-family: BACS"">KMDYtEcR</p>","","","","","","","","",""
"html-keyboard-response","295","468097","0.0-14.0-0.44","5ee83da8817af0000d47448f","650c16f0f2faf8d7a0d14c09","651c0aa9d176484094718d20","null","null","<p style=""font-size: 60px; font-family: BACS"">lYruaOcZJ</p>","","","","","","","","",""
"html-keyboard-response","296","469107","0.0-14.0-0.45","5ee83da8817af0000d47448f","650c16f0f2faf8d7a0d14c09","651c0aa9d176484094718d20","null","null","<p style=""font-size: 60px; font-family: BACS"">OmtlDmKcD</p>","","","","","","","","",""
"html-keyboard-response","297","470124","0.0-14.0-0.46","5ee83da8817af0000d47448f","650c16f0f2faf8d7a0d14c09","651c0aa9d176484094718d20","null","null","<p style=""font-size: 60px; font-family: BACS"">BKDRYmCd</p>","","","","","","","","",""
"html-keyboard-response","298","471126","0.0-14.0-0.47","5ee83da8817af0000d47448f","650c16f0f2faf8d7a0d14c09","651c0aa9d176484094718d20","null","null","<p style=""font-size: 60px; font-family: BACS"">bYuQZAUu</p>","","","","","","","","",""
"html-keyboard-response","299","472133","0.0-14.0-0.48","5ee83da8817af0000d47448f","650c16f0f2faf8d7a0d14c09","651c0aa9d176484094718d20","null","null","<p style=""font-size: 60px; font-family: BACS"">bAdkmKcD</p>","","","","","","","","",""
"html-keyboard-response","300","473141","0.0-14.0-0.49","5ee83da8817af0000d47448f","650c16f0f2faf8d7a0d14c09","651c0aa9d176484094718d20","null","null","<p style=""font-size: 60px; font-family: BACS"">uAkrZAUu</p>","","","","","","","","",""
"html-keyboard-response","301","474146","0.0-14.0-0.50","5ee83da8817af0000d47448f","650c16f0f2faf8d7a0d14c09","651c0aa9d176484094718d20","null","null","<p style=""font-size: 60px; font-family: BACS"">uvaUkam</p>","","","","","","","","",""
"html-keyboard-response","302","475150","0.0-14.0-0.51","5ee83da8817af0000d47448f","650c16f0f2faf8d7a0d14c09","651c0aa9d176484094718d20","null","null","<p style=""font-size: 60px; font-family: BACS"">LcNUJLkNc</p>","","","","","","","","",""
"html-keyboard-response","303","476159","0.0-14.0-0.52","5ee83da8817af0000d47448f","650c16f0f2faf8d7a0d14c09","651c0aa9d176484094718d20","null","null","<p style=""font-size: 60px; font-family: BACS"">KMDYtmCd</p>","","","","","","","","",""
"html-keyboard-response","304","477166","0.0-14.0-0.53","5ee83da8817af0000d47448f","650c16f0f2faf8d7a0d14c09","651c0aa9d176484094718d20","null","null","<p style=""font-size: 60px; font-family: BACS"">COtBDmKcD</p>","","","","","","","","",""
"html-keyboard-response","305","478174","0.0-14.0-0.54","5ee83da8817af0000d47448f","650c16f0f2faf8d7a0d14c09","651c0aa9d176484094718d20","null","null","<p style=""font-size: 60px; font-family: BACS"">AbkaGUa</p>","","","","","","","","",""
"html-keyboard-response","306","479182","0.0-14.0-0.55","5ee83da8817af0000d47448f","650c16f0f2faf8d7a0d14c09","651c0aa9d176484094718d20","null","null","<p style=""font-size: 60px; font-family: BACS"">BKDRYBbM</p>","","","","","","","","",""
"html-keyboard-response","307","480185","0.0-14.0-0.56","5ee83da8817af0000d47448f","650c16f0f2faf8d7a0d14c09","651c0aa9d176484094718d20","null","null","<p style=""font-size: 60px; font-family: BACS"">LcNUJOcZJ</p>","","","","","","","","",""
"html-keyboard-response","308","481194","0.0-14.0-0.57","5ee83da8817af0000d47448f","650c16f0f2faf8d7a0d14c09","651c0aa9d176484094718d20","null","null","<p style=""font-size: 60px; font-family: BACS"">lYruaZAUu</p>","","","","","","","","",""
"html-keyboard-response","309","482202","0.0-14.0-0.58","5ee83da8817af0000d47448f","650c16f0f2faf8d7a0d14c09","651c0aa9d176484094718d20","null","null","<p style=""font-size: 60px; font-family: BACS"">PcBTmCd</p>","","","","","","","","",""
"html-keyboard-response","310","483209","0.0-14.0-0.59","5ee83da8817af0000d47448f","650c16f0f2faf8d7a0d14c09","651c0aa9d176484094718d20","null","null","<p style=""font-size: 60px; font-family: BACS"">OmtlDPMd</p>","","","","","","","","",""
"html-keyboard-response","311","484216","0.0-14.0-0.60","5ee83da8817af0000d47448f","650c16f0f2faf8d7a0d14c09","651c0aa9d176484094718d20","null","null","<p style=""font-size: 60px; font-family: BACS"">COtBDBbM</p>","","","","","","","","",""
"html-keyboard-response","312","485224","0.0-14.0-0.61","5ee83da8817af0000d47448f","650c16f0f2faf8d7a0d14c09","651c0aa9d176484094718d20","null","null","<p style=""font-size: 60px; font-family: BACS"">kZUbOcZJ</p>","","","","","","","","",""
"html-keyboard-response","313","486229","0.0-14.0-0.62","5ee83da8817af0000d47448f","650c16f0f2faf8d7a0d14c09","651c0aa9d176484094718d20","null","null","<p style=""font-size: 60px; font-family: BACS"">bAdkBbM</p>","","","","","","","","",""
"html-keyboard-response","314","487249","0.0-14.0-0.63","5ee83da8817af0000d47448f","650c16f0f2faf8d7a0d14c09","651c0aa9d176484094718d20","null","null","<p style=""font-size: 60px; font-family: BACS"">COtBDmCd</p>","","","","","","","","",""
"html-keyboard-response","315","488250","0.0-14.0-0.64","5ee83da8817af0000d47448f","650c16f0f2faf8d7a0d14c09","651c0aa9d176484094718d20","null","null","<p style=""font-size: 60px; font-family: BACS"">DBklBbM</p>","","","","","","","","",""
"html-keyboard-response","316","489254","0.0-14.0-0.65","5ee83da8817af0000d47448f","650c16f0f2faf8d7a0d14c09","651c0aa9d176484094718d20","null","null","<p style=""font-size: 60px; font-family: BACS"">Abkakam</p>","","","","","","","","",""
"html-keyboard-response","317","490257","0.0-14.0-0.66","5ee83da8817af0000d47448f","650c16f0f2faf8d7a0d14c09","651c0aa9d176484094718d20","null","null","<p style=""font-size: 60px; font-family: BACS"">alJYZAUu</p>","","","","","","","","",""
"html-keyboard-response","318","491269","0.0-14.0-0.67","5ee83da8817af0000d47448f","650c16f0f2faf8d7a0d14c09","651c0aa9d176484094718d20","null","null","<p style=""font-size: 60px; font-family: BACS"">OmtlDEcR</p>","","","","","","","","",""
"html-keyboard-response","319","492286","0.0-14.0-0.68","5ee83da8817af0000d47448f","650c16f0f2faf8d7a0d14c09","651c0aa9d176484094718d20","null","null","<p style=""font-size: 60px; font-family: BACS"">uAkrOcZJ</p>","","","","","","","","",""
"html-keyboard-response","320","493291","0.0-14.0-0.69","5ee83da8817af0000d47448f","650c16f0f2faf8d7a0d14c09","651c0aa9d176484094718d20","null","null","<p style=""font-size: 60px; font-family: BACS"">KMDYtBbM</p>","","","","","","","","",""
"html-keyboard-response","321","494296","0.0-14.0-0.70","5ee83da8817af0000d47448f","650c16f0f2faf8d7a0d14c09","651c0aa9d176484094718d20","null","null","<p style=""font-size: 60px; font-family: BACS"">YObAmKcD</p>","","","","","","","","",""
"html-keyboard-response","322","495298","0.0-14.0-0.71","5ee83da8817af0000d47448f","650c16f0f2faf8d7a0d14c09","651c0aa9d176484094718d20","null","null","<p style=""font-size: 60px; font-family: BACS"">AbkaLkNc</p>","","","","","","","","",""
"html-keyboard-response","323","496299","0.0-14.0-0.72","5ee83da8817af0000d47448f","650c16f0f2faf8d7a0d14c09","651c0aa9d176484094718d20","null","null","<p style=""font-size: 60px; font-family: BACS"">rvAJGUa</p>","","","","","","","","",""
"html-keyboard-response","324","497300","0.0-14.0-0.73","5ee83da8817af0000d47448f","650c16f0f2faf8d7a0d14c09","651c0aa9d176484094718d20","null","null","<p style=""font-size: 60px; font-family: BACS"">kZUbZAUu</p>","","","","","","","","",""
"html-keyboard-response","325","498306","0.0-14.0-0.74","5ee83da8817af0000d47448f","650c16f0f2faf8d7a0d14c09","651c0aa9d176484094718d20","null","null","<p style=""font-size: 60px; font-family: BACS"">LcNUJGUa</p>","","","","","","","","",""
"html-keyboard-response","326","499313","0.0-14.0-0.75","5ee83da8817af0000d47448f","650c16f0f2faf8d7a0d14c09","651c0aa9d176484094718d20","null","null","<p style=""font-size: 60px; font-family: BACS"">OmtlDmCd</p>","","","","","","","","",""
"html-keyboard-response","327","500314","0.0-14.0-0.76","5ee83da8817af0000d47448f","650c16f0f2faf8d7a0d14c09","651c0aa9d176484094718d20","null","null","<p style=""font-size: 60px; font-family: BACS"">uvaUZAUu</p>","","","","","","","","",""
"html-keyboard-response","328","501319","0.0-14.0-0.77","5ee83da8817af0000d47448f","650c16f0f2faf8d7a0d14c09","651c0aa9d176484094718d20","null","null","<p style=""font-size: 60px; font-family: BACS"">lTmOPMd</p>","","","","","","","","",""
"html-keyboard-response","329","502325","0.0-14.0-0.78","5ee83da8817af0000d47448f","650c16f0f2faf8d7a0d14c09","651c0aa9d176484094718d20","null","null","<p style=""font-size: 60px; font-family: BACS"">YObAEcR</p>","","","","","","","","",""
"html-keyboard-response","330","503332","0.0-14.0-0.79","5ee83da8817af0000d47448f","650c16f0f2faf8d7a0d14c09","651c0aa9d176484094718d20","null","null","<p style=""font-size: 60px; font-family: BACS"">rvAJOcZJ</p>","","","","","","","","",""
"html-keyboard-response","331","515385","0.0-15.0","5ee83da8817af0000d47448f","650c16f0f2faf8d7a0d14c09","651c0aa9d176484094718d20","12052"," ","<p>Great, you've seen the fourth block of words. You may now take a short break.</p>
      <p>Press the spacebar when you're ready to continue.</p>","","","","","","","","",""
"html-keyboard-response","332","516392","0.0-16.0-0.0","5ee83da8817af0000d47448f","650c16f0f2faf8d7a0d14c09","651c0aa9d176484094718d20","null","null","<p style=""font-size: 60px; font-family: BACS"">PcBTBbM</p>","","","","","","","","",""
"html-keyboard-response","333","517396","0.0-16.0-0.1","5ee83da8817af0000d47448f","650c16f0f2faf8d7a0d14c09","651c0aa9d176484094718d20","null","null","<p style=""font-size: 60px; font-family: BACS"">PcBTBbM</p>","","","","","","","","",""
"html-keyboard-response","334","518401","0.0-16.0-0.2","5ee83da8817af0000d47448f","650c16f0f2faf8d7a0d14c09","651c0aa9d176484094718d20","null","null","<p style=""font-size: 60px; font-family: BACS"">PcBTBbM</p>","","","","","","","","",""
"html-keyboard-response","335","519409","0.0-16.0-0.3","5ee83da8817af0000d47448f","650c16f0f2faf8d7a0d14c09","651c0aa9d176484094718d20","null","null","<p style=""font-size: 60px; font-family: BACS"">PcBTBbM</p>","","","","","","","","",""
"html-keyboard-response","336","520417","0.0-16.0-0.4","5ee83da8817af0000d47448f","650c16f0f2faf8d7a0d14c09","651c0aa9d176484094718d20","null","null","<p style=""font-size: 60px; font-family: BACS"">PcBTBbM</p>","","","","","","","","",""
"html-keyboard-response","337","521424","0.0-16.0-0.5","5ee83da8817af0000d47448f","650c16f0f2faf8d7a0d14c09","651c0aa9d176484094718d20","null","null","<p style=""font-size: 60px; font-family: BACS"">PcBTBbM</p>","","","","","","","","",""
"html-keyboard-response","338","522427","0.0-16.0-0.6","5ee83da8817af0000d47448f","650c16f0f2faf8d7a0d14c09","651c0aa9d176484094718d20","null","null","<p style=""font-size: 60px; font-family: BACS"">PcBTBbM</p>","","","","","","","","",""
"html-keyboard-response","339","523435","0.0-16.0-0.7","5ee83da8817af0000d47448f","650c16f0f2faf8d7a0d14c09","651c0aa9d176484094718d20","null","null","<p style=""font-size: 60px; font-family: BACS"">PcBTBbM</p>","","","","","","","","",""
"html-keyboard-response","340","524441","0.0-16.0-0.8","5ee83da8817af0000d47448f","650c16f0f2faf8d7a0d14c09","651c0aa9d176484094718d20","null","null","<p style=""font-size: 60px; font-family: BACS"">PcBTBbM</p>","","","","","","","","",""
"html-keyboard-response","341","525448","0.0-16.0-0.9","5ee83da8817af0000d47448f","650c16f0f2faf8d7a0d14c09","651c0aa9d176484094718d20","null","null","<p style=""font-size: 60px; font-family: BACS"">PcBTBbM</p>","","","","","","","","",""
"html-keyboard-response","342","526465","0.0-16.0-0.10","5ee83da8817af0000d47448f","650c16f0f2faf8d7a0d14c09","651c0aa9d176484094718d20","null","null","<p style=""font-size: 60px; font-family: BACS"">PcBTBbM</p>","","","","","","","","",""
"html-keyboard-response","343","527468","0.0-16.0-0.11","5ee83da8817af0000d47448f","650c16f0f2faf8d7a0d14c09","651c0aa9d176484094718d20","null","null","<p style=""font-size: 60px; font-family: BACS"">PcBTBbM</p>","","","","","","","","",""
"html-keyboard-response","344","528474","0.0-16.0-0.12","5ee83da8817af0000d47448f","650c16f0f2faf8d7a0d14c09","651c0aa9d176484094718d20","null","null","<p style=""font-size: 60px; font-family: BACS"">PcBTBbM</p>","","","","","","","","",""
"html-keyboard-response","345","529476","0.0-16.0-0.13","5ee83da8817af0000d47448f","650c16f0f2faf8d7a0d14c09","651c0aa9d176484094718d20","null","null","<p style=""font-size: 60px; font-family: BACS"">PcBTBbM</p>","","","","","","","","",""
"html-keyboard-response","346","530487","0.0-16.0-0.14","5ee83da8817af0000d47448f","650c16f0f2faf8d7a0d14c09","651c0aa9d176484094718d20","null","null","<p style=""font-size: 60px; font-family: BACS"">PcBTBbM</p>","","","","","","","","",""
"html-keyboard-response","347","531490","0.0-16.0-0.15","5ee83da8817af0000d47448f","650c16f0f2faf8d7a0d14c09","651c0aa9d176484094718d20","null","null","<p style=""font-size: 60px; font-family: BACS"">PcBTBbM</p>","","","","","","","","",""
"html-keyboard-response","348","532496","0.0-16.0-0.16","5ee83da8817af0000d47448f","650c16f0f2faf8d7a0d14c09","651c0aa9d176484094718d20","null","null","<p style=""font-size: 60px; font-family: BACS"">PcBTBbM</p>","","","","","","","","",""
"html-keyboard-response","349","533499","0.0-16.0-0.17","5ee83da8817af0000d47448f","650c16f0f2faf8d7a0d14c09","651c0aa9d176484094718d20","null","null","<p style=""font-size: 60px; font-family: BACS"">PcBTBbM</p>","","","","","","","","",""
"html-keyboard-response","350","534502","0.0-16.0-0.18","5ee83da8817af0000d47448f","650c16f0f2faf8d7a0d14c09","651c0aa9d176484094718d20","null","null","<p style=""font-size: 60px; font-family: BACS"">PcBTBbM</p>","","","","","","","","",""
"html-keyboard-response","351","535505","0.0-16.0-0.19","5ee83da8817af0000d47448f","650c16f0f2faf8d7a0d14c09","651c0aa9d176484094718d20","null","null","<p style=""font-size: 60px; font-family: BACS"">PcBTBbM</p>","","","","","","","","",""
"html-keyboard-response","352","536514","0.0-16.0-0.20","5ee83da8817af0000d47448f","650c16f0f2faf8d7a0d14c09","651c0aa9d176484094718d20","null","null","<p style=""font-size: 60px; font-family: BACS"">PcBTBbM</p>","","","","","","","","",""
"html-keyboard-response","353","537519","0.0-16.0-0.21","5ee83da8817af0000d47448f","650c16f0f2faf8d7a0d14c09","651c0aa9d176484094718d20","null","null","<p style=""font-size: 60px; font-family: BACS"">PcBTBbM</p>","","","","","","","","",""
"html-keyboard-response","354","538526","0.0-16.0-0.22","5ee83da8817af0000d47448f","650c16f0f2faf8d7a0d14c09","651c0aa9d176484094718d20","null","null","<p style=""font-size: 60px; font-family: BACS"">PcBTBbM</p>","","","","","","","","",""
"html-keyboard-response","355","539529","0.0-16.0-0.23","5ee83da8817af0000d47448f","650c16f0f2faf8d7a0d14c09","651c0aa9d176484094718d20","null","null","<p style=""font-size: 60px; font-family: BACS"">PcBTBbM</p>","","","","","","","","",""
"html-keyboard-response","356","540533","0.0-16.0-0.24","5ee83da8817af0000d47448f","650c16f0f2faf8d7a0d14c09","651c0aa9d176484094718d20","null","null","<p style=""font-size: 60px; font-family: BACS"">PcBTBbM</p>","","","","","","","","",""
"html-keyboard-response","357","541541","0.0-16.0-0.25","5ee83da8817af0000d47448f","650c16f0f2faf8d7a0d14c09","651c0aa9d176484094718d20","null","null","<p style=""font-size: 60px; font-family: BACS"">PcBTBbM</p>","","","","","","","","",""
"html-keyboard-response","358","542541","0.0-16.0-0.26","5ee83da8817af0000d47448f","650c16f0f2faf8d7a0d14c09","651c0aa9d176484094718d20","null","null","<p style=""font-size: 60px; font-family: BACS"">PcBTBbM</p>","","","","","","","","",""
"html-keyboard-response","359","543548","0.0-16.0-0.27","5ee83da8817af0000d47448f","650c16f0f2faf8d7a0d14c09","651c0aa9d176484094718d20","null","null","<p style=""font-size: 60px; font-family: BACS"">PcBTBbM</p>","","","","","","","","",""
"html-keyboard-response","360","544551","0.0-16.0-0.28","5ee83da8817af0000d47448f","650c16f0f2faf8d7a0d14c09","651c0aa9d176484094718d20","null","null","<p style=""font-size: 60px; font-family: BACS"">PcBTBbM</p>","","","","","","","","",""
"html-keyboard-response","361","545553","0.0-16.0-0.29","5ee83da8817af0000d47448f","650c16f0f2faf8d7a0d14c09","651c0aa9d176484094718d20","null","null","<p style=""font-size: 60px; font-family: BACS"">PcBTBbM</p>","","","","","","","","",""
"html-keyboard-response","362","546557","0.0-16.0-0.30","5ee83da8817af0000d47448f","650c16f0f2faf8d7a0d14c09","651c0aa9d176484094718d20","null","null","<p style=""font-size: 60px; font-family: BACS"">PcBTBbM</p>","","","","","","","","",""
"html-keyboard-response","363","547560","0.0-16.0-0.31","5ee83da8817af0000d47448f","650c16f0f2faf8d7a0d14c09","651c0aa9d176484094718d20","null","null","<p style=""font-size: 60px; font-family: BACS"">PcBTBbM</p>","","","","","","","","",""
"html-keyboard-response","364","548566","0.0-16.0-0.32","5ee83da8817af0000d47448f","650c16f0f2faf8d7a0d14c09","651c0aa9d176484094718d20","null","null","<p style=""font-size: 60px; font-family: BACS"">PcBTBbM</p>","","","","","","","","",""
"html-keyboard-response","365","549578","0.0-16.0-0.33","5ee83da8817af0000d47448f","650c16f0f2faf8d7a0d14c09","651c0aa9d176484094718d20","null","null","<p style=""font-size: 60px; font-family: BACS"">PcBTBbM</p>","","","","","","","","",""
"html-keyboard-response","366","550581","0.0-16.0-0.34","5ee83da8817af0000d47448f","650c16f0f2faf8d7a0d14c09","651c0aa9d176484094718d20","null","null","<p style=""font-size: 60px; font-family: BACS"">PcBTBbM</p>","","","","","","","","",""
"html-keyboard-response","367","551585","0.0-16.0-0.35","5ee83da8817af0000d47448f","650c16f0f2faf8d7a0d14c09","651c0aa9d176484094718d20","null","null","<p style=""font-size: 60px; font-family: BACS"">PcBTBbM</p>","","","","","","","","",""
"html-keyboard-response","368","552588","0.0-16.0-0.36","5ee83da8817af0000d47448f","650c16f0f2faf8d7a0d14c09","651c0aa9d176484094718d20","null","null","<p style=""font-size: 60px; font-family: BACS"">PcBTBbM</p>","","","","","","","","",""
"html-keyboard-response","369","553590","0.0-16.0-0.37","5ee83da8817af0000d47448f","650c16f0f2faf8d7a0d14c09","651c0aa9d176484094718d20","null","null","<p style=""font-size: 60px; font-family: BACS"">PcBTBbM</p>","","","","","","","","",""
"html-keyboard-response","370","554595","0.0-16.0-0.38","5ee83da8817af0000d47448f","650c16f0f2faf8d7a0d14c09","651c0aa9d176484094718d20","null","null","<p style=""font-size: 60px; font-family: BACS"">PcBTBbM</p>","","","","","","","","",""
"html-keyboard-response","371","555610","0.0-16.0-0.39","5ee83da8817af0000d47448f","650c16f0f2faf8d7a0d14c09","651c0aa9d176484094718d20","null","null","<p style=""font-size: 60px; font-family: BACS"">PcBTBbM</p>","","","","","","","","",""
"html-keyboard-response","372","556614","0.0-16.0-0.40","5ee83da8817af0000d47448f","650c16f0f2faf8d7a0d14c09","651c0aa9d176484094718d20","null","null","<p style=""font-size: 60px; font-family: BACS"">PcBTBbM</p>","","","","","","","","",""
"html-keyboard-response","373","557637","0.0-16.0-0.41","5ee83da8817af0000d47448f","650c16f0f2faf8d7a0d14c09","651c0aa9d176484094718d20","null","null","<p style=""font-size: 60px; font-family: BACS"">PcBTBbM</p>","","","","","","","","",""
"html-keyboard-response","374","558647","0.0-16.0-0.42","5ee83da8817af0000d47448f","650c16f0f2faf8d7a0d14c09","651c0aa9d176484094718d20","null","null","<p style=""font-size: 60px; font-family: BACS"">PcBTBbM</p>","","","","","","","","",""
"html-keyboard-response","375","559654","0.0-16.0-0.43","5ee83da8817af0000d47448f","650c16f0f2faf8d7a0d14c09","651c0aa9d176484094718d20","null","null","<p style=""font-size: 60px; font-family: BACS"">PcBTBbM</p>","","","","","","","","",""
"html-keyboard-response","376","560663","0.0-16.0-0.44","5ee83da8817af0000d47448f","650c16f0f2faf8d7a0d14c09","651c0aa9d176484094718d20","null","null","<p style=""font-size: 60px; font-family: BACS"">PcBTBbM</p>","","","","","","","","",""
"html-keyboard-response","377","561671","0.0-16.0-0.45","5ee83da8817af0000d47448f","650c16f0f2faf8d7a0d14c09","651c0aa9d176484094718d20","null","null","<p style=""font-size: 60px; font-family: BACS"">PcBTBbM</p>","","","","","","","","",""
"html-keyboard-response","378","562681","0.0-16.0-0.46","5ee83da8817af0000d47448f","650c16f0f2faf8d7a0d14c09","651c0aa9d176484094718d20","null","null","<p style=""font-size: 60px; font-family: BACS"">PcBTBbM</p>","","","","","","","","",""
"html-keyboard-response","379","563682","0.0-16.0-0.47","5ee83da8817af0000d47448f","650c16f0f2faf8d7a0d14c09","651c0aa9d176484094718d20","null","null","<p style=""font-size: 60px; font-family: BACS"">PcBTBbM</p>","","","","","","","","",""
"html-keyboard-response","380","564692","0.0-16.0-0.48","5ee83da8817af0000d47448f","650c16f0f2faf8d7a0d14c09","651c0aa9d176484094718d20","null","null","<p style=""font-size: 60px; font-family: BACS"">PcBTBbM</p>","","","","","","","","",""
"html-keyboard-response","381","565698","0.0-16.0-0.49","5ee83da8817af0000d47448f","650c16f0f2faf8d7a0d14c09","651c0aa9d176484094718d20","null","null","<p style=""font-size: 60px; font-family: BACS"">PcBTBbM</p>","","","","","","","","",""
"html-keyboard-response","382","566711","0.0-16.0-0.50","5ee83da8817af0000d47448f","650c16f0f2faf8d7a0d14c09","651c0aa9d176484094718d20","null","null","<p style=""font-size: 60px; font-family: BACS"">PcBTBbM</p>","","","","","","","","",""
"html-keyboard-response","383","567714","0.0-16.0-0.51","5ee83da8817af0000d47448f","650c16f0f2faf8d7a0d14c09","651c0aa9d176484094718d20","null","null","<p style=""font-size: 60px; font-family: BACS"">PcBTBbM</p>","","","","","","","","",""
"html-keyboard-response","384","568716","0.0-16.0-0.52","5ee83da8817af0000d47448f","650c16f0f2faf8d7a0d14c09","651c0aa9d176484094718d20","null","null","<p style=""font-size: 60px; font-family: BACS"">PcBTBbM</p>","","","","","","","","",""
"html-keyboard-response","385","569730","0.0-16.0-0.53","5ee83da8817af0000d47448f","650c16f0f2faf8d7a0d14c09","651c0aa9d176484094718d20","null","null","<p style=""font-size: 60px; font-family: BACS"">PcBTBbM</p>","","","","","","","","",""
"html-keyboard-response","386","570739","0.0-16.0-0.54","5ee83da8817af0000d47448f","650c16f0f2faf8d7a0d14c09","651c0aa9d176484094718d20","null","null","<p style=""font-size: 60px; font-family: BACS"">PcBTBbM</p>","","","","","","","","",""
"html-keyboard-response","387","571742","0.0-16.0-0.55","5ee83da8817af0000d47448f","650c16f0f2faf8d7a0d14c09","651c0aa9d176484094718d20","null","null","<p style=""font-size: 60px; font-family: BACS"">PcBTBbM</p>","","","","","","","","",""
"html-keyboard-response","388","572749","0.0-16.0-0.56","5ee83da8817af0000d47448f","650c16f0f2faf8d7a0d14c09","651c0aa9d176484094718d20","null","null","<p style=""font-size: 60px; font-family: BACS"">PcBTBbM</p>","","","","","","","","",""
"html-keyboard-response","389","573768","0.0-16.0-0.57","5ee83da8817af0000d47448f","650c16f0f2faf8d7a0d14c09","651c0aa9d176484094718d20","null","null","<p style=""font-size: 60px; font-family: BACS"">PcBTBbM</p>","","","","","","","","",""
"html-keyboard-response","390","574776","0.0-16.0-0.58","5ee83da8817af0000d47448f","650c16f0f2faf8d7a0d14c09","651c0aa9d176484094718d20","null","null","<p style=""font-size: 60px; font-family: BACS"">PcBTBbM</p>","","","","","","","","",""
"html-keyboard-response","391","575789","0.0-16.0-0.59","5ee83da8817af0000d47448f","650c16f0f2faf8d7a0d14c09","651c0aa9d176484094718d20","null","null","<p style=""font-size: 60px; font-family: BACS"">PcBTBbM</p>","","","","","","","","",""
"html-keyboard-response","392","576796","0.0-16.0-0.60","5ee83da8817af0000d47448f","650c16f0f2faf8d7a0d14c09","651c0aa9d176484094718d20","null","null","<p style=""font-size: 60px; font-family: BACS"">PcBTBbM</p>","","","","","","","","",""
"html-keyboard-response","393","577798","0.0-16.0-0.61","5ee83da8817af0000d47448f","650c16f0f2faf8d7a0d14c09","651c0aa9d176484094718d20","null","null","<p style=""font-size: 60px; font-family: BACS"">PcBTBbM</p>","","","","","","","","",""
"html-keyboard-response","394","578808","0.0-16.0-0.62","5ee83da8817af0000d47448f","650c16f0f2faf8d7a0d14c09","651c0aa9d176484094718d20","null","null","<p style=""font-size: 60px; font-family: BACS"">PcBTBbM</p>","","","","","","","","",""
"html-keyboard-response","395","579816","0.0-16.0-0.63","5ee83da8817af0000d47448f","650c16f0f2faf8d7a0d14c09","651c0aa9d176484094718d20","null","null","<p style=""font-size: 60px; font-family: BACS"">PcBTBbM</p>","","","","","","","","",""
"html-keyboard-response","396","580824","0.0-16.0-0.64","5ee83da8817af0000d47448f","650c16f0f2faf8d7a0d14c09","651c0aa9d176484094718d20","null","null","<p style=""font-size: 60px; font-family: BACS"">PcBTBbM</p>","","","","","","","","",""
"html-keyboard-response","397","581827","0.0-16.0-0.65","5ee83da8817af0000d47448f","650c16f0f2faf8d7a0d14c09","651c0aa9d176484094718d20","null","null","<p style=""font-size: 60px; font-family: BACS"">PcBTBbM</p>","","","","","","","","",""
"html-keyboard-response","398","582840","0.0-16.0-0.66","5ee83da8817af0000d47448f","650c16f0f2faf8d7a0d14c09","651c0aa9d176484094718d20","null","null","<p style=""font-size: 60px; font-family: BACS"">PcBTBbM</p>","","","","","","","","",""
