"trial_type","trial_index","time_elapsed","internal_node_id","subject_id","study_id","session_id","rt","response","stimulus","success","item","task","correct_response","testing_condition","correct","target","confound","name"
"pavlovia","0","800","0.0-0.0","5ed013f88fce6e0d858b732e","650c16f0f2faf8d7a0d14c09","651c1c2bf05d9dfa800068fb","","","","","","","","","","","",""
"survey-html-form","1","596229","0.0-1.0","5ed013f88fce6e0d858b732e","650c16f0f2faf8d7a0d14c09","651c1c2bf05d9dfa800068fb","595429","{""ID"":""5ed013f88fce6e0d858b732e""}","","","","","","","","","",""
"html-keyboard-response","2","618679","0.0-2.0","5ed013f88fce6e0d858b732e","650c16f0f2faf8d7a0d14c09","651c1c2bf05d9dfa800068fb","22450"," ","<p style=""font-size: 15px;"">Before beginning, we ask that you read the consent information and confirm your agreement to participate in the experiment.</p>
      <p style=""font-size: 15px;""> We ask that you remember that this is a research project and that your participation is entirely voluntary. You can stop your participation at any time, without needing to provide any explanation. The study we're asking you to participate in aims at examining how readers process written words. You will be engaged in a session of apprximately 20 minutes, followed by a brief questionnaire. You will have the opportunity to take a few breaks during the experiment. You will be paid £4 for your participation, corresponding to a rate of £8/hour. While this experiment looks at cognitive faculties, this experiment doesn't constitute clinical proof of eventual pathologies.</p>
      <p style=""font-size: 15px;"">All of the information collected thanks to yours and others' participation will be held in a secure password-protected server, and will not be shared with anyone not authorised to view it. Your personal information will be kept with an arbitrary participant ID. Thanks to this data anonymity process, any researcher analysing the data won't be able to track the information back to a specific participant. Therefore, this process will make identifying you impossibile, even when results from the study will be published in scientific reviews, presented at congresses, or at any other public forum. More generally, the collected data will be treated in accordance with the laws on privacy and conformity to the Legislative Degree n. 196 ""Code regarding the protection of personal data"" of the 30th of June 2003 and to the European Regulation 2016/670 (General Data Protection Regulation - GDPR). The Data Protection Officer is Avv. Valentina Carollo, who can be contacted at the following email addresses: <a href=""mailto:dpo@sissa.it"">dpo@sissa.it</a> or <a href=""mailto:rpd@sissa.it"">rpd@sissa.it</a> - PEC: <a href=""mailto:protocollo@pec.sissa.it"">protocollo@pec.sissa.it</a>.</p>
      <p style=""font-size: 15px;""> Before expressing your consent to participate, we would like to remind you again that in case you need explanations on any aspect of the experimental procedure, the researcher is at your disposition (<a href=""mailto:aliebelt@sissa.it"">aliebelt@sissa.it</a>, <a href=""mailto:davide.crepaldi@sissa.it"">davide.crepaldi@sissa.it</a>).</p>
      <p style=""font-size: 15px;"">If you would like to download the informed consent form, you can do so here: <a href=""BASL-Informed_Consent.pdf"" download>informed consent form</a>.</p>
      <p style=""font-size: 15px;"">We ask that you press the spacebar to proceed to the consent section.</p>","","","","","","","","",""
"survey-html-form","3","632746","0.0-3.0","5ed013f88fce6e0d858b732e","650c16f0f2faf8d7a0d14c09","651c1c2bf05d9dfa800068fb","14050","{""consent1"":""YES"",""consent2"":""YES"",""consent3"":""YES"",""consent4"":""YES"",""consent5"":""YES"",""consent6"":""YES""}","","","","","","","","","",""
"fullscreen","4","644696","0.0-4.0","5ed013f88fce6e0d858b732e","650c16f0f2faf8d7a0d14c09","651c1c2bf05d9dfa800068fb","","","","true","","","","","","","",""
"html-keyboard-response","5","664713","0.0-5.0","5ed013f88fce6e0d858b732e","650c16f0f2faf8d7a0d14c09","651c1c2bf05d9dfa800068fb","20034"," ","<p>Welcome, and thank you very much for your time!</p>
      <p>In this experiment, you'll be a language expert who's been asked to take a look at words that Earth has received in its first communication with aliens. Your task, in this first part of the experiment, is to pay close attention to the words you'll be shown; later, world leaders will ask you questions on what you saw. The words will be shown to you quite quickly; it seems that the aliens were in a hurry :-)</p>
      <p>Press the spacebar to continue.<p>","","","","","","","","",""
"html-keyboard-response","6","664780","0.0-6.0","5ed013f88fce6e0d858b732e","650c16f0f2faf8d7a0d14c09","651c1c2bf05d9dfa800068fb","null","null","<p style=""font-size: 120px; font-family: BACS""> </p>","","","","","","","","",""
"html-keyboard-response","7","677130","0.0-7.0","5ed013f88fce6e0d858b732e","650c16f0f2faf8d7a0d14c09","651c1c2bf05d9dfa800068fb","12367"," ","<p>Here is an example of the words you'll see:</p>
      <img src='esempio.png' height='400px'>
      <p>When you're ready to begin, press the spacebar.</p></div>","","","","","","","","",""
"html-keyboard-response","8","678147","0.0-8.0-0.0","5ed013f88fce6e0d858b732e","650c16f0f2faf8d7a0d14c09","651c1c2bf05d9dfa800068fb","null","null","<p style=""font-size: 60px; font-family: BACS"">ckduAJUG</p>","","","","","","","","",""
"html-keyboard-response","9","679147","0.0-8.0-0.1","5ed013f88fce6e0d858b732e","650c16f0f2faf8d7a0d14c09","651c1c2bf05d9dfa800068fb","null","null","<p style=""font-size: 60px; font-family: BACS"">dYdAOBT</p>","","","","","","","","",""
"html-keyboard-response","10","680147","0.0-8.0-0.2","5ed013f88fce6e0d858b732e","650c16f0f2faf8d7a0d14c09","651c1c2bf05d9dfa800068fb","null","null","<p style=""font-size: 60px; font-family: BACS"">ckLALJud</p>","","","","","","","","",""
"html-keyboard-response","11","681164","0.0-8.0-0.3","5ed013f88fce6e0d858b732e","650c16f0f2faf8d7a0d14c09","651c1c2bf05d9dfa800068fb","null","null","<p style=""font-size: 60px; font-family: BACS"">DCmhRYlD</p>","","","","","","","","",""
"html-keyboard-response","12","682180","0.0-8.0-0.4","5ed013f88fce6e0d858b732e","650c16f0f2faf8d7a0d14c09","651c1c2bf05d9dfa800068fb","null","null","<p style=""font-size: 60px; font-family: BACS"">ckLALJUG</p>","","","","","","","","",""
"html-keyboard-response","13","683180","0.0-8.0-0.5","5ed013f88fce6e0d858b732e","650c16f0f2faf8d7a0d14c09","651c1c2bf05d9dfa800068fb","null","null","<p style=""font-size: 60px; font-family: BACS"">kPOtmhc</p>","","","","","","","","",""
"html-keyboard-response","14","684197","0.0-8.0-0.6","5ed013f88fce6e0d858b732e","650c16f0f2faf8d7a0d14c09","651c1c2bf05d9dfa800068fb","null","null","<p style=""font-size: 60px; font-family: BACS"">GNAcaJUG</p>","","","","","","","","",""
"html-keyboard-response","15","685197","0.0-8.0-0.7","5ed013f88fce6e0d858b732e","650c16f0f2faf8d7a0d14c09","651c1c2bf05d9dfa800068fb","null","null","<p style=""font-size: 60px; font-family: BACS"">Ctmbmhc</p>","","","","","","","","",""
"html-keyboard-response","16","686197","0.0-8.0-0.8","5ed013f88fce6e0d858b732e","650c16f0f2faf8d7a0d14c09","651c1c2bf05d9dfa800068fb","null","null","<p style=""font-size: 60px; font-family: BACS"">BECkMKmY</p>","","","","","","","","",""
"html-keyboard-response","17","687214","0.0-8.0-0.9","5ed013f88fce6e0d858b732e","650c16f0f2faf8d7a0d14c09","651c1c2bf05d9dfa800068fb","null","null","<p style=""font-size: 60px; font-family: BACS"">LdrbvdYAJ</p>","","","","","","","","",""
"html-keyboard-response","18","688214","0.0-8.0-0.10","5ed013f88fce6e0d858b732e","650c16f0f2faf8d7a0d14c09","651c1c2bf05d9dfa800068fb","null","null","<p style=""font-size: 60px; font-family: BACS"">kPOtMCkm</p>","","","","","","","","",""
"html-keyboard-response","19","689214","0.0-8.0-0.11","5ed013f88fce6e0d858b732e","650c16f0f2faf8d7a0d14c09","651c1c2bf05d9dfa800068fb","null","null","<p style=""font-size: 60px; font-family: BACS"">NAacQdYAJ</p>","","","","","","","","",""
"html-keyboard-response","20","690214","0.0-8.0-0.12","5ed013f88fce6e0d858b732e","650c16f0f2faf8d7a0d14c09","651c1c2bf05d9dfa800068fb","null","null","<p style=""font-size: 60px; font-family: BACS"">ckduAuda</p>","","","","","","","","",""
"html-keyboard-response","21","691231","0.0-8.0-0.13","5ed013f88fce6e0d858b732e","650c16f0f2faf8d7a0d14c09","651c1c2bf05d9dfa800068fb","null","null","<p style=""font-size: 60px; font-family: BACS"">CtmbMCkm</p>","","","","","","","","",""
"html-keyboard-response","22","692231","0.0-8.0-0.14","5ed013f88fce6e0d858b732e","650c16f0f2faf8d7a0d14c09","651c1c2bf05d9dfa800068fb","null","null","<p style=""font-size: 60px; font-family: BACS"">DCmhMKmY</p>","","","","","","","","",""
"html-keyboard-response","23","693231","0.0-8.0-0.15","5ed013f88fce6e0d858b732e","650c16f0f2faf8d7a0d14c09","651c1c2bf05d9dfa800068fb","null","null","<p style=""font-size: 60px; font-family: BACS"">ECtbDRYlD</p>","","","","","","","","",""
"html-keyboard-response","24","694231","0.0-8.0-0.16","5ed013f88fce6e0d858b732e","650c16f0f2faf8d7a0d14c09","651c1c2bf05d9dfa800068fb","null","null","<p style=""font-size: 60px; font-family: BACS"">lYruaJud</p>","","","","","","","","",""
"html-keyboard-response","25","695247","0.0-8.0-0.17","5ed013f88fce6e0d858b732e","650c16f0f2faf8d7a0d14c09","651c1c2bf05d9dfa800068fb","null","null","<p style=""font-size: 60px; font-family: BACS"">TCbDCmhc</p>","","","","","","","","",""
"html-keyboard-response","26","696247","0.0-8.0-0.18","5ed013f88fce6e0d858b732e","650c16f0f2faf8d7a0d14c09","651c1c2bf05d9dfa800068fb","null","null","<p style=""font-size: 60px; font-family: BACS"">lYruaJUG</p>","","","","","","","","",""
"html-keyboard-response","27","697247","0.0-8.0-0.19","5ed013f88fce6e0d858b732e","650c16f0f2faf8d7a0d14c09","651c1c2bf05d9dfa800068fb","null","null","<p style=""font-size: 60px; font-family: BACS"">ckLALukbY</p>","","","","","","","","",""
"html-keyboard-response","28","698247","0.0-8.0-0.20","5ed013f88fce6e0d858b732e","650c16f0f2faf8d7a0d14c09","651c1c2bf05d9dfa800068fb","null","null","<p style=""font-size: 60px; font-family: BACS"">BKDRYMCkm</p>","","","","","","","","",""
"html-keyboard-response","29","699264","0.0-8.0-0.21","5ed013f88fce6e0d858b732e","650c16f0f2faf8d7a0d14c09","651c1c2bf05d9dfa800068fb","null","null","<p style=""font-size: 60px; font-family: BACS"">kPOtOBT</p>","","","","","","","","",""
"html-keyboard-response","30","700264","0.0-8.0-0.22","5ed013f88fce6e0d858b732e","650c16f0f2faf8d7a0d14c09","651c1c2bf05d9dfa800068fb","null","null","<p style=""font-size: 60px; font-family: BACS"">aUZAJUG</p>","","","","","","","","",""
"html-keyboard-response","31","701264","0.0-8.0-0.23","5ed013f88fce6e0d858b732e","650c16f0f2faf8d7a0d14c09","651c1c2bf05d9dfa800068fb","null","null","<p style=""font-size: 60px; font-family: BACS"">uvaUukbY</p>","","","","","","","","",""
"html-keyboard-response","32","702281","0.0-8.0-0.24","5ed013f88fce6e0d858b732e","650c16f0f2faf8d7a0d14c09","651c1c2bf05d9dfa800068fb","null","null","<p style=""font-size: 60px; font-family: BACS"">aLNlkuda</p>","","","","","","","","",""
"html-keyboard-response","33","703281","0.0-8.0-0.25","5ed013f88fce6e0d858b732e","650c16f0f2faf8d7a0d14c09","651c1c2bf05d9dfa800068fb","null","null","<p style=""font-size: 60px; font-family: BACS"">LdrbvJud</p>","","","","","","","","",""
"html-keyboard-response","34","704281","0.0-8.0-0.26","5ed013f88fce6e0d858b732e","650c16f0f2faf8d7a0d14c09","651c1c2bf05d9dfa800068fb","null","null","<p style=""font-size: 60px; font-family: BACS"">KMOcmhc</p>","","","","","","","","",""
"html-keyboard-response","35","705281","0.0-8.0-0.27","5ed013f88fce6e0d858b732e","650c16f0f2faf8d7a0d14c09","651c1c2bf05d9dfa800068fb","null","null","<p style=""font-size: 60px; font-family: BACS"">aLNlkdYAJ</p>","","","","","","","","",""
"html-keyboard-response","36","706281","0.0-8.0-0.28","5ed013f88fce6e0d858b732e","650c16f0f2faf8d7a0d14c09","651c1c2bf05d9dfa800068fb","null","null","<p style=""font-size: 60px; font-family: BACS"">CtmbRYlD</p>","","","","","","","","",""
"html-keyboard-response","37","707298","0.0-8.0-0.29","5ed013f88fce6e0d858b732e","650c16f0f2faf8d7a0d14c09","651c1c2bf05d9dfa800068fb","null","null","<p style=""font-size: 60px; font-family: BACS"">TCbDCOBT</p>","","","","","","","","",""
"html-keyboard-response","38","708298","0.0-8.0-0.30","5ed013f88fce6e0d858b732e","650c16f0f2faf8d7a0d14c09","651c1c2bf05d9dfa800068fb","null","null","<p style=""font-size: 60px; font-family: BACS"">kPOtRYlD</p>","","","","","","","","",""
"html-keyboard-response","39","709298","0.0-8.0-0.31","5ed013f88fce6e0d858b732e","650c16f0f2faf8d7a0d14c09","651c1c2bf05d9dfa800068fb","null","null","<p style=""font-size: 60px; font-family: BACS"">aLNlkJUG</p>","","","","","","","","",""
"html-keyboard-response","40","710298","0.0-8.0-0.32","5ed013f88fce6e0d858b732e","650c16f0f2faf8d7a0d14c09","651c1c2bf05d9dfa800068fb","null","null","<p style=""font-size: 60px; font-family: BACS"">lYruauda</p>","","","","","","","","",""
"html-keyboard-response","41","711298","0.0-8.0-0.33","5ed013f88fce6e0d858b732e","650c16f0f2faf8d7a0d14c09","651c1c2bf05d9dfa800068fb","null","null","<p style=""font-size: 60px; font-family: BACS"">NAacQJUG</p>","","","","","","","","",""
"html-keyboard-response","42","712314","0.0-8.0-0.34","5ed013f88fce6e0d858b732e","650c16f0f2faf8d7a0d14c09","651c1c2bf05d9dfa800068fb","null","null","<p style=""font-size: 60px; font-family: BACS"">Mlthmhc</p>","","","","","","","","",""
"html-keyboard-response","43","713314","0.0-8.0-0.35","5ed013f88fce6e0d858b732e","650c16f0f2faf8d7a0d14c09","651c1c2bf05d9dfa800068fb","null","null","<p style=""font-size: 60px; font-family: BACS"">GNAcadYAJ</p>","","","","","","","","",""
"html-keyboard-response","44","714314","0.0-8.0-0.36","5ed013f88fce6e0d858b732e","650c16f0f2faf8d7a0d14c09","651c1c2bf05d9dfa800068fb","null","null","<p style=""font-size: 60px; font-family: BACS"">KMOcRYlD</p>","","","","","","","","",""
"html-keyboard-response","45","715314","0.0-8.0-0.37","5ed013f88fce6e0d858b732e","650c16f0f2faf8d7a0d14c09","651c1c2bf05d9dfa800068fb","null","null","<p style=""font-size: 60px; font-family: BACS"">aUZAdYAJ</p>","","","","","","","","",""
"html-keyboard-response","46","716331","0.0-8.0-0.38","5ed013f88fce6e0d858b732e","650c16f0f2faf8d7a0d14c09","651c1c2bf05d9dfa800068fb","null","null","<p style=""font-size: 60px; font-family: BACS"">KMOcMCkm</p>","","","","","","","","",""
"html-keyboard-response","47","717331","0.0-8.0-0.39","5ed013f88fce6e0d858b732e","650c16f0f2faf8d7a0d14c09","651c1c2bf05d9dfa800068fb","null","null","<p style=""font-size: 60px; font-family: BACS"">ckduAJud</p>","","","","","","","","",""
"html-keyboard-response","48","718331","0.0-8.0-0.40","5ed013f88fce6e0d858b732e","650c16f0f2faf8d7a0d14c09","651c1c2bf05d9dfa800068fb","null","null","<p style=""font-size: 60px; font-family: BACS"">NAacQukbY</p>","","","","","","","","",""
"html-keyboard-response","49","719348","0.0-8.0-0.41","5ed013f88fce6e0d858b732e","650c16f0f2faf8d7a0d14c09","651c1c2bf05d9dfa800068fb","null","null","<p style=""font-size: 60px; font-family: BACS"">aUZAuda</p>","","","","","","","","",""
"html-keyboard-response","50","720331","0.0-8.0-0.42","5ed013f88fce6e0d858b732e","650c16f0f2faf8d7a0d14c09","651c1c2bf05d9dfa800068fb","null","null","<p style=""font-size: 60px; font-family: BACS"">YLQmGukbY</p>","","","","","","","","",""
"html-keyboard-response","51","721348","0.0-8.0-0.43","5ed013f88fce6e0d858b732e","650c16f0f2faf8d7a0d14c09","651c1c2bf05d9dfa800068fb","null","null","<p style=""font-size: 60px; font-family: BACS"">ECtbDMKmY</p>","","","","","","","","",""
"html-keyboard-response","52","722348","0.0-8.0-0.44","5ed013f88fce6e0d858b732e","650c16f0f2faf8d7a0d14c09","651c1c2bf05d9dfa800068fb","null","null","<p style=""font-size: 60px; font-family: BACS"">BECkMCkm</p>","","","","","","","","",""
"html-keyboard-response","53","723365","0.0-8.0-0.45","5ed013f88fce6e0d858b732e","650c16f0f2faf8d7a0d14c09","651c1c2bf05d9dfa800068fb","null","null","<p style=""font-size: 60px; font-family: BACS"">YLQmGdYAJ</p>","","","","","","","","",""
"html-keyboard-response","54","724381","0.0-8.0-0.46","5ed013f88fce6e0d858b732e","650c16f0f2faf8d7a0d14c09","651c1c2bf05d9dfa800068fb","null","null","<p style=""font-size: 60px; font-family: BACS"">KMOcMKmY</p>","","","","","","","","",""
"html-keyboard-response","55","725381","0.0-8.0-0.47","5ed013f88fce6e0d858b732e","650c16f0f2faf8d7a0d14c09","651c1c2bf05d9dfa800068fb","null","null","<p style=""font-size: 60px; font-family: BACS"">BKDRYRYlD</p>","","","","","","","","",""
"html-keyboard-response","56","726398","0.0-8.0-0.48","5ed013f88fce6e0d858b732e","650c16f0f2faf8d7a0d14c09","651c1c2bf05d9dfa800068fb","null","null","<p style=""font-size: 60px; font-family: BACS"">TCbDCMKmY</p>","","","","","","","","",""
"html-keyboard-response","57","727381","0.0-8.0-0.49","5ed013f88fce6e0d858b732e","650c16f0f2faf8d7a0d14c09","651c1c2bf05d9dfa800068fb","null","null","<p style=""font-size: 60px; font-family: BACS"">aUZAJud</p>","","","","","","","","",""
"html-keyboard-response","58","728398","0.0-8.0-0.50","5ed013f88fce6e0d858b732e","650c16f0f2faf8d7a0d14c09","651c1c2bf05d9dfa800068fb","null","null","<p style=""font-size: 60px; font-family: BACS"">Ldrbvuda</p>","","","","","","","","",""
"html-keyboard-response","59","729381","0.0-8.0-0.51","5ed013f88fce6e0d858b732e","650c16f0f2faf8d7a0d14c09","651c1c2bf05d9dfa800068fb","null","null","<p style=""font-size: 60px; font-family: BACS"">uvaUdYAJ</p>","","","","","","","","",""
"html-keyboard-response","60","730381","0.0-8.0-0.52","5ed013f88fce6e0d858b732e","650c16f0f2faf8d7a0d14c09","651c1c2bf05d9dfa800068fb","null","null","<p style=""font-size: 60px; font-family: BACS"">YLQmGuda</p>","","","","","","","","",""
"html-keyboard-response","61","731398","0.0-8.0-0.53","5ed013f88fce6e0d858b732e","650c16f0f2faf8d7a0d14c09","651c1c2bf05d9dfa800068fb","null","null","<p style=""font-size: 60px; font-family: BACS"">uvaUJUG</p>","","","","","","","","",""
"html-keyboard-response","62","732398","0.0-8.0-0.54","5ed013f88fce6e0d858b732e","650c16f0f2faf8d7a0d14c09","651c1c2bf05d9dfa800068fb","null","null","<p style=""font-size: 60px; font-family: BACS"">ECtbDMCkm</p>","","","","","","","","",""
"html-keyboard-response","63","733415","0.0-8.0-0.55","5ed013f88fce6e0d858b732e","650c16f0f2faf8d7a0d14c09","651c1c2bf05d9dfa800068fb","null","null","<p style=""font-size: 60px; font-family: BACS"">ckLALuda</p>","","","","","","","","",""
"html-keyboard-response","64","734431","0.0-8.0-0.56","5ed013f88fce6e0d858b732e","650c16f0f2faf8d7a0d14c09","651c1c2bf05d9dfa800068fb","null","null","<p style=""font-size: 60px; font-family: BACS"">GNAcaukbY</p>","","","","","","","","",""
"html-keyboard-response","65","735415","0.0-8.0-0.57","5ed013f88fce6e0d858b732e","650c16f0f2faf8d7a0d14c09","651c1c2bf05d9dfa800068fb","null","null","<p style=""font-size: 60px; font-family: BACS"">DCmhOBT</p>","","","","","","","","",""
"html-keyboard-response","66","736431","0.0-8.0-0.58","5ed013f88fce6e0d858b732e","650c16f0f2faf8d7a0d14c09","651c1c2bf05d9dfa800068fb","null","null","<p style=""font-size: 60px; font-family: BACS"">BKDRYMKmY</p>","","","","","","","","",""
"html-keyboard-response","67","737431","0.0-8.0-0.59","5ed013f88fce6e0d858b732e","650c16f0f2faf8d7a0d14c09","651c1c2bf05d9dfa800068fb","null","null","<p style=""font-size: 60px; font-family: BACS"">NAacQuda</p>","","","","","","","","",""
"html-keyboard-response","68","738432","0.0-8.0-0.60","5ed013f88fce6e0d858b732e","650c16f0f2faf8d7a0d14c09","651c1c2bf05d9dfa800068fb","null","null","<p style=""font-size: 60px; font-family: BACS"">aLNlkukbY</p>","","","","","","","","",""
"html-keyboard-response","69","739448","0.0-8.0-0.61","5ed013f88fce6e0d858b732e","650c16f0f2faf8d7a0d14c09","651c1c2bf05d9dfa800068fb","null","null","<p style=""font-size: 60px; font-family: BACS"">dYdAMKmY</p>","","","","","","","","",""
"html-keyboard-response","70","740432","0.0-8.0-0.62","5ed013f88fce6e0d858b732e","650c16f0f2faf8d7a0d14c09","651c1c2bf05d9dfa800068fb","null","null","<p style=""font-size: 60px; font-family: BACS"">lYruaukbY</p>","","","","","","","","",""
"html-keyboard-response","71","741448","0.0-8.0-0.63","5ed013f88fce6e0d858b732e","650c16f0f2faf8d7a0d14c09","651c1c2bf05d9dfa800068fb","null","null","<p style=""font-size: 60px; font-family: BACS"">GNAcaJud</p>","","","","","","","","",""
"html-keyboard-response","72","742465","0.0-8.0-0.64","5ed013f88fce6e0d858b732e","650c16f0f2faf8d7a0d14c09","651c1c2bf05d9dfa800068fb","null","null","<p style=""font-size: 60px; font-family: BACS"">MlthOBT</p>","","","","","","","","",""
"html-keyboard-response","73","743448","0.0-8.0-0.65","5ed013f88fce6e0d858b732e","650c16f0f2faf8d7a0d14c09","651c1c2bf05d9dfa800068fb","null","null","<p style=""font-size: 60px; font-family: BACS"">dYdARYlD</p>","","","","","","","","",""
"html-keyboard-response","74","744465","0.0-8.0-0.66","5ed013f88fce6e0d858b732e","650c16f0f2faf8d7a0d14c09","651c1c2bf05d9dfa800068fb","null","null","<p style=""font-size: 60px; font-family: BACS"">YLQmGJud</p>","","","","","","","","",""
"html-keyboard-response","75","745482","0.0-8.0-0.67","5ed013f88fce6e0d858b732e","650c16f0f2faf8d7a0d14c09","651c1c2bf05d9dfa800068fb","null","null","<p style=""font-size: 60px; font-family: BACS"">MlthMCkm</p>","","","","","","","","",""
"html-keyboard-response","76","746498","0.0-8.0-0.68","5ed013f88fce6e0d858b732e","650c16f0f2faf8d7a0d14c09","651c1c2bf05d9dfa800068fb","null","null","<p style=""font-size: 60px; font-family: BACS"">BECkmhc</p>","","","","","","","","",""
"html-keyboard-response","77","747498","0.0-8.0-0.69","5ed013f88fce6e0d858b732e","650c16f0f2faf8d7a0d14c09","651c1c2bf05d9dfa800068fb","null","null","<p style=""font-size: 60px; font-family: BACS"">uvaUJud</p>","","","","","","","","",""
"html-keyboard-response","78","748498","0.0-8.0-0.70","5ed013f88fce6e0d858b732e","650c16f0f2faf8d7a0d14c09","651c1c2bf05d9dfa800068fb","null","null","<p style=""font-size: 60px; font-family: BACS"">BKDRYOBT</p>","","","","","","","","",""
"html-keyboard-response","79","749515","0.0-8.0-0.71","5ed013f88fce6e0d858b732e","650c16f0f2faf8d7a0d14c09","651c1c2bf05d9dfa800068fb","null","null","<p style=""font-size: 60px; font-family: BACS"">MlthMKmY</p>","","","","","","","","",""
"html-keyboard-response","80","750498","0.0-8.0-0.72","5ed013f88fce6e0d858b732e","650c16f0f2faf8d7a0d14c09","651c1c2bf05d9dfa800068fb","null","null","<p style=""font-size: 60px; font-family: BACS"">ECtbDOBT</p>","","","","","","","","",""
"html-keyboard-response","81","751515","0.0-8.0-0.73","5ed013f88fce6e0d858b732e","650c16f0f2faf8d7a0d14c09","651c1c2bf05d9dfa800068fb","null","null","<p style=""font-size: 60px; font-family: BACS"">dYdAmhc</p>","","","","","","","","",""
"html-keyboard-response","82","752515","0.0-8.0-0.74","5ed013f88fce6e0d858b732e","650c16f0f2faf8d7a0d14c09","651c1c2bf05d9dfa800068fb","null","null","<p style=""font-size: 60px; font-family: BACS"">ckduAdYAJ</p>","","","","","","","","",""
"html-keyboard-response","83","753532","0.0-8.0-0.75","5ed013f88fce6e0d858b732e","650c16f0f2faf8d7a0d14c09","651c1c2bf05d9dfa800068fb","null","null","<p style=""font-size: 60px; font-family: BACS"">DCmhmhc</p>","","","","","","","","",""
"html-keyboard-response","84","754532","0.0-8.0-0.76","5ed013f88fce6e0d858b732e","650c16f0f2faf8d7a0d14c09","651c1c2bf05d9dfa800068fb","null","null","<p style=""font-size: 60px; font-family: BACS"">LdrbvukbY</p>","","","","","","","","",""
"html-keyboard-response","85","755549","0.0-8.0-0.77","5ed013f88fce6e0d858b732e","650c16f0f2faf8d7a0d14c09","651c1c2bf05d9dfa800068fb","null","null","<p style=""font-size: 60px; font-family: BACS"">BECkRYlD</p>","","","","","","","","",""
"html-keyboard-response","86","756532","0.0-8.0-0.78","5ed013f88fce6e0d858b732e","650c16f0f2faf8d7a0d14c09","651c1c2bf05d9dfa800068fb","null","null","<p style=""font-size: 60px; font-family: BACS"">CtmbOBT</p>","","","","","","","","",""
"html-keyboard-response","87","757549","0.0-8.0-0.79","5ed013f88fce6e0d858b732e","650c16f0f2faf8d7a0d14c09","651c1c2bf05d9dfa800068fb","null","null","<p style=""font-size: 60px; font-family: BACS"">TCbDCMCkm</p>","","","","","","","","",""
"html-keyboard-response","88","761632","0.0-9.0","5ed013f88fce6e0d858b732e","650c16f0f2faf8d7a0d14c09","651c1c2bf05d9dfa800068fb","4083"," ","<p>Great, you've seen the first block of words. You may now take a short break.</p>
      <p>Press the spacebar when you're ready to continue.</p>","","","","","","","","",""
"html-keyboard-response","89","762615","0.0-10.0-0.0","5ed013f88fce6e0d858b732e","650c16f0f2faf8d7a0d14c09","651c1c2bf05d9dfa800068fb","null","null","<p style=""font-size: 60px; font-family: BACS"">aUZAJud</p>","","","","","","","","",""
"html-keyboard-response","90","763632","0.0-10.0-0.1","5ed013f88fce6e0d858b732e","650c16f0f2faf8d7a0d14c09","651c1c2bf05d9dfa800068fb","null","null","<p style=""font-size: 60px; font-family: BACS"">BKDRYMCkm</p>","","","","","","","","",""
"html-keyboard-response","91","764632","0.0-10.0-0.2","5ed013f88fce6e0d858b732e","650c16f0f2faf8d7a0d14c09","651c1c2bf05d9dfa800068fb","null","null","<p style=""font-size: 60px; font-family: BACS"">LdrbvukbY</p>","","","","","","","","",""
"html-keyboard-response","92","765632","0.0-10.0-0.3","5ed013f88fce6e0d858b732e","650c16f0f2faf8d7a0d14c09","651c1c2bf05d9dfa800068fb","null","null","<p style=""font-size: 60px; font-family: BACS"">BECkmhc</p>","","","","","","","","",""
"html-keyboard-response","93","766649","0.0-10.0-0.4","5ed013f88fce6e0d858b732e","650c16f0f2faf8d7a0d14c09","651c1c2bf05d9dfa800068fb","null","null","<p style=""font-size: 60px; font-family: BACS"">GNAcaukbY</p>","","","","","","","","",""
"html-keyboard-response","94","767665","0.0-10.0-0.5","5ed013f88fce6e0d858b732e","650c16f0f2faf8d7a0d14c09","651c1c2bf05d9dfa800068fb","null","null","<p style=""font-size: 60px; font-family: BACS"">ckduAdYAJ</p>","","","","","","","","",""
"html-keyboard-response","95","768649","0.0-10.0-0.6","5ed013f88fce6e0d858b732e","650c16f0f2faf8d7a0d14c09","651c1c2bf05d9dfa800068fb","null","null","<p style=""font-size: 60px; font-family: BACS"">aLNlkukbY</p>","","","","","","","","",""
"html-keyboard-response","96","769665","0.0-10.0-0.7","5ed013f88fce6e0d858b732e","650c16f0f2faf8d7a0d14c09","651c1c2bf05d9dfa800068fb","null","null","<p style=""font-size: 60px; font-family: BACS"">KMOcMCkm</p>","","","","","","","","",""
"html-keyboard-response","97","770665","0.0-10.0-0.8","5ed013f88fce6e0d858b732e","650c16f0f2faf8d7a0d14c09","651c1c2bf05d9dfa800068fb","null","null","<p style=""font-size: 60px; font-family: BACS"">DCmhRYlD</p>","","","","","","","","",""
"html-keyboard-response","98","771666","0.0-10.0-0.9","5ed013f88fce6e0d858b732e","650c16f0f2faf8d7a0d14c09","651c1c2bf05d9dfa800068fb","null","null","<p style=""font-size: 60px; font-family: BACS"">aLNlkJUG</p>","","","","","","","","",""
"html-keyboard-response","99","772682","0.0-10.0-0.10","5ed013f88fce6e0d858b732e","650c16f0f2faf8d7a0d14c09","651c1c2bf05d9dfa800068fb","null","null","<p style=""font-size: 60px; font-family: BACS"">kPOtOBT</p>","","","","","","","","",""
"html-keyboard-response","100","773682","0.0-10.0-0.11","5ed013f88fce6e0d858b732e","650c16f0f2faf8d7a0d14c09","651c1c2bf05d9dfa800068fb","null","null","<p style=""font-size: 60px; font-family: BACS"">BKDRYRYlD</p>","","","","","","","","",""
"html-keyboard-response","101","774699","0.0-10.0-0.12","5ed013f88fce6e0d858b732e","650c16f0f2faf8d7a0d14c09","651c1c2bf05d9dfa800068fb","null","null","<p style=""font-size: 60px; font-family: BACS"">KMOcmhc</p>","","","","","","","","",""
"html-keyboard-response","102","775699","0.0-10.0-0.13","5ed013f88fce6e0d858b732e","650c16f0f2faf8d7a0d14c09","651c1c2bf05d9dfa800068fb","null","null","<p style=""font-size: 60px; font-family: BACS"">ECtbDMCkm</p>","","","","","","","","",""
"html-keyboard-response","103","776699","0.0-10.0-0.14","5ed013f88fce6e0d858b732e","650c16f0f2faf8d7a0d14c09","651c1c2bf05d9dfa800068fb","null","null","<p style=""font-size: 60px; font-family: BACS"">GNAcaJUG</p>","","","","","","","","",""
"html-keyboard-response","104","777716","0.0-10.0-0.15","5ed013f88fce6e0d858b732e","650c16f0f2faf8d7a0d14c09","651c1c2bf05d9dfa800068fb","null","null","<p style=""font-size: 60px; font-family: BACS"">TCbDCOBT</p>","","","","","","","","",""
"html-keyboard-response","105","778699","0.0-10.0-0.16","5ed013f88fce6e0d858b732e","650c16f0f2faf8d7a0d14c09","651c1c2bf05d9dfa800068fb","null","null","<p style=""font-size: 60px; font-family: BACS"">GNAcadYAJ</p>","","","","","","","","",""
"html-keyboard-response","106","779716","0.0-10.0-0.17","5ed013f88fce6e0d858b732e","650c16f0f2faf8d7a0d14c09","651c1c2bf05d9dfa800068fb","null","null","<p style=""font-size: 60px; font-family: BACS"">BECkRYlD</p>","","","","","","","","",""
"html-keyboard-response","107","780732","0.0-10.0-0.18","5ed013f88fce6e0d858b732e","650c16f0f2faf8d7a0d14c09","651c1c2bf05d9dfa800068fb","null","null","<p style=""font-size: 60px; font-family: BACS"">dYdAOBT</p>","","","","","","","","",""
"html-keyboard-response","108","781732","0.0-10.0-0.19","5ed013f88fce6e0d858b732e","650c16f0f2faf8d7a0d14c09","651c1c2bf05d9dfa800068fb","null","null","<p style=""font-size: 60px; font-family: BACS"">KMOcMKmY</p>","","","","","","","","",""
"html-keyboard-response","109","782749","0.0-10.0-0.20","5ed013f88fce6e0d858b732e","650c16f0f2faf8d7a0d14c09","651c1c2bf05d9dfa800068fb","null","null","<p style=""font-size: 60px; font-family: BACS"">ckLALukbY</p>","","","","","","","","",""
"html-keyboard-response","110","783732","0.0-10.0-0.21","5ed013f88fce6e0d858b732e","650c16f0f2faf8d7a0d14c09","651c1c2bf05d9dfa800068fb","null","null","<p style=""font-size: 60px; font-family: BACS"">LdrbvdYAJ</p>","","","","","","","","",""
"html-keyboard-response","111","784732","0.0-10.0-0.22","5ed013f88fce6e0d858b732e","650c16f0f2faf8d7a0d14c09","651c1c2bf05d9dfa800068fb","null","null","<p style=""font-size: 60px; font-family: BACS"">aLNlkuda</p>","","","","","","","","",""
"html-keyboard-response","112","785749","0.0-10.0-0.23","5ed013f88fce6e0d858b732e","650c16f0f2faf8d7a0d14c09","651c1c2bf05d9dfa800068fb","null","null","<p style=""font-size: 60px; font-family: BACS"">GNAcaJud</p>","","","","","","","","",""
"html-keyboard-response","113","786766","0.0-10.0-0.24","5ed013f88fce6e0d858b732e","650c16f0f2faf8d7a0d14c09","651c1c2bf05d9dfa800068fb","null","null","<p style=""font-size: 60px; font-family: BACS"">YLQmGukbY</p>","","","","","","","","",""
"html-keyboard-response","114","787766","0.0-10.0-0.25","5ed013f88fce6e0d858b732e","650c16f0f2faf8d7a0d14c09","651c1c2bf05d9dfa800068fb","null","null","<p style=""font-size: 60px; font-family: BACS"">dYdARYlD</p>","","","","","","","","",""
"html-keyboard-response","115","788766","0.0-10.0-0.26","5ed013f88fce6e0d858b732e","650c16f0f2faf8d7a0d14c09","651c1c2bf05d9dfa800068fb","null","null","<p style=""font-size: 60px; font-family: BACS"">TCbDCMCkm</p>","","","","","","","","",""
"html-keyboard-response","116","789766","0.0-10.0-0.27","5ed013f88fce6e0d858b732e","650c16f0f2faf8d7a0d14c09","651c1c2bf05d9dfa800068fb","null","null","<p style=""font-size: 60px; font-family: BACS"">ckLALJud</p>","","","","","","","","",""
"html-keyboard-response","117","790783","0.0-10.0-0.28","5ed013f88fce6e0d858b732e","650c16f0f2faf8d7a0d14c09","651c1c2bf05d9dfa800068fb","null","null","<p style=""font-size: 60px; font-family: BACS"">BECkMKmY</p>","","","","","","","","",""
"html-keyboard-response","118","791783","0.0-10.0-0.29","5ed013f88fce6e0d858b732e","650c16f0f2faf8d7a0d14c09","651c1c2bf05d9dfa800068fb","null","null","<p style=""font-size: 60px; font-family: BACS"">YLQmGJud</p>","","","","","","","","",""
"html-keyboard-response","119","792799","0.0-10.0-0.30","5ed013f88fce6e0d858b732e","650c16f0f2faf8d7a0d14c09","651c1c2bf05d9dfa800068fb","null","null","<p style=""font-size: 60px; font-family: BACS"">KMOcRYlD</p>","","","","","","","","",""
"html-keyboard-response","120","793799","0.0-10.0-0.31","5ed013f88fce6e0d858b732e","650c16f0f2faf8d7a0d14c09","651c1c2bf05d9dfa800068fb","null","null","<p style=""font-size: 60px; font-family: BACS"">Ctmbmhc</p>","","","","","","","","",""
"html-keyboard-response","121","794783","0.0-10.0-0.32","5ed013f88fce6e0d858b732e","650c16f0f2faf8d7a0d14c09","651c1c2bf05d9dfa800068fb","null","null","<p style=""font-size: 60px; font-family: BACS"">DCmhMKmY</p>","","","","","","","","",""
"html-keyboard-response","122","795799","0.0-10.0-0.33","5ed013f88fce6e0d858b732e","650c16f0f2faf8d7a0d14c09","651c1c2bf05d9dfa800068fb","null","null","<p style=""font-size: 60px; font-family: BACS"">lYruaJud</p>","","","","","","","","",""
"html-keyboard-response","123","796816","0.0-10.0-0.34","5ed013f88fce6e0d858b732e","650c16f0f2faf8d7a0d14c09","651c1c2bf05d9dfa800068fb","null","null","<p style=""font-size: 60px; font-family: BACS"">Mlthmhc</p>","","","","","","","","",""
"html-keyboard-response","124","797816","0.0-10.0-0.35","5ed013f88fce6e0d858b732e","650c16f0f2faf8d7a0d14c09","651c1c2bf05d9dfa800068fb","null","null","<p style=""font-size: 60px; font-family: BACS"">aLNlkdYAJ</p>","","","","","","","","",""
"html-keyboard-response","125","798816","0.0-10.0-0.36","5ed013f88fce6e0d858b732e","650c16f0f2faf8d7a0d14c09","651c1c2bf05d9dfa800068fb","null","null","<p style=""font-size: 60px; font-family: BACS"">uvaUJUG</p>","","","","","","","","",""
"html-keyboard-response","126","799816","0.0-10.0-0.37","5ed013f88fce6e0d858b732e","650c16f0f2faf8d7a0d14c09","651c1c2bf05d9dfa800068fb","null","null","<p style=""font-size: 60px; font-family: BACS"">MlthOBT</p>","","","","","","","","",""
"html-keyboard-response","127","800833","0.0-10.0-0.38","5ed013f88fce6e0d858b732e","650c16f0f2faf8d7a0d14c09","651c1c2bf05d9dfa800068fb","null","null","<p style=""font-size: 60px; font-family: BACS"">lYruaJUG</p>","","","","","","","","",""
"html-keyboard-response","128","801833","0.0-10.0-0.39","5ed013f88fce6e0d858b732e","650c16f0f2faf8d7a0d14c09","651c1c2bf05d9dfa800068fb","null","null","<p style=""font-size: 60px; font-family: BACS"">ckduAJud</p>","","","","","","","","",""
"html-keyboard-response","129","802849","0.0-10.0-0.40","5ed013f88fce6e0d858b732e","650c16f0f2faf8d7a0d14c09","651c1c2bf05d9dfa800068fb","null","null","<p style=""font-size: 60px; font-family: BACS"">NAacQdYAJ</p>","","","","","","","","",""
"html-keyboard-response","130","803866","0.0-10.0-0.41","5ed013f88fce6e0d858b732e","650c16f0f2faf8d7a0d14c09","651c1c2bf05d9dfa800068fb","null","null","<p style=""font-size: 60px; font-family: BACS"">Ldrbvuda</p>","","","","","","","","",""
"html-keyboard-response","131","804866","0.0-10.0-0.42","5ed013f88fce6e0d858b732e","650c16f0f2faf8d7a0d14c09","651c1c2bf05d9dfa800068fb","null","null","<p style=""font-size: 60px; font-family: BACS"">ckduAJUG</p>","","","","","","","","",""
"html-keyboard-response","132","805883","0.0-10.0-0.43","5ed013f88fce6e0d858b732e","650c16f0f2faf8d7a0d14c09","651c1c2bf05d9dfa800068fb","null","null","<p style=""font-size: 60px; font-family: BACS"">LdrbvJud</p>","","","","","","","","",""
"html-keyboard-response","133","806866","0.0-10.0-0.44","5ed013f88fce6e0d858b732e","650c16f0f2faf8d7a0d14c09","651c1c2bf05d9dfa800068fb","null","null","<p style=""font-size: 60px; font-family: BACS"">aUZAdYAJ</p>","","","","","","","","",""
"html-keyboard-response","134","807883","0.0-10.0-0.45","5ed013f88fce6e0d858b732e","650c16f0f2faf8d7a0d14c09","651c1c2bf05d9dfa800068fb","null","null","<p style=""font-size: 60px; font-family: BACS"">YLQmGuda</p>","","","","","","","","",""
"html-keyboard-response","135","808866","0.0-10.0-0.46","5ed013f88fce6e0d858b732e","650c16f0f2faf8d7a0d14c09","651c1c2bf05d9dfa800068fb","null","null","<p style=""font-size: 60px; font-family: BACS"">DCmhmhc</p>","","","","","","","","",""
"html-keyboard-response","136","809883","0.0-10.0-0.47","5ed013f88fce6e0d858b732e","650c16f0f2faf8d7a0d14c09","651c1c2bf05d9dfa800068fb","null","null","<p style=""font-size: 60px; font-family: BACS"">uvaUdYAJ</p>","","","","","","","","",""
"html-keyboard-response","137","810900","0.0-10.0-0.48","5ed013f88fce6e0d858b732e","650c16f0f2faf8d7a0d14c09","651c1c2bf05d9dfa800068fb","null","null","<p style=""font-size: 60px; font-family: BACS"">lYruaukbY</p>","","","","","","","","",""
"html-keyboard-response","138","811883","0.0-10.0-0.49","5ed013f88fce6e0d858b732e","650c16f0f2faf8d7a0d14c09","651c1c2bf05d9dfa800068fb","null","null","<p style=""font-size: 60px; font-family: BACS"">ECtbDMKmY</p>","","","","","","","","",""
"html-keyboard-response","139","812900","0.0-10.0-0.50","5ed013f88fce6e0d858b732e","650c16f0f2faf8d7a0d14c09","651c1c2bf05d9dfa800068fb","null","null","<p style=""font-size: 60px; font-family: BACS"">kPOtMCkm</p>","","","","","","","","",""
"html-keyboard-response","140","813933","0.0-10.0-0.51","5ed013f88fce6e0d858b732e","650c16f0f2faf8d7a0d14c09","651c1c2bf05d9dfa800068fb","null","null","<p style=""font-size: 60px; font-family: BACS"">dYdAMKmY</p>","","","","","","","","",""
"html-keyboard-response","141","814933","0.0-10.0-0.52","5ed013f88fce6e0d858b732e","650c16f0f2faf8d7a0d14c09","651c1c2bf05d9dfa800068fb","null","null","<p style=""font-size: 60px; font-family: BACS"">ckLALJUG</p>","","","","","","","","",""
"html-keyboard-response","142","815933","0.0-10.0-0.53","5ed013f88fce6e0d858b732e","650c16f0f2faf8d7a0d14c09","651c1c2bf05d9dfa800068fb","null","null","<p style=""font-size: 60px; font-family: BACS"">NAacQukbY</p>","","","","","","","","",""
"html-keyboard-response","143","816950","0.0-10.0-0.54","5ed013f88fce6e0d858b732e","650c16f0f2faf8d7a0d14c09","651c1c2bf05d9dfa800068fb","null","null","<p style=""font-size: 60px; font-family: BACS"">kPOtmhc</p>","","","","","","","","",""
"html-keyboard-response","144","817950","0.0-10.0-0.55","5ed013f88fce6e0d858b732e","650c16f0f2faf8d7a0d14c09","651c1c2bf05d9dfa800068fb","null","null","<p style=""font-size: 60px; font-family: BACS"">ECtbDRYlD</p>","","","","","","","","",""
"html-keyboard-response","145","818950","0.0-10.0-0.56","5ed013f88fce6e0d858b732e","650c16f0f2faf8d7a0d14c09","651c1c2bf05d9dfa800068fb","null","null","<p style=""font-size: 60px; font-family: BACS"">TCbDCMKmY</p>","","","","","","","","",""
"html-keyboard-response","146","819966","0.0-10.0-0.57","5ed013f88fce6e0d858b732e","650c16f0f2faf8d7a0d14c09","651c1c2bf05d9dfa800068fb","null","null","<p style=""font-size: 60px; font-family: BACS"">dYdAmhc</p>","","","","","","","","",""
"html-keyboard-response","147","820950","0.0-10.0-0.58","5ed013f88fce6e0d858b732e","650c16f0f2faf8d7a0d14c09","651c1c2bf05d9dfa800068fb","null","null","<p style=""font-size: 60px; font-family: BACS"">kPOtRYlD</p>","","","","","","","","",""
"html-keyboard-response","148","821967","0.0-10.0-0.59","5ed013f88fce6e0d858b732e","650c16f0f2faf8d7a0d14c09","651c1c2bf05d9dfa800068fb","null","null","<p style=""font-size: 60px; font-family: BACS"">YLQmGdYAJ</p>","","","","","","","","",""
"html-keyboard-response","149","822967","0.0-10.0-0.60","5ed013f88fce6e0d858b732e","650c16f0f2faf8d7a0d14c09","651c1c2bf05d9dfa800068fb","null","null","<p style=""font-size: 60px; font-family: BACS"">DCmhOBT</p>","","","","","","","","",""
"html-keyboard-response","150","823983","0.0-10.0-0.61","5ed013f88fce6e0d858b732e","650c16f0f2faf8d7a0d14c09","651c1c2bf05d9dfa800068fb","null","null","<p style=""font-size: 60px; font-family: BACS"">TCbDCmhc</p>","","","","","","","","",""
"html-keyboard-response","151","824983","0.0-10.0-0.62","5ed013f88fce6e0d858b732e","650c16f0f2faf8d7a0d14c09","651c1c2bf05d9dfa800068fb","null","null","<p style=""font-size: 60px; font-family: BACS"">MlthMKmY</p>","","","","","","","","",""
"html-keyboard-response","152","825983","0.0-10.0-0.63","5ed013f88fce6e0d858b732e","650c16f0f2faf8d7a0d14c09","651c1c2bf05d9dfa800068fb","null","null","<p style=""font-size: 60px; font-family: BACS"">aUZAJUG</p>","","","","","","","","",""
"html-keyboard-response","153","826983","0.0-10.0-0.64","5ed013f88fce6e0d858b732e","650c16f0f2faf8d7a0d14c09","651c1c2bf05d9dfa800068fb","null","null","<p style=""font-size: 60px; font-family: BACS"">BKDRYOBT</p>","","","","","","","","",""
"html-keyboard-response","154","828000","0.0-10.0-0.65","5ed013f88fce6e0d858b732e","650c16f0f2faf8d7a0d14c09","651c1c2bf05d9dfa800068fb","null","null","<p style=""font-size: 60px; font-family: BACS"">ckLALuda</p>","","","","","","","","",""
"html-keyboard-response","155","829000","0.0-10.0-0.66","5ed013f88fce6e0d858b732e","650c16f0f2faf8d7a0d14c09","651c1c2bf05d9dfa800068fb","null","null","<p style=""font-size: 60px; font-family: BACS"">CtmbRYlD</p>","","","","","","","","",""
"html-keyboard-response","156","829983","0.0-10.0-0.67","5ed013f88fce6e0d858b732e","650c16f0f2faf8d7a0d14c09","651c1c2bf05d9dfa800068fb","null","null","<p style=""font-size: 60px; font-family: BACS"">uvaUJud</p>","","","","","","","","",""
"html-keyboard-response","157","831000","0.0-10.0-0.68","5ed013f88fce6e0d858b732e","650c16f0f2faf8d7a0d14c09","651c1c2bf05d9dfa800068fb","null","null","<p style=""font-size: 60px; font-family: BACS"">CtmbMCkm</p>","","","","","","","","",""
"html-keyboard-response","158","832017","0.0-10.0-0.69","5ed013f88fce6e0d858b732e","650c16f0f2faf8d7a0d14c09","651c1c2bf05d9dfa800068fb","null","null","<p style=""font-size: 60px; font-family: BACS"">NAacQuda</p>","","","","","","","","",""
"html-keyboard-response","159","833017","0.0-10.0-0.70","5ed013f88fce6e0d858b732e","650c16f0f2faf8d7a0d14c09","651c1c2bf05d9dfa800068fb","null","null","<p style=""font-size: 60px; font-family: BACS"">BECkMCkm</p>","","","","","","","","",""
"html-keyboard-response","160","834033","0.0-10.0-0.71","5ed013f88fce6e0d858b732e","650c16f0f2faf8d7a0d14c09","651c1c2bf05d9dfa800068fb","null","null","<p style=""font-size: 60px; font-family: BACS"">aUZAuda</p>","","","","","","","","",""
"html-keyboard-response","161","835050","0.0-10.0-0.72","5ed013f88fce6e0d858b732e","650c16f0f2faf8d7a0d14c09","651c1c2bf05d9dfa800068fb","null","null","<p style=""font-size: 60px; font-family: BACS"">CtmbOBT</p>","","","","","","","","",""
"html-keyboard-response","162","836067","0.0-10.0-0.73","5ed013f88fce6e0d858b732e","650c16f0f2faf8d7a0d14c09","651c1c2bf05d9dfa800068fb","null","null","<p style=""font-size: 60px; font-family: BACS"">lYruauda</p>","","","","","","","","",""
"html-keyboard-response","163","837050","0.0-10.0-0.74","5ed013f88fce6e0d858b732e","650c16f0f2faf8d7a0d14c09","651c1c2bf05d9dfa800068fb","null","null","<p style=""font-size: 60px; font-family: BACS"">MlthMCkm</p>","","","","","","","","",""
"html-keyboard-response","164","838084","0.0-10.0-0.75","5ed013f88fce6e0d858b732e","650c16f0f2faf8d7a0d14c09","651c1c2bf05d9dfa800068fb","null","null","<p style=""font-size: 60px; font-family: BACS"">ckduAuda</p>","","","","","","","","",""
"html-keyboard-response","165","839100","0.0-10.0-0.76","5ed013f88fce6e0d858b732e","650c16f0f2faf8d7a0d14c09","651c1c2bf05d9dfa800068fb","null","null","<p style=""font-size: 60px; font-family: BACS"">NAacQJUG</p>","","","","","","","","",""
"html-keyboard-response","166","840100","0.0-10.0-0.77","5ed013f88fce6e0d858b732e","650c16f0f2faf8d7a0d14c09","651c1c2bf05d9dfa800068fb","null","null","<p style=""font-size: 60px; font-family: BACS"">ECtbDOBT</p>","","","","","","","","",""
"html-keyboard-response","167","841117","0.0-10.0-0.78","5ed013f88fce6e0d858b732e","650c16f0f2faf8d7a0d14c09","651c1c2bf05d9dfa800068fb","null","null","<p style=""font-size: 60px; font-family: BACS"">BKDRYMKmY</p>","","","","","","","","",""
"html-keyboard-response","168","842100","0.0-10.0-0.79","5ed013f88fce6e0d858b732e","650c16f0f2faf8d7a0d14c09","651c1c2bf05d9dfa800068fb","null","null","<p style=""font-size: 60px; font-family: BACS"">uvaUukbY</p>","","","","","","","","",""
"html-keyboard-response","169","865484","0.0-11.0","5ed013f88fce6e0d858b732e","650c16f0f2faf8d7a0d14c09","651c1c2bf05d9dfa800068fb","23384"," ","<p>Great, you've seen the second block of words. You may now take a short break.</p>
      <p>Press the spacebar when you're ready to continue.</p>","","","","","","","","",""
"html-keyboard-response","170","866501","0.0-12.0-0.0","5ed013f88fce6e0d858b732e","650c16f0f2faf8d7a0d14c09","651c1c2bf05d9dfa800068fb","null","null","<p style=""font-size: 60px; font-family: BACS"">DCmhRYlD</p>","","","","","","","","",""
"html-keyboard-response","171","867501","0.0-12.0-0.1","5ed013f88fce6e0d858b732e","650c16f0f2faf8d7a0d14c09","651c1c2bf05d9dfa800068fb","null","null","<p style=""font-size: 60px; font-family: BACS"">aLNlkukbY</p>","","","","","","","","",""
"html-keyboard-response","172","868517","0.0-12.0-0.2","5ed013f88fce6e0d858b732e","650c16f0f2faf8d7a0d14c09","651c1c2bf05d9dfa800068fb","null","null","<p style=""font-size: 60px; font-family: BACS"">TCbDCMKmY</p>","","","","","","","","",""
"html-keyboard-response","173","869517","0.0-12.0-0.3","5ed013f88fce6e0d858b732e","650c16f0f2faf8d7a0d14c09","651c1c2bf05d9dfa800068fb","null","null","<p style=""font-size: 60px; font-family: BACS"">YLQmGJud</p>","","","","","","","","",""
"html-keyboard-response","174","870517","0.0-12.0-0.4","5ed013f88fce6e0d858b732e","650c16f0f2faf8d7a0d14c09","651c1c2bf05d9dfa800068fb","null","null","<p style=""font-size: 60px; font-family: BACS"">TCbDCmhc</p>","","","","","","","","",""
"html-keyboard-response","175","871568","0.0-12.0-0.5","5ed013f88fce6e0d858b732e","650c16f0f2faf8d7a0d14c09","651c1c2bf05d9dfa800068fb","null","null","<p style=""font-size: 60px; font-family: BACS"">GNAcaukbY</p>","","","","","","","","",""
"html-keyboard-response","176","872551","0.0-12.0-0.6","5ed013f88fce6e0d858b732e","650c16f0f2faf8d7a0d14c09","651c1c2bf05d9dfa800068fb","null","null","<p style=""font-size: 60px; font-family: BACS"">kPOtOBT</p>","","","","","","","","",""
"html-keyboard-response","177","873568","0.0-12.0-0.7","5ed013f88fce6e0d858b732e","650c16f0f2faf8d7a0d14c09","651c1c2bf05d9dfa800068fb","null","null","<p style=""font-size: 60px; font-family: BACS"">lYruaJUG</p>","","","","","","","","",""
"html-keyboard-response","178","874584","0.0-12.0-0.8","5ed013f88fce6e0d858b732e","650c16f0f2faf8d7a0d14c09","651c1c2bf05d9dfa800068fb","null","null","<p style=""font-size: 60px; font-family: BACS"">MlthMCkm</p>","","","","","","","","",""
"html-keyboard-response","179","875584","0.0-12.0-0.9","5ed013f88fce6e0d858b732e","650c16f0f2faf8d7a0d14c09","651c1c2bf05d9dfa800068fb","null","null","<p style=""font-size: 60px; font-family: BACS"">LdrbvukbY</p>","","","","","","","","",""
"html-keyboard-response","180","876584","0.0-12.0-0.10","5ed013f88fce6e0d858b732e","650c16f0f2faf8d7a0d14c09","651c1c2bf05d9dfa800068fb","null","null","<p style=""font-size: 60px; font-family: BACS"">BKDRYRYlD</p>","","","","","","","","",""
"html-keyboard-response","181","877584","0.0-12.0-0.11","5ed013f88fce6e0d858b732e","650c16f0f2faf8d7a0d14c09","651c1c2bf05d9dfa800068fb","null","null","<p style=""font-size: 60px; font-family: BACS"">Ctmbmhc</p>","","","","","","","","",""
"html-keyboard-response","182","878618","0.0-12.0-0.12","5ed013f88fce6e0d858b732e","650c16f0f2faf8d7a0d14c09","651c1c2bf05d9dfa800068fb","null","null","<p style=""font-size: 60px; font-family: BACS"">YLQmGuda</p>","","","","","","","","",""
"html-keyboard-response","183","879618","0.0-12.0-0.13","5ed013f88fce6e0d858b732e","650c16f0f2faf8d7a0d14c09","651c1c2bf05d9dfa800068fb","null","null","<p style=""font-size: 60px; font-family: BACS"">uvaUdYAJ</p>","","","","","","","","",""
"html-keyboard-response","184","880618","0.0-12.0-0.14","5ed013f88fce6e0d858b732e","650c16f0f2faf8d7a0d14c09","651c1c2bf05d9dfa800068fb","null","null","<p style=""font-size: 60px; font-family: BACS"">dYdARYlD</p>","","","","","","","","",""
"html-keyboard-response","185","881618","0.0-12.0-0.15","5ed013f88fce6e0d858b732e","650c16f0f2faf8d7a0d14c09","651c1c2bf05d9dfa800068fb","null","null","<p style=""font-size: 60px; font-family: BACS"">aUZAJud</p>","","","","","","","","",""
"html-keyboard-response","186","882618","0.0-12.0-0.16","5ed013f88fce6e0d858b732e","650c16f0f2faf8d7a0d14c09","651c1c2bf05d9dfa800068fb","null","null","<p style=""font-size: 60px; font-family: BACS"">TCbDCMCkm</p>","","","","","","","","",""
"html-keyboard-response","187","883634","0.0-12.0-0.17","5ed013f88fce6e0d858b732e","650c16f0f2faf8d7a0d14c09","651c1c2bf05d9dfa800068fb","null","null","<p style=""font-size: 60px; font-family: BACS"">NAacQuda</p>","","","","","","","","",""
"html-keyboard-response","188","884634","0.0-12.0-0.18","5ed013f88fce6e0d858b732e","650c16f0f2faf8d7a0d14c09","651c1c2bf05d9dfa800068fb","null","null","<p style=""font-size: 60px; font-family: BACS"">YLQmGukbY</p>","","","","","","","","",""
"html-keyboard-response","189","885634","0.0-12.0-0.19","5ed013f88fce6e0d858b732e","650c16f0f2faf8d7a0d14c09","651c1c2bf05d9dfa800068fb","null","null","<p style=""font-size: 60px; font-family: BACS"">uvaUJUG</p>","","","","","","","","",""
"html-keyboard-response","190","886634","0.0-12.0-0.20","5ed013f88fce6e0d858b732e","650c16f0f2faf8d7a0d14c09","651c1c2bf05d9dfa800068fb","null","null","<p style=""font-size: 60px; font-family: BACS"">KMOcmhc</p>","","","","","","","","",""
"html-keyboard-response","191","887634","0.0-12.0-0.21","5ed013f88fce6e0d858b732e","650c16f0f2faf8d7a0d14c09","651c1c2bf05d9dfa800068fb","null","null","<p style=""font-size: 60px; font-family: BACS"">DCmhMKmY</p>","","","","","","","","",""
"html-keyboard-response","192","888651","0.0-12.0-0.22","5ed013f88fce6e0d858b732e","650c16f0f2faf8d7a0d14c09","651c1c2bf05d9dfa800068fb","null","null","<p style=""font-size: 60px; font-family: BACS"">ckduAJud</p>","","","","","","","","",""
"html-keyboard-response","193","889651","0.0-12.0-0.23","5ed013f88fce6e0d858b732e","650c16f0f2faf8d7a0d14c09","651c1c2bf05d9dfa800068fb","null","null","<p style=""font-size: 60px; font-family: BACS"">ECtbDRYlD</p>","","","","","","","","",""
"html-keyboard-response","194","890651","0.0-12.0-0.24","5ed013f88fce6e0d858b732e","650c16f0f2faf8d7a0d14c09","651c1c2bf05d9dfa800068fb","null","null","<p style=""font-size: 60px; font-family: BACS"">DCmhmhc</p>","","","","","","","","",""
"html-keyboard-response","195","891668","0.0-12.0-0.25","5ed013f88fce6e0d858b732e","650c16f0f2faf8d7a0d14c09","651c1c2bf05d9dfa800068fb","null","null","<p style=""font-size: 60px; font-family: BACS"">LdrbvJud</p>","","","","","","","","",""
"html-keyboard-response","196","892668","0.0-12.0-0.26","5ed013f88fce6e0d858b732e","650c16f0f2faf8d7a0d14c09","651c1c2bf05d9dfa800068fb","null","null","<p style=""font-size: 60px; font-family: BACS"">aLNlkuda</p>","","","","","","","","",""
"html-keyboard-response","197","893668","0.0-12.0-0.27","5ed013f88fce6e0d858b732e","650c16f0f2faf8d7a0d14c09","651c1c2bf05d9dfa800068fb","null","null","<p style=""font-size: 60px; font-family: BACS"">BKDRYOBT</p>","","","","","","","","",""
"html-keyboard-response","198","894685","0.0-12.0-0.28","5ed013f88fce6e0d858b732e","650c16f0f2faf8d7a0d14c09","651c1c2bf05d9dfa800068fb","null","null","<p style=""font-size: 60px; font-family: BACS"">KMOcMKmY</p>","","","","","","","","",""
"html-keyboard-response","199","895685","0.0-12.0-0.29","5ed013f88fce6e0d858b732e","650c16f0f2faf8d7a0d14c09","651c1c2bf05d9dfa800068fb","null","null","<p style=""font-size: 60px; font-family: BACS"">kPOtRYlD</p>","","","","","","","","",""
"html-keyboard-response","200","896685","0.0-12.0-0.30","5ed013f88fce6e0d858b732e","650c16f0f2faf8d7a0d14c09","651c1c2bf05d9dfa800068fb","null","null","<p style=""font-size: 60px; font-family: BACS"">lYruaukbY</p>","","","","","","","","",""
"html-keyboard-response","201","897685","0.0-12.0-0.31","5ed013f88fce6e0d858b732e","650c16f0f2faf8d7a0d14c09","651c1c2bf05d9dfa800068fb","null","null","<p style=""font-size: 60px; font-family: BACS"">ckduAdYAJ</p>","","","","","","","","",""
"html-keyboard-response","202","898701","0.0-12.0-0.32","5ed013f88fce6e0d858b732e","650c16f0f2faf8d7a0d14c09","651c1c2bf05d9dfa800068fb","null","null","<p style=""font-size: 60px; font-family: BACS"">BECkmhc</p>","","","","","","","","",""
"html-keyboard-response","203","899701","0.0-12.0-0.33","5ed013f88fce6e0d858b732e","650c16f0f2faf8d7a0d14c09","651c1c2bf05d9dfa800068fb","null","null","<p style=""font-size: 60px; font-family: BACS"">GNAcaJUG</p>","","","","","","","","",""
"html-keyboard-response","204","900701","0.0-12.0-0.34","5ed013f88fce6e0d858b732e","650c16f0f2faf8d7a0d14c09","651c1c2bf05d9dfa800068fb","null","null","<p style=""font-size: 60px; font-family: BACS"">BECkMKmY</p>","","","","","","","","",""
"html-keyboard-response","205","901701","0.0-12.0-0.35","5ed013f88fce6e0d858b732e","650c16f0f2faf8d7a0d14c09","651c1c2bf05d9dfa800068fb","null","null","<p style=""font-size: 60px; font-family: BACS"">aUZAJUG</p>","","","","","","","","",""
"html-keyboard-response","206","902701","0.0-12.0-0.36","5ed013f88fce6e0d858b732e","650c16f0f2faf8d7a0d14c09","651c1c2bf05d9dfa800068fb","null","null","<p style=""font-size: 60px; font-family: BACS"">aLNlkdYAJ</p>","","","","","","","","",""
"html-keyboard-response","207","903718","0.0-12.0-0.37","5ed013f88fce6e0d858b732e","650c16f0f2faf8d7a0d14c09","651c1c2bf05d9dfa800068fb","null","null","<p style=""font-size: 60px; font-family: BACS"">ECtbDOBT</p>","","","","","","","","",""
"html-keyboard-response","208","904702","0.0-12.0-0.38","5ed013f88fce6e0d858b732e","650c16f0f2faf8d7a0d14c09","651c1c2bf05d9dfa800068fb","null","null","<p style=""font-size: 60px; font-family: BACS"">BECkMCkm</p>","","","","","","","","",""
"html-keyboard-response","209","905718","0.0-12.0-0.39","5ed013f88fce6e0d858b732e","650c16f0f2faf8d7a0d14c09","651c1c2bf05d9dfa800068fb","null","null","<p style=""font-size: 60px; font-family: BACS"">GNAcaJud</p>","","","","","","","","",""
"html-keyboard-response","210","906735","0.0-12.0-0.40","5ed013f88fce6e0d858b732e","650c16f0f2faf8d7a0d14c09","651c1c2bf05d9dfa800068fb","null","null","<p style=""font-size: 60px; font-family: BACS"">ECtbDMKmY</p>","","","","","","","","",""
"html-keyboard-response","211","907768","0.0-12.0-0.41","5ed013f88fce6e0d858b732e","650c16f0f2faf8d7a0d14c09","651c1c2bf05d9dfa800068fb","null","null","<p style=""font-size: 60px; font-family: BACS"">kPOtMCkm</p>","","","","","","","","",""
"html-keyboard-response","212","908768","0.0-12.0-0.42","5ed013f88fce6e0d858b732e","650c16f0f2faf8d7a0d14c09","651c1c2bf05d9dfa800068fb","null","null","<p style=""font-size: 60px; font-family: BACS"">aUZAuda</p>","","","","","","","","",""
"html-keyboard-response","213","909785","0.0-12.0-0.43","5ed013f88fce6e0d858b732e","650c16f0f2faf8d7a0d14c09","651c1c2bf05d9dfa800068fb","null","null","<p style=""font-size: 60px; font-family: BACS"">CtmbMCkm</p>","","","","","","","","",""
"html-keyboard-response","214","910768","0.0-12.0-0.44","5ed013f88fce6e0d858b732e","650c16f0f2faf8d7a0d14c09","651c1c2bf05d9dfa800068fb","null","null","<p style=""font-size: 60px; font-family: BACS"">ckLALukbY</p>","","","","","","","","",""
"html-keyboard-response","215","911785","0.0-12.0-0.45","5ed013f88fce6e0d858b732e","650c16f0f2faf8d7a0d14c09","651c1c2bf05d9dfa800068fb","null","null","<p style=""font-size: 60px; font-family: BACS"">uvaUJud</p>","","","","","","","","",""
"html-keyboard-response","216","912785","0.0-12.0-0.46","5ed013f88fce6e0d858b732e","650c16f0f2faf8d7a0d14c09","651c1c2bf05d9dfa800068fb","null","null","<p style=""font-size: 60px; font-family: BACS"">dYdAMKmY</p>","","","","","","","","",""
"html-keyboard-response","217","913785","0.0-12.0-0.47","5ed013f88fce6e0d858b732e","650c16f0f2faf8d7a0d14c09","651c1c2bf05d9dfa800068fb","null","null","<p style=""font-size: 60px; font-family: BACS"">lYruauda</p>","","","","","","","","",""
"html-keyboard-response","218","914802","0.0-12.0-0.48","5ed013f88fce6e0d858b732e","650c16f0f2faf8d7a0d14c09","651c1c2bf05d9dfa800068fb","null","null","<p style=""font-size: 60px; font-family: BACS"">NAacQdYAJ</p>","","","","","","","","",""
"html-keyboard-response","219","915802","0.0-12.0-0.49","5ed013f88fce6e0d858b732e","650c16f0f2faf8d7a0d14c09","651c1c2bf05d9dfa800068fb","null","null","<p style=""font-size: 60px; font-family: BACS"">ckduAuda</p>","","","","","","","","",""
"html-keyboard-response","220","916785","0.0-12.0-0.50","5ed013f88fce6e0d858b732e","650c16f0f2faf8d7a0d14c09","651c1c2bf05d9dfa800068fb","null","null","<p style=""font-size: 60px; font-family: BACS"">NAacQJUG</p>","","","","","","","","",""
"html-keyboard-response","221","917802","0.0-12.0-0.51","5ed013f88fce6e0d858b732e","650c16f0f2faf8d7a0d14c09","651c1c2bf05d9dfa800068fb","null","null","<p style=""font-size: 60px; font-family: BACS"">ckLALuda</p>","","","","","","","","",""
"html-keyboard-response","222","918818","0.0-12.0-0.52","5ed013f88fce6e0d858b732e","650c16f0f2faf8d7a0d14c09","651c1c2bf05d9dfa800068fb","null","null","<p style=""font-size: 60px; font-family: BACS"">MlthMKmY</p>","","","","","","","","",""
"html-keyboard-response","223","919802","0.0-12.0-0.53","5ed013f88fce6e0d858b732e","650c16f0f2faf8d7a0d14c09","651c1c2bf05d9dfa800068fb","null","null","<p style=""font-size: 60px; font-family: BACS"">ckLALJud</p>","","","","","","","","",""
"html-keyboard-response","224","920818","0.0-12.0-0.54","5ed013f88fce6e0d858b732e","650c16f0f2faf8d7a0d14c09","651c1c2bf05d9dfa800068fb","null","null","<p style=""font-size: 60px; font-family: BACS"">CtmbRYlD</p>","","","","","","","","",""
"html-keyboard-response","225","921819","0.0-12.0-0.55","5ed013f88fce6e0d858b732e","650c16f0f2faf8d7a0d14c09","651c1c2bf05d9dfa800068fb","null","null","<p style=""font-size: 60px; font-family: BACS"">kPOtmhc</p>","","","","","","","","",""
"html-keyboard-response","226","922819","0.0-12.0-0.56","5ed013f88fce6e0d858b732e","650c16f0f2faf8d7a0d14c09","651c1c2bf05d9dfa800068fb","null","null","<p style=""font-size: 60px; font-family: BACS"">aLNlkJUG</p>","","","","","","","","",""
"html-keyboard-response","227","923835","0.0-12.0-0.57","5ed013f88fce6e0d858b732e","650c16f0f2faf8d7a0d14c09","651c1c2bf05d9dfa800068fb","null","null","<p style=""font-size: 60px; font-family: BACS"">GNAcadYAJ</p>","","","","","","","","",""
"html-keyboard-response","228","924835","0.0-12.0-0.58","5ed013f88fce6e0d858b732e","650c16f0f2faf8d7a0d14c09","651c1c2bf05d9dfa800068fb","null","null","<p style=""font-size: 60px; font-family: BACS"">ckduAJUG</p>","","","","","","","","",""
"html-keyboard-response","229","925835","0.0-12.0-0.59","5ed013f88fce6e0d858b732e","650c16f0f2faf8d7a0d14c09","651c1c2bf05d9dfa800068fb","null","null","<p style=""font-size: 60px; font-family: BACS"">Ldrbvuda</p>","","","","","","","","",""
"html-keyboard-response","230","926835","0.0-12.0-0.60","5ed013f88fce6e0d858b732e","650c16f0f2faf8d7a0d14c09","651c1c2bf05d9dfa800068fb","null","null","<p style=""font-size: 60px; font-family: BACS"">DCmhOBT</p>","","","","","","","","",""
"html-keyboard-response","231","927835","0.0-12.0-0.61","5ed013f88fce6e0d858b732e","650c16f0f2faf8d7a0d14c09","651c1c2bf05d9dfa800068fb","null","null","<p style=""font-size: 60px; font-family: BACS"">YLQmGdYAJ</p>","","","","","","","","",""
"html-keyboard-response","232","928852","0.0-12.0-0.62","5ed013f88fce6e0d858b732e","650c16f0f2faf8d7a0d14c09","651c1c2bf05d9dfa800068fb","null","null","<p style=""font-size: 60px; font-family: BACS"">TCbDCOBT</p>","","","","","","","","",""
"html-keyboard-response","233","929869","0.0-12.0-0.63","5ed013f88fce6e0d858b732e","650c16f0f2faf8d7a0d14c09","651c1c2bf05d9dfa800068fb","null","null","<p style=""font-size: 60px; font-family: BACS"">BKDRYMKmY</p>","","","","","","","","",""
"html-keyboard-response","234","930869","0.0-12.0-0.64","5ed013f88fce6e0d858b732e","650c16f0f2faf8d7a0d14c09","651c1c2bf05d9dfa800068fb","null","null","<p style=""font-size: 60px; font-family: BACS"">KMOcMCkm</p>","","","","","","","","",""
"html-keyboard-response","235","931869","0.0-12.0-0.65","5ed013f88fce6e0d858b732e","650c16f0f2faf8d7a0d14c09","651c1c2bf05d9dfa800068fb","null","null","<p style=""font-size: 60px; font-family: BACS"">lYruaJud</p>","","","","","","","","",""
"html-keyboard-response","236","932869","0.0-12.0-0.66","5ed013f88fce6e0d858b732e","650c16f0f2faf8d7a0d14c09","651c1c2bf05d9dfa800068fb","null","null","<p style=""font-size: 60px; font-family: BACS"">CtmbOBT</p>","","","","","","","","",""
"html-keyboard-response","237","933885","0.0-12.0-0.67","5ed013f88fce6e0d858b732e","650c16f0f2faf8d7a0d14c09","651c1c2bf05d9dfa800068fb","null","null","<p style=""font-size: 60px; font-family: BACS"">BECkRYlD</p>","","","","","","","","",""
"html-keyboard-response","238","934885","0.0-12.0-0.68","5ed013f88fce6e0d858b732e","650c16f0f2faf8d7a0d14c09","651c1c2bf05d9dfa800068fb","null","null","<p style=""font-size: 60px; font-family: BACS"">Mlthmhc</p>","","","","","","","","",""
"html-keyboard-response","239","935902","0.0-12.0-0.69","5ed013f88fce6e0d858b732e","650c16f0f2faf8d7a0d14c09","651c1c2bf05d9dfa800068fb","null","null","<p style=""font-size: 60px; font-family: BACS"">ckLALJUG</p>","","","","","","","","",""
"html-keyboard-response","240","936902","0.0-12.0-0.70","5ed013f88fce6e0d858b732e","650c16f0f2faf8d7a0d14c09","651c1c2bf05d9dfa800068fb","null","null","<p style=""font-size: 60px; font-family: BACS"">BKDRYMCkm</p>","","","","","","","","",""
"html-keyboard-response","241","937902","0.0-12.0-0.71","5ed013f88fce6e0d858b732e","650c16f0f2faf8d7a0d14c09","651c1c2bf05d9dfa800068fb","null","null","<p style=""font-size: 60px; font-family: BACS"">KMOcRYlD</p>","","","","","","","","",""
"html-keyboard-response","242","938919","0.0-12.0-0.72","5ed013f88fce6e0d858b732e","650c16f0f2faf8d7a0d14c09","651c1c2bf05d9dfa800068fb","null","null","<p style=""font-size: 60px; font-family: BACS"">LdrbvdYAJ</p>","","","","","","","","",""
"html-keyboard-response","243","939902","0.0-12.0-0.73","5ed013f88fce6e0d858b732e","650c16f0f2faf8d7a0d14c09","651c1c2bf05d9dfa800068fb","null","null","<p style=""font-size: 60px; font-family: BACS"">uvaUukbY</p>","","","","","","","","",""
"html-keyboard-response","244","940919","0.0-12.0-0.74","5ed013f88fce6e0d858b732e","650c16f0f2faf8d7a0d14c09","651c1c2bf05d9dfa800068fb","null","null","<p style=""font-size: 60px; font-family: BACS"">aUZAdYAJ</p>","","","","","","","","",""
"html-keyboard-response","245","941919","0.0-12.0-0.75","5ed013f88fce6e0d858b732e","650c16f0f2faf8d7a0d14c09","651c1c2bf05d9dfa800068fb","null","null","<p style=""font-size: 60px; font-family: BACS"">dYdAOBT</p>","","","","","","","","",""
"html-keyboard-response","246","942919","0.0-12.0-0.76","5ed013f88fce6e0d858b732e","650c16f0f2faf8d7a0d14c09","651c1c2bf05d9dfa800068fb","null","null","<p style=""font-size: 60px; font-family: BACS"">NAacQukbY</p>","","","","","","","","",""
"html-keyboard-response","247","943919","0.0-12.0-0.77","5ed013f88fce6e0d858b732e","650c16f0f2faf8d7a0d14c09","651c1c2bf05d9dfa800068fb","null","null","<p style=""font-size: 60px; font-family: BACS"">ECtbDMCkm</p>","","","","","","","","",""
"html-keyboard-response","248","944919","0.0-12.0-0.78","5ed013f88fce6e0d858b732e","650c16f0f2faf8d7a0d14c09","651c1c2bf05d9dfa800068fb","null","null","<p style=""font-size: 60px; font-family: BACS"">dYdAmhc</p>","","","","","","","","",""
"html-keyboard-response","249","945936","0.0-12.0-0.79","5ed013f88fce6e0d858b732e","650c16f0f2faf8d7a0d14c09","651c1c2bf05d9dfa800068fb","null","null","<p style=""font-size: 60px; font-family: BACS"">MlthOBT</p>","","","","","","","","",""
"html-keyboard-response","250","957869","0.0-13.0","5ed013f88fce6e0d858b732e","650c16f0f2faf8d7a0d14c09","651c1c2bf05d9dfa800068fb","11934"," ","<p>Great, you've seen the third block of words. You may now take a short break.</p>
      <p>Press the spacebar when you're ready to continue.</p>","","","","","","","","",""
"html-keyboard-response","251","958869","0.0-14.0-0.0","5ed013f88fce6e0d858b732e","650c16f0f2faf8d7a0d14c09","651c1c2bf05d9dfa800068fb","null","null","<p style=""font-size: 60px; font-family: BACS"">Ldrbvuda</p>","","","","","","","","",""
"html-keyboard-response","252","959903","0.0-14.0-0.1","5ed013f88fce6e0d858b732e","650c16f0f2faf8d7a0d14c09","651c1c2bf05d9dfa800068fb","null","null","<p style=""font-size: 60px; font-family: BACS"">TCbDCmhc</p>","","","","","","","","",""
"html-keyboard-response","253","960919","0.0-14.0-0.2","5ed013f88fce6e0d858b732e","650c16f0f2faf8d7a0d14c09","651c1c2bf05d9dfa800068fb","null","null","<p style=""font-size: 60px; font-family: BACS"">ckLALJUG</p>","","","","","","","","",""
"html-keyboard-response","254","961903","0.0-14.0-0.3","5ed013f88fce6e0d858b732e","650c16f0f2faf8d7a0d14c09","651c1c2bf05d9dfa800068fb","null","null","<p style=""font-size: 60px; font-family: BACS"">Mlthmhc</p>","","","","","","","","",""
"html-keyboard-response","255","962919","0.0-14.0-0.4","5ed013f88fce6e0d858b732e","650c16f0f2faf8d7a0d14c09","651c1c2bf05d9dfa800068fb","null","null","<p style=""font-size: 60px; font-family: BACS"">kPOtMCkm</p>","","","","","","","","",""
"html-keyboard-response","256","963919","0.0-14.0-0.5","5ed013f88fce6e0d858b732e","650c16f0f2faf8d7a0d14c09","651c1c2bf05d9dfa800068fb","null","null","<p style=""font-size: 60px; font-family: BACS"">BECkmhc</p>","","","","","","","","",""
"html-keyboard-response","257","964919","0.0-14.0-0.6","5ed013f88fce6e0d858b732e","650c16f0f2faf8d7a0d14c09","651c1c2bf05d9dfa800068fb","null","null","<p style=""font-size: 60px; font-family: BACS"">lYruauda</p>","","","","","","","","",""
"html-keyboard-response","258","965919","0.0-14.0-0.7","5ed013f88fce6e0d858b732e","650c16f0f2faf8d7a0d14c09","651c1c2bf05d9dfa800068fb","null","null","<p style=""font-size: 60px; font-family: BACS"">kPOtRYlD</p>","","","","","","","","",""
"html-keyboard-response","259","966936","0.0-14.0-0.8","5ed013f88fce6e0d858b732e","650c16f0f2faf8d7a0d14c09","651c1c2bf05d9dfa800068fb","null","null","<p style=""font-size: 60px; font-family: BACS"">LdrbvdYAJ</p>","","","","","","","","",""
"html-keyboard-response","260","967936","0.0-14.0-0.9","5ed013f88fce6e0d858b732e","650c16f0f2faf8d7a0d14c09","651c1c2bf05d9dfa800068fb","null","null","<p style=""font-size: 60px; font-family: BACS"">ckduAJUG</p>","","","","","","","","",""
"html-keyboard-response","261","968953","0.0-14.0-0.10","5ed013f88fce6e0d858b732e","650c16f0f2faf8d7a0d14c09","651c1c2bf05d9dfa800068fb","null","null","<p style=""font-size: 60px; font-family: BACS"">uvaUdYAJ</p>","","","","","","","","",""
"html-keyboard-response","262","969969","0.0-14.0-0.11","5ed013f88fce6e0d858b732e","650c16f0f2faf8d7a0d14c09","651c1c2bf05d9dfa800068fb","null","null","<p style=""font-size: 60px; font-family: BACS"">BKDRYMKmY</p>","","","","","","","","",""
"html-keyboard-response","263","970986","0.0-14.0-0.12","5ed013f88fce6e0d858b732e","650c16f0f2faf8d7a0d14c09","651c1c2bf05d9dfa800068fb","null","null","<p style=""font-size: 60px; font-family: BACS"">YLQmGuda</p>","","","","","","","","",""
"html-keyboard-response","264","971986","0.0-14.0-0.13","5ed013f88fce6e0d858b732e","650c16f0f2faf8d7a0d14c09","651c1c2bf05d9dfa800068fb","null","null","<p style=""font-size: 60px; font-family: BACS"">KMOcmhc</p>","","","","","","","","",""
"html-keyboard-response","265","973003","0.0-14.0-0.14","5ed013f88fce6e0d858b732e","650c16f0f2faf8d7a0d14c09","651c1c2bf05d9dfa800068fb","null","null","<p style=""font-size: 60px; font-family: BACS"">DCmhRYlD</p>","","","","","","","","",""
"html-keyboard-response","266","973986","0.0-14.0-0.15","5ed013f88fce6e0d858b732e","650c16f0f2faf8d7a0d14c09","651c1c2bf05d9dfa800068fb","null","null","<p style=""font-size: 60px; font-family: BACS"">aLNlkuda</p>","","","","","","","","",""
"html-keyboard-response","267","975003","0.0-14.0-0.16","5ed013f88fce6e0d858b732e","650c16f0f2faf8d7a0d14c09","651c1c2bf05d9dfa800068fb","null","null","<p style=""font-size: 60px; font-family: BACS"">BKDRYRYlD</p>","","","","","","","","",""
"html-keyboard-response","268","976020","0.0-14.0-0.17","5ed013f88fce6e0d858b732e","650c16f0f2faf8d7a0d14c09","651c1c2bf05d9dfa800068fb","null","null","<p style=""font-size: 60px; font-family: BACS"">aLNlkdYAJ</p>","","","","","","","","",""
"html-keyboard-response","269","977003","0.0-14.0-0.18","5ed013f88fce6e0d858b732e","650c16f0f2faf8d7a0d14c09","651c1c2bf05d9dfa800068fb","null","null","<p style=""font-size: 60px; font-family: BACS"">KMOcMCkm</p>","","","","","","","","",""
"html-keyboard-response","270","978036","0.0-14.0-0.19","5ed013f88fce6e0d858b732e","650c16f0f2faf8d7a0d14c09","651c1c2bf05d9dfa800068fb","null","null","<p style=""font-size: 60px; font-family: BACS"">GNAcaJud</p>","","","","","","","","",""
"html-keyboard-response","271","979053","0.0-14.0-0.20","5ed013f88fce6e0d858b732e","650c16f0f2faf8d7a0d14c09","651c1c2bf05d9dfa800068fb","null","null","<p style=""font-size: 60px; font-family: BACS"">KMOcRYlD</p>","","","","","","","","",""
"html-keyboard-response","272","980036","0.0-14.0-0.21","5ed013f88fce6e0d858b732e","650c16f0f2faf8d7a0d14c09","651c1c2bf05d9dfa800068fb","null","null","<p style=""font-size: 60px; font-family: BACS"">ckLALuda</p>","","","","","","","","",""
"html-keyboard-response","273","981053","0.0-14.0-0.22","5ed013f88fce6e0d858b732e","650c16f0f2faf8d7a0d14c09","651c1c2bf05d9dfa800068fb","null","null","<p style=""font-size: 60px; font-family: BACS"">GNAcaukbY</p>","","","","","","","","",""
"html-keyboard-response","274","982053","0.0-14.0-0.23","5ed013f88fce6e0d858b732e","650c16f0f2faf8d7a0d14c09","651c1c2bf05d9dfa800068fb","null","null","<p style=""font-size: 60px; font-family: BACS"">ckduAJud</p>","","","","","","","","",""
"html-keyboard-response","275","983036","0.0-14.0-0.24","5ed013f88fce6e0d858b732e","650c16f0f2faf8d7a0d14c09","651c1c2bf05d9dfa800068fb","null","null","<p style=""font-size: 60px; font-family: BACS"">GNAcadYAJ</p>","","","","","","","","",""
"html-keyboard-response","276","984053","0.0-14.0-0.25","5ed013f88fce6e0d858b732e","650c16f0f2faf8d7a0d14c09","651c1c2bf05d9dfa800068fb","null","null","<p style=""font-size: 60px; font-family: BACS"">ckLALJud</p>","","","","","","","","",""
"html-keyboard-response","277","985053","0.0-14.0-0.26","5ed013f88fce6e0d858b732e","650c16f0f2faf8d7a0d14c09","651c1c2bf05d9dfa800068fb","null","null","<p style=""font-size: 60px; font-family: BACS"">ECtbDRYlD</p>","","","","","","","","",""
"html-keyboard-response","278","986070","0.0-14.0-0.27","5ed013f88fce6e0d858b732e","650c16f0f2faf8d7a0d14c09","651c1c2bf05d9dfa800068fb","null","null","<p style=""font-size: 60px; font-family: BACS"">lYruaukbY</p>","","","","","","","","",""
"html-keyboard-response","279","987070","0.0-14.0-0.28","5ed013f88fce6e0d858b732e","650c16f0f2faf8d7a0d14c09","651c1c2bf05d9dfa800068fb","null","null","<p style=""font-size: 60px; font-family: BACS"">ECtbDOBT</p>","","","","","","","","",""
"html-keyboard-response","280","988070","0.0-14.0-0.29","5ed013f88fce6e0d858b732e","650c16f0f2faf8d7a0d14c09","651c1c2bf05d9dfa800068fb","null","null","<p style=""font-size: 60px; font-family: BACS"">GNAcaJUG</p>","","","","","","","","",""
"html-keyboard-response","281","989070","0.0-14.0-0.30","5ed013f88fce6e0d858b732e","650c16f0f2faf8d7a0d14c09","651c1c2bf05d9dfa800068fb","null","null","<p style=""font-size: 60px; font-family: BACS"">BECkRYlD</p>","","","","","","","","",""
"html-keyboard-response","282","990070","0.0-14.0-0.31","5ed013f88fce6e0d858b732e","650c16f0f2faf8d7a0d14c09","651c1c2bf05d9dfa800068fb","null","null","<p style=""font-size: 60px; font-family: BACS"">MlthMCkm</p>","","","","","","","","",""
"html-keyboard-response","283","991070","0.0-14.0-0.32","5ed013f88fce6e0d858b732e","650c16f0f2faf8d7a0d14c09","651c1c2bf05d9dfa800068fb","null","null","<p style=""font-size: 60px; font-family: BACS"">uvaUJud</p>","","","","","","","","",""
"html-keyboard-response","284","992087","0.0-14.0-0.33","5ed013f88fce6e0d858b732e","650c16f0f2faf8d7a0d14c09","651c1c2bf05d9dfa800068fb","null","null","<p style=""font-size: 60px; font-family: BACS"">BKDRYMCkm</p>","","","","","","","","",""
"html-keyboard-response","285","993087","0.0-14.0-0.34","5ed013f88fce6e0d858b732e","650c16f0f2faf8d7a0d14c09","651c1c2bf05d9dfa800068fb","null","null","<p style=""font-size: 60px; font-family: BACS"">Ctmbmhc</p>","","","","","","","","",""
"html-keyboard-response","286","994103","0.0-14.0-0.35","5ed013f88fce6e0d858b732e","650c16f0f2faf8d7a0d14c09","651c1c2bf05d9dfa800068fb","null","null","<p style=""font-size: 60px; font-family: BACS"">MlthOBT</p>","","","","","","","","",""
"html-keyboard-response","287","995103","0.0-14.0-0.36","5ed013f88fce6e0d858b732e","650c16f0f2faf8d7a0d14c09","651c1c2bf05d9dfa800068fb","null","null","<p style=""font-size: 60px; font-family: BACS"">aUZAuda</p>","","","","","","","","",""
"html-keyboard-response","288","996103","0.0-14.0-0.37","5ed013f88fce6e0d858b732e","650c16f0f2faf8d7a0d14c09","651c1c2bf05d9dfa800068fb","null","null","<p style=""font-size: 60px; font-family: BACS"">CtmbMCkm</p>","","","","","","","","",""
"html-keyboard-response","289","997103","0.0-14.0-0.38","5ed013f88fce6e0d858b732e","650c16f0f2faf8d7a0d14c09","651c1c2bf05d9dfa800068fb","null","null","<p style=""font-size: 60px; font-family: BACS"">LdrbvJud</p>","","","","","","","","",""
"html-keyboard-response","290","998120","0.0-14.0-0.39","5ed013f88fce6e0d858b732e","650c16f0f2faf8d7a0d14c09","651c1c2bf05d9dfa800068fb","null","null","<p style=""font-size: 60px; font-family: BACS"">aLNlkukbY</p>","","","","","","","","",""
"html-keyboard-response","291","999120","0.0-14.0-0.40","5ed013f88fce6e0d858b732e","650c16f0f2faf8d7a0d14c09","651c1c2bf05d9dfa800068fb","null","null","<p style=""font-size: 60px; font-family: BACS"">NAacQJUG</p>","","","","","","","","",""
"html-keyboard-response","292","1000137","0.0-14.0-0.41","5ed013f88fce6e0d858b732e","650c16f0f2faf8d7a0d14c09","651c1c2bf05d9dfa800068fb","null","null","<p style=""font-size: 60px; font-family: BACS"">YLQmGukbY</p>","","","","","","","","",""
"html-keyboard-response","293","1001137","0.0-14.0-0.42","5ed013f88fce6e0d858b732e","650c16f0f2faf8d7a0d14c09","651c1c2bf05d9dfa800068fb","null","null","<p style=""font-size: 60px; font-family: BACS"">lYruaJUG</p>","","","","","","","","",""
"html-keyboard-response","294","1002120","0.0-14.0-0.43","5ed013f88fce6e0d858b732e","650c16f0f2faf8d7a0d14c09","651c1c2bf05d9dfa800068fb","null","null","<p style=""font-size: 60px; font-family: BACS"">NAacQukbY</p>","","","","","","","","",""
"html-keyboard-response","295","1003170","0.0-14.0-0.44","5ed013f88fce6e0d858b732e","650c16f0f2faf8d7a0d14c09","651c1c2bf05d9dfa800068fb","null","null","<p style=""font-size: 60px; font-family: BACS"">DCmhmhc</p>","","","","","","","","",""
"html-keyboard-response","296","1004170","0.0-14.0-0.45","5ed013f88fce6e0d858b732e","650c16f0f2faf8d7a0d14c09","651c1c2bf05d9dfa800068fb","null","null","<p style=""font-size: 60px; font-family: BACS"">dYdAOBT</p>","","","","","","","","",""
"html-keyboard-response","297","1005170","0.0-14.0-0.46","5ed013f88fce6e0d858b732e","650c16f0f2faf8d7a0d14c09","651c1c2bf05d9dfa800068fb","null","null","<p style=""font-size: 60px; font-family: BACS"">uvaUJUG</p>","","","","","","","","",""
"html-keyboard-response","298","1006170","0.0-14.0-0.47","5ed013f88fce6e0d858b732e","650c16f0f2faf8d7a0d14c09","651c1c2bf05d9dfa800068fb","null","null","<p style=""font-size: 60px; font-family: BACS"">ckLALukbY</p>","","","","","","","","",""
"html-keyboard-response","299","1007170","0.0-14.0-0.48","5ed013f88fce6e0d858b732e","650c16f0f2faf8d7a0d14c09","651c1c2bf05d9dfa800068fb","null","null","<p style=""font-size: 60px; font-family: BACS"">DCmhMKmY</p>","","","","","","","","",""
"html-keyboard-response","300","1008187","0.0-14.0-0.49","5ed013f88fce6e0d858b732e","650c16f0f2faf8d7a0d14c09","651c1c2bf05d9dfa800068fb","null","null","<p style=""font-size: 60px; font-family: BACS"">ckduAdYAJ</p>","","","","","","","","",""
"html-keyboard-response","301","1009187","0.0-14.0-0.50","5ed013f88fce6e0d858b732e","650c16f0f2faf8d7a0d14c09","651c1c2bf05d9dfa800068fb","null","null","<p style=""font-size: 60px; font-family: BACS"">ECtbDMKmY</p>","","","","","","","","",""
"html-keyboard-response","302","1010187","0.0-14.0-0.51","5ed013f88fce6e0d858b732e","650c16f0f2faf8d7a0d14c09","651c1c2bf05d9dfa800068fb","null","null","<p style=""font-size: 60px; font-family: BACS"">aUZAdYAJ</p>","","","","","","","","",""
"html-keyboard-response","303","1011187","0.0-14.0-0.52","5ed013f88fce6e0d858b732e","650c16f0f2faf8d7a0d14c09","651c1c2bf05d9dfa800068fb","null","null","<p style=""font-size: 60px; font-family: BACS"">NAacQuda</p>","","","","","","","","",""
"html-keyboard-response","304","1012187","0.0-14.0-0.53","5ed013f88fce6e0d858b732e","650c16f0f2faf8d7a0d14c09","651c1c2bf05d9dfa800068fb","null","null","<p style=""font-size: 60px; font-family: BACS"">YLQmGJud</p>","","","","","","","","",""
"html-keyboard-response","305","1013204","0.0-14.0-0.54","5ed013f88fce6e0d858b732e","650c16f0f2faf8d7a0d14c09","651c1c2bf05d9dfa800068fb","null","null","<p style=""font-size: 60px; font-family: BACS"">KMOcMKmY</p>","","","","","","","","",""
"html-keyboard-response","306","1014220","0.0-14.0-0.55","5ed013f88fce6e0d858b732e","650c16f0f2faf8d7a0d14c09","651c1c2bf05d9dfa800068fb","null","null","<p style=""font-size: 60px; font-family: BACS"">CtmbRYlD</p>","","","","","","","","",""
"html-keyboard-response","307","1015237","0.0-14.0-0.56","5ed013f88fce6e0d858b732e","650c16f0f2faf8d7a0d14c09","651c1c2bf05d9dfa800068fb","null","null","<p style=""font-size: 60px; font-family: BACS"">TCbDCMCkm</p>","","","","","","","","",""
"html-keyboard-response","308","1016237","0.0-14.0-0.57","5ed013f88fce6e0d858b732e","650c16f0f2faf8d7a0d14c09","651c1c2bf05d9dfa800068fb","null","null","<p style=""font-size: 60px; font-family: BACS"">MlthMKmY</p>","","","","","","","","",""
"html-keyboard-response","309","1017237","0.0-14.0-0.58","5ed013f88fce6e0d858b732e","650c16f0f2faf8d7a0d14c09","651c1c2bf05d9dfa800068fb","null","null","<p style=""font-size: 60px; font-family: BACS"">CtmbOBT</p>","","","","","","","","",""
"html-keyboard-response","310","1018237","0.0-14.0-0.59","5ed013f88fce6e0d858b732e","650c16f0f2faf8d7a0d14c09","651c1c2bf05d9dfa800068fb","null","null","<p style=""font-size: 60px; font-family: BACS"">uvaUukbY</p>","","","","","","","","",""
"html-keyboard-response","311","1019254","0.0-14.0-0.60","5ed013f88fce6e0d858b732e","650c16f0f2faf8d7a0d14c09","651c1c2bf05d9dfa800068fb","null","null","<p style=""font-size: 60px; font-family: BACS"">kPOtmhc</p>","","","","","","","","",""
"html-keyboard-response","312","1020254","0.0-14.0-0.61","5ed013f88fce6e0d858b732e","650c16f0f2faf8d7a0d14c09","651c1c2bf05d9dfa800068fb","null","null","<p style=""font-size: 60px; font-family: BACS"">BECkMKmY</p>","","","","","","","","",""
"html-keyboard-response","313","1021254","0.0-14.0-0.62","5ed013f88fce6e0d858b732e","650c16f0f2faf8d7a0d14c09","651c1c2bf05d9dfa800068fb","null","null","<p style=""font-size: 60px; font-family: BACS"">BKDRYOBT</p>","","","","","","","","",""
"html-keyboard-response","314","1022287","0.0-14.0-0.63","5ed013f88fce6e0d858b732e","650c16f0f2faf8d7a0d14c09","651c1c2bf05d9dfa800068fb","null","null","<p style=""font-size: 60px; font-family: BACS"">aUZAJUG</p>","","","","","","","","",""
"html-keyboard-response","315","1023287","0.0-14.0-0.64","5ed013f88fce6e0d858b732e","650c16f0f2faf8d7a0d14c09","651c1c2bf05d9dfa800068fb","null","null","<p style=""font-size: 60px; font-family: BACS"">NAacQdYAJ</p>","","","","","","","","",""
"html-keyboard-response","316","1024304","0.0-14.0-0.65","5ed013f88fce6e0d858b732e","650c16f0f2faf8d7a0d14c09","651c1c2bf05d9dfa800068fb","null","null","<p style=""font-size: 60px; font-family: BACS"">lYruaJud</p>","","","","","","","","",""
"html-keyboard-response","317","1025287","0.0-14.0-0.66","5ed013f88fce6e0d858b732e","650c16f0f2faf8d7a0d14c09","651c1c2bf05d9dfa800068fb","null","null","<p style=""font-size: 60px; font-family: BACS"">BECkMCkm</p>","","","","","","","","",""
"html-keyboard-response","318","1026304","0.0-14.0-0.67","5ed013f88fce6e0d858b732e","650c16f0f2faf8d7a0d14c09","651c1c2bf05d9dfa800068fb","null","null","<p style=""font-size: 60px; font-family: BACS"">DCmhOBT</p>","","","","","","","","",""
"html-keyboard-response","319","1027321","0.0-14.0-0.68","5ed013f88fce6e0d858b732e","650c16f0f2faf8d7a0d14c09","651c1c2bf05d9dfa800068fb","null","null","<p style=""font-size: 60px; font-family: BACS"">dYdAmhc</p>","","","","","","","","",""
"html-keyboard-response","320","1028321","0.0-14.0-0.69","5ed013f88fce6e0d858b732e","650c16f0f2faf8d7a0d14c09","651c1c2bf05d9dfa800068fb","null","null","<p style=""font-size: 60px; font-family: BACS"">TCbDCMKmY</p>","","","","","","","","",""
"html-keyboard-response","321","1029321","0.0-14.0-0.70","5ed013f88fce6e0d858b732e","650c16f0f2faf8d7a0d14c09","651c1c2bf05d9dfa800068fb","null","null","<p style=""font-size: 60px; font-family: BACS"">kPOtOBT</p>","","","","","","","","",""
"html-keyboard-response","322","1030321","0.0-14.0-0.71","5ed013f88fce6e0d858b732e","650c16f0f2faf8d7a0d14c09","651c1c2bf05d9dfa800068fb","null","null","<p style=""font-size: 60px; font-family: BACS"">aUZAJud</p>","","","","","","","","",""
"html-keyboard-response","323","1031321","0.0-14.0-0.72","5ed013f88fce6e0d858b732e","650c16f0f2faf8d7a0d14c09","651c1c2bf05d9dfa800068fb","null","null","<p style=""font-size: 60px; font-family: BACS"">YLQmGdYAJ</p>","","","","","","","","",""
"html-keyboard-response","324","1032337","0.0-14.0-0.73","5ed013f88fce6e0d858b732e","650c16f0f2faf8d7a0d14c09","651c1c2bf05d9dfa800068fb","null","null","<p style=""font-size: 60px; font-family: BACS"">dYdARYlD</p>","","","","","","","","",""
"html-keyboard-response","325","1033354","0.0-14.0-0.74","5ed013f88fce6e0d858b732e","650c16f0f2faf8d7a0d14c09","651c1c2bf05d9dfa800068fb","null","null","<p style=""font-size: 60px; font-family: BACS"">ckduAuda</p>","","","","","","","","",""
"html-keyboard-response","326","1034371","0.0-14.0-0.75","5ed013f88fce6e0d858b732e","650c16f0f2faf8d7a0d14c09","651c1c2bf05d9dfa800068fb","null","null","<p style=""font-size: 60px; font-family: BACS"">TCbDCOBT</p>","","","","","","","","",""
"html-keyboard-response","327","1035371","0.0-14.0-0.76","5ed013f88fce6e0d858b732e","650c16f0f2faf8d7a0d14c09","651c1c2bf05d9dfa800068fb","null","null","<p style=""font-size: 60px; font-family: BACS"">dYdAMKmY</p>","","","","","","","","",""
"html-keyboard-response","328","1036371","0.0-14.0-0.77","5ed013f88fce6e0d858b732e","650c16f0f2faf8d7a0d14c09","651c1c2bf05d9dfa800068fb","null","null","<p style=""font-size: 60px; font-family: BACS"">ECtbDMCkm</p>","","","","","","","","",""
"html-keyboard-response","329","1037371","0.0-14.0-0.78","5ed013f88fce6e0d858b732e","650c16f0f2faf8d7a0d14c09","651c1c2bf05d9dfa800068fb","null","null","<p style=""font-size: 60px; font-family: BACS"">aLNlkJUG</p>","","","","","","","","",""
"html-keyboard-response","330","1038388","0.0-14.0-0.79","5ed013f88fce6e0d858b732e","650c16f0f2faf8d7a0d14c09","651c1c2bf05d9dfa800068fb","null","null","<p style=""font-size: 60px; font-family: BACS"">LdrbvukbY</p>","","","","","","","","",""
"html-keyboard-response","331","1045171","0.0-15.0","5ed013f88fce6e0d858b732e","650c16f0f2faf8d7a0d14c09","651c1c2bf05d9dfa800068fb","6800"," ","<p>Great, you've seen the fourth block of words. You may now take a short break.</p>
      <p>Press the spacebar when you're ready to continue.</p>","","","","","","","","",""
"html-keyboard-response","332","1046188","0.0-16.0-0.0","5ed013f88fce6e0d858b732e","650c16f0f2faf8d7a0d14c09","651c1c2bf05d9dfa800068fb","null","null","<p style=""font-size: 60px; font-family: BACS"">TCbDCMCkm</p>","","","","","","","","",""
"html-keyboard-response","333","1047188","0.0-16.0-0.1","5ed013f88fce6e0d858b732e","650c16f0f2faf8d7a0d14c09","651c1c2bf05d9dfa800068fb","null","null","<p style=""font-size: 60px; font-family: BACS"">TCbDCMCkm</p>","","","","","","","","",""
"html-keyboard-response","334","1048188","0.0-16.0-0.2","5ed013f88fce6e0d858b732e","650c16f0f2faf8d7a0d14c09","651c1c2bf05d9dfa800068fb","null","null","<p style=""font-size: 60px; font-family: BACS"">TCbDCMCkm</p>","","","","","","","","",""
"html-keyboard-response","335","1049188","0.0-16.0-0.3","5ed013f88fce6e0d858b732e","650c16f0f2faf8d7a0d14c09","651c1c2bf05d9dfa800068fb","null","null","<p style=""font-size: 60px; font-family: BACS"">TCbDCMCkm</p>","","","","","","","","",""
"html-keyboard-response","336","1050204","0.0-16.0-0.4","5ed013f88fce6e0d858b732e","650c16f0f2faf8d7a0d14c09","651c1c2bf05d9dfa800068fb","null","null","<p style=""font-size: 60px; font-family: BACS"">TCbDCMCkm</p>","","","","","","","","",""
"html-keyboard-response","337","1051204","0.0-16.0-0.5","5ed013f88fce6e0d858b732e","650c16f0f2faf8d7a0d14c09","651c1c2bf05d9dfa800068fb","null","null","<p style=""font-size: 60px; font-family: BACS"">TCbDCMCkm</p>","","","","","","","","",""
"html-keyboard-response","338","1052221","0.0-16.0-0.6","5ed013f88fce6e0d858b732e","650c16f0f2faf8d7a0d14c09","651c1c2bf05d9dfa800068fb","null","null","<p style=""font-size: 60px; font-family: BACS"">TCbDCMCkm</p>","","","","","","","","",""
"html-keyboard-response","339","1053238","0.0-16.0-0.7","5ed013f88fce6e0d858b732e","650c16f0f2faf8d7a0d14c09","651c1c2bf05d9dfa800068fb","null","null","<p style=""font-size: 60px; font-family: BACS"">TCbDCMCkm</p>","","","","","","","","",""
"html-keyboard-response","340","1054238","0.0-16.0-0.8","5ed013f88fce6e0d858b732e","650c16f0f2faf8d7a0d14c09","651c1c2bf05d9dfa800068fb","null","null","<p style=""font-size: 60px; font-family: BACS"">TCbDCMCkm</p>","","","","","","","","",""
"html-keyboard-response","341","1055255","0.0-16.0-0.9","5ed013f88fce6e0d858b732e","650c16f0f2faf8d7a0d14c09","651c1c2bf05d9dfa800068fb","null","null","<p style=""font-size: 60px; font-family: BACS"">TCbDCMCkm</p>","","","","","","","","",""
"html-keyboard-response","342","1056238","0.0-16.0-0.10","5ed013f88fce6e0d858b732e","650c16f0f2faf8d7a0d14c09","651c1c2bf05d9dfa800068fb","null","null","<p style=""font-size: 60px; font-family: BACS"">TCbDCMCkm</p>","","","","","","","","",""
"html-keyboard-response","343","1057255","0.0-16.0-0.11","5ed013f88fce6e0d858b732e","650c16f0f2faf8d7a0d14c09","651c1c2bf05d9dfa800068fb","null","null","<p style=""font-size: 60px; font-family: BACS"">TCbDCMCkm</p>","","","","","","","","",""
"html-keyboard-response","344","1058255","0.0-16.0-0.12","5ed013f88fce6e0d858b732e","650c16f0f2faf8d7a0d14c09","651c1c2bf05d9dfa800068fb","null","null","<p style=""font-size: 60px; font-family: BACS"">TCbDCMCkm</p>","","","","","","","","",""
"html-keyboard-response","345","1059255","0.0-16.0-0.13","5ed013f88fce6e0d858b732e","650c16f0f2faf8d7a0d14c09","651c1c2bf05d9dfa800068fb","null","null","<p style=""font-size: 60px; font-family: BACS"">TCbDCMCkm</p>","","","","","","","","",""
"html-keyboard-response","346","1060255","0.0-16.0-0.14","5ed013f88fce6e0d858b732e","650c16f0f2faf8d7a0d14c09","651c1c2bf05d9dfa800068fb","null","null","<p style=""font-size: 60px; font-family: BACS"">TCbDCMCkm</p>","","","","","","","","",""
"html-keyboard-response","347","1061271","0.0-16.0-0.15","5ed013f88fce6e0d858b732e","650c16f0f2faf8d7a0d14c09","651c1c2bf05d9dfa800068fb","null","null","<p style=""font-size: 60px; font-family: BACS"">TCbDCMCkm</p>","","","","","","","","",""
"html-keyboard-response","348","1062288","0.0-16.0-0.16","5ed013f88fce6e0d858b732e","650c16f0f2faf8d7a0d14c09","651c1c2bf05d9dfa800068fb","null","null","<p style=""font-size: 60px; font-family: BACS"">TCbDCMCkm</p>","","","","","","","","",""
"html-keyboard-response","349","1063271","0.0-16.0-0.17","5ed013f88fce6e0d858b732e","650c16f0f2faf8d7a0d14c09","651c1c2bf05d9dfa800068fb","null","null","<p style=""font-size: 60px; font-family: BACS"">TCbDCMCkm</p>","","","","","","","","",""
"html-keyboard-response","350","1064288","0.0-16.0-0.18","5ed013f88fce6e0d858b732e","650c16f0f2faf8d7a0d14c09","651c1c2bf05d9dfa800068fb","null","null","<p style=""font-size: 60px; font-family: BACS"">TCbDCMCkm</p>","","","","","","","","",""
"html-keyboard-response","351","1065288","0.0-16.0-0.19","5ed013f88fce6e0d858b732e","650c16f0f2faf8d7a0d14c09","651c1c2bf05d9dfa800068fb","null","null","<p style=""font-size: 60px; font-family: BACS"">TCbDCMCkm</p>","","","","","","","","",""
"html-keyboard-response","352","1066288","0.0-16.0-0.20","5ed013f88fce6e0d858b732e","650c16f0f2faf8d7a0d14c09","651c1c2bf05d9dfa800068fb","null","null","<p style=""font-size: 60px; font-family: BACS"">TCbDCMCkm</p>","","","","","","","","",""
"html-keyboard-response","353","1067288","0.0-16.0-0.21","5ed013f88fce6e0d858b732e","650c16f0f2faf8d7a0d14c09","651c1c2bf05d9dfa800068fb","null","null","<p style=""font-size: 60px; font-family: BACS"">TCbDCMCkm</p>","","","","","","","","",""
"html-keyboard-response","354","1068305","0.0-16.0-0.22","5ed013f88fce6e0d858b732e","650c16f0f2faf8d7a0d14c09","651c1c2bf05d9dfa800068fb","null","null","<p style=""font-size: 60px; font-family: BACS"">TCbDCMCkm</p>","","","","","","","","",""
"html-keyboard-response","355","1069321","0.0-16.0-0.23","5ed013f88fce6e0d858b732e","650c16f0f2faf8d7a0d14c09","651c1c2bf05d9dfa800068fb","null","null","<p style=""font-size: 60px; font-family: BACS"">TCbDCMCkm</p>","","","","","","","","",""
"html-keyboard-response","356","1070305","0.0-16.0-0.24","5ed013f88fce6e0d858b732e","650c16f0f2faf8d7a0d14c09","651c1c2bf05d9dfa800068fb","null","null","<p style=""font-size: 60px; font-family: BACS"">TCbDCMCkm</p>","","","","","","","","",""
"html-keyboard-response","357","1071305","0.0-16.0-0.25","5ed013f88fce6e0d858b732e","650c16f0f2faf8d7a0d14c09","651c1c2bf05d9dfa800068fb","null","null","<p style=""font-size: 60px; font-family: BACS"">TCbDCMCkm</p>","","","","","","","","",""
"html-keyboard-response","358","1072322","0.0-16.0-0.26","5ed013f88fce6e0d858b732e","650c16f0f2faf8d7a0d14c09","651c1c2bf05d9dfa800068fb","null","null","<p style=""font-size: 60px; font-family: BACS"">TCbDCMCkm</p>","","","","","","","","",""
"html-keyboard-response","359","1073338","0.0-16.0-0.27","5ed013f88fce6e0d858b732e","650c16f0f2faf8d7a0d14c09","651c1c2bf05d9dfa800068fb","null","null","<p style=""font-size: 60px; font-family: BACS"">TCbDCMCkm</p>","","","","","","","","",""
"html-keyboard-response","360","1074338","0.0-16.0-0.28","5ed013f88fce6e0d858b732e","650c16f0f2faf8d7a0d14c09","651c1c2bf05d9dfa800068fb","null","null","<p style=""font-size: 60px; font-family: BACS"">TCbDCMCkm</p>","","","","","","","","",""
"html-keyboard-response","361","1075338","0.0-16.0-0.29","5ed013f88fce6e0d858b732e","650c16f0f2faf8d7a0d14c09","651c1c2bf05d9dfa800068fb","null","null","<p style=""font-size: 60px; font-family: BACS"">TCbDCMCkm</p>","","","","","","","","",""
"html-keyboard-response","362","1076355","0.0-16.0-0.30","5ed013f88fce6e0d858b732e","650c16f0f2faf8d7a0d14c09","651c1c2bf05d9dfa800068fb","null","null","<p style=""font-size: 60px; font-family: BACS"">TCbDCMCkm</p>","","","","","","","","",""
"html-keyboard-response","363","1077372","0.0-16.0-0.31","5ed013f88fce6e0d858b732e","650c16f0f2faf8d7a0d14c09","651c1c2bf05d9dfa800068fb","null","null","<p style=""font-size: 60px; font-family: BACS"">TCbDCMCkm</p>","","","","","","","","",""
"html-keyboard-response","364","1078372","0.0-16.0-0.32","5ed013f88fce6e0d858b732e","650c16f0f2faf8d7a0d14c09","651c1c2bf05d9dfa800068fb","null","null","<p style=""font-size: 60px; font-family: BACS"">TCbDCMCkm</p>","","","","","","","","",""
"html-keyboard-response","365","1079355","0.0-16.0-0.33","5ed013f88fce6e0d858b732e","650c16f0f2faf8d7a0d14c09","651c1c2bf05d9dfa800068fb","null","null","<p style=""font-size: 60px; font-family: BACS"">TCbDCMCkm</p>","","","","","","","","",""
"html-keyboard-response","366","1080372","0.0-16.0-0.34","5ed013f88fce6e0d858b732e","650c16f0f2faf8d7a0d14c09","651c1c2bf05d9dfa800068fb","null","null","<p style=""font-size: 60px; font-family: BACS"">TCbDCMCkm</p>","","","","","","","","",""
"html-keyboard-response","367","1081388","0.0-16.0-0.35","5ed013f88fce6e0d858b732e","650c16f0f2faf8d7a0d14c09","651c1c2bf05d9dfa800068fb","null","null","<p style=""font-size: 60px; font-family: BACS"">TCbDCMCkm</p>","","","","","","","","",""
"html-keyboard-response","368","1082388","0.0-16.0-0.36","5ed013f88fce6e0d858b732e","650c16f0f2faf8d7a0d14c09","651c1c2bf05d9dfa800068fb","null","null","<p style=""font-size: 60px; font-family: BACS"">TCbDCMCkm</p>","","","","","","","","",""
"html-keyboard-response","369","1083405","0.0-16.0-0.37","5ed013f88fce6e0d858b732e","650c16f0f2faf8d7a0d14c09","651c1c2bf05d9dfa800068fb","null","null","<p style=""font-size: 60px; font-family: BACS"">TCbDCMCkm</p>","","","","","","","","",""
"html-keyboard-response","370","1084405","0.0-16.0-0.38","5ed013f88fce6e0d858b732e","650c16f0f2faf8d7a0d14c09","651c1c2bf05d9dfa800068fb","null","null","<p style=""font-size: 60px; font-family: BACS"">TCbDCMCkm</p>","","","","","","","","",""
"html-keyboard-response","371","1085422","0.0-16.0-0.39","5ed013f88fce6e0d858b732e","650c16f0f2faf8d7a0d14c09","651c1c2bf05d9dfa800068fb","null","null","<p style=""font-size: 60px; font-family: BACS"">TCbDCMCkm</p>","","","","","","","","",""
"html-keyboard-response","372","1086422","0.0-16.0-0.40","5ed013f88fce6e0d858b732e","650c16f0f2faf8d7a0d14c09","651c1c2bf05d9dfa800068fb","null","null","<p style=""font-size: 60px; font-family: BACS"">TCbDCMCkm</p>","","","","","","","","",""
"html-keyboard-response","373","1087438","0.0-16.0-0.41","5ed013f88fce6e0d858b732e","650c16f0f2faf8d7a0d14c09","651c1c2bf05d9dfa800068fb","null","null","<p style=""font-size: 60px; font-family: BACS"">TCbDCMCkm</p>","","","","","","","","",""
"html-keyboard-response","374","1088439","0.0-16.0-0.42","5ed013f88fce6e0d858b732e","650c16f0f2faf8d7a0d14c09","651c1c2bf05d9dfa800068fb","null","null","<p style=""font-size: 60px; font-family: BACS"">TCbDCMCkm</p>","","","","","","","","",""
"html-keyboard-response","375","1089422","0.0-16.0-0.43","5ed013f88fce6e0d858b732e","650c16f0f2faf8d7a0d14c09","651c1c2bf05d9dfa800068fb","null","null","<p style=""font-size: 60px; font-family: BACS"">TCbDCMCkm</p>","","","","","","","","",""
"html-keyboard-response","376","1090439","0.0-16.0-0.44","5ed013f88fce6e0d858b732e","650c16f0f2faf8d7a0d14c09","651c1c2bf05d9dfa800068fb","null","null","<p style=""font-size: 60px; font-family: BACS"">TCbDCMCkm</p>","","","","","","","","",""
"html-keyboard-response","377","1091455","0.0-16.0-0.45","5ed013f88fce6e0d858b732e","650c16f0f2faf8d7a0d14c09","651c1c2bf05d9dfa800068fb","null","null","<p style=""font-size: 60px; font-family: BACS"">TCbDCMCkm</p>","","","","","","","","",""
"html-keyboard-response","378","1092439","0.0-16.0-0.46","5ed013f88fce6e0d858b732e","650c16f0f2faf8d7a0d14c09","651c1c2bf05d9dfa800068fb","null","null","<p style=""font-size: 60px; font-family: BACS"">TCbDCMCkm</p>","","","","","","","","",""
"html-keyboard-response","379","1093455","0.0-16.0-0.47","5ed013f88fce6e0d858b732e","650c16f0f2faf8d7a0d14c09","651c1c2bf05d9dfa800068fb","null","null","<p style=""font-size: 60px; font-family: BACS"">TCbDCMCkm</p>","","","","","","","","",""
"html-keyboard-response","380","1094455","0.0-16.0-0.48","5ed013f88fce6e0d858b732e","650c16f0f2faf8d7a0d14c09","651c1c2bf05d9dfa800068fb","null","null","<p style=""font-size: 60px; font-family: BACS"">TCbDCMCkm</p>","","","","","","","","",""
"html-keyboard-response","381","1095455","0.0-16.0-0.49","5ed013f88fce6e0d858b732e","650c16f0f2faf8d7a0d14c09","651c1c2bf05d9dfa800068fb","null","null","<p style=""font-size: 60px; font-family: BACS"">TCbDCMCkm</p>","","","","","","","","",""
"html-keyboard-response","382","1096489","0.0-16.0-0.50","5ed013f88fce6e0d858b732e","650c16f0f2faf8d7a0d14c09","651c1c2bf05d9dfa800068fb","null","null","<p style=""font-size: 60px; font-family: BACS"">TCbDCMCkm</p>","","","","","","","","",""
"html-keyboard-response","383","1097472","0.0-16.0-0.51","5ed013f88fce6e0d858b732e","650c16f0f2faf8d7a0d14c09","651c1c2bf05d9dfa800068fb","null","null","<p style=""font-size: 60px; font-family: BACS"">TCbDCMCkm</p>","","","","","","","","",""
"html-keyboard-response","384","1098489","0.0-16.0-0.52","5ed013f88fce6e0d858b732e","650c16f0f2faf8d7a0d14c09","651c1c2bf05d9dfa800068fb","null","null","<p style=""font-size: 60px; font-family: BACS"">TCbDCMCkm</p>","","","","","","","","",""
"html-keyboard-response","385","1099505","0.0-16.0-0.53","5ed013f88fce6e0d858b732e","650c16f0f2faf8d7a0d14c09","651c1c2bf05d9dfa800068fb","null","null","<p style=""font-size: 60px; font-family: BACS"">TCbDCMCkm</p>","","","","","","","","",""
"html-keyboard-response","386","1100505","0.0-16.0-0.54","5ed013f88fce6e0d858b732e","650c16f0f2faf8d7a0d14c09","651c1c2bf05d9dfa800068fb","null","null","<p style=""font-size: 60px; font-family: BACS"">TCbDCMCkm</p>","","","","","","","","",""
"html-keyboard-response","387","1101522","0.0-16.0-0.55","5ed013f88fce6e0d858b732e","650c16f0f2faf8d7a0d14c09","651c1c2bf05d9dfa800068fb","null","null","<p style=""font-size: 60px; font-family: BACS"">TCbDCMCkm</p>","","","","","","","","",""
"html-keyboard-response","388","1102505","0.0-16.0-0.56","5ed013f88fce6e0d858b732e","650c16f0f2faf8d7a0d14c09","651c1c2bf05d9dfa800068fb","null","null","<p style=""font-size: 60px; font-family: BACS"">TCbDCMCkm</p>","","","","","","","","",""
"html-keyboard-response","389","1103505","0.0-16.0-0.57","5ed013f88fce6e0d858b732e","650c16f0f2faf8d7a0d14c09","651c1c2bf05d9dfa800068fb","null","null","<p style=""font-size: 60px; font-family: BACS"">TCbDCMCkm</p>","","","","","","","","",""
"html-keyboard-response","390","1104522","0.0-16.0-0.58","5ed013f88fce6e0d858b732e","650c16f0f2faf8d7a0d14c09","651c1c2bf05d9dfa800068fb","null","null","<p style=""font-size: 60px; font-family: BACS"">TCbDCMCkm</p>","","","","","","","","",""
"html-keyboard-response","391","1105522","0.0-16.0-0.59","5ed013f88fce6e0d858b732e","650c16f0f2faf8d7a0d14c09","651c1c2bf05d9dfa800068fb","null","null","<p style=""font-size: 60px; font-family: BACS"">TCbDCMCkm</p>","","","","","","","","",""
"html-keyboard-response","392","1106522","0.0-16.0-0.60","5ed013f88fce6e0d858b732e","650c16f0f2faf8d7a0d14c09","651c1c2bf05d9dfa800068fb","null","null","<p style=""font-size: 60px; font-family: BACS"">TCbDCMCkm</p>","","","","","","","","",""
"html-keyboard-response","393","1107522","0.0-16.0-0.61","5ed013f88fce6e0d858b732e","650c16f0f2faf8d7a0d14c09","651c1c2bf05d9dfa800068fb","null","null","<p style=""font-size: 60px; font-family: BACS"">TCbDCMCkm</p>","","","","","","","","",""
"html-keyboard-response","394","1108522","0.0-16.0-0.62","5ed013f88fce6e0d858b732e","650c16f0f2faf8d7a0d14c09","651c1c2bf05d9dfa800068fb","null","null","<p style=""font-size: 60px; font-family: BACS"">TCbDCMCkm</p>","","","","","","","","",""
"html-keyboard-response","395","1109539","0.0-16.0-0.63","5ed013f88fce6e0d858b732e","650c16f0f2faf8d7a0d14c09","651c1c2bf05d9dfa800068fb","null","null","<p style=""font-size: 60px; font-family: BACS"">TCbDCMCkm</p>","","","","","","","","",""
"html-keyboard-response","396","1110539","0.0-16.0-0.64","5ed013f88fce6e0d858b732e","650c16f0f2faf8d7a0d14c09","651c1c2bf05d9dfa800068fb","null","null","<p style=""font-size: 60px; font-family: BACS"">TCbDCMCkm</p>","","","","","","","","",""
"html-keyboard-response","397","1111539","0.0-16.0-0.65","5ed013f88fce6e0d858b732e","650c16f0f2faf8d7a0d14c09","651c1c2bf05d9dfa800068fb","null","null","<p style=""font-size: 60px; font-family: BACS"">TCbDCMCkm</p>","","","","","","","","",""
