"trial_type","trial_index","time_elapsed","internal_node_id","subject_id","study_id","session_id","rt","response","stimulus","success","item","task","correct_response","testing_condition","correct","target","confound","name"
"pavlovia","0","1770","0.0-0.0","5e9bd025eb6b380e1d66d04c","650c16f0f2faf8d7a0d14c09","651c352c38eb6f468b17912a","","","","","","","","","","","",""
"survey-html-form","1","8459","0.0-1.0","5e9bd025eb6b380e1d66d04c","650c16f0f2faf8d7a0d14c09","651c352c38eb6f468b17912a","6685","{""ID"":""5e9bd025eb6b380e1d66d04c""}","","","","","","","","","",""
"html-keyboard-response","2","13966","0.0-2.0","5e9bd025eb6b380e1d66d04c","650c16f0f2faf8d7a0d14c09","651c352c38eb6f468b17912a","5503"," ","<p style=""font-size: 15px;"">Before beginning, we ask that you read the consent information and confirm your agreement to participate in the experiment.</p>
      <p style=""font-size: 15px;""> We ask that you remember that this is a research project and that your participation is entirely voluntary. You can stop your participation at any time, without needing to provide any explanation. The study we're asking you to participate in aims at examining how readers process written words. You will be engaged in a session of apprximately 20 minutes, followed by a brief questionnaire. You will have the opportunity to take a few breaks during the experiment. You will be paid £4 for your participation, corresponding to a rate of £8/hour. While this experiment looks at cognitive faculties, this experiment doesn't constitute clinical proof of eventual pathologies.</p>
      <p style=""font-size: 15px;"">All of the information collected thanks to yours and others' participation will be held in a secure password-protected server, and will not be shared with anyone not authorised to view it. Your personal information will be kept with an arbitrary participant ID. Thanks to this data anonymity process, any researcher analysing the data won't be able to track the information back to a specific participant. Therefore, this process will make identifying you impossibile, even when results from the study will be published in scientific reviews, presented at congresses, or at any other public forum. More generally, the collected data will be treated in accordance with the laws on privacy and conformity to the Legislative Degree n. 196 ""Code regarding the protection of personal data"" of the 30th of June 2003 and to the European Regulation 2016/670 (General Data Protection Regulation - GDPR). The Data Protection Officer is Avv. Valentina Carollo, who can be contacted at the following email addresses: <a href=""mailto:dpo@sissa.it"">dpo@sissa.it</a> or <a href=""mailto:rpd@sissa.it"">rpd@sissa.it</a> - PEC: <a href=""mailto:protocollo@pec.sissa.it"">protocollo@pec.sissa.it</a>.</p>
      <p style=""font-size: 15px;""> Before expressing your consent to participate, we would like to remind you again that in case you need explanations on any aspect of the experimental procedure, the researcher is at your disposition (<a href=""mailto:aliebelt@sissa.it"">aliebelt@sissa.it</a>, <a href=""mailto:davide.crepaldi@sissa.it"">davide.crepaldi@sissa.it</a>).</p>
      <p style=""font-size: 15px;"">If you would like to download the informed consent form, you can do so here: <a href=""BASL-Informed_Consent.pdf"" download>informed consent form</a>.</p>
      <p style=""font-size: 15px;"">We ask that you press the spacebar to proceed to the consent section.</p>","","","","","","","","",""
"survey-html-form","3","25882","0.0-3.0","5e9bd025eb6b380e1d66d04c","650c16f0f2faf8d7a0d14c09","651c352c38eb6f468b17912a","11914","{""consent1"":""YES"",""consent2"":""YES"",""consent3"":""YES"",""consent4"":""YES"",""consent5"":""YES"",""consent6"":""YES""}","","","","","","","","","",""
"fullscreen","4","31039","0.0-4.0","5e9bd025eb6b380e1d66d04c","650c16f0f2faf8d7a0d14c09","651c352c38eb6f468b17912a","","","","true","","","","","","","",""
"html-keyboard-response","5","42956","0.0-5.0","5e9bd025eb6b380e1d66d04c","650c16f0f2faf8d7a0d14c09","651c352c38eb6f468b17912a","11915"," ","<p>Welcome, and thank you very much for your time!</p>
      <p>In this experiment, you'll be a language expert who's been asked to take a look at words that Earth has received in its first communication with aliens. Your task, in this first part of the experiment, is to pay close attention to the words you'll be shown; later, world leaders will ask you questions on what you saw. The words will be shown to you quite quickly; it seems that the aliens were in a hurry :-)</p>
      <p>Press the spacebar to continue.<p>","","","","","","","","",""
"html-keyboard-response","6","43014","0.0-6.0","5e9bd025eb6b380e1d66d04c","650c16f0f2faf8d7a0d14c09","651c352c38eb6f468b17912a","null","null","<p style=""font-size: 120px; font-family: BACS""> </p>","","","","","","","","",""
"html-keyboard-response","7","46466","0.0-7.0","5e9bd025eb6b380e1d66d04c","650c16f0f2faf8d7a0d14c09","651c352c38eb6f468b17912a","3449"," ","<p>Here is an example of the words you'll see:</p>
      <img src='esempio.png' height='400px'>
      <p>When you're ready to begin, press the spacebar.</p></div>","","","","","","","","",""
"html-keyboard-response","8","47470","0.0-8.0-0.0","5e9bd025eb6b380e1d66d04c","650c16f0f2faf8d7a0d14c09","651c352c38eb6f468b17912a","null","null","<p style=""font-size: 60px; font-family: BACS"">Zvalvkam</p>","","","","","","","","",""
"html-keyboard-response","9","48488","0.0-8.0-0.1","5e9bd025eb6b380e1d66d04c","650c16f0f2faf8d7a0d14c09","651c352c38eb6f468b17912a","null","null","<p style=""font-size: 60px; font-family: BACS"">GLYrALYGA</p>","","","","","","","","",""
"html-keyboard-response","10","49498","0.0-8.0-0.2","5e9bd025eb6b380e1d66d04c","650c16f0f2faf8d7a0d14c09","651c352c38eb6f468b17912a","null","null","<p style=""font-size: 60px; font-family: BACS"">AMkCmAM</p>","","","","","","","","",""
"html-keyboard-response","11","50502","0.0-8.0-0.3","5e9bd025eb6b380e1d66d04c","650c16f0f2faf8d7a0d14c09","651c352c38eb6f468b17912a","null","null","<p style=""font-size: 60px; font-family: BACS"">GJGcZGrub</p>","","","","","","","","",""
"html-keyboard-response","12","51515","0.0-8.0-0.4","5e9bd025eb6b380e1d66d04c","650c16f0f2faf8d7a0d14c09","651c352c38eb6f468b17912a","null","null","<p style=""font-size: 60px; font-family: BACS"">YZJmLYGA</p>","","","","","","","","",""
"html-keyboard-response","13","52516","0.0-8.0-0.5","5e9bd025eb6b380e1d66d04c","650c16f0f2faf8d7a0d14c09","651c352c38eb6f468b17912a","null","null","<p style=""font-size: 60px; font-family: BACS"">NAacQYLU</p>","","","","","","","","",""
"html-keyboard-response","14","53523","0.0-8.0-0.6","5e9bd025eb6b380e1d66d04c","650c16f0f2faf8d7a0d14c09","651c352c38eb6f468b17912a","null","null","<p style=""font-size: 60px; font-family: BACS"">YUNkZOQAr</p>","","","","","","","","",""
"html-keyboard-response","15","54535","0.0-8.0-0.7","5e9bd025eb6b380e1d66d04c","650c16f0f2faf8d7a0d14c09","651c352c38eb6f468b17912a","null","null","<p style=""font-size: 60px; font-family: BACS"">DCmhTRK</p>","","","","","","","","",""
"html-keyboard-response","16","55537","0.0-8.0-0.8","5e9bd025eb6b380e1d66d04c","650c16f0f2faf8d7a0d14c09","651c352c38eb6f468b17912a","null","null","<p style=""font-size: 60px; font-family: BACS"">GJGcZOQAr</p>","","","","","","","","",""
"html-keyboard-response","17","56552","0.0-8.0-0.9","5e9bd025eb6b380e1d66d04c","650c16f0f2faf8d7a0d14c09","651c352c38eb6f468b17912a","null","null","<p style=""font-size: 60px; font-family: BACS"">tmYhOdOP</p>","","","","","","","","",""
"html-keyboard-response","18","57554","0.0-8.0-0.10","5e9bd025eb6b380e1d66d04c","650c16f0f2faf8d7a0d14c09","651c352c38eb6f468b17912a","null","null","<p style=""font-size: 60px; font-family: BACS"">tRdMtAY</p>","","","","","","","","",""
"html-keyboard-response","19","58569","0.0-8.0-0.11","5e9bd025eb6b380e1d66d04c","650c16f0f2faf8d7a0d14c09","651c352c38eb6f468b17912a","null","null","<p style=""font-size: 60px; font-family: BACS"">GLYrAOQAr</p>","","","","","","","","",""
"html-keyboard-response","20","59575","0.0-8.0-0.12","5e9bd025eb6b380e1d66d04c","650c16f0f2faf8d7a0d14c09","651c352c38eb6f468b17912a","null","null","<p style=""font-size: 60px; font-family: BACS"">PDPhltAY</p>","","","","","","","","",""
"html-keyboard-response","21","60588","0.0-8.0-0.13","5e9bd025eb6b380e1d66d04c","650c16f0f2faf8d7a0d14c09","651c352c38eb6f468b17912a","null","null","<p style=""font-size: 60px; font-family: BACS"">bmdABcthB</p>","","","","","","","","",""
"html-keyboard-response","22","61590","0.0-8.0-0.14","5e9bd025eb6b380e1d66d04c","650c16f0f2faf8d7a0d14c09","651c352c38eb6f468b17912a","null","null","<p style=""font-size: 60px; font-family: BACS"">LuaUGrub</p>","","","","","","","","",""
"html-keyboard-response","23","62600","0.0-8.0-0.15","5e9bd025eb6b380e1d66d04c","650c16f0f2faf8d7a0d14c09","651c352c38eb6f468b17912a","null","null","<p style=""font-size: 60px; font-family: BACS"">DRPkYmAM</p>","","","","","","","","",""
"html-keyboard-response","24","63611","0.0-8.0-0.16","5e9bd025eb6b380e1d66d04c","650c16f0f2faf8d7a0d14c09","651c352c38eb6f468b17912a","null","null","<p style=""font-size: 60px; font-family: BACS"">tRdMcthB</p>","","","","","","","","",""
"html-keyboard-response","25","64619","0.0-8.0-0.17","5e9bd025eb6b380e1d66d04c","650c16f0f2faf8d7a0d14c09","651c352c38eb6f468b17912a","null","null","<p style=""font-size: 60px; font-family: BACS"">PhktktAY</p>","","","","","","","","",""
"html-keyboard-response","26","65622","0.0-8.0-0.18","5e9bd025eb6b380e1d66d04c","650c16f0f2faf8d7a0d14c09","651c352c38eb6f468b17912a","null","null","<p style=""font-size: 60px; font-family: BACS"">DCmhOdOP</p>","","","","","","","","",""
"html-keyboard-response","27","66639","0.0-8.0-0.19","5e9bd025eb6b380e1d66d04c","650c16f0f2faf8d7a0d14c09","651c352c38eb6f468b17912a","null","null","<p style=""font-size: 60px; font-family: BACS"">dmZvmGrub</p>","","","","","","","","",""
"html-keyboard-response","28","67648","0.0-8.0-0.20","5e9bd025eb6b380e1d66d04c","650c16f0f2faf8d7a0d14c09","651c352c38eb6f468b17912a","null","null","<p style=""font-size: 60px; font-family: BACS"">bvkrkam</p>","","","","","","","","",""
"html-keyboard-response","29","68651","0.0-8.0-0.21","5e9bd025eb6b380e1d66d04c","650c16f0f2faf8d7a0d14c09","651c352c38eb6f468b17912a","null","null","<p style=""font-size: 60px; font-family: BACS"">ZvalvOQAr</p>","","","","","","","","",""
"html-keyboard-response","30","69662","0.0-8.0-0.22","5e9bd025eb6b380e1d66d04c","650c16f0f2faf8d7a0d14c09","651c352c38eb6f468b17912a","null","null","<p style=""font-size: 60px; font-family: BACS"">bvkrYLU</p>","","","","","","","","",""
"html-keyboard-response","31","70664","0.0-8.0-0.23","5e9bd025eb6b380e1d66d04c","650c16f0f2faf8d7a0d14c09","651c352c38eb6f468b17912a","null","null","<p style=""font-size: 60px; font-family: BACS"">DRPkYcthB</p>","","","","","","","","",""
"html-keyboard-response","32","71666","0.0-8.0-0.24","5e9bd025eb6b380e1d66d04c","650c16f0f2faf8d7a0d14c09","651c352c38eb6f468b17912a","null","null","<p style=""font-size: 60px; font-family: BACS"">dmZvmYLU</p>","","","","","","","","",""
"html-keyboard-response","33","72670","0.0-8.0-0.25","5e9bd025eb6b380e1d66d04c","650c16f0f2faf8d7a0d14c09","651c352c38eb6f468b17912a","null","null","<p style=""font-size: 60px; font-family: BACS"">DCmhtAY</p>","","","","","","","","",""
"html-keyboard-response","34","73686","0.0-8.0-0.26","5e9bd025eb6b380e1d66d04c","650c16f0f2faf8d7a0d14c09","651c352c38eb6f468b17912a","null","null","<p style=""font-size: 60px; font-family: BACS"">NAacQkam</p>","","","","","","","","",""
"html-keyboard-response","35","74689","0.0-8.0-0.27","5e9bd025eb6b380e1d66d04c","650c16f0f2faf8d7a0d14c09","651c352c38eb6f468b17912a","null","null","<p style=""font-size: 60px; font-family: BACS"">tmYhtAY</p>","","","","","","","","",""
"html-keyboard-response","36","75691","0.0-8.0-0.28","5e9bd025eb6b380e1d66d04c","650c16f0f2faf8d7a0d14c09","651c352c38eb6f468b17912a","null","null","<p style=""font-size: 60px; font-family: BACS"">cRElDcthB</p>","","","","","","","","",""
"html-keyboard-response","37","76694","0.0-8.0-0.29","5e9bd025eb6b380e1d66d04c","650c16f0f2faf8d7a0d14c09","651c352c38eb6f468b17912a","null","null","<p style=""font-size: 60px; font-family: BACS"">dmZvmOQAr</p>","","","","","","","","",""
"html-keyboard-response","38","77696","0.0-8.0-0.30","5e9bd025eb6b380e1d66d04c","650c16f0f2faf8d7a0d14c09","651c352c38eb6f468b17912a","null","null","<p style=""font-size: 60px; font-family: BACS"">YZJmkam</p>","","","","","","","","",""
"html-keyboard-response","39","78698","0.0-8.0-0.31","5e9bd025eb6b380e1d66d04c","650c16f0f2faf8d7a0d14c09","651c352c38eb6f468b17912a","null","null","<p style=""font-size: 60px; font-family: BACS"">GJGcZYLU</p>","","","","","","","","",""
"html-keyboard-response","40","79704","0.0-8.0-0.32","5e9bd025eb6b380e1d66d04c","650c16f0f2faf8d7a0d14c09","651c352c38eb6f468b17912a","null","null","<p style=""font-size: 60px; font-family: BACS"">bmdABOdOP</p>","","","","","","","","",""
"html-keyboard-response","41","80706","0.0-8.0-0.33","5e9bd025eb6b380e1d66d04c","650c16f0f2faf8d7a0d14c09","651c352c38eb6f468b17912a","null","null","<p style=""font-size: 60px; font-family: BACS"">LuaUOQAr</p>","","","","","","","","",""
"html-keyboard-response","42","81723","0.0-8.0-0.34","5e9bd025eb6b380e1d66d04c","650c16f0f2faf8d7a0d14c09","651c352c38eb6f468b17912a","null","null","<p style=""font-size: 60px; font-family: BACS"">bmdABmAM</p>","","","","","","","","",""
"html-keyboard-response","43","82726","0.0-8.0-0.35","5e9bd025eb6b380e1d66d04c","650c16f0f2faf8d7a0d14c09","651c352c38eb6f468b17912a","null","null","<p style=""font-size: 60px; font-family: BACS"">DkTCPtAY</p>","","","","","","","","",""
"html-keyboard-response","44","83727","0.0-8.0-0.36","5e9bd025eb6b380e1d66d04c","650c16f0f2faf8d7a0d14c09","651c352c38eb6f468b17912a","null","null","<p style=""font-size: 60px; font-family: BACS"">PhktkTRK</p>","","","","","","","","",""
"html-keyboard-response","45","84729","0.0-8.0-0.37","5e9bd025eb6b380e1d66d04c","650c16f0f2faf8d7a0d14c09","651c352c38eb6f468b17912a","null","null","<p style=""font-size: 60px; font-family: BACS"">ZvalvLYGA</p>","","","","","","","","",""
"html-keyboard-response","46","85737","0.0-8.0-0.38","5e9bd025eb6b380e1d66d04c","650c16f0f2faf8d7a0d14c09","651c352c38eb6f468b17912a","null","null","<p style=""font-size: 60px; font-family: BACS"">GLluAkam</p>","","","","","","","","",""
"html-keyboard-response","47","86745","0.0-8.0-0.39","5e9bd025eb6b380e1d66d04c","650c16f0f2faf8d7a0d14c09","651c352c38eb6f468b17912a","null","null","<p style=""font-size: 60px; font-family: BACS"">tRdMmAM</p>","","","","","","","","",""
"html-keyboard-response","48","87749","0.0-8.0-0.40","5e9bd025eb6b380e1d66d04c","650c16f0f2faf8d7a0d14c09","651c352c38eb6f468b17912a","null","null","<p style=""font-size: 60px; font-family: BACS"">GLluAOQAr</p>","","","","","","","","",""
"html-keyboard-response","49","88756","0.0-8.0-0.41","5e9bd025eb6b380e1d66d04c","650c16f0f2faf8d7a0d14c09","651c352c38eb6f468b17912a","null","null","<p style=""font-size: 60px; font-family: BACS"">DkTCPTRK</p>","","","","","","","","",""
"html-keyboard-response","50","89765","0.0-8.0-0.42","5e9bd025eb6b380e1d66d04c","650c16f0f2faf8d7a0d14c09","651c352c38eb6f468b17912a","null","null","<p style=""font-size: 60px; font-family: BACS"">bvkrLYGA</p>","","","","","","","","",""
"html-keyboard-response","51","90770","0.0-8.0-0.43","5e9bd025eb6b380e1d66d04c","650c16f0f2faf8d7a0d14c09","651c352c38eb6f468b17912a","null","null","<p style=""font-size: 60px; font-family: BACS"">PhktkOdOP</p>","","","","","","","","",""
"html-keyboard-response","52","91776","0.0-8.0-0.44","5e9bd025eb6b380e1d66d04c","650c16f0f2faf8d7a0d14c09","651c352c38eb6f468b17912a","null","null","<p style=""font-size: 60px; font-family: BACS"">YZJmYLU</p>","","","","","","","","",""
"html-keyboard-response","53","92779","0.0-8.0-0.45","5e9bd025eb6b380e1d66d04c","650c16f0f2faf8d7a0d14c09","651c352c38eb6f468b17912a","null","null","<p style=""font-size: 60px; font-family: BACS"">tmYhTRK</p>","","","","","","","","",""
"html-keyboard-response","54","93791","0.0-8.0-0.46","5e9bd025eb6b380e1d66d04c","650c16f0f2faf8d7a0d14c09","651c352c38eb6f468b17912a","null","null","<p style=""font-size: 60px; font-family: BACS"">cRElDmAM</p>","","","","","","","","",""
"html-keyboard-response","55","94809","0.0-8.0-0.47","5e9bd025eb6b380e1d66d04c","650c16f0f2faf8d7a0d14c09","651c352c38eb6f468b17912a","null","null","<p style=""font-size: 60px; font-family: BACS"">AMkCcthB</p>","","","","","","","","",""
"html-keyboard-response","56","95814","0.0-8.0-0.48","5e9bd025eb6b380e1d66d04c","650c16f0f2faf8d7a0d14c09","651c352c38eb6f468b17912a","null","null","<p style=""font-size: 60px; font-family: BACS"">YZJmGrub</p>","","","","","","","","",""
"html-keyboard-response","57","96820","0.0-8.0-0.49","5e9bd025eb6b380e1d66d04c","650c16f0f2faf8d7a0d14c09","651c352c38eb6f468b17912a","null","null","<p style=""font-size: 60px; font-family: BACS"">AMkCTRK</p>","","","","","","","","",""
"html-keyboard-response","58","97827","0.0-8.0-0.50","5e9bd025eb6b380e1d66d04c","650c16f0f2faf8d7a0d14c09","651c352c38eb6f468b17912a","null","null","<p style=""font-size: 60px; font-family: BACS"">PhktkmAM</p>","","","","","","","","",""
"html-keyboard-response","59","98839","0.0-8.0-0.51","5e9bd025eb6b380e1d66d04c","650c16f0f2faf8d7a0d14c09","651c352c38eb6f468b17912a","null","null","<p style=""font-size: 60px; font-family: BACS"">NAacQOQAr</p>","","","","","","","","",""
"html-keyboard-response","60","99841","0.0-8.0-0.52","5e9bd025eb6b380e1d66d04c","650c16f0f2faf8d7a0d14c09","651c352c38eb6f468b17912a","null","null","<p style=""font-size: 60px; font-family: BACS"">LuaULYGA</p>","","","","","","","","",""
"html-keyboard-response","61","100851","0.0-8.0-0.53","5e9bd025eb6b380e1d66d04c","650c16f0f2faf8d7a0d14c09","651c352c38eb6f468b17912a","null","null","<p style=""font-size: 60px; font-family: BACS"">DCmhmAM</p>","","","","","","","","",""
"html-keyboard-response","62","101858","0.0-8.0-0.54","5e9bd025eb6b380e1d66d04c","650c16f0f2faf8d7a0d14c09","651c352c38eb6f468b17912a","null","null","<p style=""font-size: 60px; font-family: BACS"">cRElDTRK</p>","","","","","","","","",""
"html-keyboard-response","63","102860","0.0-8.0-0.55","5e9bd025eb6b380e1d66d04c","650c16f0f2faf8d7a0d14c09","651c352c38eb6f468b17912a","null","null","<p style=""font-size: 60px; font-family: BACS"">DkTCPOdOP</p>","","","","","","","","",""
"html-keyboard-response","64","103870","0.0-8.0-0.56","5e9bd025eb6b380e1d66d04c","650c16f0f2faf8d7a0d14c09","651c352c38eb6f468b17912a","null","null","<p style=""font-size: 60px; font-family: BACS"">GLYrAYLU</p>","","","","","","","","",""
"html-keyboard-response","65","104872","0.0-8.0-0.57","5e9bd025eb6b380e1d66d04c","650c16f0f2faf8d7a0d14c09","651c352c38eb6f468b17912a","null","null","<p style=""font-size: 60px; font-family: BACS"">DkTCPcthB</p>","","","","","","","","",""
"html-keyboard-response","66","105874","0.0-8.0-0.58","5e9bd025eb6b380e1d66d04c","650c16f0f2faf8d7a0d14c09","651c352c38eb6f468b17912a","null","null","<p style=""font-size: 60px; font-family: BACS"">YUNkZkam</p>","","","","","","","","",""
"html-keyboard-response","67","106879","0.0-8.0-0.59","5e9bd025eb6b380e1d66d04c","650c16f0f2faf8d7a0d14c09","651c352c38eb6f468b17912a","null","null","<p style=""font-size: 60px; font-family: BACS"">PDPhlmAM</p>","","","","","","","","",""
"html-keyboard-response","68","107892","0.0-8.0-0.60","5e9bd025eb6b380e1d66d04c","650c16f0f2faf8d7a0d14c09","651c352c38eb6f468b17912a","null","null","<p style=""font-size: 60px; font-family: BACS"">bvkrGrub</p>","","","","","","","","",""
"html-keyboard-response","69","108907","0.0-8.0-0.61","5e9bd025eb6b380e1d66d04c","650c16f0f2faf8d7a0d14c09","651c352c38eb6f468b17912a","null","null","<p style=""font-size: 60px; font-family: BACS"">tRdMTRK</p>","","","","","","","","",""
"html-keyboard-response","70","109922","0.0-8.0-0.62","5e9bd025eb6b380e1d66d04c","650c16f0f2faf8d7a0d14c09","651c352c38eb6f468b17912a","null","null","<p style=""font-size: 60px; font-family: BACS"">tmYhcthB</p>","","","","","","","","",""
"html-keyboard-response","71","110931","0.0-8.0-0.63","5e9bd025eb6b380e1d66d04c","650c16f0f2faf8d7a0d14c09","651c352c38eb6f468b17912a","null","null","<p style=""font-size: 60px; font-family: BACS"">NAacQLYGA</p>","","","","","","","","",""
"html-keyboard-response","72","111933","0.0-8.0-0.64","5e9bd025eb6b380e1d66d04c","650c16f0f2faf8d7a0d14c09","651c352c38eb6f468b17912a","null","null","<p style=""font-size: 60px; font-family: BACS"">GLYrAGrub</p>","","","","","","","","",""
"html-keyboard-response","73","112935","0.0-8.0-0.65","5e9bd025eb6b380e1d66d04c","650c16f0f2faf8d7a0d14c09","651c352c38eb6f468b17912a","null","null","<p style=""font-size: 60px; font-family: BACS"">dmZvmkam</p>","","","","","","","","",""
"html-keyboard-response","74","113944","0.0-8.0-0.66","5e9bd025eb6b380e1d66d04c","650c16f0f2faf8d7a0d14c09","651c352c38eb6f468b17912a","null","null","<p style=""font-size: 60px; font-family: BACS"">DRPkYTRK</p>","","","","","","","","",""
"html-keyboard-response","75","114946","0.0-8.0-0.67","5e9bd025eb6b380e1d66d04c","650c16f0f2faf8d7a0d14c09","651c352c38eb6f468b17912a","null","null","<p style=""font-size: 60px; font-family: BACS"">bmdABtAY</p>","","","","","","","","",""
"html-keyboard-response","76","115948","0.0-8.0-0.68","5e9bd025eb6b380e1d66d04c","650c16f0f2faf8d7a0d14c09","651c352c38eb6f468b17912a","null","null","<p style=""font-size: 60px; font-family: BACS"">YUNkZYLU</p>","","","","","","","","",""
"html-keyboard-response","77","116958","0.0-8.0-0.69","5e9bd025eb6b380e1d66d04c","650c16f0f2faf8d7a0d14c09","651c352c38eb6f468b17912a","null","null","<p style=""font-size: 60px; font-family: BACS"">ZvalvGrub</p>","","","","","","","","",""
"html-keyboard-response","78","117966","0.0-8.0-0.70","5e9bd025eb6b380e1d66d04c","650c16f0f2faf8d7a0d14c09","651c352c38eb6f468b17912a","null","null","<p style=""font-size: 60px; font-family: BACS"">PDPhlOdOP</p>","","","","","","","","",""
"html-keyboard-response","79","118970","0.0-8.0-0.71","5e9bd025eb6b380e1d66d04c","650c16f0f2faf8d7a0d14c09","651c352c38eb6f468b17912a","null","null","<p style=""font-size: 60px; font-family: BACS"">GJGcZLYGA</p>","","","","","","","","",""
"html-keyboard-response","80","119978","0.0-8.0-0.72","5e9bd025eb6b380e1d66d04c","650c16f0f2faf8d7a0d14c09","651c352c38eb6f468b17912a","null","null","<p style=""font-size: 60px; font-family: BACS"">YUNkZGrub</p>","","","","","","","","",""
"html-keyboard-response","81","120984","0.0-8.0-0.73","5e9bd025eb6b380e1d66d04c","650c16f0f2faf8d7a0d14c09","651c352c38eb6f468b17912a","null","null","<p style=""font-size: 60px; font-family: BACS"">LuaUkam</p>","","","","","","","","",""
"html-keyboard-response","82","121985","0.0-8.0-0.74","5e9bd025eb6b380e1d66d04c","650c16f0f2faf8d7a0d14c09","651c352c38eb6f468b17912a","null","null","<p style=""font-size: 60px; font-family: BACS"">PDPhlcthB</p>","","","","","","","","",""
"html-keyboard-response","83","123000","0.0-8.0-0.75","5e9bd025eb6b380e1d66d04c","650c16f0f2faf8d7a0d14c09","651c352c38eb6f468b17912a","null","null","<p style=""font-size: 60px; font-family: BACS"">GLluALYGA</p>","","","","","","","","",""
"html-keyboard-response","84","124002","0.0-8.0-0.76","5e9bd025eb6b380e1d66d04c","650c16f0f2faf8d7a0d14c09","651c352c38eb6f468b17912a","null","null","<p style=""font-size: 60px; font-family: BACS"">DRPkYOdOP</p>","","","","","","","","",""
"html-keyboard-response","85","125015","0.0-8.0-0.77","5e9bd025eb6b380e1d66d04c","650c16f0f2faf8d7a0d14c09","651c352c38eb6f468b17912a","null","null","<p style=""font-size: 60px; font-family: BACS"">cRElDtAY</p>","","","","","","","","",""
"html-keyboard-response","86","126021","0.0-8.0-0.78","5e9bd025eb6b380e1d66d04c","650c16f0f2faf8d7a0d14c09","651c352c38eb6f468b17912a","null","null","<p style=""font-size: 60px; font-family: BACS"">AMkCOdOP</p>","","","","","","","","",""
"html-keyboard-response","87","127031","0.0-8.0-0.79","5e9bd025eb6b380e1d66d04c","650c16f0f2faf8d7a0d14c09","651c352c38eb6f468b17912a","null","null","<p style=""font-size: 60px; font-family: BACS"">GLluAYLU</p>","","","","","","","","",""
"html-keyboard-response","88","129233","0.0-9.0","5e9bd025eb6b380e1d66d04c","650c16f0f2faf8d7a0d14c09","651c352c38eb6f468b17912a","2201"," ","<p>Great, you've seen the first block of words. You may now take a short break.</p>
      <p>Press the spacebar when you're ready to continue.</p>","","","","","","","","",""
"html-keyboard-response","89","130239","0.0-10.0-0.0","5e9bd025eb6b380e1d66d04c","650c16f0f2faf8d7a0d14c09","651c352c38eb6f468b17912a","null","null","<p style=""font-size: 60px; font-family: BACS"">NAacQkam</p>","","","","","","","","",""
"html-keyboard-response","90","131249","0.0-10.0-0.1","5e9bd025eb6b380e1d66d04c","650c16f0f2faf8d7a0d14c09","651c352c38eb6f468b17912a","null","null","<p style=""font-size: 60px; font-family: BACS"">DkTCPTRK</p>","","","","","","","","",""
"html-keyboard-response","91","132251","0.0-10.0-0.2","5e9bd025eb6b380e1d66d04c","650c16f0f2faf8d7a0d14c09","651c352c38eb6f468b17912a","null","null","<p style=""font-size: 60px; font-family: BACS"">AMkCOdOP</p>","","","","","","","","",""
"html-keyboard-response","92","133253","0.0-10.0-0.3","5e9bd025eb6b380e1d66d04c","650c16f0f2faf8d7a0d14c09","651c352c38eb6f468b17912a","null","null","<p style=""font-size: 60px; font-family: BACS"">PhktkmAM</p>","","","","","","","","",""
"html-keyboard-response","93","134269","0.0-10.0-0.4","5e9bd025eb6b380e1d66d04c","650c16f0f2faf8d7a0d14c09","651c352c38eb6f468b17912a","null","null","<p style=""font-size: 60px; font-family: BACS"">bmdABcthB</p>","","","","","","","","",""
"html-keyboard-response","94","135272","0.0-10.0-0.5","5e9bd025eb6b380e1d66d04c","650c16f0f2faf8d7a0d14c09","651c352c38eb6f468b17912a","null","null","<p style=""font-size: 60px; font-family: BACS"">bvkrGrub</p>","","","","","","","","",""
"html-keyboard-response","95","136278","0.0-10.0-0.6","5e9bd025eb6b380e1d66d04c","650c16f0f2faf8d7a0d14c09","651c352c38eb6f468b17912a","null","null","<p style=""font-size: 60px; font-family: BACS"">YUNkZOQAr</p>","","","","","","","","",""
"html-keyboard-response","96","137280","0.0-10.0-0.7","5e9bd025eb6b380e1d66d04c","650c16f0f2faf8d7a0d14c09","651c352c38eb6f468b17912a","null","null","<p style=""font-size: 60px; font-family: BACS"">bmdABtAY</p>","","","","","","","","",""
"html-keyboard-response","97","138295","0.0-10.0-0.8","5e9bd025eb6b380e1d66d04c","650c16f0f2faf8d7a0d14c09","651c352c38eb6f468b17912a","null","null","<p style=""font-size: 60px; font-family: BACS"">GLYrAGrub</p>","","","","","","","","",""
"html-keyboard-response","98","139297","0.0-10.0-0.9","5e9bd025eb6b380e1d66d04c","650c16f0f2faf8d7a0d14c09","651c352c38eb6f468b17912a","null","null","<p style=""font-size: 60px; font-family: BACS"">cRElDTRK</p>","","","","","","","","",""
"html-keyboard-response","99","140299","0.0-10.0-0.10","5e9bd025eb6b380e1d66d04c","650c16f0f2faf8d7a0d14c09","651c352c38eb6f468b17912a","null","null","<p style=""font-size: 60px; font-family: BACS"">LuaUOQAr</p>","","","","","","","","",""
"html-keyboard-response","100","141311","0.0-10.0-0.11","5e9bd025eb6b380e1d66d04c","650c16f0f2faf8d7a0d14c09","651c352c38eb6f468b17912a","null","null","<p style=""font-size: 60px; font-family: BACS"">bvkrYLU</p>","","","","","","","","",""
"html-keyboard-response","101","142313","0.0-10.0-0.12","5e9bd025eb6b380e1d66d04c","650c16f0f2faf8d7a0d14c09","651c352c38eb6f468b17912a","null","null","<p style=""font-size: 60px; font-family: BACS"">tmYhTRK</p>","","","","","","","","",""
"html-keyboard-response","102","143330","0.0-10.0-0.13","5e9bd025eb6b380e1d66d04c","650c16f0f2faf8d7a0d14c09","651c352c38eb6f468b17912a","null","null","<p style=""font-size: 60px; font-family: BACS"">DRPkYOdOP</p>","","","","","","","","",""
"html-keyboard-response","103","144332","0.0-10.0-0.14","5e9bd025eb6b380e1d66d04c","650c16f0f2faf8d7a0d14c09","651c352c38eb6f468b17912a","null","null","<p style=""font-size: 60px; font-family: BACS"">GJGcZYLU</p>","","","","","","","","",""
"html-keyboard-response","104","145348","0.0-10.0-0.15","5e9bd025eb6b380e1d66d04c","650c16f0f2faf8d7a0d14c09","651c352c38eb6f468b17912a","null","null","<p style=""font-size: 60px; font-family: BACS"">DRPkYcthB</p>","","","","","","","","",""
"html-keyboard-response","105","146353","0.0-10.0-0.16","5e9bd025eb6b380e1d66d04c","650c16f0f2faf8d7a0d14c09","651c352c38eb6f468b17912a","null","null","<p style=""font-size: 60px; font-family: BACS"">YZJmkam</p>","","","","","","","","",""
"html-keyboard-response","106","147355","0.0-10.0-0.17","5e9bd025eb6b380e1d66d04c","650c16f0f2faf8d7a0d14c09","651c352c38eb6f468b17912a","null","null","<p style=""font-size: 60px; font-family: BACS"">PDPhlmAM</p>","","","","","","","","",""
"html-keyboard-response","107","148366","0.0-10.0-0.18","5e9bd025eb6b380e1d66d04c","650c16f0f2faf8d7a0d14c09","651c352c38eb6f468b17912a","null","null","<p style=""font-size: 60px; font-family: BACS"">GLYrAYLU</p>","","","","","","","","",""
"html-keyboard-response","108","149375","0.0-10.0-0.19","5e9bd025eb6b380e1d66d04c","650c16f0f2faf8d7a0d14c09","651c352c38eb6f468b17912a","null","null","<p style=""font-size: 60px; font-family: BACS"">tmYhtAY</p>","","","","","","","","",""
"html-keyboard-response","109","150382","0.0-10.0-0.20","5e9bd025eb6b380e1d66d04c","650c16f0f2faf8d7a0d14c09","651c352c38eb6f468b17912a","null","null","<p style=""font-size: 60px; font-family: BACS"">YUNkZGrub</p>","","","","","","","","",""
"html-keyboard-response","110","151388","0.0-10.0-0.21","5e9bd025eb6b380e1d66d04c","650c16f0f2faf8d7a0d14c09","651c352c38eb6f468b17912a","null","null","<p style=""font-size: 60px; font-family: BACS"">GLluAOQAr</p>","","","","","","","","",""
"html-keyboard-response","111","152390","0.0-10.0-0.22","5e9bd025eb6b380e1d66d04c","650c16f0f2faf8d7a0d14c09","651c352c38eb6f468b17912a","null","null","<p style=""font-size: 60px; font-family: BACS"">NAacQYLU</p>","","","","","","","","",""
"html-keyboard-response","112","153404","0.0-10.0-0.23","5e9bd025eb6b380e1d66d04c","650c16f0f2faf8d7a0d14c09","651c352c38eb6f468b17912a","null","null","<p style=""font-size: 60px; font-family: BACS"">PDPhltAY</p>","","","","","","","","",""
"html-keyboard-response","113","154405","0.0-10.0-0.24","5e9bd025eb6b380e1d66d04c","650c16f0f2faf8d7a0d14c09","651c352c38eb6f468b17912a","null","null","<p style=""font-size: 60px; font-family: BACS"">PhktkTRK</p>","","","","","","","","",""
"html-keyboard-response","114","155418","0.0-10.0-0.25","5e9bd025eb6b380e1d66d04c","650c16f0f2faf8d7a0d14c09","651c352c38eb6f468b17912a","null","null","<p style=""font-size: 60px; font-family: BACS"">GLluALYGA</p>","","","","","","","","",""
"html-keyboard-response","115","156426","0.0-10.0-0.26","5e9bd025eb6b380e1d66d04c","650c16f0f2faf8d7a0d14c09","651c352c38eb6f468b17912a","null","null","<p style=""font-size: 60px; font-family: BACS"">DCmhOdOP</p>","","","","","","","","",""
"html-keyboard-response","116","157436","0.0-10.0-0.27","5e9bd025eb6b380e1d66d04c","650c16f0f2faf8d7a0d14c09","651c352c38eb6f468b17912a","null","null","<p style=""font-size: 60px; font-family: BACS"">DkTCPcthB</p>","","","","","","","","",""
"html-keyboard-response","117","158444","0.0-10.0-0.28","5e9bd025eb6b380e1d66d04c","650c16f0f2faf8d7a0d14c09","651c352c38eb6f468b17912a","null","null","<p style=""font-size: 60px; font-family: BACS"">DCmhTRK</p>","","","","","","","","",""
"html-keyboard-response","118","159451","0.0-10.0-0.29","5e9bd025eb6b380e1d66d04c","650c16f0f2faf8d7a0d14c09","651c352c38eb6f468b17912a","null","null","<p style=""font-size: 60px; font-family: BACS"">YUNkZkam</p>","","","","","","","","",""
"html-keyboard-response","119","160456","0.0-10.0-0.30","5e9bd025eb6b380e1d66d04c","650c16f0f2faf8d7a0d14c09","651c352c38eb6f468b17912a","null","null","<p style=""font-size: 60px; font-family: BACS"">bmdABmAM</p>","","","","","","","","",""
"html-keyboard-response","120","161458","0.0-10.0-0.31","5e9bd025eb6b380e1d66d04c","650c16f0f2faf8d7a0d14c09","651c352c38eb6f468b17912a","null","null","<p style=""font-size: 60px; font-family: BACS"">GLYrALYGA</p>","","","","","","","","",""
"html-keyboard-response","121","162473","0.0-10.0-0.32","5e9bd025eb6b380e1d66d04c","650c16f0f2faf8d7a0d14c09","651c352c38eb6f468b17912a","null","null","<p style=""font-size: 60px; font-family: BACS"">AMkCmAM</p>","","","","","","","","",""
"html-keyboard-response","122","163482","0.0-10.0-0.33","5e9bd025eb6b380e1d66d04c","650c16f0f2faf8d7a0d14c09","651c352c38eb6f468b17912a","null","null","<p style=""font-size: 60px; font-family: BACS"">bvkrkam</p>","","","","","","","","",""
"html-keyboard-response","123","164490","0.0-10.0-0.34","5e9bd025eb6b380e1d66d04c","650c16f0f2faf8d7a0d14c09","651c352c38eb6f468b17912a","null","null","<p style=""font-size: 60px; font-family: BACS"">GLYrAOQAr</p>","","","","","","","","",""
"html-keyboard-response","124","165500","0.0-10.0-0.35","5e9bd025eb6b380e1d66d04c","650c16f0f2faf8d7a0d14c09","651c352c38eb6f468b17912a","null","null","<p style=""font-size: 60px; font-family: BACS"">AMkCcthB</p>","","","","","","","","",""
"html-keyboard-response","125","166512","0.0-10.0-0.36","5e9bd025eb6b380e1d66d04c","650c16f0f2faf8d7a0d14c09","651c352c38eb6f468b17912a","null","null","<p style=""font-size: 60px; font-family: BACS"">dmZvmYLU</p>","","","","","","","","",""
"html-keyboard-response","126","167514","0.0-10.0-0.37","5e9bd025eb6b380e1d66d04c","650c16f0f2faf8d7a0d14c09","651c352c38eb6f468b17912a","null","null","<p style=""font-size: 60px; font-family: BACS"">PhktktAY</p>","","","","","","","","",""
"html-keyboard-response","127","168516","0.0-10.0-0.38","5e9bd025eb6b380e1d66d04c","650c16f0f2faf8d7a0d14c09","651c352c38eb6f468b17912a","null","null","<p style=""font-size: 60px; font-family: BACS"">NAacQLYGA</p>","","","","","","","","",""
"html-keyboard-response","128","169532","0.0-10.0-0.39","5e9bd025eb6b380e1d66d04c","650c16f0f2faf8d7a0d14c09","651c352c38eb6f468b17912a","null","null","<p style=""font-size: 60px; font-family: BACS"">DCmhmAM</p>","","","","","","","","",""
"html-keyboard-response","129","170543","0.0-10.0-0.40","5e9bd025eb6b380e1d66d04c","650c16f0f2faf8d7a0d14c09","651c352c38eb6f468b17912a","null","null","<p style=""font-size: 60px; font-family: BACS"">DkTCPtAY</p>","","","","","","","","",""
"html-keyboard-response","130","171557","0.0-10.0-0.41","5e9bd025eb6b380e1d66d04c","650c16f0f2faf8d7a0d14c09","651c352c38eb6f468b17912a","null","null","<p style=""font-size: 60px; font-family: BACS"">YZJmGrub</p>","","","","","","","","",""
"html-keyboard-response","131","172560","0.0-10.0-0.42","5e9bd025eb6b380e1d66d04c","650c16f0f2faf8d7a0d14c09","651c352c38eb6f468b17912a","null","null","<p style=""font-size: 60px; font-family: BACS"">tRdMcthB</p>","","","","","","","","",""
"html-keyboard-response","132","173576","0.0-10.0-0.43","5e9bd025eb6b380e1d66d04c","650c16f0f2faf8d7a0d14c09","651c352c38eb6f468b17912a","null","null","<p style=""font-size: 60px; font-family: BACS"">LuaUGrub</p>","","","","","","","","",""
"html-keyboard-response","133","174578","0.0-10.0-0.44","5e9bd025eb6b380e1d66d04c","650c16f0f2faf8d7a0d14c09","651c352c38eb6f468b17912a","null","null","<p style=""font-size: 60px; font-family: BACS"">dmZvmOQAr</p>","","","","","","","","",""
"html-keyboard-response","134","175581","0.0-10.0-0.45","5e9bd025eb6b380e1d66d04c","650c16f0f2faf8d7a0d14c09","651c352c38eb6f468b17912a","null","null","<p style=""font-size: 60px; font-family: BACS"">LuaUkam</p>","","","","","","","","",""
"html-keyboard-response","135","176590","0.0-10.0-0.46","5e9bd025eb6b380e1d66d04c","650c16f0f2faf8d7a0d14c09","651c352c38eb6f468b17912a","null","null","<p style=""font-size: 60px; font-family: BACS"">DkTCPOdOP</p>","","","","","","","","",""
"html-keyboard-response","136","177595","0.0-10.0-0.47","5e9bd025eb6b380e1d66d04c","650c16f0f2faf8d7a0d14c09","651c352c38eb6f468b17912a","null","null","<p style=""font-size: 60px; font-family: BACS"">GLluAkam</p>","","","","","","","","",""
"html-keyboard-response","137","178597","0.0-10.0-0.48","5e9bd025eb6b380e1d66d04c","650c16f0f2faf8d7a0d14c09","651c352c38eb6f468b17912a","null","null","<p style=""font-size: 60px; font-family: BACS"">GJGcZGrub</p>","","","","","","","","",""
"html-keyboard-response","138","179598","0.0-10.0-0.49","5e9bd025eb6b380e1d66d04c","650c16f0f2faf8d7a0d14c09","651c352c38eb6f468b17912a","null","null","<p style=""font-size: 60px; font-family: BACS"">NAacQOQAr</p>","","","","","","","","",""
"html-keyboard-response","139","180600","0.0-10.0-0.50","5e9bd025eb6b380e1d66d04c","650c16f0f2faf8d7a0d14c09","651c352c38eb6f468b17912a","null","null","<p style=""font-size: 60px; font-family: BACS"">ZvalvLYGA</p>","","","","","","","","",""
"html-keyboard-response","140","181602","0.0-10.0-0.51","5e9bd025eb6b380e1d66d04c","650c16f0f2faf8d7a0d14c09","651c352c38eb6f468b17912a","null","null","<p style=""font-size: 60px; font-family: BACS"">DRPkYTRK</p>","","","","","","","","",""
"html-keyboard-response","141","182611","0.0-10.0-0.52","5e9bd025eb6b380e1d66d04c","650c16f0f2faf8d7a0d14c09","651c352c38eb6f468b17912a","null","null","<p style=""font-size: 60px; font-family: BACS"">dmZvmGrub</p>","","","","","","","","",""
"html-keyboard-response","142","183618","0.0-10.0-0.53","5e9bd025eb6b380e1d66d04c","650c16f0f2faf8d7a0d14c09","651c352c38eb6f468b17912a","null","null","<p style=""font-size: 60px; font-family: BACS"">YZJmLYGA</p>","","","","","","","","",""
"html-keyboard-response","143","184620","0.0-10.0-0.54","5e9bd025eb6b380e1d66d04c","650c16f0f2faf8d7a0d14c09","651c352c38eb6f468b17912a","null","null","<p style=""font-size: 60px; font-family: BACS"">DCmhtAY</p>","","","","","","","","",""
"html-keyboard-response","144","185635","0.0-10.0-0.55","5e9bd025eb6b380e1d66d04c","650c16f0f2faf8d7a0d14c09","651c352c38eb6f468b17912a","null","null","<p style=""font-size: 60px; font-family: BACS"">PDPhlcthB</p>","","","","","","","","",""
"html-keyboard-response","145","186643","0.0-10.0-0.56","5e9bd025eb6b380e1d66d04c","650c16f0f2faf8d7a0d14c09","651c352c38eb6f468b17912a","null","null","<p style=""font-size: 60px; font-family: BACS"">cRElDtAY</p>","","","","","","","","",""
"html-keyboard-response","146","187652","0.0-10.0-0.57","5e9bd025eb6b380e1d66d04c","650c16f0f2faf8d7a0d14c09","651c352c38eb6f468b17912a","null","null","<p style=""font-size: 60px; font-family: BACS"">GJGcZLYGA</p>","","","","","","","","",""
"html-keyboard-response","147","188655","0.0-10.0-0.58","5e9bd025eb6b380e1d66d04c","650c16f0f2faf8d7a0d14c09","651c352c38eb6f468b17912a","null","null","<p style=""font-size: 60px; font-family: BACS"">ZvalvGrub</p>","","","","","","","","",""
"html-keyboard-response","148","189656","0.0-10.0-0.59","5e9bd025eb6b380e1d66d04c","650c16f0f2faf8d7a0d14c09","651c352c38eb6f468b17912a","null","null","<p style=""font-size: 60px; font-family: BACS"">bvkrLYGA</p>","","","","","","","","",""
"html-keyboard-response","149","190657","0.0-10.0-0.60","5e9bd025eb6b380e1d66d04c","650c16f0f2faf8d7a0d14c09","651c352c38eb6f468b17912a","null","null","<p style=""font-size: 60px; font-family: BACS"">tmYhcthB</p>","","","","","","","","",""
"html-keyboard-response","150","191660","0.0-10.0-0.61","5e9bd025eb6b380e1d66d04c","650c16f0f2faf8d7a0d14c09","651c352c38eb6f468b17912a","null","null","<p style=""font-size: 60px; font-family: BACS"">ZvalvOQAr</p>","","","","","","","","",""
"html-keyboard-response","151","192668","0.0-10.0-0.62","5e9bd025eb6b380e1d66d04c","650c16f0f2faf8d7a0d14c09","651c352c38eb6f468b17912a","null","null","<p style=""font-size: 60px; font-family: BACS"">LuaULYGA</p>","","","","","","","","",""
"html-keyboard-response","152","193677","0.0-10.0-0.63","5e9bd025eb6b380e1d66d04c","650c16f0f2faf8d7a0d14c09","651c352c38eb6f468b17912a","null","null","<p style=""font-size: 60px; font-family: BACS"">tRdMTRK</p>","","","","","","","","",""
"html-keyboard-response","153","194678","0.0-10.0-0.64","5e9bd025eb6b380e1d66d04c","650c16f0f2faf8d7a0d14c09","651c352c38eb6f468b17912a","null","null","<p style=""font-size: 60px; font-family: BACS"">tmYhOdOP</p>","","","","","","","","",""
"html-keyboard-response","154","195692","0.0-10.0-0.65","5e9bd025eb6b380e1d66d04c","650c16f0f2faf8d7a0d14c09","651c352c38eb6f468b17912a","null","null","<p style=""font-size: 60px; font-family: BACS"">cRElDcthB</p>","","","","","","","","",""
"html-keyboard-response","155","196694","0.0-10.0-0.66","5e9bd025eb6b380e1d66d04c","650c16f0f2faf8d7a0d14c09","651c352c38eb6f468b17912a","null","null","<p style=""font-size: 60px; font-family: BACS"">AMkCTRK</p>","","","","","","","","",""
"html-keyboard-response","156","197696","0.0-10.0-0.67","5e9bd025eb6b380e1d66d04c","650c16f0f2faf8d7a0d14c09","651c352c38eb6f468b17912a","null","null","<p style=""font-size: 60px; font-family: BACS"">dmZvmkam</p>","","","","","","","","",""
"html-keyboard-response","157","198708","0.0-10.0-0.68","5e9bd025eb6b380e1d66d04c","650c16f0f2faf8d7a0d14c09","651c352c38eb6f468b17912a","null","null","<p style=""font-size: 60px; font-family: BACS"">GLluAYLU</p>","","","","","","","","",""
"html-keyboard-response","158","199710","0.0-10.0-0.69","5e9bd025eb6b380e1d66d04c","650c16f0f2faf8d7a0d14c09","651c352c38eb6f468b17912a","null","null","<p style=""font-size: 60px; font-family: BACS"">tRdMtAY</p>","","","","","","","","",""
"html-keyboard-response","159","200711","0.0-10.0-0.70","5e9bd025eb6b380e1d66d04c","650c16f0f2faf8d7a0d14c09","651c352c38eb6f468b17912a","null","null","<p style=""font-size: 60px; font-family: BACS"">cRElDmAM</p>","","","","","","","","",""
"html-keyboard-response","160","201713","0.0-10.0-0.71","5e9bd025eb6b380e1d66d04c","650c16f0f2faf8d7a0d14c09","651c352c38eb6f468b17912a","null","null","<p style=""font-size: 60px; font-family: BACS"">Zvalvkam</p>","","","","","","","","",""
"html-keyboard-response","161","202714","0.0-10.0-0.72","5e9bd025eb6b380e1d66d04c","650c16f0f2faf8d7a0d14c09","651c352c38eb6f468b17912a","null","null","<p style=""font-size: 60px; font-family: BACS"">tRdMmAM</p>","","","","","","","","",""
"html-keyboard-response","162","203718","0.0-10.0-0.73","5e9bd025eb6b380e1d66d04c","650c16f0f2faf8d7a0d14c09","651c352c38eb6f468b17912a","null","null","<p style=""font-size: 60px; font-family: BACS"">bmdABOdOP</p>","","","","","","","","",""
"html-keyboard-response","163","204728","0.0-10.0-0.74","5e9bd025eb6b380e1d66d04c","650c16f0f2faf8d7a0d14c09","651c352c38eb6f468b17912a","null","null","<p style=""font-size: 60px; font-family: BACS"">YZJmYLU</p>","","","","","","","","",""
"html-keyboard-response","164","205729","0.0-10.0-0.75","5e9bd025eb6b380e1d66d04c","650c16f0f2faf8d7a0d14c09","651c352c38eb6f468b17912a","null","null","<p style=""font-size: 60px; font-family: BACS"">PDPhlOdOP</p>","","","","","","","","",""
"html-keyboard-response","165","206729","0.0-10.0-0.76","5e9bd025eb6b380e1d66d04c","650c16f0f2faf8d7a0d14c09","651c352c38eb6f468b17912a","null","null","<p style=""font-size: 60px; font-family: BACS"">GJGcZOQAr</p>","","","","","","","","",""
"html-keyboard-response","166","207740","0.0-10.0-0.77","5e9bd025eb6b380e1d66d04c","650c16f0f2faf8d7a0d14c09","651c352c38eb6f468b17912a","null","null","<p style=""font-size: 60px; font-family: BACS"">YUNkZYLU</p>","","","","","","","","",""
"html-keyboard-response","167","208754","0.0-10.0-0.78","5e9bd025eb6b380e1d66d04c","650c16f0f2faf8d7a0d14c09","651c352c38eb6f468b17912a","null","null","<p style=""font-size: 60px; font-family: BACS"">DRPkYmAM</p>","","","","","","","","",""
"html-keyboard-response","168","209764","0.0-10.0-0.79","5e9bd025eb6b380e1d66d04c","650c16f0f2faf8d7a0d14c09","651c352c38eb6f468b17912a","null","null","<p style=""font-size: 60px; font-family: BACS"">PhktkOdOP</p>","","","","","","","","",""
"html-keyboard-response","169","277677","0.0-11.0","5e9bd025eb6b380e1d66d04c","650c16f0f2faf8d7a0d14c09","651c352c38eb6f468b17912a","67913"," ","<p>Great, you've seen the second block of words. You may now take a short break.</p>
      <p>Press the spacebar when you're ready to continue.</p>","","","","","","","","",""
"html-keyboard-response","170","278691","0.0-12.0-0.0","5e9bd025eb6b380e1d66d04c","650c16f0f2faf8d7a0d14c09","651c352c38eb6f468b17912a","null","null","<p style=""font-size: 60px; font-family: BACS"">AMkCcthB</p>","","","","","","","","",""
"html-keyboard-response","171","279693","0.0-12.0-0.1","5e9bd025eb6b380e1d66d04c","650c16f0f2faf8d7a0d14c09","651c352c38eb6f468b17912a","null","null","<p style=""font-size: 60px; font-family: BACS"">DCmhTRK</p>","","","","","","","","",""
"html-keyboard-response","172","280696","0.0-12.0-0.2","5e9bd025eb6b380e1d66d04c","650c16f0f2faf8d7a0d14c09","651c352c38eb6f468b17912a","null","null","<p style=""font-size: 60px; font-family: BACS"">DkTCPOdOP</p>","","","","","","","","",""
"html-keyboard-response","173","281699","0.0-12.0-0.3","5e9bd025eb6b380e1d66d04c","650c16f0f2faf8d7a0d14c09","651c352c38eb6f468b17912a","null","null","<p style=""font-size: 60px; font-family: BACS"">YZJmGrub</p>","","","","","","","","",""
"html-keyboard-response","174","282707","0.0-12.0-0.4","5e9bd025eb6b380e1d66d04c","650c16f0f2faf8d7a0d14c09","651c352c38eb6f468b17912a","null","null","<p style=""font-size: 60px; font-family: BACS"">DRPkYmAM</p>","","","","","","","","",""
"html-keyboard-response","175","283709","0.0-12.0-0.5","5e9bd025eb6b380e1d66d04c","650c16f0f2faf8d7a0d14c09","651c352c38eb6f468b17912a","null","null","<p style=""font-size: 60px; font-family: BACS"">LuaUOQAr</p>","","","","","","","","",""
"html-keyboard-response","176","284715","0.0-12.0-0.6","5e9bd025eb6b380e1d66d04c","650c16f0f2faf8d7a0d14c09","651c352c38eb6f468b17912a","null","null","<p style=""font-size: 60px; font-family: BACS"">dmZvmGrub</p>","","","","","","","","",""
"html-keyboard-response","177","285726","0.0-12.0-0.7","5e9bd025eb6b380e1d66d04c","650c16f0f2faf8d7a0d14c09","651c352c38eb6f468b17912a","null","null","<p style=""font-size: 60px; font-family: BACS"">NAacQLYGA</p>","","","","","","","","",""
"html-keyboard-response","178","286731","0.0-12.0-0.8","5e9bd025eb6b380e1d66d04c","650c16f0f2faf8d7a0d14c09","651c352c38eb6f468b17912a","null","null","<p style=""font-size: 60px; font-family: BACS"">Zvalvkam</p>","","","","","","","","",""
"html-keyboard-response","179","287744","0.0-12.0-0.9","5e9bd025eb6b380e1d66d04c","650c16f0f2faf8d7a0d14c09","651c352c38eb6f468b17912a","null","null","<p style=""font-size: 60px; font-family: BACS"">cRElDtAY</p>","","","","","","","","",""
"html-keyboard-response","180","288747","0.0-12.0-0.10","5e9bd025eb6b380e1d66d04c","650c16f0f2faf8d7a0d14c09","651c352c38eb6f468b17912a","null","null","<p style=""font-size: 60px; font-family: BACS"">LuaULYGA</p>","","","","","","","","",""
"html-keyboard-response","181","289758","0.0-12.0-0.11","5e9bd025eb6b380e1d66d04c","650c16f0f2faf8d7a0d14c09","651c352c38eb6f468b17912a","null","null","<p style=""font-size: 60px; font-family: BACS"">AMkCTRK</p>","","","","","","","","",""
"html-keyboard-response","182","290762","0.0-12.0-0.12","5e9bd025eb6b380e1d66d04c","650c16f0f2faf8d7a0d14c09","651c352c38eb6f468b17912a","null","null","<p style=""font-size: 60px; font-family: BACS"">YUNkZGrub</p>","","","","","","","","",""
"html-keyboard-response","183","291763","0.0-12.0-0.13","5e9bd025eb6b380e1d66d04c","650c16f0f2faf8d7a0d14c09","651c352c38eb6f468b17912a","null","null","<p style=""font-size: 60px; font-family: BACS"">bmdABmAM</p>","","","","","","","","",""
"html-keyboard-response","184","292766","0.0-12.0-0.14","5e9bd025eb6b380e1d66d04c","650c16f0f2faf8d7a0d14c09","651c352c38eb6f468b17912a","null","null","<p style=""font-size: 60px; font-family: BACS"">bvkrGrub</p>","","","","","","","","",""
"html-keyboard-response","185","293781","0.0-12.0-0.15","5e9bd025eb6b380e1d66d04c","650c16f0f2faf8d7a0d14c09","651c352c38eb6f468b17912a","null","null","<p style=""font-size: 60px; font-family: BACS"">bmdABcthB</p>","","","","","","","","",""
"html-keyboard-response","186","294787","0.0-12.0-0.16","5e9bd025eb6b380e1d66d04c","650c16f0f2faf8d7a0d14c09","651c352c38eb6f468b17912a","null","null","<p style=""font-size: 60px; font-family: BACS"">DkTCPTRK</p>","","","","","","","","",""
"html-keyboard-response","187","295801","0.0-12.0-0.17","5e9bd025eb6b380e1d66d04c","650c16f0f2faf8d7a0d14c09","651c352c38eb6f468b17912a","null","null","<p style=""font-size: 60px; font-family: BACS"">tmYhcthB</p>","","","","","","","","",""
"html-keyboard-response","188","296813","0.0-12.0-0.18","5e9bd025eb6b380e1d66d04c","650c16f0f2faf8d7a0d14c09","651c352c38eb6f468b17912a","null","null","<p style=""font-size: 60px; font-family: BACS"">YZJmkam</p>","","","","","","","","",""
"html-keyboard-response","189","297819","0.0-12.0-0.19","5e9bd025eb6b380e1d66d04c","650c16f0f2faf8d7a0d14c09","651c352c38eb6f468b17912a","null","null","<p style=""font-size: 60px; font-family: BACS"">PDPhlcthB</p>","","","","","","","","",""
"html-keyboard-response","190","298824","0.0-12.0-0.20","5e9bd025eb6b380e1d66d04c","650c16f0f2faf8d7a0d14c09","651c352c38eb6f468b17912a","null","null","<p style=""font-size: 60px; font-family: BACS"">GJGcZOQAr</p>","","","","","","","","",""
"html-keyboard-response","191","299836","0.0-12.0-0.21","5e9bd025eb6b380e1d66d04c","650c16f0f2faf8d7a0d14c09","651c352c38eb6f468b17912a","null","null","<p style=""font-size: 60px; font-family: BACS"">PDPhltAY</p>","","","","","","","","",""
"html-keyboard-response","192","300848","0.0-12.0-0.22","5e9bd025eb6b380e1d66d04c","650c16f0f2faf8d7a0d14c09","651c352c38eb6f468b17912a","null","null","<p style=""font-size: 60px; font-family: BACS"">bvkrLYGA</p>","","","","","","","","",""
"html-keyboard-response","193","301851","0.0-12.0-0.23","5e9bd025eb6b380e1d66d04c","650c16f0f2faf8d7a0d14c09","651c352c38eb6f468b17912a","null","null","<p style=""font-size: 60px; font-family: BACS"">PDPhlOdOP</p>","","","","","","","","",""
"html-keyboard-response","194","302853","0.0-12.0-0.24","5e9bd025eb6b380e1d66d04c","650c16f0f2faf8d7a0d14c09","651c352c38eb6f468b17912a","null","null","<p style=""font-size: 60px; font-family: BACS"">ZvalvGrub</p>","","","","","","","","",""
"html-keyboard-response","195","303855","0.0-12.0-0.25","5e9bd025eb6b380e1d66d04c","650c16f0f2faf8d7a0d14c09","651c352c38eb6f468b17912a","null","null","<p style=""font-size: 60px; font-family: BACS"">cRElDTRK</p>","","","","","","","","",""
"html-keyboard-response","196","304857","0.0-12.0-0.26","5e9bd025eb6b380e1d66d04c","650c16f0f2faf8d7a0d14c09","651c352c38eb6f468b17912a","null","null","<p style=""font-size: 60px; font-family: BACS"">dmZvmYLU</p>","","","","","","","","",""
"html-keyboard-response","197","305859","0.0-12.0-0.27","5e9bd025eb6b380e1d66d04c","650c16f0f2faf8d7a0d14c09","651c352c38eb6f468b17912a","null","null","<p style=""font-size: 60px; font-family: BACS"">AMkCmAM</p>","","","","","","","","",""
"html-keyboard-response","198","306866","0.0-12.0-0.28","5e9bd025eb6b380e1d66d04c","650c16f0f2faf8d7a0d14c09","651c352c38eb6f468b17912a","null","null","<p style=""font-size: 60px; font-family: BACS"">cRElDcthB</p>","","","","","","","","",""
"html-keyboard-response","199","307867","0.0-12.0-0.29","5e9bd025eb6b380e1d66d04c","650c16f0f2faf8d7a0d14c09","651c352c38eb6f468b17912a","null","null","<p style=""font-size: 60px; font-family: BACS"">PhktkmAM</p>","","","","","","","","",""
"html-keyboard-response","200","308868","0.0-12.0-0.30","5e9bd025eb6b380e1d66d04c","650c16f0f2faf8d7a0d14c09","651c352c38eb6f468b17912a","null","null","<p style=""font-size: 60px; font-family: BACS"">LuaUGrub</p>","","","","","","","","",""
"html-keyboard-response","201","309870","0.0-12.0-0.31","5e9bd025eb6b380e1d66d04c","650c16f0f2faf8d7a0d14c09","651c352c38eb6f468b17912a","null","null","<p style=""font-size: 60px; font-family: BACS"">NAacQkam</p>","","","","","","","","",""
"html-keyboard-response","202","310875","0.0-12.0-0.32","5e9bd025eb6b380e1d66d04c","650c16f0f2faf8d7a0d14c09","651c352c38eb6f468b17912a","null","null","<p style=""font-size: 60px; font-family: BACS"">GJGcZYLU</p>","","","","","","","","",""
"html-keyboard-response","203","311876","0.0-12.0-0.33","5e9bd025eb6b380e1d66d04c","650c16f0f2faf8d7a0d14c09","651c352c38eb6f468b17912a","null","null","<p style=""font-size: 60px; font-family: BACS"">DCmhtAY</p>","","","","","","","","",""
"html-keyboard-response","204","312877","0.0-12.0-0.34","5e9bd025eb6b380e1d66d04c","650c16f0f2faf8d7a0d14c09","651c352c38eb6f468b17912a","null","null","<p style=""font-size: 60px; font-family: BACS"">ZvalvLYGA</p>","","","","","","","","",""
"html-keyboard-response","205","313878","0.0-12.0-0.35","5e9bd025eb6b380e1d66d04c","650c16f0f2faf8d7a0d14c09","651c352c38eb6f468b17912a","null","null","<p style=""font-size: 60px; font-family: BACS"">bvkrYLU</p>","","","","","","","","",""
"html-keyboard-response","206","314879","0.0-12.0-0.36","5e9bd025eb6b380e1d66d04c","650c16f0f2faf8d7a0d14c09","651c352c38eb6f468b17912a","null","null","<p style=""font-size: 60px; font-family: BACS"">GLYrAOQAr</p>","","","","","","","","",""
"html-keyboard-response","207","315882","0.0-12.0-0.37","5e9bd025eb6b380e1d66d04c","650c16f0f2faf8d7a0d14c09","651c352c38eb6f468b17912a","null","null","<p style=""font-size: 60px; font-family: BACS"">YZJmLYGA</p>","","","","","","","","",""
"html-keyboard-response","208","316895","0.0-12.0-0.38","5e9bd025eb6b380e1d66d04c","650c16f0f2faf8d7a0d14c09","651c352c38eb6f468b17912a","null","null","<p style=""font-size: 60px; font-family: BACS"">tmYhtAY</p>","","","","","","","","",""
"html-keyboard-response","209","317897","0.0-12.0-0.39","5e9bd025eb6b380e1d66d04c","650c16f0f2faf8d7a0d14c09","651c352c38eb6f468b17912a","null","null","<p style=""font-size: 60px; font-family: BACS"">YUNkZYLU</p>","","","","","","","","",""
"html-keyboard-response","210","318899","0.0-12.0-0.40","5e9bd025eb6b380e1d66d04c","650c16f0f2faf8d7a0d14c09","651c352c38eb6f468b17912a","null","null","<p style=""font-size: 60px; font-family: BACS"">tRdMmAM</p>","","","","","","","","",""
"html-keyboard-response","211","319901","0.0-12.0-0.41","5e9bd025eb6b380e1d66d04c","650c16f0f2faf8d7a0d14c09","651c352c38eb6f468b17912a","null","null","<p style=""font-size: 60px; font-family: BACS"">DRPkYTRK</p>","","","","","","","","",""
"html-keyboard-response","212","320913","0.0-12.0-0.42","5e9bd025eb6b380e1d66d04c","650c16f0f2faf8d7a0d14c09","651c352c38eb6f468b17912a","null","null","<p style=""font-size: 60px; font-family: BACS"">GLluALYGA</p>","","","","","","","","",""
"html-keyboard-response","213","321915","0.0-12.0-0.43","5e9bd025eb6b380e1d66d04c","650c16f0f2faf8d7a0d14c09","651c352c38eb6f468b17912a","null","null","<p style=""font-size: 60px; font-family: BACS"">tRdMtAY</p>","","","","","","","","",""
"html-keyboard-response","214","322931","0.0-12.0-0.44","5e9bd025eb6b380e1d66d04c","650c16f0f2faf8d7a0d14c09","651c352c38eb6f468b17912a","null","null","<p style=""font-size: 60px; font-family: BACS"">YZJmYLU</p>","","","","","","","","",""
"html-keyboard-response","215","323942","0.0-12.0-0.45","5e9bd025eb6b380e1d66d04c","650c16f0f2faf8d7a0d14c09","651c352c38eb6f468b17912a","null","null","<p style=""font-size: 60px; font-family: BACS"">DCmhmAM</p>","","","","","","","","",""
"html-keyboard-response","216","324950","0.0-12.0-0.46","5e9bd025eb6b380e1d66d04c","650c16f0f2faf8d7a0d14c09","651c352c38eb6f468b17912a","null","null","<p style=""font-size: 60px; font-family: BACS"">DkTCPcthB</p>","","","","","","","","",""
"html-keyboard-response","217","325964","0.0-12.0-0.47","5e9bd025eb6b380e1d66d04c","650c16f0f2faf8d7a0d14c09","651c352c38eb6f468b17912a","null","null","<p style=""font-size: 60px; font-family: BACS"">tmYhOdOP</p>","","","","","","","","",""
"html-keyboard-response","218","326969","0.0-12.0-0.48","5e9bd025eb6b380e1d66d04c","650c16f0f2faf8d7a0d14c09","651c352c38eb6f468b17912a","null","null","<p style=""font-size: 60px; font-family: BACS"">GLYrAGrub</p>","","","","","","","","",""
"html-keyboard-response","219","327979","0.0-12.0-0.49","5e9bd025eb6b380e1d66d04c","650c16f0f2faf8d7a0d14c09","651c352c38eb6f468b17912a","null","null","<p style=""font-size: 60px; font-family: BACS"">DRPkYcthB</p>","","","","","","","","",""
"html-keyboard-response","220","328990","0.0-12.0-0.50","5e9bd025eb6b380e1d66d04c","650c16f0f2faf8d7a0d14c09","651c352c38eb6f468b17912a","null","null","<p style=""font-size: 60px; font-family: BACS"">PDPhlmAM</p>","","","","","","","","",""
"html-keyboard-response","221","329992","0.0-12.0-0.51","5e9bd025eb6b380e1d66d04c","650c16f0f2faf8d7a0d14c09","651c352c38eb6f468b17912a","null","null","<p style=""font-size: 60px; font-family: BACS"">LuaUkam</p>","","","","","","","","",""
"html-keyboard-response","222","330994","0.0-12.0-0.52","5e9bd025eb6b380e1d66d04c","650c16f0f2faf8d7a0d14c09","651c352c38eb6f468b17912a","null","null","<p style=""font-size: 60px; font-family: BACS"">tRdMcthB</p>","","","","","","","","",""
"html-keyboard-response","223","332007","0.0-12.0-0.53","5e9bd025eb6b380e1d66d04c","650c16f0f2faf8d7a0d14c09","651c352c38eb6f468b17912a","null","null","<p style=""font-size: 60px; font-family: BACS"">GLYrAYLU</p>","","","","","","","","",""
"html-keyboard-response","224","333015","0.0-12.0-0.54","5e9bd025eb6b380e1d66d04c","650c16f0f2faf8d7a0d14c09","651c352c38eb6f468b17912a","null","null","<p style=""font-size: 60px; font-family: BACS"">bmdABtAY</p>","","","","","","","","",""
"html-keyboard-response","225","334022","0.0-12.0-0.55","5e9bd025eb6b380e1d66d04c","650c16f0f2faf8d7a0d14c09","651c352c38eb6f468b17912a","null","null","<p style=""font-size: 60px; font-family: BACS"">DCmhOdOP</p>","","","","","","","","",""
"html-keyboard-response","226","335030","0.0-12.0-0.56","5e9bd025eb6b380e1d66d04c","650c16f0f2faf8d7a0d14c09","651c352c38eb6f468b17912a","null","null","<p style=""font-size: 60px; font-family: BACS"">DkTCPtAY</p>","","","","","","","","",""
"html-keyboard-response","227","336040","0.0-12.0-0.57","5e9bd025eb6b380e1d66d04c","650c16f0f2faf8d7a0d14c09","651c352c38eb6f468b17912a","null","null","<p style=""font-size: 60px; font-family: BACS"">dmZvmkam</p>","","","","","","","","",""
"html-keyboard-response","228","337048","0.0-12.0-0.58","5e9bd025eb6b380e1d66d04c","650c16f0f2faf8d7a0d14c09","651c352c38eb6f468b17912a","null","null","<p style=""font-size: 60px; font-family: BACS"">cRElDmAM</p>","","","","","","","","",""
"html-keyboard-response","229","338062","0.0-12.0-0.59","5e9bd025eb6b380e1d66d04c","650c16f0f2faf8d7a0d14c09","651c352c38eb6f468b17912a","null","null","<p style=""font-size: 60px; font-family: BACS"">PhktkOdOP</p>","","","","","","","","",""
"html-keyboard-response","230","339063","0.0-12.0-0.60","5e9bd025eb6b380e1d66d04c","650c16f0f2faf8d7a0d14c09","651c352c38eb6f468b17912a","null","null","<p style=""font-size: 60px; font-family: BACS"">GJGcZLYGA</p>","","","","","","","","",""
"html-keyboard-response","231","340075","0.0-12.0-0.61","5e9bd025eb6b380e1d66d04c","650c16f0f2faf8d7a0d14c09","651c352c38eb6f468b17912a","null","null","<p style=""font-size: 60px; font-family: BACS"">YUNkZkam</p>","","","","","","","","",""
"html-keyboard-response","232","341082","0.0-12.0-0.62","5e9bd025eb6b380e1d66d04c","650c16f0f2faf8d7a0d14c09","651c352c38eb6f468b17912a","null","null","<p style=""font-size: 60px; font-family: BACS"">GLluAYLU</p>","","","","","","","","",""
"html-keyboard-response","233","342088","0.0-12.0-0.63","5e9bd025eb6b380e1d66d04c","650c16f0f2faf8d7a0d14c09","651c352c38eb6f468b17912a","null","null","<p style=""font-size: 60px; font-family: BACS"">ZvalvOQAr</p>","","","","","","","","",""
"html-keyboard-response","234","343089","0.0-12.0-0.64","5e9bd025eb6b380e1d66d04c","650c16f0f2faf8d7a0d14c09","651c352c38eb6f468b17912a","null","null","<p style=""font-size: 60px; font-family: BACS"">AMkCOdOP</p>","","","","","","","","",""
"html-keyboard-response","235","344098","0.0-12.0-0.65","5e9bd025eb6b380e1d66d04c","650c16f0f2faf8d7a0d14c09","651c352c38eb6f468b17912a","null","null","<p style=""font-size: 60px; font-family: BACS"">PhktktAY</p>","","","","","","","","",""
"html-keyboard-response","236","345104","0.0-12.0-0.66","5e9bd025eb6b380e1d66d04c","650c16f0f2faf8d7a0d14c09","651c352c38eb6f468b17912a","null","null","<p style=""font-size: 60px; font-family: BACS"">DRPkYOdOP</p>","","","","","","","","",""
"html-keyboard-response","237","346116","0.0-12.0-0.67","5e9bd025eb6b380e1d66d04c","650c16f0f2faf8d7a0d14c09","651c352c38eb6f468b17912a","null","null","<p style=""font-size: 60px; font-family: BACS"">NAacQOQAr</p>","","","","","","","","",""
"html-keyboard-response","238","347118","0.0-12.0-0.68","5e9bd025eb6b380e1d66d04c","650c16f0f2faf8d7a0d14c09","651c352c38eb6f468b17912a","null","null","<p style=""font-size: 60px; font-family: BACS"">bmdABOdOP</p>","","","","","","","","",""
"html-keyboard-response","239","348122","0.0-12.0-0.69","5e9bd025eb6b380e1d66d04c","650c16f0f2faf8d7a0d14c09","651c352c38eb6f468b17912a","null","null","<p style=""font-size: 60px; font-family: BACS"">PhktkTRK</p>","","","","","","","","",""
"html-keyboard-response","240","349123","0.0-12.0-0.70","5e9bd025eb6b380e1d66d04c","650c16f0f2faf8d7a0d14c09","651c352c38eb6f468b17912a","null","null","<p style=""font-size: 60px; font-family: BACS"">GLYrALYGA</p>","","","","","","","","",""
"html-keyboard-response","241","350138","0.0-12.0-0.71","5e9bd025eb6b380e1d66d04c","650c16f0f2faf8d7a0d14c09","651c352c38eb6f468b17912a","null","null","<p style=""font-size: 60px; font-family: BACS"">tmYhTRK</p>","","","","","","","","",""
"html-keyboard-response","242","351140","0.0-12.0-0.72","5e9bd025eb6b380e1d66d04c","650c16f0f2faf8d7a0d14c09","651c352c38eb6f468b17912a","null","null","<p style=""font-size: 60px; font-family: BACS"">NAacQYLU</p>","","","","","","","","",""
"html-keyboard-response","243","352142","0.0-12.0-0.73","5e9bd025eb6b380e1d66d04c","650c16f0f2faf8d7a0d14c09","651c352c38eb6f468b17912a","null","null","<p style=""font-size: 60px; font-family: BACS"">GLluAOQAr</p>","","","","","","","","",""
"html-keyboard-response","244","353143","0.0-12.0-0.74","5e9bd025eb6b380e1d66d04c","650c16f0f2faf8d7a0d14c09","651c352c38eb6f468b17912a","null","null","<p style=""font-size: 60px; font-family: BACS"">bvkrkam</p>","","","","","","","","",""
"html-keyboard-response","245","354145","0.0-12.0-0.75","5e9bd025eb6b380e1d66d04c","650c16f0f2faf8d7a0d14c09","651c352c38eb6f468b17912a","null","null","<p style=""font-size: 60px; font-family: BACS"">YUNkZOQAr</p>","","","","","","","","",""
"html-keyboard-response","246","355153","0.0-12.0-0.76","5e9bd025eb6b380e1d66d04c","650c16f0f2faf8d7a0d14c09","651c352c38eb6f468b17912a","null","null","<p style=""font-size: 60px; font-family: BACS"">GLluAkam</p>","","","","","","","","",""
"html-keyboard-response","247","356155","0.0-12.0-0.77","5e9bd025eb6b380e1d66d04c","650c16f0f2faf8d7a0d14c09","651c352c38eb6f468b17912a","null","null","<p style=""font-size: 60px; font-family: BACS"">GJGcZGrub</p>","","","","","","","","",""
"html-keyboard-response","248","357157","0.0-12.0-0.78","5e9bd025eb6b380e1d66d04c","650c16f0f2faf8d7a0d14c09","651c352c38eb6f468b17912a","null","null","<p style=""font-size: 60px; font-family: BACS"">tRdMTRK</p>","","","","","","","","",""
"html-keyboard-response","249","358165","0.0-12.0-0.79","5e9bd025eb6b380e1d66d04c","650c16f0f2faf8d7a0d14c09","651c352c38eb6f468b17912a","null","null","<p style=""font-size: 60px; font-family: BACS"">dmZvmOQAr</p>","","","","","","","","",""
"html-keyboard-response","250","361076","0.0-13.0","5e9bd025eb6b380e1d66d04c","650c16f0f2faf8d7a0d14c09","651c352c38eb6f468b17912a","2910"," ","<p>Great, you've seen the third block of words. You may now take a short break.</p>
      <p>Press the spacebar when you're ready to continue.</p>","","","","","","","","",""
"html-keyboard-response","251","362081","0.0-14.0-0.0","5e9bd025eb6b380e1d66d04c","650c16f0f2faf8d7a0d14c09","651c352c38eb6f468b17912a","null","null","<p style=""font-size: 60px; font-family: BACS"">YUNkZYLU</p>","","","","","","","","",""
"html-keyboard-response","252","363092","0.0-14.0-0.1","5e9bd025eb6b380e1d66d04c","650c16f0f2faf8d7a0d14c09","651c352c38eb6f468b17912a","null","null","<p style=""font-size: 60px; font-family: BACS"">PDPhlcthB</p>","","","","","","","","",""
"html-keyboard-response","253","364101","0.0-14.0-0.2","5e9bd025eb6b380e1d66d04c","650c16f0f2faf8d7a0d14c09","651c352c38eb6f468b17912a","null","null","<p style=""font-size: 60px; font-family: BACS"">GJGcZYLU</p>","","","","","","","","",""
"html-keyboard-response","254","365110","0.0-14.0-0.3","5e9bd025eb6b380e1d66d04c","650c16f0f2faf8d7a0d14c09","651c352c38eb6f468b17912a","null","null","<p style=""font-size: 60px; font-family: BACS"">PDPhltAY</p>","","","","","","","","",""
"html-keyboard-response","255","366115","0.0-14.0-0.4","5e9bd025eb6b380e1d66d04c","650c16f0f2faf8d7a0d14c09","651c352c38eb6f468b17912a","null","null","<p style=""font-size: 60px; font-family: BACS"">ZvalvOQAr</p>","","","","","","","","",""
"html-keyboard-response","256","367121","0.0-14.0-0.5","5e9bd025eb6b380e1d66d04c","650c16f0f2faf8d7a0d14c09","651c352c38eb6f468b17912a","null","null","<p style=""font-size: 60px; font-family: BACS"">DkTCPOdOP</p>","","","","","","","","",""
"html-keyboard-response","257","368131","0.0-14.0-0.6","5e9bd025eb6b380e1d66d04c","650c16f0f2faf8d7a0d14c09","651c352c38eb6f468b17912a","null","null","<p style=""font-size: 60px; font-family: BACS"">GLluAkam</p>","","","","","","","","",""
"html-keyboard-response","258","369137","0.0-14.0-0.7","5e9bd025eb6b380e1d66d04c","650c16f0f2faf8d7a0d14c09","651c352c38eb6f468b17912a","null","null","<p style=""font-size: 60px; font-family: BACS"">PhktkTRK</p>","","","","","","","","",""
"html-keyboard-response","259","370141","0.0-14.0-0.8","5e9bd025eb6b380e1d66d04c","650c16f0f2faf8d7a0d14c09","651c352c38eb6f468b17912a","null","null","<p style=""font-size: 60px; font-family: BACS"">GLluAOQAr</p>","","","","","","","","",""
"html-keyboard-response","260","371144","0.0-14.0-0.9","5e9bd025eb6b380e1d66d04c","650c16f0f2faf8d7a0d14c09","651c352c38eb6f468b17912a","null","null","<p style=""font-size: 60px; font-family: BACS"">tmYhcthB</p>","","","","","","","","",""
"html-keyboard-response","261","372154","0.0-14.0-0.10","5e9bd025eb6b380e1d66d04c","650c16f0f2faf8d7a0d14c09","651c352c38eb6f468b17912a","null","null","<p style=""font-size: 60px; font-family: BACS"">tRdMmAM</p>","","","","","","","","",""
"html-keyboard-response","262","373162","0.0-14.0-0.11","5e9bd025eb6b380e1d66d04c","650c16f0f2faf8d7a0d14c09","651c352c38eb6f468b17912a","null","null","<p style=""font-size: 60px; font-family: BACS"">YUNkZkam</p>","","","","","","","","",""
"html-keyboard-response","263","374163","0.0-14.0-0.12","5e9bd025eb6b380e1d66d04c","650c16f0f2faf8d7a0d14c09","651c352c38eb6f468b17912a","null","null","<p style=""font-size: 60px; font-family: BACS"">bvkrGrub</p>","","","","","","","","",""
"html-keyboard-response","264","375174","0.0-14.0-0.13","5e9bd025eb6b380e1d66d04c","650c16f0f2faf8d7a0d14c09","651c352c38eb6f468b17912a","null","null","<p style=""font-size: 60px; font-family: BACS"">bmdABcthB</p>","","","","","","","","",""
"html-keyboard-response","265","376184","0.0-14.0-0.14","5e9bd025eb6b380e1d66d04c","650c16f0f2faf8d7a0d14c09","651c352c38eb6f468b17912a","null","null","<p style=""font-size: 60px; font-family: BACS"">DRPkYmAM</p>","","","","","","","","",""
"html-keyboard-response","266","377191","0.0-14.0-0.15","5e9bd025eb6b380e1d66d04c","650c16f0f2faf8d7a0d14c09","651c352c38eb6f468b17912a","null","null","<p style=""font-size: 60px; font-family: BACS"">PhktktAY</p>","","","","","","","","",""
"html-keyboard-response","267","378200","0.0-14.0-0.16","5e9bd025eb6b380e1d66d04c","650c16f0f2faf8d7a0d14c09","651c352c38eb6f468b17912a","null","null","<p style=""font-size: 60px; font-family: BACS"">tmYhOdOP</p>","","","","","","","","",""
"html-keyboard-response","268","379207","0.0-14.0-0.17","5e9bd025eb6b380e1d66d04c","650c16f0f2faf8d7a0d14c09","651c352c38eb6f468b17912a","null","null","<p style=""font-size: 60px; font-family: BACS"">tRdMTRK</p>","","","","","","","","",""
"html-keyboard-response","269","380212","0.0-14.0-0.18","5e9bd025eb6b380e1d66d04c","650c16f0f2faf8d7a0d14c09","651c352c38eb6f468b17912a","null","null","<p style=""font-size: 60px; font-family: BACS"">bmdABtAY</p>","","","","","","","","",""
"html-keyboard-response","270","381220","0.0-14.0-0.19","5e9bd025eb6b380e1d66d04c","650c16f0f2faf8d7a0d14c09","651c352c38eb6f468b17912a","null","null","<p style=""font-size: 60px; font-family: BACS"">AMkCOdOP</p>","","","","","","","","",""
"html-keyboard-response","271","382229","0.0-14.0-0.20","5e9bd025eb6b380e1d66d04c","650c16f0f2faf8d7a0d14c09","651c352c38eb6f468b17912a","null","null","<p style=""font-size: 60px; font-family: BACS"">ZvalvGrub</p>","","","","","","","","",""
"html-keyboard-response","272","383237","0.0-14.0-0.21","5e9bd025eb6b380e1d66d04c","650c16f0f2faf8d7a0d14c09","651c352c38eb6f468b17912a","null","null","<p style=""font-size: 60px; font-family: BACS"">dmZvmkam</p>","","","","","","","","",""
"html-keyboard-response","273","384246","0.0-14.0-0.22","5e9bd025eb6b380e1d66d04c","650c16f0f2faf8d7a0d14c09","651c352c38eb6f468b17912a","null","null","<p style=""font-size: 60px; font-family: BACS"">bvkrLYGA</p>","","","","","","","","",""
"html-keyboard-response","274","385252","0.0-14.0-0.23","5e9bd025eb6b380e1d66d04c","650c16f0f2faf8d7a0d14c09","651c352c38eb6f468b17912a","null","null","<p style=""font-size: 60px; font-family: BACS"">DRPkYcthB</p>","","","","","","","","",""
"html-keyboard-response","275","386262","0.0-14.0-0.24","5e9bd025eb6b380e1d66d04c","650c16f0f2faf8d7a0d14c09","651c352c38eb6f468b17912a","null","null","<p style=""font-size: 60px; font-family: BACS"">NAacQYLU</p>","","","","","","","","",""
"html-keyboard-response","276","387267","0.0-14.0-0.25","5e9bd025eb6b380e1d66d04c","650c16f0f2faf8d7a0d14c09","651c352c38eb6f468b17912a","null","null","<p style=""font-size: 60px; font-family: BACS"">GLYrAGrub</p>","","","","","","","","",""
"html-keyboard-response","277","388274","0.0-14.0-0.26","5e9bd025eb6b380e1d66d04c","650c16f0f2faf8d7a0d14c09","651c352c38eb6f468b17912a","null","null","<p style=""font-size: 60px; font-family: BACS"">NAacQkam</p>","","","","","","","","",""
"html-keyboard-response","278","389276","0.0-14.0-0.27","5e9bd025eb6b380e1d66d04c","650c16f0f2faf8d7a0d14c09","651c352c38eb6f468b17912a","null","null","<p style=""font-size: 60px; font-family: BACS"">GLYrAOQAr</p>","","","","","","","","",""
"html-keyboard-response","279","390286","0.0-14.0-0.28","5e9bd025eb6b380e1d66d04c","650c16f0f2faf8d7a0d14c09","651c352c38eb6f468b17912a","null","null","<p style=""font-size: 60px; font-family: BACS"">tRdMtAY</p>","","","","","","","","",""
"html-keyboard-response","280","391300","0.0-14.0-0.29","5e9bd025eb6b380e1d66d04c","650c16f0f2faf8d7a0d14c09","651c352c38eb6f468b17912a","null","null","<p style=""font-size: 60px; font-family: BACS"">GLluAYLU</p>","","","","","","","","",""
"html-keyboard-response","281","392308","0.0-14.0-0.30","5e9bd025eb6b380e1d66d04c","650c16f0f2faf8d7a0d14c09","651c352c38eb6f468b17912a","null","null","<p style=""font-size: 60px; font-family: BACS"">dmZvmOQAr</p>","","","","","","","","",""
"html-keyboard-response","282","393310","0.0-14.0-0.31","5e9bd025eb6b380e1d66d04c","650c16f0f2faf8d7a0d14c09","651c352c38eb6f468b17912a","null","null","<p style=""font-size: 60px; font-family: BACS"">DRPkYTRK</p>","","","","","","","","",""
"html-keyboard-response","283","394312","0.0-14.0-0.32","5e9bd025eb6b380e1d66d04c","650c16f0f2faf8d7a0d14c09","651c352c38eb6f468b17912a","null","null","<p style=""font-size: 60px; font-family: BACS"">LuaULYGA</p>","","","","","","","","",""
"html-keyboard-response","284","395314","0.0-14.0-0.33","5e9bd025eb6b380e1d66d04c","650c16f0f2faf8d7a0d14c09","651c352c38eb6f468b17912a","null","null","<p style=""font-size: 60px; font-family: BACS"">tRdMcthB</p>","","","","","","","","",""
"html-keyboard-response","285","396316","0.0-14.0-0.34","5e9bd025eb6b380e1d66d04c","650c16f0f2faf8d7a0d14c09","651c352c38eb6f468b17912a","null","null","<p style=""font-size: 60px; font-family: BACS"">YZJmLYGA</p>","","","","","","","","",""
"html-keyboard-response","286","397325","0.0-14.0-0.35","5e9bd025eb6b380e1d66d04c","650c16f0f2faf8d7a0d14c09","651c352c38eb6f468b17912a","null","null","<p style=""font-size: 60px; font-family: BACS"">DkTCPtAY</p>","","","","","","","","",""
"html-keyboard-response","287","398333","0.0-14.0-0.36","5e9bd025eb6b380e1d66d04c","650c16f0f2faf8d7a0d14c09","651c352c38eb6f468b17912a","null","null","<p style=""font-size: 60px; font-family: BACS"">bvkrYLU</p>","","","","","","","","",""
"html-keyboard-response","288","399339","0.0-14.0-0.37","5e9bd025eb6b380e1d66d04c","650c16f0f2faf8d7a0d14c09","651c352c38eb6f468b17912a","null","null","<p style=""font-size: 60px; font-family: BACS"">DCmhmAM</p>","","","","","","","","",""
"html-keyboard-response","289","400349","0.0-14.0-0.38","5e9bd025eb6b380e1d66d04c","650c16f0f2faf8d7a0d14c09","651c352c38eb6f468b17912a","null","null","<p style=""font-size: 60px; font-family: BACS"">GLYrALYGA</p>","","","","","","","","",""
"html-keyboard-response","290","401357","0.0-14.0-0.39","5e9bd025eb6b380e1d66d04c","650c16f0f2faf8d7a0d14c09","651c352c38eb6f468b17912a","null","null","<p style=""font-size: 60px; font-family: BACS"">PhktkmAM</p>","","","","","","","","",""
"html-keyboard-response","291","402367","0.0-14.0-0.40","5e9bd025eb6b380e1d66d04c","650c16f0f2faf8d7a0d14c09","651c352c38eb6f468b17912a","null","null","<p style=""font-size: 60px; font-family: BACS"">YZJmGrub</p>","","","","","","","","",""
"html-keyboard-response","292","403376","0.0-14.0-0.41","5e9bd025eb6b380e1d66d04c","650c16f0f2faf8d7a0d14c09","651c352c38eb6f468b17912a","null","null","<p style=""font-size: 60px; font-family: BACS"">DCmhtAY</p>","","","","","","","","",""
"html-keyboard-response","293","404388","0.0-14.0-0.42","5e9bd025eb6b380e1d66d04c","650c16f0f2faf8d7a0d14c09","651c352c38eb6f468b17912a","null","null","<p style=""font-size: 60px; font-family: BACS"">bmdABOdOP</p>","","","","","","","","",""
"html-keyboard-response","294","405390","0.0-14.0-0.43","5e9bd025eb6b380e1d66d04c","650c16f0f2faf8d7a0d14c09","651c352c38eb6f468b17912a","null","null","<p style=""font-size: 60px; font-family: BACS"">DCmhTRK</p>","","","","","","","","",""
"html-keyboard-response","295","406402","0.0-14.0-0.44","5e9bd025eb6b380e1d66d04c","650c16f0f2faf8d7a0d14c09","651c352c38eb6f468b17912a","null","null","<p style=""font-size: 60px; font-family: BACS"">AMkCcthB</p>","","","","","","","","",""
"html-keyboard-response","296","407416","0.0-14.0-0.45","5e9bd025eb6b380e1d66d04c","650c16f0f2faf8d7a0d14c09","651c352c38eb6f468b17912a","null","null","<p style=""font-size: 60px; font-family: BACS"">PDPhlmAM</p>","","","","","","","","",""
"html-keyboard-response","297","408431","0.0-14.0-0.46","5e9bd025eb6b380e1d66d04c","650c16f0f2faf8d7a0d14c09","651c352c38eb6f468b17912a","null","null","<p style=""font-size: 60px; font-family: BACS"">PhktkOdOP</p>","","","","","","","","",""
"html-keyboard-response","298","409438","0.0-14.0-0.47","5e9bd025eb6b380e1d66d04c","650c16f0f2faf8d7a0d14c09","651c352c38eb6f468b17912a","null","null","<p style=""font-size: 60px; font-family: BACS"">DkTCPTRK</p>","","","","","","","","",""
"html-keyboard-response","299","410447","0.0-14.0-0.48","5e9bd025eb6b380e1d66d04c","650c16f0f2faf8d7a0d14c09","651c352c38eb6f468b17912a","null","null","<p style=""font-size: 60px; font-family: BACS"">YUNkZOQAr</p>","","","","","","","","",""
"html-keyboard-response","300","411455","0.0-14.0-0.49","5e9bd025eb6b380e1d66d04c","650c16f0f2faf8d7a0d14c09","651c352c38eb6f468b17912a","null","null","<p style=""font-size: 60px; font-family: BACS"">bvkrkam</p>","","","","","","","","",""
"html-keyboard-response","301","412457","0.0-14.0-0.50","5e9bd025eb6b380e1d66d04c","650c16f0f2faf8d7a0d14c09","651c352c38eb6f468b17912a","null","null","<p style=""font-size: 60px; font-family: BACS"">GJGcZOQAr</p>","","","","","","","","",""
"html-keyboard-response","302","413467","0.0-14.0-0.51","5e9bd025eb6b380e1d66d04c","650c16f0f2faf8d7a0d14c09","651c352c38eb6f468b17912a","null","null","<p style=""font-size: 60px; font-family: BACS"">ZvalvLYGA</p>","","","","","","","","",""
"html-keyboard-response","303","414470","0.0-14.0-0.52","5e9bd025eb6b380e1d66d04c","650c16f0f2faf8d7a0d14c09","651c352c38eb6f468b17912a","null","null","<p style=""font-size: 60px; font-family: BACS"">YZJmYLU</p>","","","","","","","","",""
"html-keyboard-response","304","415485","0.0-14.0-0.53","5e9bd025eb6b380e1d66d04c","650c16f0f2faf8d7a0d14c09","651c352c38eb6f468b17912a","null","null","<p style=""font-size: 60px; font-family: BACS"">cRElDmAM</p>","","","","","","","","",""
"html-keyboard-response","305","416489","0.0-14.0-0.54","5e9bd025eb6b380e1d66d04c","650c16f0f2faf8d7a0d14c09","651c352c38eb6f468b17912a","null","null","<p style=""font-size: 60px; font-family: BACS"">YUNkZGrub</p>","","","","","","","","",""
"html-keyboard-response","306","417498","0.0-14.0-0.55","5e9bd025eb6b380e1d66d04c","650c16f0f2faf8d7a0d14c09","651c352c38eb6f468b17912a","null","null","<p style=""font-size: 60px; font-family: BACS"">AMkCTRK</p>","","","","","","","","",""
"html-keyboard-response","307","418504","0.0-14.0-0.56","5e9bd025eb6b380e1d66d04c","650c16f0f2faf8d7a0d14c09","651c352c38eb6f468b17912a","null","null","<p style=""font-size: 60px; font-family: BACS"">cRElDcthB</p>","","","","","","","","",""
"html-keyboard-response","308","419506","0.0-14.0-0.57","5e9bd025eb6b380e1d66d04c","650c16f0f2faf8d7a0d14c09","651c352c38eb6f468b17912a","null","null","<p style=""font-size: 60px; font-family: BACS"">GJGcZGrub</p>","","","","","","","","",""
"html-keyboard-response","309","420521","0.0-14.0-0.58","5e9bd025eb6b380e1d66d04c","650c16f0f2faf8d7a0d14c09","651c352c38eb6f468b17912a","null","null","<p style=""font-size: 60px; font-family: BACS"">NAacQOQAr</p>","","","","","","","","",""
"html-keyboard-response","310","421523","0.0-14.0-0.59","5e9bd025eb6b380e1d66d04c","650c16f0f2faf8d7a0d14c09","651c352c38eb6f468b17912a","null","null","<p style=""font-size: 60px; font-family: BACS"">dmZvmYLU</p>","","","","","","","","",""
"html-keyboard-response","311","422539","0.0-14.0-0.60","5e9bd025eb6b380e1d66d04c","650c16f0f2faf8d7a0d14c09","651c352c38eb6f468b17912a","null","null","<p style=""font-size: 60px; font-family: BACS"">cRElDTRK</p>","","","","","","","","",""
"html-keyboard-response","312","423554","0.0-14.0-0.61","5e9bd025eb6b380e1d66d04c","650c16f0f2faf8d7a0d14c09","651c352c38eb6f468b17912a","null","null","<p style=""font-size: 60px; font-family: BACS"">AMkCmAM</p>","","","","","","","","",""
"html-keyboard-response","313","424565","0.0-14.0-0.62","5e9bd025eb6b380e1d66d04c","650c16f0f2faf8d7a0d14c09","651c352c38eb6f468b17912a","null","null","<p style=""font-size: 60px; font-family: BACS"">GLYrAYLU</p>","","","","","","","","",""
"html-keyboard-response","314","425567","0.0-14.0-0.63","5e9bd025eb6b380e1d66d04c","650c16f0f2faf8d7a0d14c09","651c352c38eb6f468b17912a","null","null","<p style=""font-size: 60px; font-family: BACS"">tmYhtAY</p>","","","","","","","","",""
"html-keyboard-response","315","426577","0.0-14.0-0.64","5e9bd025eb6b380e1d66d04c","650c16f0f2faf8d7a0d14c09","651c352c38eb6f468b17912a","null","null","<p style=""font-size: 60px; font-family: BACS"">DkTCPcthB</p>","","","","","","","","",""
"html-keyboard-response","316","427587","0.0-14.0-0.65","5e9bd025eb6b380e1d66d04c","650c16f0f2faf8d7a0d14c09","651c352c38eb6f468b17912a","null","null","<p style=""font-size: 60px; font-family: BACS"">dmZvmGrub</p>","","","","","","","","",""
"html-keyboard-response","317","428599","0.0-14.0-0.66","5e9bd025eb6b380e1d66d04c","650c16f0f2faf8d7a0d14c09","651c352c38eb6f468b17912a","null","null","<p style=""font-size: 60px; font-family: BACS"">cRElDtAY</p>","","","","","","","","",""
"html-keyboard-response","318","429601","0.0-14.0-0.67","5e9bd025eb6b380e1d66d04c","650c16f0f2faf8d7a0d14c09","651c352c38eb6f468b17912a","null","null","<p style=""font-size: 60px; font-family: BACS"">GJGcZLYGA</p>","","","","","","","","",""
"html-keyboard-response","319","430602","0.0-14.0-0.68","5e9bd025eb6b380e1d66d04c","650c16f0f2faf8d7a0d14c09","651c352c38eb6f468b17912a","null","null","<p style=""font-size: 60px; font-family: BACS"">bmdABmAM</p>","","","","","","","","",""
"html-keyboard-response","320","431620","0.0-14.0-0.69","5e9bd025eb6b380e1d66d04c","650c16f0f2faf8d7a0d14c09","651c352c38eb6f468b17912a","null","null","<p style=""font-size: 60px; font-family: BACS"">YZJmkam</p>","","","","","","","","",""
"html-keyboard-response","321","432622","0.0-14.0-0.70","5e9bd025eb6b380e1d66d04c","650c16f0f2faf8d7a0d14c09","651c352c38eb6f468b17912a","null","null","<p style=""font-size: 60px; font-family: BACS"">tmYhTRK</p>","","","","","","","","",""
"html-keyboard-response","322","433636","0.0-14.0-0.71","5e9bd025eb6b380e1d66d04c","650c16f0f2faf8d7a0d14c09","651c352c38eb6f468b17912a","null","null","<p style=""font-size: 60px; font-family: BACS"">DCmhOdOP</p>","","","","","","","","",""
"html-keyboard-response","323","434645","0.0-14.0-0.72","5e9bd025eb6b380e1d66d04c","650c16f0f2faf8d7a0d14c09","651c352c38eb6f468b17912a","null","null","<p style=""font-size: 60px; font-family: BACS"">LuaUkam</p>","","","","","","","","",""
"html-keyboard-response","324","435656","0.0-14.0-0.73","5e9bd025eb6b380e1d66d04c","650c16f0f2faf8d7a0d14c09","651c352c38eb6f468b17912a","null","null","<p style=""font-size: 60px; font-family: BACS"">PDPhlOdOP</p>","","","","","","","","",""
"html-keyboard-response","325","436675","0.0-14.0-0.74","5e9bd025eb6b380e1d66d04c","650c16f0f2faf8d7a0d14c09","651c352c38eb6f468b17912a","null","null","<p style=""font-size: 60px; font-family: BACS"">Zvalvkam</p>","","","","","","","","",""
"html-keyboard-response","326","437686","0.0-14.0-0.75","5e9bd025eb6b380e1d66d04c","650c16f0f2faf8d7a0d14c09","651c352c38eb6f468b17912a","null","null","<p style=""font-size: 60px; font-family: BACS"">GLluALYGA</p>","","","","","","","","",""
"html-keyboard-response","327","438687","0.0-14.0-0.76","5e9bd025eb6b380e1d66d04c","650c16f0f2faf8d7a0d14c09","651c352c38eb6f468b17912a","null","null","<p style=""font-size: 60px; font-family: BACS"">LuaUGrub</p>","","","","","","","","",""
"html-keyboard-response","328","439696","0.0-14.0-0.77","5e9bd025eb6b380e1d66d04c","650c16f0f2faf8d7a0d14c09","651c352c38eb6f468b17912a","null","null","<p style=""font-size: 60px; font-family: BACS"">DRPkYOdOP</p>","","","","","","","","",""
"html-keyboard-response","329","440698","0.0-14.0-0.78","5e9bd025eb6b380e1d66d04c","650c16f0f2faf8d7a0d14c09","651c352c38eb6f468b17912a","null","null","<p style=""font-size: 60px; font-family: BACS"">NAacQLYGA</p>","","","","","","","","",""
"html-keyboard-response","330","441715","0.0-14.0-0.79","5e9bd025eb6b380e1d66d04c","650c16f0f2faf8d7a0d14c09","651c352c38eb6f468b17912a","null","null","<p style=""font-size: 60px; font-family: BACS"">LuaUOQAr</p>","","","","","","","","",""
"html-keyboard-response","331","504476","0.0-15.0","5e9bd025eb6b380e1d66d04c","650c16f0f2faf8d7a0d14c09","651c352c38eb6f468b17912a","62760"," ","<p>Great, you've seen the fourth block of words. You may now take a short break.</p>
      <p>Press the spacebar when you're ready to continue.</p>","","","","","","","","",""
"html-keyboard-response","332","505491","0.0-16.0-0.0","5e9bd025eb6b380e1d66d04c","650c16f0f2faf8d7a0d14c09","651c352c38eb6f468b17912a","null","null","<p style=""font-size: 60px; font-family: BACS"">GLluAYLU</p>","","","","","","","","",""
"html-keyboard-response","333","506492","0.0-16.0-0.1","5e9bd025eb6b380e1d66d04c","650c16f0f2faf8d7a0d14c09","651c352c38eb6f468b17912a","null","null","<p style=""font-size: 60px; font-family: BACS"">GLluAYLU</p>","","","","","","","","",""
"html-keyboard-response","334","507495","0.0-16.0-0.2","5e9bd025eb6b380e1d66d04c","650c16f0f2faf8d7a0d14c09","651c352c38eb6f468b17912a","null","null","<p style=""font-size: 60px; font-family: BACS"">GLluAYLU</p>","","","","","","","","",""
"html-keyboard-response","335","508497","0.0-16.0-0.3","5e9bd025eb6b380e1d66d04c","650c16f0f2faf8d7a0d14c09","651c352c38eb6f468b17912a","null","null","<p style=""font-size: 60px; font-family: BACS"">GLluAYLU</p>","","","","","","","","",""
"html-keyboard-response","336","509511","0.0-16.0-0.4","5e9bd025eb6b380e1d66d04c","650c16f0f2faf8d7a0d14c09","651c352c38eb6f468b17912a","null","null","<p style=""font-size: 60px; font-family: BACS"">GLluAYLU</p>","","","","","","","","",""
"html-keyboard-response","337","510519","0.0-16.0-0.5","5e9bd025eb6b380e1d66d04c","650c16f0f2faf8d7a0d14c09","651c352c38eb6f468b17912a","null","null","<p style=""font-size: 60px; font-family: BACS"">GLluAYLU</p>","","","","","","","","",""
"html-keyboard-response","338","511521","0.0-16.0-0.6","5e9bd025eb6b380e1d66d04c","650c16f0f2faf8d7a0d14c09","651c352c38eb6f468b17912a","null","null","<p style=""font-size: 60px; font-family: BACS"">GLluAYLU</p>","","","","","","","","",""
"html-keyboard-response","339","512534","0.0-16.0-0.7","5e9bd025eb6b380e1d66d04c","650c16f0f2faf8d7a0d14c09","651c352c38eb6f468b17912a","null","null","<p style=""font-size: 60px; font-family: BACS"">GLluAYLU</p>","","","","","","","","",""
"html-keyboard-response","340","513536","0.0-16.0-0.8","5e9bd025eb6b380e1d66d04c","650c16f0f2faf8d7a0d14c09","651c352c38eb6f468b17912a","null","null","<p style=""font-size: 60px; font-family: BACS"">GLluAYLU</p>","","","","","","","","",""
"html-keyboard-response","341","514548","0.0-16.0-0.9","5e9bd025eb6b380e1d66d04c","650c16f0f2faf8d7a0d14c09","651c352c38eb6f468b17912a","null","null","<p style=""font-size: 60px; font-family: BACS"">GLluAYLU</p>","","","","","","","","",""
"html-keyboard-response","342","515551","0.0-16.0-0.10","5e9bd025eb6b380e1d66d04c","650c16f0f2faf8d7a0d14c09","651c352c38eb6f468b17912a","null","null","<p style=""font-size: 60px; font-family: BACS"">GLluAYLU</p>","","","","","","","","",""
"html-keyboard-response","343","516560","0.0-16.0-0.11","5e9bd025eb6b380e1d66d04c","650c16f0f2faf8d7a0d14c09","651c352c38eb6f468b17912a","null","null","<p style=""font-size: 60px; font-family: BACS"">GLluAYLU</p>","","","","","","","","",""
"html-keyboard-response","344","517565","0.0-16.0-0.12","5e9bd025eb6b380e1d66d04c","650c16f0f2faf8d7a0d14c09","651c352c38eb6f468b17912a","null","null","<p style=""font-size: 60px; font-family: BACS"">GLluAYLU</p>","","","","","","","","",""
"html-keyboard-response","345","518568","0.0-16.0-0.13","5e9bd025eb6b380e1d66d04c","650c16f0f2faf8d7a0d14c09","651c352c38eb6f468b17912a","null","null","<p style=""font-size: 60px; font-family: BACS"">GLluAYLU</p>","","","","","","","","",""
"html-keyboard-response","346","519570","0.0-16.0-0.14","5e9bd025eb6b380e1d66d04c","650c16f0f2faf8d7a0d14c09","651c352c38eb6f468b17912a","null","null","<p style=""font-size: 60px; font-family: BACS"">GLluAYLU</p>","","","","","","","","",""
"html-keyboard-response","347","520571","0.0-16.0-0.15","5e9bd025eb6b380e1d66d04c","650c16f0f2faf8d7a0d14c09","651c352c38eb6f468b17912a","null","null","<p style=""font-size: 60px; font-family: BACS"">GLluAYLU</p>","","","","","","","","",""
"html-keyboard-response","348","521574","0.0-16.0-0.16","5e9bd025eb6b380e1d66d04c","650c16f0f2faf8d7a0d14c09","651c352c38eb6f468b17912a","null","null","<p style=""font-size: 60px; font-family: BACS"">GLluAYLU</p>","","","","","","","","",""
"html-keyboard-response","349","522576","0.0-16.0-0.17","5e9bd025eb6b380e1d66d04c","650c16f0f2faf8d7a0d14c09","651c352c38eb6f468b17912a","null","null","<p style=""font-size: 60px; font-family: BACS"">GLluAYLU</p>","","","","","","","","",""
"html-keyboard-response","350","523577","0.0-16.0-0.18","5e9bd025eb6b380e1d66d04c","650c16f0f2faf8d7a0d14c09","651c352c38eb6f468b17912a","null","null","<p style=""font-size: 60px; font-family: BACS"">GLluAYLU</p>","","","","","","","","",""
"html-keyboard-response","351","524579","0.0-16.0-0.19","5e9bd025eb6b380e1d66d04c","650c16f0f2faf8d7a0d14c09","651c352c38eb6f468b17912a","null","null","<p style=""font-size: 60px; font-family: BACS"">GLluAYLU</p>","","","","","","","","",""
"html-keyboard-response","352","525594","0.0-16.0-0.20","5e9bd025eb6b380e1d66d04c","650c16f0f2faf8d7a0d14c09","651c352c38eb6f468b17912a","null","null","<p style=""font-size: 60px; font-family: BACS"">GLluAYLU</p>","","","","","","","","",""
"html-keyboard-response","353","526596","0.0-16.0-0.21","5e9bd025eb6b380e1d66d04c","650c16f0f2faf8d7a0d14c09","651c352c38eb6f468b17912a","null","null","<p style=""font-size: 60px; font-family: BACS"">GLluAYLU</p>","","","","","","","","",""
"html-keyboard-response","354","527598","0.0-16.0-0.22","5e9bd025eb6b380e1d66d04c","650c16f0f2faf8d7a0d14c09","651c352c38eb6f468b17912a","null","null","<p style=""font-size: 60px; font-family: BACS"">GLluAYLU</p>","","","","","","","","",""
"html-keyboard-response","355","528600","0.0-16.0-0.23","5e9bd025eb6b380e1d66d04c","650c16f0f2faf8d7a0d14c09","651c352c38eb6f468b17912a","null","null","<p style=""font-size: 60px; font-family: BACS"">GLluAYLU</p>","","","","","","","","",""
"html-keyboard-response","356","529602","0.0-16.0-0.24","5e9bd025eb6b380e1d66d04c","650c16f0f2faf8d7a0d14c09","651c352c38eb6f468b17912a","null","null","<p style=""font-size: 60px; font-family: BACS"">GLluAYLU</p>","","","","","","","","",""
"html-keyboard-response","357","530614","0.0-16.0-0.25","5e9bd025eb6b380e1d66d04c","650c16f0f2faf8d7a0d14c09","651c352c38eb6f468b17912a","null","null","<p style=""font-size: 60px; font-family: BACS"">GLluAYLU</p>","","","","","","","","",""
"html-keyboard-response","358","531628","0.0-16.0-0.26","5e9bd025eb6b380e1d66d04c","650c16f0f2faf8d7a0d14c09","651c352c38eb6f468b17912a","null","null","<p style=""font-size: 60px; font-family: BACS"">GLluAYLU</p>","","","","","","","","",""
"html-keyboard-response","359","532630","0.0-16.0-0.27","5e9bd025eb6b380e1d66d04c","650c16f0f2faf8d7a0d14c09","651c352c38eb6f468b17912a","null","null","<p style=""font-size: 60px; font-family: BACS"">GLluAYLU</p>","","","","","","","","",""
"html-keyboard-response","360","533633","0.0-16.0-0.28","5e9bd025eb6b380e1d66d04c","650c16f0f2faf8d7a0d14c09","651c352c38eb6f468b17912a","null","null","<p style=""font-size: 60px; font-family: BACS"">GLluAYLU</p>","","","","","","","","",""
"html-keyboard-response","361","534635","0.0-16.0-0.29","5e9bd025eb6b380e1d66d04c","650c16f0f2faf8d7a0d14c09","651c352c38eb6f468b17912a","null","null","<p style=""font-size: 60px; font-family: BACS"">GLluAYLU</p>","","","","","","","","",""
"html-keyboard-response","362","535637","0.0-16.0-0.30","5e9bd025eb6b380e1d66d04c","650c16f0f2faf8d7a0d14c09","651c352c38eb6f468b17912a","null","null","<p style=""font-size: 60px; font-family: BACS"">GLluAYLU</p>","","","","","","","","",""
"html-keyboard-response","363","536640","0.0-16.0-0.31","5e9bd025eb6b380e1d66d04c","650c16f0f2faf8d7a0d14c09","651c352c38eb6f468b17912a","null","null","<p style=""font-size: 60px; font-family: BACS"">GLluAYLU</p>","","","","","","","","",""
"html-keyboard-response","364","537642","0.0-16.0-0.32","5e9bd025eb6b380e1d66d04c","650c16f0f2faf8d7a0d14c09","651c352c38eb6f468b17912a","null","null","<p style=""font-size: 60px; font-family: BACS"">GLluAYLU</p>","","","","","","","","",""
"html-keyboard-response","365","538643","0.0-16.0-0.33","5e9bd025eb6b380e1d66d04c","650c16f0f2faf8d7a0d14c09","651c352c38eb6f468b17912a","null","null","<p style=""font-size: 60px; font-family: BACS"">GLluAYLU</p>","","","","","","","","",""
"html-keyboard-response","366","539645","0.0-16.0-0.34","5e9bd025eb6b380e1d66d04c","650c16f0f2faf8d7a0d14c09","651c352c38eb6f468b17912a","null","null","<p style=""font-size: 60px; font-family: BACS"">GLluAYLU</p>","","","","","","","","",""
"html-keyboard-response","367","540649","0.0-16.0-0.35","5e9bd025eb6b380e1d66d04c","650c16f0f2faf8d7a0d14c09","651c352c38eb6f468b17912a","null","null","<p style=""font-size: 60px; font-family: BACS"">GLluAYLU</p>","","","","","","","","",""
"html-keyboard-response","368","541658","0.0-16.0-0.36","5e9bd025eb6b380e1d66d04c","650c16f0f2faf8d7a0d14c09","651c352c38eb6f468b17912a","null","null","<p style=""font-size: 60px; font-family: BACS"">GLluAYLU</p>","","","","","","","","",""
"html-keyboard-response","369","542671","0.0-16.0-0.37","5e9bd025eb6b380e1d66d04c","650c16f0f2faf8d7a0d14c09","651c352c38eb6f468b17912a","null","null","<p style=""font-size: 60px; font-family: BACS"">GLluAYLU</p>","","","","","","","","",""
"html-keyboard-response","370","543672","0.0-16.0-0.38","5e9bd025eb6b380e1d66d04c","650c16f0f2faf8d7a0d14c09","651c352c38eb6f468b17912a","null","null","<p style=""font-size: 60px; font-family: BACS"">GLluAYLU</p>","","","","","","","","",""
"html-keyboard-response","371","544674","0.0-16.0-0.39","5e9bd025eb6b380e1d66d04c","650c16f0f2faf8d7a0d14c09","651c352c38eb6f468b17912a","null","null","<p style=""font-size: 60px; font-family: BACS"">GLluAYLU</p>","","","","","","","","",""
"html-keyboard-response","372","545689","0.0-16.0-0.40","5e9bd025eb6b380e1d66d04c","650c16f0f2faf8d7a0d14c09","651c352c38eb6f468b17912a","null","null","<p style=""font-size: 60px; font-family: BACS"">GLluAYLU</p>","","","","","","","","",""
"html-keyboard-response","373","546699","0.0-16.0-0.41","5e9bd025eb6b380e1d66d04c","650c16f0f2faf8d7a0d14c09","651c352c38eb6f468b17912a","null","null","<p style=""font-size: 60px; font-family: BACS"">GLluAYLU</p>","","","","","","","","",""
"html-keyboard-response","374","547709","0.0-16.0-0.42","5e9bd025eb6b380e1d66d04c","650c16f0f2faf8d7a0d14c09","651c352c38eb6f468b17912a","null","null","<p style=""font-size: 60px; font-family: BACS"">GLluAYLU</p>","","","","","","","","",""
"html-keyboard-response","375","548711","0.0-16.0-0.43","5e9bd025eb6b380e1d66d04c","650c16f0f2faf8d7a0d14c09","651c352c38eb6f468b17912a","null","null","<p style=""font-size: 60px; font-family: BACS"">GLluAYLU</p>","","","","","","","","",""
"html-keyboard-response","376","549721","0.0-16.0-0.44","5e9bd025eb6b380e1d66d04c","650c16f0f2faf8d7a0d14c09","651c352c38eb6f468b17912a","null","null","<p style=""font-size: 60px; font-family: BACS"">GLluAYLU</p>","","","","","","","","",""
"html-keyboard-response","377","550730","0.0-16.0-0.45","5e9bd025eb6b380e1d66d04c","650c16f0f2faf8d7a0d14c09","651c352c38eb6f468b17912a","null","null","<p style=""font-size: 60px; font-family: BACS"">GLluAYLU</p>","","","","","","","","",""
"html-keyboard-response","378","551732","0.0-16.0-0.46","5e9bd025eb6b380e1d66d04c","650c16f0f2faf8d7a0d14c09","651c352c38eb6f468b17912a","null","null","<p style=""font-size: 60px; font-family: BACS"">GLluAYLU</p>","","","","","","","","",""
"html-keyboard-response","379","552737","0.0-16.0-0.47","5e9bd025eb6b380e1d66d04c","650c16f0f2faf8d7a0d14c09","651c352c38eb6f468b17912a","null","null","<p style=""font-size: 60px; font-family: BACS"">GLluAYLU</p>","","","","","","","","",""
"html-keyboard-response","380","553739","0.0-16.0-0.48","5e9bd025eb6b380e1d66d04c","650c16f0f2faf8d7a0d14c09","651c352c38eb6f468b17912a","null","null","<p style=""font-size: 60px; font-family: BACS"">GLluAYLU</p>","","","","","","","","",""
"html-keyboard-response","381","554745","0.0-16.0-0.49","5e9bd025eb6b380e1d66d04c","650c16f0f2faf8d7a0d14c09","651c352c38eb6f468b17912a","null","null","<p style=""font-size: 60px; font-family: BACS"">GLluAYLU</p>","","","","","","","","",""
"html-keyboard-response","382","555747","0.0-16.0-0.50","5e9bd025eb6b380e1d66d04c","650c16f0f2faf8d7a0d14c09","651c352c38eb6f468b17912a","null","null","<p style=""font-size: 60px; font-family: BACS"">GLluAYLU</p>","","","","","","","","",""
"html-keyboard-response","383","556749","0.0-16.0-0.51","5e9bd025eb6b380e1d66d04c","650c16f0f2faf8d7a0d14c09","651c352c38eb6f468b17912a","null","null","<p style=""font-size: 60px; font-family: BACS"">GLluAYLU</p>","","","","","","","","",""
"html-keyboard-response","384","557751","0.0-16.0-0.52","5e9bd025eb6b380e1d66d04c","650c16f0f2faf8d7a0d14c09","651c352c38eb6f468b17912a","null","null","<p style=""font-size: 60px; font-family: BACS"">GLluAYLU</p>","","","","","","","","",""
"html-keyboard-response","385","558763","0.0-16.0-0.53","5e9bd025eb6b380e1d66d04c","650c16f0f2faf8d7a0d14c09","651c352c38eb6f468b17912a","null","null","<p style=""font-size: 60px; font-family: BACS"">GLluAYLU</p>","","","","","","","","",""
"html-keyboard-response","386","559768","0.0-16.0-0.54","5e9bd025eb6b380e1d66d04c","650c16f0f2faf8d7a0d14c09","651c352c38eb6f468b17912a","null","null","<p style=""font-size: 60px; font-family: BACS"">GLluAYLU</p>","","","","","","","","",""
"html-keyboard-response","387","560771","0.0-16.0-0.55","5e9bd025eb6b380e1d66d04c","650c16f0f2faf8d7a0d14c09","651c352c38eb6f468b17912a","null","null","<p style=""font-size: 60px; font-family: BACS"">GLluAYLU</p>","","","","","","","","",""
"html-keyboard-response","388","561772","0.0-16.0-0.56","5e9bd025eb6b380e1d66d04c","650c16f0f2faf8d7a0d14c09","651c352c38eb6f468b17912a","null","null","<p style=""font-size: 60px; font-family: BACS"">GLluAYLU</p>","","","","","","","","",""
"html-keyboard-response","389","562780","0.0-16.0-0.57","5e9bd025eb6b380e1d66d04c","650c16f0f2faf8d7a0d14c09","651c352c38eb6f468b17912a","null","null","<p style=""font-size: 60px; font-family: BACS"">GLluAYLU</p>","","","","","","","","",""
"html-keyboard-response","390","563783","0.0-16.0-0.58","5e9bd025eb6b380e1d66d04c","650c16f0f2faf8d7a0d14c09","651c352c38eb6f468b17912a","null","null","<p style=""font-size: 60px; font-family: BACS"">GLluAYLU</p>","","","","","","","","",""
"html-keyboard-response","391","564791","0.0-16.0-0.59","5e9bd025eb6b380e1d66d04c","650c16f0f2faf8d7a0d14c09","651c352c38eb6f468b17912a","null","null","<p style=""font-size: 60px; font-family: BACS"">GLluAYLU</p>","","","","","","","","",""
"html-keyboard-response","392","565801","0.0-16.0-0.60","5e9bd025eb6b380e1d66d04c","650c16f0f2faf8d7a0d14c09","651c352c38eb6f468b17912a","null","null","<p style=""font-size: 60px; font-family: BACS"">GLluAYLU</p>","","","","","","","","",""
"html-keyboard-response","393","566808","0.0-16.0-0.61","5e9bd025eb6b380e1d66d04c","650c16f0f2faf8d7a0d14c09","651c352c38eb6f468b17912a","null","null","<p style=""font-size: 60px; font-family: BACS"">GLluAYLU</p>","","","","","","","","",""
"html-keyboard-response","394","567814","0.0-16.0-0.62","5e9bd025eb6b380e1d66d04c","650c16f0f2faf8d7a0d14c09","651c352c38eb6f468b17912a","null","null","<p style=""font-size: 60px; font-family: BACS"">GLluAYLU</p>","","","","","","","","",""
"html-keyboard-response","395","568819","0.0-16.0-0.63","5e9bd025eb6b380e1d66d04c","650c16f0f2faf8d7a0d14c09","651c352c38eb6f468b17912a","null","null","<p style=""font-size: 60px; font-family: BACS"">GLluAYLU</p>","","","","","","","","",""
"html-keyboard-response","396","569823","0.0-16.0-0.64","5e9bd025eb6b380e1d66d04c","650c16f0f2faf8d7a0d14c09","651c352c38eb6f468b17912a","null","null","<p style=""font-size: 60px; font-family: BACS"">GLluAYLU</p>","","","","","","","","",""
"html-keyboard-response","397","570829","0.0-16.0-0.65","5e9bd025eb6b380e1d66d04c","650c16f0f2faf8d7a0d14c09","651c352c38eb6f468b17912a","null","null","<p style=""font-size: 60px; font-family: BACS"">GLluAYLU</p>","","","","","","","","",""
"html-keyboard-response","398","571845","0.0-16.0-0.66","5e9bd025eb6b380e1d66d04c","650c16f0f2faf8d7a0d14c09","651c352c38eb6f468b17912a","null","null","<p style=""font-size: 60px; font-family: BACS"">GLluAYLU</p>","","","","","","","","",""
