"trial_type","trial_index","time_elapsed","internal_node_id","subject_id","study_id","session_id","rt","response","stimulus","success","item","task","correct_response","testing_condition","correct","target","confound","name"
"pavlovia","0","2195","0.0-0.0","606dc21c1ce7dc64af9d81fb","650c16f0f2faf8d7a0d14c09","651c1c94e74d43c0ae614d3d","","","","","","","","","","","",""
"survey-html-form","1","7039","0.0-1.0","606dc21c1ce7dc64af9d81fb","650c16f0f2faf8d7a0d14c09","651c1c94e74d43c0ae614d3d","4844","{""ID"":""606dc21c1ce7dc64af9d81fb""}","","","","","","","","","",""
"html-keyboard-response","2","51532","0.0-2.0","606dc21c1ce7dc64af9d81fb","650c16f0f2faf8d7a0d14c09","651c1c94e74d43c0ae614d3d","44492"," ","<p style=""font-size: 15px;"">Before beginning, we ask that you read the consent information and confirm your agreement to participate in the experiment.</p>
      <p style=""font-size: 15px;""> We ask that you remember that this is a research project and that your participation is entirely voluntary. You can stop your participation at any time, without needing to provide any explanation. The study we're asking you to participate in aims at examining how readers process written words. You will be engaged in a session of apprximately 20 minutes, followed by a brief questionnaire. You will have the opportunity to take a few breaks during the experiment. You will be paid £4 for your participation, corresponding to a rate of £8/hour. While this experiment looks at cognitive faculties, this experiment doesn't constitute clinical proof of eventual pathologies.</p>
      <p style=""font-size: 15px;"">All of the information collected thanks to yours and others' participation will be held in a secure password-protected server, and will not be shared with anyone not authorised to view it. Your personal information will be kept with an arbitrary participant ID. Thanks to this data anonymity process, any researcher analysing the data won't be able to track the information back to a specific participant. Therefore, this process will make identifying you impossibile, even when results from the study will be published in scientific reviews, presented at congresses, or at any other public forum. More generally, the collected data will be treated in accordance with the laws on privacy and conformity to the Legislative Degree n. 196 ""Code regarding the protection of personal data"" of the 30th of June 2003 and to the European Regulation 2016/670 (General Data Protection Regulation - GDPR). The Data Protection Officer is Avv. Valentina Carollo, who can be contacted at the following email addresses: <a href=""mailto:dpo@sissa.it"">dpo@sissa.it</a> or <a href=""mailto:rpd@sissa.it"">rpd@sissa.it</a> - PEC: <a href=""mailto:protocollo@pec.sissa.it"">protocollo@pec.sissa.it</a>.</p>
      <p style=""font-size: 15px;""> Before expressing your consent to participate, we would like to remind you again that in case you need explanations on any aspect of the experimental procedure, the researcher is at your disposition (<a href=""mailto:aliebelt@sissa.it"">aliebelt@sissa.it</a>, <a href=""mailto:davide.crepaldi@sissa.it"">davide.crepaldi@sissa.it</a>).</p>
      <p style=""font-size: 15px;"">If you would like to download the informed consent form, you can do so here: <a href=""BASL-Informed_Consent.pdf"" download>informed consent form</a>.</p>
      <p style=""font-size: 15px;"">We ask that you press the spacebar to proceed to the consent section.</p>","","","","","","","","",""
"survey-html-form","3","78012","0.0-3.0","606dc21c1ce7dc64af9d81fb","650c16f0f2faf8d7a0d14c09","651c1c94e74d43c0ae614d3d","26478","{""consent1"":""YES"",""consent2"":""YES"",""consent3"":""YES"",""consent4"":""YES"",""consent5"":""YES"",""consent6"":""YES""}","","","","","","","","","",""
"fullscreen","4","84802","0.0-4.0","606dc21c1ce7dc64af9d81fb","650c16f0f2faf8d7a0d14c09","651c1c94e74d43c0ae614d3d","","","","true","","","","","","","",""
"html-keyboard-response","5","97783","0.0-5.0","606dc21c1ce7dc64af9d81fb","650c16f0f2faf8d7a0d14c09","651c1c94e74d43c0ae614d3d","12981"," ","<p>Welcome, and thank you very much for your time!</p>
      <p>In this experiment, you'll be a language expert who's been asked to take a look at words that Earth has received in its first communication with aliens. Your task, in this first part of the experiment, is to pay close attention to the words you'll be shown; later, world leaders will ask you questions on what you saw. The words will be shown to you quite quickly; it seems that the aliens were in a hurry :-)</p>
      <p>Press the spacebar to continue.<p>","","","","","","","","",""
"html-keyboard-response","6","97837","0.0-6.0","606dc21c1ce7dc64af9d81fb","650c16f0f2faf8d7a0d14c09","651c1c94e74d43c0ae614d3d","null","null","<p style=""font-size: 120px; font-family: BACS""> </p>","","","","","","","","",""
"html-keyboard-response","7","108054","0.0-7.0","606dc21c1ce7dc64af9d81fb","650c16f0f2faf8d7a0d14c09","651c1c94e74d43c0ae614d3d","10217"," ","<p>Here is an example of the words you'll see:</p>
      <img src='esempio.png' height='400px'>
      <p>When you're ready to begin, press the spacebar.</p></div>","","","","","","","","",""
"html-keyboard-response","8","109061","0.0-8.0-0.0","606dc21c1ce7dc64af9d81fb","650c16f0f2faf8d7a0d14c09","651c1c94e74d43c0ae614d3d","null","null","<p style=""font-size: 60px; font-family: BACS"">JvaANac</p>","","","","","","","","",""
"html-keyboard-response","9","110067","0.0-8.0-0.1","606dc21c1ce7dc64af9d81fb","650c16f0f2faf8d7a0d14c09","651c1c94e74d43c0ae614d3d","null","null","<p style=""font-size: 60px; font-family: BACS"">kCRmEAO</p>","","","","","","","","",""
"html-keyboard-response","10","111072","0.0-8.0-0.2","606dc21c1ce7dc64af9d81fb","650c16f0f2faf8d7a0d14c09","651c1c94e74d43c0ae614d3d","null","null","<p style=""font-size: 60px; font-family: BACS"">NbacAJQA</p>","","","","","","","","",""
"html-keyboard-response","11","112087","0.0-8.0-0.3","606dc21c1ce7dc64af9d81fb","650c16f0f2faf8d7a0d14c09","651c1c94e74d43c0ae614d3d","null","null","<p style=""font-size: 60px; font-family: BACS"">kCRmRCdc</p>","","","","","","","","",""
"html-keyboard-response","12","113102","0.0-8.0-0.4","606dc21c1ce7dc64af9d81fb","650c16f0f2faf8d7a0d14c09","651c1c94e74d43c0ae614d3d","null","null","<p style=""font-size: 60px; font-family: BACS"">lkAkcbm</p>","","","","","","","","",""
"html-keyboard-response","13","114111","0.0-8.0-0.5","606dc21c1ce7dc64af9d81fb","650c16f0f2faf8d7a0d14c09","651c1c94e74d43c0ae614d3d","null","null","<p style=""font-size: 60px; font-family: BACS"">OCmkKmE</p>","","","","","","","","",""
"html-keyboard-response","14","115126","0.0-8.0-0.6","606dc21c1ce7dc64af9d81fb","650c16f0f2faf8d7a0d14c09","651c1c94e74d43c0ae614d3d","null","null","<p style=""font-size: 60px; font-family: BACS"">UYZlZLaA</p>","","","","","","","","",""
"html-keyboard-response","15","116127","0.0-8.0-0.7","606dc21c1ce7dc64af9d81fb","650c16f0f2faf8d7a0d14c09","651c1c94e74d43c0ae614d3d","null","null","<p style=""font-size: 60px; font-family: BACS"">RlAKcATc</p>","","","","","","","","",""
"html-keyboard-response","16","117132","0.0-8.0-0.8","606dc21c1ce7dc64af9d81fb","650c16f0f2faf8d7a0d14c09","651c1c94e74d43c0ae614d3d","null","null","<p style=""font-size: 60px; font-family: BACS"">NbacAcbm</p>","","","","","","","","",""
"html-keyboard-response","17","118135","0.0-8.0-0.9","606dc21c1ce7dc64af9d81fb","650c16f0f2faf8d7a0d14c09","651c1c94e74d43c0ae614d3d","null","null","<p style=""font-size: 60px; font-family: BACS"">TKDkKmE</p>","","","","","","","","",""
"html-keyboard-response","18","119137","0.0-8.0-0.10","606dc21c1ce7dc64af9d81fb","650c16f0f2faf8d7a0d14c09","651c1c94e74d43c0ae614d3d","null","null","<p style=""font-size: 60px; font-family: BACS"">DCmhEAO</p>","","","","","","","","",""
"html-keyboard-response","19","120147","0.0-8.0-0.11","606dc21c1ce7dc64af9d81fb","650c16f0f2faf8d7a0d14c09","651c1c94e74d43c0ae614d3d","null","null","<p style=""font-size: 60px; font-family: BACS"">UYZlZcbm</p>","","","","","","","","",""
"html-keyboard-response","20","121152","0.0-8.0-0.12","606dc21c1ce7dc64af9d81fb","650c16f0f2faf8d7a0d14c09","651c1c94e74d43c0ae614d3d","null","null","<p style=""font-size: 60px; font-family: BACS"">lkAkJUG</p>","","","","","","","","",""
"html-keyboard-response","21","122157","0.0-8.0-0.13","606dc21c1ce7dc64af9d81fb","650c16f0f2faf8d7a0d14c09","651c1c94e74d43c0ae614d3d","null","null","<p style=""font-size: 60px; font-family: BACS"">kCRmATc</p>","","","","","","","","",""
"html-keyboard-response","22","123162","0.0-8.0-0.14","606dc21c1ce7dc64af9d81fb","650c16f0f2faf8d7a0d14c09","651c1c94e74d43c0ae614d3d","null","null","<p style=""font-size: 60px; font-family: BACS"">tmtEMdEPD</p>","","","","","","","","",""
"html-keyboard-response","23","124166","0.0-8.0-0.15","606dc21c1ce7dc64af9d81fb","650c16f0f2faf8d7a0d14c09","651c1c94e74d43c0ae614d3d","null","null","<p style=""font-size: 60px; font-family: BACS"">bcbMATc</p>","","","","","","","","",""
"html-keyboard-response","24","125180","0.0-8.0-0.16","606dc21c1ce7dc64af9d81fb","650c16f0f2faf8d7a0d14c09","651c1c94e74d43c0ae614d3d","null","null","<p style=""font-size: 60px; font-family: BACS"">aYQmcbm</p>","","","","","","","","",""
"html-keyboard-response","25","126188","0.0-8.0-0.17","606dc21c1ce7dc64af9d81fb","650c16f0f2faf8d7a0d14c09","651c1c94e74d43c0ae614d3d","null","null","<p style=""font-size: 60px; font-family: BACS"">CtmbRCdc</p>","","","","","","","","",""
"html-keyboard-response","26","127190","0.0-8.0-0.18","606dc21c1ce7dc64af9d81fb","650c16f0f2faf8d7a0d14c09","651c1c94e74d43c0ae614d3d","null","null","<p style=""font-size: 60px; font-family: BACS"">JvaAcbm</p>","","","","","","","","",""
"html-keyboard-response","27","128202","0.0-8.0-0.19","606dc21c1ce7dc64af9d81fb","650c16f0f2faf8d7a0d14c09","651c1c94e74d43c0ae614d3d","null","null","<p style=""font-size: 60px; font-family: BACS"">bcbMRCdc</p>","","","","","","","","",""
"html-keyboard-response","28","129213","0.0-8.0-0.20","606dc21c1ce7dc64af9d81fb","650c16f0f2faf8d7a0d14c09","651c1c94e74d43c0ae614d3d","null","null","<p style=""font-size: 60px; font-family: BACS"">lYruaJUG</p>","","","","","","","","",""
"html-keyboard-response","29","130230","0.0-8.0-0.21","606dc21c1ce7dc64af9d81fb","650c16f0f2faf8d7a0d14c09","651c1c94e74d43c0ae614d3d","null","null","<p style=""font-size: 60px; font-family: BACS"">RlAKcEAO</p>","","","","","","","","",""
"html-keyboard-response","30","131243","0.0-8.0-0.22","606dc21c1ce7dc64af9d81fb","650c16f0f2faf8d7a0d14c09","651c1c94e74d43c0ae614d3d","null","null","<p style=""font-size: 60px; font-family: BACS"">NbacANac</p>","","","","","","","","",""
"html-keyboard-response","31","132243","0.0-8.0-0.23","606dc21c1ce7dc64af9d81fb","650c16f0f2faf8d7a0d14c09","651c1c94e74d43c0ae614d3d","null","null","<p style=""font-size: 60px; font-family: BACS"">UdumdLaA</p>","","","","","","","","",""
"html-keyboard-response","32","133257","0.0-8.0-0.24","606dc21c1ce7dc64af9d81fb","650c16f0f2faf8d7a0d14c09","651c1c94e74d43c0ae614d3d","null","null","<p style=""font-size: 60px; font-family: BACS"">CtmbdEPD</p>","","","","","","","","",""
"html-keyboard-response","33","134272","0.0-8.0-0.25","606dc21c1ce7dc64af9d81fb","650c16f0f2faf8d7a0d14c09","651c1c94e74d43c0ae614d3d","null","null","<p style=""font-size: 60px; font-family: BACS"">lYruaJQA</p>","","","","","","","","",""
"html-keyboard-response","34","135286","0.0-8.0-0.26","606dc21c1ce7dc64af9d81fb","650c16f0f2faf8d7a0d14c09","651c1c94e74d43c0ae614d3d","null","null","<p style=""font-size: 60px; font-family: BACS"">aYQmLaA</p>","","","","","","","","",""
"html-keyboard-response","35","136300","0.0-8.0-0.27","606dc21c1ce7dc64af9d81fb","650c16f0f2faf8d7a0d14c09","651c1c94e74d43c0ae614d3d","null","null","<p style=""font-size: 60px; font-family: BACS"">UYZlZJQA</p>","","","","","","","","",""
"html-keyboard-response","36","137302","0.0-8.0-0.28","606dc21c1ce7dc64af9d81fb","650c16f0f2faf8d7a0d14c09","651c1c94e74d43c0ae614d3d","null","null","<p style=""font-size: 60px; font-family: BACS"">CtmbEAO</p>","","","","","","","","",""
"html-keyboard-response","37","138314","0.0-8.0-0.29","606dc21c1ce7dc64af9d81fb","650c16f0f2faf8d7a0d14c09","651c1c94e74d43c0ae614d3d","null","null","<p style=""font-size: 60px; font-family: BACS"">lYruaNac</p>","","","","","","","","",""
"html-keyboard-response","38","139329","0.0-8.0-0.30","606dc21c1ce7dc64af9d81fb","650c16f0f2faf8d7a0d14c09","651c1c94e74d43c0ae614d3d","null","null","<p style=""font-size: 60px; font-family: BACS"">PDPhlKmE</p>","","","","","","","","",""
"html-keyboard-response","39","140342","0.0-8.0-0.31","606dc21c1ce7dc64af9d81fb","650c16f0f2faf8d7a0d14c09","651c1c94e74d43c0ae614d3d","null","null","<p style=""font-size: 60px; font-family: BACS"">Udumdcbm</p>","","","","","","","","",""
"html-keyboard-response","40","141352","0.0-8.0-0.32","606dc21c1ce7dc64af9d81fb","650c16f0f2faf8d7a0d14c09","651c1c94e74d43c0ae614d3d","null","null","<p style=""font-size: 60px; font-family: BACS"">advYOJUG</p>","","","","","","","","",""
"html-keyboard-response","41","142362","0.0-8.0-0.33","606dc21c1ce7dc64af9d81fb","650c16f0f2faf8d7a0d14c09","651c1c94e74d43c0ae614d3d","null","null","<p style=""font-size: 60px; font-family: BACS"">tmtEMEAO</p>","","","","","","","","",""
"html-keyboard-response","42","143376","0.0-8.0-0.34","606dc21c1ce7dc64af9d81fb","650c16f0f2faf8d7a0d14c09","651c1c94e74d43c0ae614d3d","null","null","<p style=""font-size: 60px; font-family: BACS"">GJGcZLaA</p>","","","","","","","","",""
"html-keyboard-response","43","144376","0.0-8.0-0.35","606dc21c1ce7dc64af9d81fb","650c16f0f2faf8d7a0d14c09","651c1c94e74d43c0ae614d3d","null","null","<p style=""font-size: 60px; font-family: BACS"">lkAkNac</p>","","","","","","","","",""
"html-keyboard-response","44","145385","0.0-8.0-0.36","606dc21c1ce7dc64af9d81fb","650c16f0f2faf8d7a0d14c09","651c1c94e74d43c0ae614d3d","null","null","<p style=""font-size: 60px; font-family: BACS"">DCmhdEPD</p>","","","","","","","","",""
"html-keyboard-response","45","146396","0.0-8.0-0.37","606dc21c1ce7dc64af9d81fb","650c16f0f2faf8d7a0d14c09","651c1c94e74d43c0ae614d3d","null","null","<p style=""font-size: 60px; font-family: BACS"">advYOcbm</p>","","","","","","","","",""
"html-keyboard-response","46","147410","0.0-8.0-0.38","606dc21c1ce7dc64af9d81fb","650c16f0f2faf8d7a0d14c09","651c1c94e74d43c0ae614d3d","null","null","<p style=""font-size: 60px; font-family: BACS"">laYmrNac</p>","","","","","","","","",""
"html-keyboard-response","47","148421","0.0-8.0-0.39","606dc21c1ce7dc64af9d81fb","650c16f0f2faf8d7a0d14c09","651c1c94e74d43c0ae614d3d","null","null","<p style=""font-size: 60px; font-family: BACS"">RlAKcRCdc</p>","","","","","","","","",""
"html-keyboard-response","48","149422","0.0-8.0-0.40","606dc21c1ce7dc64af9d81fb","650c16f0f2faf8d7a0d14c09","651c1c94e74d43c0ae614d3d","null","null","<p style=""font-size: 60px; font-family: BACS"">laYmrLaA</p>","","","","","","","","",""
"html-keyboard-response","49","150434","0.0-8.0-0.41","606dc21c1ce7dc64af9d81fb","650c16f0f2faf8d7a0d14c09","651c1c94e74d43c0ae614d3d","null","null","<p style=""font-size: 60px; font-family: BACS"">EdBbdEPD</p>","","","","","","","","",""
"html-keyboard-response","50","151443","0.0-8.0-0.42","606dc21c1ce7dc64af9d81fb","650c16f0f2faf8d7a0d14c09","651c1c94e74d43c0ae614d3d","null","null","<p style=""font-size: 60px; font-family: BACS"">lYruacbm</p>","","","","","","","","",""
"html-keyboard-response","51","152454","0.0-8.0-0.43","606dc21c1ce7dc64af9d81fb","650c16f0f2faf8d7a0d14c09","651c1c94e74d43c0ae614d3d","null","null","<p style=""font-size: 60px; font-family: BACS"">advYOLaA</p>","","","","","","","","",""
"html-keyboard-response","52","153467","0.0-8.0-0.44","606dc21c1ce7dc64af9d81fb","650c16f0f2faf8d7a0d14c09","651c1c94e74d43c0ae614d3d","null","null","<p style=""font-size: 60px; font-family: BACS"">OCmkEAO</p>","","","","","","","","",""
"html-keyboard-response","53","154478","0.0-8.0-0.45","606dc21c1ce7dc64af9d81fb","650c16f0f2faf8d7a0d14c09","651c1c94e74d43c0ae614d3d","null","null","<p style=""font-size: 60px; font-family: BACS"">DCmhKmE</p>","","","","","","","","",""
"html-keyboard-response","54","155487","0.0-8.0-0.46","606dc21c1ce7dc64af9d81fb","650c16f0f2faf8d7a0d14c09","651c1c94e74d43c0ae614d3d","null","null","<p style=""font-size: 60px; font-family: BACS"">CtmbATc</p>","","","","","","","","",""
"html-keyboard-response","55","156501","0.0-8.0-0.47","606dc21c1ce7dc64af9d81fb","650c16f0f2faf8d7a0d14c09","651c1c94e74d43c0ae614d3d","null","null","<p style=""font-size: 60px; font-family: BACS"">kCRmKmE</p>","","","","","","","","",""
"html-keyboard-response","56","157510","0.0-8.0-0.48","606dc21c1ce7dc64af9d81fb","650c16f0f2faf8d7a0d14c09","651c1c94e74d43c0ae614d3d","null","null","<p style=""font-size: 60px; font-family: BACS"">PDPhlRCdc</p>","","","","","","","","",""
"html-keyboard-response","57","158521","0.0-8.0-0.49","606dc21c1ce7dc64af9d81fb","650c16f0f2faf8d7a0d14c09","651c1c94e74d43c0ae614d3d","null","null","<p style=""font-size: 60px; font-family: BACS"">bcbMdEPD</p>","","","","","","","","",""
"html-keyboard-response","58","159531","0.0-8.0-0.50","606dc21c1ce7dc64af9d81fb","650c16f0f2faf8d7a0d14c09","651c1c94e74d43c0ae614d3d","null","null","<p style=""font-size: 60px; font-family: BACS"">OCmkRCdc</p>","","","","","","","","",""
"html-keyboard-response","59","160543","0.0-8.0-0.51","606dc21c1ce7dc64af9d81fb","650c16f0f2faf8d7a0d14c09","651c1c94e74d43c0ae614d3d","null","null","<p style=""font-size: 60px; font-family: BACS"">aYQmJQA</p>","","","","","","","","",""
"html-keyboard-response","60","161557","0.0-8.0-0.52","606dc21c1ce7dc64af9d81fb","650c16f0f2faf8d7a0d14c09","651c1c94e74d43c0ae614d3d","null","null","<p style=""font-size: 60px; font-family: BACS"">UdumdNac</p>","","","","","","","","",""
"html-keyboard-response","61","162567","0.0-8.0-0.53","606dc21c1ce7dc64af9d81fb","650c16f0f2faf8d7a0d14c09","651c1c94e74d43c0ae614d3d","null","null","<p style=""font-size: 60px; font-family: BACS"">GJGcZJUG</p>","","","","","","","","",""
"html-keyboard-response","62","163573","0.0-8.0-0.54","606dc21c1ce7dc64af9d81fb","650c16f0f2faf8d7a0d14c09","651c1c94e74d43c0ae614d3d","null","null","<p style=""font-size: 60px; font-family: BACS"">tmtEMATc</p>","","","","","","","","",""
"html-keyboard-response","63","164586","0.0-8.0-0.55","606dc21c1ce7dc64af9d81fb","650c16f0f2faf8d7a0d14c09","651c1c94e74d43c0ae614d3d","null","null","<p style=""font-size: 60px; font-family: BACS"">RlAKcKmE</p>","","","","","","","","",""
"html-keyboard-response","64","165598","0.0-8.0-0.56","606dc21c1ce7dc64af9d81fb","650c16f0f2faf8d7a0d14c09","651c1c94e74d43c0ae614d3d","null","null","<p style=""font-size: 60px; font-family: BACS"">EdBbATc</p>","","","","","","","","",""
"html-keyboard-response","65","166611","0.0-8.0-0.57","606dc21c1ce7dc64af9d81fb","650c16f0f2faf8d7a0d14c09","651c1c94e74d43c0ae614d3d","null","null","<p style=""font-size: 60px; font-family: BACS"">OCmkdEPD</p>","","","","","","","","",""
"html-keyboard-response","66","167617","0.0-8.0-0.58","606dc21c1ce7dc64af9d81fb","650c16f0f2faf8d7a0d14c09","651c1c94e74d43c0ae614d3d","null","null","<p style=""font-size: 60px; font-family: BACS"">GJGcZJQA</p>","","","","","","","","",""
"html-keyboard-response","67","168627","0.0-8.0-0.59","606dc21c1ce7dc64af9d81fb","650c16f0f2faf8d7a0d14c09","651c1c94e74d43c0ae614d3d","null","null","<p style=""font-size: 60px; font-family: BACS"">TKDkEAO</p>","","","","","","","","",""
"html-keyboard-response","68","169642","0.0-8.0-0.60","606dc21c1ce7dc64af9d81fb","650c16f0f2faf8d7a0d14c09","651c1c94e74d43c0ae614d3d","null","null","<p style=""font-size: 60px; font-family: BACS"">JvaALaA</p>","","","","","","","","",""
"html-keyboard-response","69","170658","0.0-8.0-0.61","606dc21c1ce7dc64af9d81fb","650c16f0f2faf8d7a0d14c09","651c1c94e74d43c0ae614d3d","null","null","<p style=""font-size: 60px; font-family: BACS"">GJGcZNac</p>","","","","","","","","",""
"html-keyboard-response","70","171662","0.0-8.0-0.62","606dc21c1ce7dc64af9d81fb","650c16f0f2faf8d7a0d14c09","651c1c94e74d43c0ae614d3d","null","null","<p style=""font-size: 60px; font-family: BACS"">lkAkLaA</p>","","","","","","","","",""
"html-keyboard-response","71","172676","0.0-8.0-0.63","606dc21c1ce7dc64af9d81fb","650c16f0f2faf8d7a0d14c09","651c1c94e74d43c0ae614d3d","null","null","<p style=""font-size: 60px; font-family: BACS"">laYmrJUG</p>","","","","","","","","",""
"html-keyboard-response","72","173684","0.0-8.0-0.64","606dc21c1ce7dc64af9d81fb","650c16f0f2faf8d7a0d14c09","651c1c94e74d43c0ae614d3d","null","null","<p style=""font-size: 60px; font-family: BACS"">JvaAJQA</p>","","","","","","","","",""
"html-keyboard-response","73","174696","0.0-8.0-0.65","606dc21c1ce7dc64af9d81fb","650c16f0f2faf8d7a0d14c09","651c1c94e74d43c0ae614d3d","null","null","<p style=""font-size: 60px; font-family: BACS"">UdumdJUG</p>","","","","","","","","",""
"html-keyboard-response","74","175707","0.0-8.0-0.66","606dc21c1ce7dc64af9d81fb","650c16f0f2faf8d7a0d14c09","651c1c94e74d43c0ae614d3d","null","null","<p style=""font-size: 60px; font-family: BACS"">EdBbKmE</p>","","","","","","","","",""
"html-keyboard-response","75","176721","0.0-8.0-0.67","606dc21c1ce7dc64af9d81fb","650c16f0f2faf8d7a0d14c09","651c1c94e74d43c0ae614d3d","null","null","<p style=""font-size: 60px; font-family: BACS"">PDPhlEAO</p>","","","","","","","","",""
"html-keyboard-response","76","177730","0.0-8.0-0.68","606dc21c1ce7dc64af9d81fb","650c16f0f2faf8d7a0d14c09","651c1c94e74d43c0ae614d3d","null","null","<p style=""font-size: 60px; font-family: BACS"">TKDkATc</p>","","","","","","","","",""
"html-keyboard-response","77","178733","0.0-8.0-0.69","606dc21c1ce7dc64af9d81fb","650c16f0f2faf8d7a0d14c09","651c1c94e74d43c0ae614d3d","null","null","<p style=""font-size: 60px; font-family: BACS"">tmtEMRCdc</p>","","","","","","","","",""
"html-keyboard-response","78","179736","0.0-8.0-0.70","606dc21c1ce7dc64af9d81fb","650c16f0f2faf8d7a0d14c09","651c1c94e74d43c0ae614d3d","null","null","<p style=""font-size: 60px; font-family: BACS"">UYZlZNac</p>","","","","","","","","",""
"html-keyboard-response","79","180756","0.0-8.0-0.71","606dc21c1ce7dc64af9d81fb","650c16f0f2faf8d7a0d14c09","651c1c94e74d43c0ae614d3d","null","null","<p style=""font-size: 60px; font-family: BACS"">advYOJQA</p>","","","","","","","","",""
"html-keyboard-response","80","181769","0.0-8.0-0.72","606dc21c1ce7dc64af9d81fb","650c16f0f2faf8d7a0d14c09","651c1c94e74d43c0ae614d3d","null","null","<p style=""font-size: 60px; font-family: BACS"">aYQmJUG</p>","","","","","","","","",""
"html-keyboard-response","81","182772","0.0-8.0-0.73","606dc21c1ce7dc64af9d81fb","650c16f0f2faf8d7a0d14c09","651c1c94e74d43c0ae614d3d","null","null","<p style=""font-size: 60px; font-family: BACS"">DCmhATc</p>","","","","","","","","",""
"html-keyboard-response","82","183777","0.0-8.0-0.74","606dc21c1ce7dc64af9d81fb","650c16f0f2faf8d7a0d14c09","651c1c94e74d43c0ae614d3d","null","null","<p style=""font-size: 60px; font-family: BACS"">TKDkdEPD</p>","","","","","","","","",""
"html-keyboard-response","83","184781","0.0-8.0-0.75","606dc21c1ce7dc64af9d81fb","650c16f0f2faf8d7a0d14c09","651c1c94e74d43c0ae614d3d","null","null","<p style=""font-size: 60px; font-family: BACS"">NbacAJUG</p>","","","","","","","","",""
"html-keyboard-response","84","185797","0.0-8.0-0.76","606dc21c1ce7dc64af9d81fb","650c16f0f2faf8d7a0d14c09","651c1c94e74d43c0ae614d3d","null","null","<p style=""font-size: 60px; font-family: BACS"">PDPhldEPD</p>","","","","","","","","",""
"html-keyboard-response","85","186809","0.0-8.0-0.77","606dc21c1ce7dc64af9d81fb","650c16f0f2faf8d7a0d14c09","651c1c94e74d43c0ae614d3d","null","null","<p style=""font-size: 60px; font-family: BACS"">bcbMKmE</p>","","","","","","","","",""
"html-keyboard-response","86","187821","0.0-8.0-0.78","606dc21c1ce7dc64af9d81fb","650c16f0f2faf8d7a0d14c09","651c1c94e74d43c0ae614d3d","null","null","<p style=""font-size: 60px; font-family: BACS"">EdBbRCdc</p>","","","","","","","","",""
"html-keyboard-response","87","188832","0.0-8.0-0.79","606dc21c1ce7dc64af9d81fb","650c16f0f2faf8d7a0d14c09","651c1c94e74d43c0ae614d3d","null","null","<p style=""font-size: 60px; font-family: BACS"">laYmrJQA</p>","","","","","","","","",""
"html-keyboard-response","88","244107","0.0-9.0","606dc21c1ce7dc64af9d81fb","650c16f0f2faf8d7a0d14c09","651c1c94e74d43c0ae614d3d","55274"," ","<p>Great, you've seen the first block of words. You may now take a short break.</p>
      <p>Press the spacebar when you're ready to continue.</p>","","","","","","","","",""
"html-keyboard-response","89","245117","0.0-10.0-0.0","606dc21c1ce7dc64af9d81fb","650c16f0f2faf8d7a0d14c09","651c1c94e74d43c0ae614d3d","null","null","<p style=""font-size: 60px; font-family: BACS"">RlAKcKmE</p>","","","","","","","","",""
"html-keyboard-response","90","246122","0.0-10.0-0.1","606dc21c1ce7dc64af9d81fb","650c16f0f2faf8d7a0d14c09","651c1c94e74d43c0ae614d3d","null","null","<p style=""font-size: 60px; font-family: BACS"">UYZlZJQA</p>","","","","","","","","",""
"html-keyboard-response","91","247137","0.0-10.0-0.2","606dc21c1ce7dc64af9d81fb","650c16f0f2faf8d7a0d14c09","651c1c94e74d43c0ae614d3d","null","null","<p style=""font-size: 60px; font-family: BACS"">OCmkEAO</p>","","","","","","","","",""
"html-keyboard-response","92","248152","0.0-10.0-0.3","606dc21c1ce7dc64af9d81fb","650c16f0f2faf8d7a0d14c09","651c1c94e74d43c0ae614d3d","null","null","<p style=""font-size: 60px; font-family: BACS"">DCmhATc</p>","","","","","","","","",""
"html-keyboard-response","93","249163","0.0-10.0-0.4","606dc21c1ce7dc64af9d81fb","650c16f0f2faf8d7a0d14c09","651c1c94e74d43c0ae614d3d","null","null","<p style=""font-size: 60px; font-family: BACS"">EdBbRCdc</p>","","","","","","","","",""
"html-keyboard-response","94","250177","0.0-10.0-0.5","606dc21c1ce7dc64af9d81fb","650c16f0f2faf8d7a0d14c09","651c1c94e74d43c0ae614d3d","null","null","<p style=""font-size: 60px; font-family: BACS"">NbacAcbm</p>","","","","","","","","",""
"html-keyboard-response","95","251187","0.0-10.0-0.6","606dc21c1ce7dc64af9d81fb","650c16f0f2faf8d7a0d14c09","651c1c94e74d43c0ae614d3d","null","null","<p style=""font-size: 60px; font-family: BACS"">UdumdNac</p>","","","","","","","","",""
"html-keyboard-response","96","252198","0.0-10.0-0.7","606dc21c1ce7dc64af9d81fb","650c16f0f2faf8d7a0d14c09","651c1c94e74d43c0ae614d3d","null","null","<p style=""font-size: 60px; font-family: BACS"">kCRmKmE</p>","","","","","","","","",""
"html-keyboard-response","97","253202","0.0-10.0-0.8","606dc21c1ce7dc64af9d81fb","650c16f0f2faf8d7a0d14c09","651c1c94e74d43c0ae614d3d","null","null","<p style=""font-size: 60px; font-family: BACS"">UYZlZLaA</p>","","","","","","","","",""
"html-keyboard-response","98","254212","0.0-10.0-0.9","606dc21c1ce7dc64af9d81fb","650c16f0f2faf8d7a0d14c09","651c1c94e74d43c0ae614d3d","null","null","<p style=""font-size: 60px; font-family: BACS"">JvaANac</p>","","","","","","","","",""
"html-keyboard-response","99","255222","0.0-10.0-0.10","606dc21c1ce7dc64af9d81fb","650c16f0f2faf8d7a0d14c09","651c1c94e74d43c0ae614d3d","null","null","<p style=""font-size: 60px; font-family: BACS"">kCRmATc</p>","","","","","","","","",""
"html-keyboard-response","100","256228","0.0-10.0-0.11","606dc21c1ce7dc64af9d81fb","650c16f0f2faf8d7a0d14c09","651c1c94e74d43c0ae614d3d","null","null","<p style=""font-size: 60px; font-family: BACS"">NbacAJUG</p>","","","","","","","","",""
"html-keyboard-response","101","257237","0.0-10.0-0.12","606dc21c1ce7dc64af9d81fb","650c16f0f2faf8d7a0d14c09","651c1c94e74d43c0ae614d3d","null","null","<p style=""font-size: 60px; font-family: BACS"">CtmbATc</p>","","","","","","","","",""
"html-keyboard-response","102","258247","0.0-10.0-0.13","606dc21c1ce7dc64af9d81fb","650c16f0f2faf8d7a0d14c09","651c1c94e74d43c0ae614d3d","null","null","<p style=""font-size: 60px; font-family: BACS"">RlAKcEAO</p>","","","","","","","","",""
"html-keyboard-response","103","259257","0.0-10.0-0.14","606dc21c1ce7dc64af9d81fb","650c16f0f2faf8d7a0d14c09","651c1c94e74d43c0ae614d3d","null","null","<p style=""font-size: 60px; font-family: BACS"">UdumdLaA</p>","","","","","","","","",""
"html-keyboard-response","104","260272","0.0-10.0-0.15","606dc21c1ce7dc64af9d81fb","650c16f0f2faf8d7a0d14c09","651c1c94e74d43c0ae614d3d","null","null","<p style=""font-size: 60px; font-family: BACS"">aYQmJUG</p>","","","","","","","","",""
"html-keyboard-response","105","261282","0.0-10.0-0.16","606dc21c1ce7dc64af9d81fb","650c16f0f2faf8d7a0d14c09","651c1c94e74d43c0ae614d3d","null","null","<p style=""font-size: 60px; font-family: BACS"">DCmhEAO</p>","","","","","","","","",""
"html-keyboard-response","106","262298","0.0-10.0-0.17","606dc21c1ce7dc64af9d81fb","650c16f0f2faf8d7a0d14c09","651c1c94e74d43c0ae614d3d","null","null","<p style=""font-size: 60px; font-family: BACS"">aYQmLaA</p>","","","","","","","","",""
"html-keyboard-response","107","263301","0.0-10.0-0.18","606dc21c1ce7dc64af9d81fb","650c16f0f2faf8d7a0d14c09","651c1c94e74d43c0ae614d3d","null","null","<p style=""font-size: 60px; font-family: BACS"">EdBbATc</p>","","","","","","","","",""
"html-keyboard-response","108","264310","0.0-10.0-0.19","606dc21c1ce7dc64af9d81fb","650c16f0f2faf8d7a0d14c09","651c1c94e74d43c0ae614d3d","null","null","<p style=""font-size: 60px; font-family: BACS"">TKDkdEPD</p>","","","","","","","","",""
"html-keyboard-response","109","265322","0.0-10.0-0.20","606dc21c1ce7dc64af9d81fb","650c16f0f2faf8d7a0d14c09","651c1c94e74d43c0ae614d3d","null","null","<p style=""font-size: 60px; font-family: BACS"">lkAkcbm</p>","","","","","","","","",""
"html-keyboard-response","110","266337","0.0-10.0-0.21","606dc21c1ce7dc64af9d81fb","650c16f0f2faf8d7a0d14c09","651c1c94e74d43c0ae614d3d","null","null","<p style=""font-size: 60px; font-family: BACS"">laYmrJUG</p>","","","","","","","","",""
"html-keyboard-response","111","267347","0.0-10.0-0.22","606dc21c1ce7dc64af9d81fb","650c16f0f2faf8d7a0d14c09","651c1c94e74d43c0ae614d3d","null","null","<p style=""font-size: 60px; font-family: BACS"">PDPhldEPD</p>","","","","","","","","",""
"html-keyboard-response","112","268359","0.0-10.0-0.23","606dc21c1ce7dc64af9d81fb","650c16f0f2faf8d7a0d14c09","651c1c94e74d43c0ae614d3d","null","null","<p style=""font-size: 60px; font-family: BACS"">TKDkKmE</p>","","","","","","","","",""
"html-keyboard-response","113","269374","0.0-10.0-0.24","606dc21c1ce7dc64af9d81fb","650c16f0f2faf8d7a0d14c09","651c1c94e74d43c0ae614d3d","null","null","<p style=""font-size: 60px; font-family: BACS"">lYruacbm</p>","","","","","","","","",""
"html-keyboard-response","114","270388","0.0-10.0-0.25","606dc21c1ce7dc64af9d81fb","650c16f0f2faf8d7a0d14c09","651c1c94e74d43c0ae614d3d","null","null","<p style=""font-size: 60px; font-family: BACS"">tmtEMRCdc</p>","","","","","","","","",""
"html-keyboard-response","115","271399","0.0-10.0-0.26","606dc21c1ce7dc64af9d81fb","650c16f0f2faf8d7a0d14c09","651c1c94e74d43c0ae614d3d","null","null","<p style=""font-size: 60px; font-family: BACS"">lYruaJUG</p>","","","","","","","","",""
"html-keyboard-response","116","272410","0.0-10.0-0.27","606dc21c1ce7dc64af9d81fb","650c16f0f2faf8d7a0d14c09","651c1c94e74d43c0ae614d3d","null","null","<p style=""font-size: 60px; font-family: BACS"">PDPhlRCdc</p>","","","","","","","","",""
"html-keyboard-response","117","273423","0.0-10.0-0.28","606dc21c1ce7dc64af9d81fb","650c16f0f2faf8d7a0d14c09","651c1c94e74d43c0ae614d3d","null","null","<p style=""font-size: 60px; font-family: BACS"">laYmrJQA</p>","","","","","","","","",""
"html-keyboard-response","118","274437","0.0-10.0-0.29","606dc21c1ce7dc64af9d81fb","650c16f0f2faf8d7a0d14c09","651c1c94e74d43c0ae614d3d","null","null","<p style=""font-size: 60px; font-family: BACS"">TKDkEAO</p>","","","","","","","","",""
"html-keyboard-response","119","275452","0.0-10.0-0.30","606dc21c1ce7dc64af9d81fb","650c16f0f2faf8d7a0d14c09","651c1c94e74d43c0ae614d3d","null","null","<p style=""font-size: 60px; font-family: BACS"">bcbMRCdc</p>","","","","","","","","",""
"html-keyboard-response","120","276453","0.0-10.0-0.31","606dc21c1ce7dc64af9d81fb","650c16f0f2faf8d7a0d14c09","651c1c94e74d43c0ae614d3d","null","null","<p style=""font-size: 60px; font-family: BACS"">tmtEMATc</p>","","","","","","","","",""
"html-keyboard-response","121","277468","0.0-10.0-0.32","606dc21c1ce7dc64af9d81fb","650c16f0f2faf8d7a0d14c09","651c1c94e74d43c0ae614d3d","null","null","<p style=""font-size: 60px; font-family: BACS"">lkAkJUG</p>","","","","","","","","",""
"html-keyboard-response","122","278480","0.0-10.0-0.33","606dc21c1ce7dc64af9d81fb","650c16f0f2faf8d7a0d14c09","651c1c94e74d43c0ae614d3d","null","null","<p style=""font-size: 60px; font-family: BACS"">NbacAJQA</p>","","","","","","","","",""
"html-keyboard-response","123","279494","0.0-10.0-0.34","606dc21c1ce7dc64af9d81fb","650c16f0f2faf8d7a0d14c09","651c1c94e74d43c0ae614d3d","null","null","<p style=""font-size: 60px; font-family: BACS"">advYOLaA</p>","","","","","","","","",""
"html-keyboard-response","124","280508","0.0-10.0-0.35","606dc21c1ce7dc64af9d81fb","650c16f0f2faf8d7a0d14c09","651c1c94e74d43c0ae614d3d","null","null","<p style=""font-size: 60px; font-family: BACS"">UYZlZcbm</p>","","","","","","","","",""
"html-keyboard-response","125","281518","0.0-10.0-0.36","606dc21c1ce7dc64af9d81fb","650c16f0f2faf8d7a0d14c09","651c1c94e74d43c0ae614d3d","null","null","<p style=""font-size: 60px; font-family: BACS"">GJGcZNac</p>","","","","","","","","",""
"html-keyboard-response","126","282535","0.0-10.0-0.37","606dc21c1ce7dc64af9d81fb","650c16f0f2faf8d7a0d14c09","651c1c94e74d43c0ae614d3d","null","null","<p style=""font-size: 60px; font-family: BACS"">CtmbdEPD</p>","","","","","","","","",""
"html-keyboard-response","127","283538","0.0-10.0-0.38","606dc21c1ce7dc64af9d81fb","650c16f0f2faf8d7a0d14c09","651c1c94e74d43c0ae614d3d","null","null","<p style=""font-size: 60px; font-family: BACS"">GJGcZJQA</p>","","","","","","","","",""
"html-keyboard-response","128","284552","0.0-10.0-0.39","606dc21c1ce7dc64af9d81fb","650c16f0f2faf8d7a0d14c09","651c1c94e74d43c0ae614d3d","null","null","<p style=""font-size: 60px; font-family: BACS"">bcbMKmE</p>","","","","","","","","",""
"html-keyboard-response","129","285566","0.0-10.0-0.40","606dc21c1ce7dc64af9d81fb","650c16f0f2faf8d7a0d14c09","651c1c94e74d43c0ae614d3d","null","null","<p style=""font-size: 60px; font-family: BACS"">lkAkLaA</p>","","","","","","","","",""
"html-keyboard-response","130","286578","0.0-10.0-0.41","606dc21c1ce7dc64af9d81fb","650c16f0f2faf8d7a0d14c09","651c1c94e74d43c0ae614d3d","null","null","<p style=""font-size: 60px; font-family: BACS"">advYOJUG</p>","","","","","","","","",""
"html-keyboard-response","131","287592","0.0-10.0-0.42","606dc21c1ce7dc64af9d81fb","650c16f0f2faf8d7a0d14c09","651c1c94e74d43c0ae614d3d","null","null","<p style=""font-size: 60px; font-family: BACS"">RlAKcRCdc</p>","","","","","","","","",""
"html-keyboard-response","132","288597","0.0-10.0-0.43","606dc21c1ce7dc64af9d81fb","650c16f0f2faf8d7a0d14c09","651c1c94e74d43c0ae614d3d","null","null","<p style=""font-size: 60px; font-family: BACS"">EdBbKmE</p>","","","","","","","","",""
"html-keyboard-response","133","289613","0.0-10.0-0.44","606dc21c1ce7dc64af9d81fb","650c16f0f2faf8d7a0d14c09","651c1c94e74d43c0ae614d3d","null","null","<p style=""font-size: 60px; font-family: BACS"">NbacANac</p>","","","","","","","","",""
"html-keyboard-response","134","290614","0.0-10.0-0.45","606dc21c1ce7dc64af9d81fb","650c16f0f2faf8d7a0d14c09","651c1c94e74d43c0ae614d3d","null","null","<p style=""font-size: 60px; font-family: BACS"">OCmkdEPD</p>","","","","","","","","",""
"html-keyboard-response","135","291618","0.0-10.0-0.46","606dc21c1ce7dc64af9d81fb","650c16f0f2faf8d7a0d14c09","651c1c94e74d43c0ae614d3d","null","null","<p style=""font-size: 60px; font-family: BACS"">aYQmcbm</p>","","","","","","","","",""
"html-keyboard-response","136","292622","0.0-10.0-0.47","606dc21c1ce7dc64af9d81fb","650c16f0f2faf8d7a0d14c09","651c1c94e74d43c0ae614d3d","null","null","<p style=""font-size: 60px; font-family: BACS"">TKDkATc</p>","","","","","","","","",""
"html-keyboard-response","137","293637","0.0-10.0-0.48","606dc21c1ce7dc64af9d81fb","650c16f0f2faf8d7a0d14c09","651c1c94e74d43c0ae614d3d","null","null","<p style=""font-size: 60px; font-family: BACS"">GJGcZJUG</p>","","","","","","","","",""
"html-keyboard-response","138","294642","0.0-10.0-0.49","606dc21c1ce7dc64af9d81fb","650c16f0f2faf8d7a0d14c09","651c1c94e74d43c0ae614d3d","null","null","<p style=""font-size: 60px; font-family: BACS"">RlAKcATc</p>","","","","","","","","",""
"html-keyboard-response","139","295657","0.0-10.0-0.50","606dc21c1ce7dc64af9d81fb","650c16f0f2faf8d7a0d14c09","651c1c94e74d43c0ae614d3d","null","null","<p style=""font-size: 60px; font-family: BACS"">advYOcbm</p>","","","","","","","","",""
"html-keyboard-response","140","296665","0.0-10.0-0.51","606dc21c1ce7dc64af9d81fb","650c16f0f2faf8d7a0d14c09","651c1c94e74d43c0ae614d3d","null","null","<p style=""font-size: 60px; font-family: BACS"">UdumdJUG</p>","","","","","","","","",""
"html-keyboard-response","141","297678","0.0-10.0-0.52","606dc21c1ce7dc64af9d81fb","650c16f0f2faf8d7a0d14c09","651c1c94e74d43c0ae614d3d","null","null","<p style=""font-size: 60px; font-family: BACS"">lYruaJQA</p>","","","","","","","","",""
"html-keyboard-response","142","298692","0.0-10.0-0.53","606dc21c1ce7dc64af9d81fb","650c16f0f2faf8d7a0d14c09","651c1c94e74d43c0ae614d3d","null","null","<p style=""font-size: 60px; font-family: BACS"">JvaAcbm</p>","","","","","","","","",""
"html-keyboard-response","143","299703","0.0-10.0-0.54","606dc21c1ce7dc64af9d81fb","650c16f0f2faf8d7a0d14c09","651c1c94e74d43c0ae614d3d","null","null","<p style=""font-size: 60px; font-family: BACS"">kCRmEAO</p>","","","","","","","","",""
"html-keyboard-response","144","300703","0.0-10.0-0.55","606dc21c1ce7dc64af9d81fb","650c16f0f2faf8d7a0d14c09","651c1c94e74d43c0ae614d3d","null","null","<p style=""font-size: 60px; font-family: BACS"">PDPhlKmE</p>","","","","","","","","",""
"html-keyboard-response","145","301709","0.0-10.0-0.56","606dc21c1ce7dc64af9d81fb","650c16f0f2faf8d7a0d14c09","651c1c94e74d43c0ae614d3d","null","null","<p style=""font-size: 60px; font-family: BACS"">laYmrNac</p>","","","","","","","","",""
"html-keyboard-response","146","302721","0.0-10.0-0.57","606dc21c1ce7dc64af9d81fb","650c16f0f2faf8d7a0d14c09","651c1c94e74d43c0ae614d3d","null","null","<p style=""font-size: 60px; font-family: BACS"">Udumdcbm</p>","","","","","","","","",""
"html-keyboard-response","147","303727","0.0-10.0-0.58","606dc21c1ce7dc64af9d81fb","650c16f0f2faf8d7a0d14c09","651c1c94e74d43c0ae614d3d","null","null","<p style=""font-size: 60px; font-family: BACS"">OCmkKmE</p>","","","","","","","","",""
"html-keyboard-response","148","304741","0.0-10.0-0.59","606dc21c1ce7dc64af9d81fb","650c16f0f2faf8d7a0d14c09","651c1c94e74d43c0ae614d3d","null","null","<p style=""font-size: 60px; font-family: BACS"">aYQmJQA</p>","","","","","","","","",""
"html-keyboard-response","149","305758","0.0-10.0-0.60","606dc21c1ce7dc64af9d81fb","650c16f0f2faf8d7a0d14c09","651c1c94e74d43c0ae614d3d","null","null","<p style=""font-size: 60px; font-family: BACS"">bcbMATc</p>","","","","","","","","",""
"html-keyboard-response","150","306760","0.0-10.0-0.61","606dc21c1ce7dc64af9d81fb","650c16f0f2faf8d7a0d14c09","651c1c94e74d43c0ae614d3d","null","null","<p style=""font-size: 60px; font-family: BACS"">advYOJQA</p>","","","","","","","","",""
"html-keyboard-response","151","307773","0.0-10.0-0.62","606dc21c1ce7dc64af9d81fb","650c16f0f2faf8d7a0d14c09","651c1c94e74d43c0ae614d3d","null","null","<p style=""font-size: 60px; font-family: BACS"">lYruaNac</p>","","","","","","","","",""
"html-keyboard-response","152","308776","0.0-10.0-0.63","606dc21c1ce7dc64af9d81fb","650c16f0f2faf8d7a0d14c09","651c1c94e74d43c0ae614d3d","null","null","<p style=""font-size: 60px; font-family: BACS"">tmtEMEAO</p>","","","","","","","","",""
"html-keyboard-response","153","309779","0.0-10.0-0.64","606dc21c1ce7dc64af9d81fb","650c16f0f2faf8d7a0d14c09","651c1c94e74d43c0ae614d3d","null","null","<p style=""font-size: 60px; font-family: BACS"">GJGcZLaA</p>","","","","","","","","",""
"html-keyboard-response","154","310783","0.0-10.0-0.65","606dc21c1ce7dc64af9d81fb","650c16f0f2faf8d7a0d14c09","651c1c94e74d43c0ae614d3d","null","null","<p style=""font-size: 60px; font-family: BACS"">DCmhdEPD</p>","","","","","","","","",""
"html-keyboard-response","155","311791","0.0-10.0-0.66","606dc21c1ce7dc64af9d81fb","650c16f0f2faf8d7a0d14c09","651c1c94e74d43c0ae614d3d","null","null","<p style=""font-size: 60px; font-family: BACS"">PDPhlEAO</p>","","","","","","","","",""
"html-keyboard-response","156","312802","0.0-10.0-0.67","606dc21c1ce7dc64af9d81fb","650c16f0f2faf8d7a0d14c09","651c1c94e74d43c0ae614d3d","null","null","<p style=""font-size: 60px; font-family: BACS"">OCmkRCdc</p>","","","","","","","","",""
"html-keyboard-response","157","313817","0.0-10.0-0.68","606dc21c1ce7dc64af9d81fb","650c16f0f2faf8d7a0d14c09","651c1c94e74d43c0ae614d3d","null","null","<p style=""font-size: 60px; font-family: BACS"">CtmbEAO</p>","","","","","","","","",""
"html-keyboard-response","158","314822","0.0-10.0-0.69","606dc21c1ce7dc64af9d81fb","650c16f0f2faf8d7a0d14c09","651c1c94e74d43c0ae614d3d","null","null","<p style=""font-size: 60px; font-family: BACS"">kCRmRCdc</p>","","","","","","","","",""
"html-keyboard-response","159","315831","0.0-10.0-0.70","606dc21c1ce7dc64af9d81fb","650c16f0f2faf8d7a0d14c09","651c1c94e74d43c0ae614d3d","null","null","<p style=""font-size: 60px; font-family: BACS"">lkAkNac</p>","","","","","","","","",""
"html-keyboard-response","160","316842","0.0-10.0-0.71","606dc21c1ce7dc64af9d81fb","650c16f0f2faf8d7a0d14c09","651c1c94e74d43c0ae614d3d","null","null","<p style=""font-size: 60px; font-family: BACS"">EdBbdEPD</p>","","","","","","","","",""
"html-keyboard-response","161","317847","0.0-10.0-0.72","606dc21c1ce7dc64af9d81fb","650c16f0f2faf8d7a0d14c09","651c1c94e74d43c0ae614d3d","null","null","<p style=""font-size: 60px; font-family: BACS"">JvaAJQA</p>","","","","","","","","",""
"html-keyboard-response","162","318864","0.0-10.0-0.73","606dc21c1ce7dc64af9d81fb","650c16f0f2faf8d7a0d14c09","651c1c94e74d43c0ae614d3d","null","null","<p style=""font-size: 60px; font-family: BACS"">UYZlZNac</p>","","","","","","","","",""
"html-keyboard-response","163","319867","0.0-10.0-0.74","606dc21c1ce7dc64af9d81fb","650c16f0f2faf8d7a0d14c09","651c1c94e74d43c0ae614d3d","null","null","<p style=""font-size: 60px; font-family: BACS"">bcbMdEPD</p>","","","","","","","","",""
"html-keyboard-response","164","320877","0.0-10.0-0.75","606dc21c1ce7dc64af9d81fb","650c16f0f2faf8d7a0d14c09","651c1c94e74d43c0ae614d3d","null","null","<p style=""font-size: 60px; font-family: BACS"">CtmbRCdc</p>","","","","","","","","",""
"html-keyboard-response","165","321892","0.0-10.0-0.76","606dc21c1ce7dc64af9d81fb","650c16f0f2faf8d7a0d14c09","651c1c94e74d43c0ae614d3d","null","null","<p style=""font-size: 60px; font-family: BACS"">laYmrLaA</p>","","","","","","","","",""
"html-keyboard-response","166","322901","0.0-10.0-0.77","606dc21c1ce7dc64af9d81fb","650c16f0f2faf8d7a0d14c09","651c1c94e74d43c0ae614d3d","null","null","<p style=""font-size: 60px; font-family: BACS"">DCmhKmE</p>","","","","","","","","",""
"html-keyboard-response","167","323907","0.0-10.0-0.78","606dc21c1ce7dc64af9d81fb","650c16f0f2faf8d7a0d14c09","651c1c94e74d43c0ae614d3d","null","null","<p style=""font-size: 60px; font-family: BACS"">JvaALaA</p>","","","","","","","","",""
"html-keyboard-response","168","324917","0.0-10.0-0.79","606dc21c1ce7dc64af9d81fb","650c16f0f2faf8d7a0d14c09","651c1c94e74d43c0ae614d3d","null","null","<p style=""font-size: 60px; font-family: BACS"">tmtEMdEPD</p>","","","","","","","","",""
"html-keyboard-response","169","344795","0.0-11.0","606dc21c1ce7dc64af9d81fb","650c16f0f2faf8d7a0d14c09","651c1c94e74d43c0ae614d3d","19877"," ","<p>Great, you've seen the second block of words. You may now take a short break.</p>
      <p>Press the spacebar when you're ready to continue.</p>","","","","","","","","",""
"html-keyboard-response","170","345800","0.0-12.0-0.0","606dc21c1ce7dc64af9d81fb","650c16f0f2faf8d7a0d14c09","651c1c94e74d43c0ae614d3d","null","null","<p style=""font-size: 60px; font-family: BACS"">lkAkJUG</p>","","","","","","","","",""
"html-keyboard-response","171","346810","0.0-12.0-0.1","606dc21c1ce7dc64af9d81fb","650c16f0f2faf8d7a0d14c09","651c1c94e74d43c0ae614d3d","null","null","<p style=""font-size: 60px; font-family: BACS"">NbacANac</p>","","","","","","","","",""
"html-keyboard-response","172","347826","0.0-12.0-0.2","606dc21c1ce7dc64af9d81fb","650c16f0f2faf8d7a0d14c09","651c1c94e74d43c0ae614d3d","null","null","<p style=""font-size: 60px; font-family: BACS"">lYruacbm</p>","","","","","","","","",""
"html-keyboard-response","173","348826","0.0-12.0-0.3","606dc21c1ce7dc64af9d81fb","650c16f0f2faf8d7a0d14c09","651c1c94e74d43c0ae614d3d","null","null","<p style=""font-size: 60px; font-family: BACS"">GJGcZNac</p>","","","","","","","","",""
"html-keyboard-response","174","349839","0.0-12.0-0.4","606dc21c1ce7dc64af9d81fb","650c16f0f2faf8d7a0d14c09","651c1c94e74d43c0ae614d3d","null","null","<p style=""font-size: 60px; font-family: BACS"">tmtEMEAO</p>","","","","","","","","",""
"html-keyboard-response","175","350851","0.0-12.0-0.5","606dc21c1ce7dc64af9d81fb","650c16f0f2faf8d7a0d14c09","651c1c94e74d43c0ae614d3d","null","null","<p style=""font-size: 60px; font-family: BACS"">JvaAcbm</p>","","","","","","","","",""
"html-keyboard-response","176","351862","0.0-12.0-0.6","606dc21c1ce7dc64af9d81fb","650c16f0f2faf8d7a0d14c09","651c1c94e74d43c0ae614d3d","null","null","<p style=""font-size: 60px; font-family: BACS"">bcbMKmE</p>","","","","","","","","",""
"html-keyboard-response","177","352875","0.0-12.0-0.7","606dc21c1ce7dc64af9d81fb","650c16f0f2faf8d7a0d14c09","651c1c94e74d43c0ae614d3d","null","null","<p style=""font-size: 60px; font-family: BACS"">PDPhlRCdc</p>","","","","","","","","",""
"html-keyboard-response","178","353887","0.0-12.0-0.8","606dc21c1ce7dc64af9d81fb","650c16f0f2faf8d7a0d14c09","651c1c94e74d43c0ae614d3d","null","null","<p style=""font-size: 60px; font-family: BACS"">GJGcZJUG</p>","","","","","","","","",""
"html-keyboard-response","179","354902","0.0-12.0-0.9","606dc21c1ce7dc64af9d81fb","650c16f0f2faf8d7a0d14c09","651c1c94e74d43c0ae614d3d","null","null","<p style=""font-size: 60px; font-family: BACS"">NbacAJQA</p>","","","","","","","","",""
"html-keyboard-response","180","355916","0.0-12.0-0.10","606dc21c1ce7dc64af9d81fb","650c16f0f2faf8d7a0d14c09","651c1c94e74d43c0ae614d3d","null","null","<p style=""font-size: 60px; font-family: BACS"">aYQmJUG</p>","","","","","","","","",""
"html-keyboard-response","181","356926","0.0-12.0-0.11","606dc21c1ce7dc64af9d81fb","650c16f0f2faf8d7a0d14c09","651c1c94e74d43c0ae614d3d","null","null","<p style=""font-size: 60px; font-family: BACS"">OCmkRCdc</p>","","","","","","","","",""
"html-keyboard-response","182","357937","0.0-12.0-0.12","606dc21c1ce7dc64af9d81fb","650c16f0f2faf8d7a0d14c09","651c1c94e74d43c0ae614d3d","null","null","<p style=""font-size: 60px; font-family: BACS"">GJGcZLaA</p>","","","","","","","","",""
"html-keyboard-response","183","358949","0.0-12.0-0.13","606dc21c1ce7dc64af9d81fb","650c16f0f2faf8d7a0d14c09","651c1c94e74d43c0ae614d3d","null","null","<p style=""font-size: 60px; font-family: BACS"">lYruaJUG</p>","","","","","","","","",""
"html-keyboard-response","184","359952","0.0-12.0-0.14","606dc21c1ce7dc64af9d81fb","650c16f0f2faf8d7a0d14c09","651c1c94e74d43c0ae614d3d","null","null","<p style=""font-size: 60px; font-family: BACS"">aYQmcbm</p>","","","","","","","","",""
"html-keyboard-response","185","360964","0.0-12.0-0.15","606dc21c1ce7dc64af9d81fb","650c16f0f2faf8d7a0d14c09","651c1c94e74d43c0ae614d3d","null","null","<p style=""font-size: 60px; font-family: BACS"">TKDkdEPD</p>","","","","","","","","",""
"html-keyboard-response","186","361978","0.0-12.0-0.16","606dc21c1ce7dc64af9d81fb","650c16f0f2faf8d7a0d14c09","651c1c94e74d43c0ae614d3d","null","null","<p style=""font-size: 60px; font-family: BACS"">laYmrLaA</p>","","","","","","","","",""
"html-keyboard-response","187","362992","0.0-12.0-0.17","606dc21c1ce7dc64af9d81fb","650c16f0f2faf8d7a0d14c09","651c1c94e74d43c0ae614d3d","null","null","<p style=""font-size: 60px; font-family: BACS"">OCmkKmE</p>","","","","","","","","",""
"html-keyboard-response","188","364004","0.0-12.0-0.18","606dc21c1ce7dc64af9d81fb","650c16f0f2faf8d7a0d14c09","651c1c94e74d43c0ae614d3d","null","null","<p style=""font-size: 60px; font-family: BACS"">RlAKcEAO</p>","","","","","","","","",""
"html-keyboard-response","189","365006","0.0-12.0-0.19","606dc21c1ce7dc64af9d81fb","650c16f0f2faf8d7a0d14c09","651c1c94e74d43c0ae614d3d","null","null","<p style=""font-size: 60px; font-family: BACS"">laYmrJUG</p>","","","","","","","","",""
"html-keyboard-response","190","366020","0.0-12.0-0.20","606dc21c1ce7dc64af9d81fb","650c16f0f2faf8d7a0d14c09","651c1c94e74d43c0ae614d3d","null","null","<p style=""font-size: 60px; font-family: BACS"">UYZlZNac</p>","","","","","","","","",""
"html-keyboard-response","191","367035","0.0-12.0-0.21","606dc21c1ce7dc64af9d81fb","650c16f0f2faf8d7a0d14c09","651c1c94e74d43c0ae614d3d","null","null","<p style=""font-size: 60px; font-family: BACS"">PDPhlKmE</p>","","","","","","","","",""
"html-keyboard-response","192","368046","0.0-12.0-0.22","606dc21c1ce7dc64af9d81fb","650c16f0f2faf8d7a0d14c09","651c1c94e74d43c0ae614d3d","null","null","<p style=""font-size: 60px; font-family: BACS"">aYQmJQA</p>","","","","","","","","",""
"html-keyboard-response","193","369060","0.0-12.0-0.23","606dc21c1ce7dc64af9d81fb","650c16f0f2faf8d7a0d14c09","651c1c94e74d43c0ae614d3d","null","null","<p style=""font-size: 60px; font-family: BACS"">lYruaNac</p>","","","","","","","","",""
"html-keyboard-response","194","370073","0.0-12.0-0.24","606dc21c1ce7dc64af9d81fb","650c16f0f2faf8d7a0d14c09","651c1c94e74d43c0ae614d3d","null","null","<p style=""font-size: 60px; font-family: BACS"">tmtEMdEPD</p>","","","","","","","","",""
"html-keyboard-response","195","371089","0.0-12.0-0.25","606dc21c1ce7dc64af9d81fb","650c16f0f2faf8d7a0d14c09","651c1c94e74d43c0ae614d3d","null","null","<p style=""font-size: 60px; font-family: BACS"">OCmkEAO</p>","","","","","","","","",""
"html-keyboard-response","196","372104","0.0-12.0-0.26","606dc21c1ce7dc64af9d81fb","650c16f0f2faf8d7a0d14c09","651c1c94e74d43c0ae614d3d","null","null","<p style=""font-size: 60px; font-family: BACS"">advYOJQA</p>","","","","","","","","",""
"html-keyboard-response","197","373116","0.0-12.0-0.27","606dc21c1ce7dc64af9d81fb","650c16f0f2faf8d7a0d14c09","651c1c94e74d43c0ae614d3d","null","null","<p style=""font-size: 60px; font-family: BACS"">DCmhKmE</p>","","","","","","","","",""
"html-keyboard-response","198","374129","0.0-12.0-0.28","606dc21c1ce7dc64af9d81fb","650c16f0f2faf8d7a0d14c09","651c1c94e74d43c0ae614d3d","null","null","<p style=""font-size: 60px; font-family: BACS"">JvaAJQA</p>","","","","","","","","",""
"html-keyboard-response","199","375130","0.0-12.0-0.29","606dc21c1ce7dc64af9d81fb","650c16f0f2faf8d7a0d14c09","651c1c94e74d43c0ae614d3d","null","null","<p style=""font-size: 60px; font-family: BACS"">PDPhlEAO</p>","","","","","","","","",""
"html-keyboard-response","200","376145","0.0-12.0-0.30","606dc21c1ce7dc64af9d81fb","650c16f0f2faf8d7a0d14c09","651c1c94e74d43c0ae614d3d","null","null","<p style=""font-size: 60px; font-family: BACS"">bcbMRCdc</p>","","","","","","","","",""
"html-keyboard-response","201","377146","0.0-12.0-0.31","606dc21c1ce7dc64af9d81fb","650c16f0f2faf8d7a0d14c09","651c1c94e74d43c0ae614d3d","null","null","<p style=""font-size: 60px; font-family: BACS"">aYQmLaA</p>","","","","","","","","",""
"html-keyboard-response","202","378158","0.0-12.0-0.32","606dc21c1ce7dc64af9d81fb","650c16f0f2faf8d7a0d14c09","651c1c94e74d43c0ae614d3d","null","null","<p style=""font-size: 60px; font-family: BACS"">laYmrJQA</p>","","","","","","","","",""
"html-keyboard-response","203","379159","0.0-12.0-0.33","606dc21c1ce7dc64af9d81fb","650c16f0f2faf8d7a0d14c09","651c1c94e74d43c0ae614d3d","null","null","<p style=""font-size: 60px; font-family: BACS"">PDPhldEPD</p>","","","","","","","","",""
"html-keyboard-response","204","380175","0.0-12.0-0.34","606dc21c1ce7dc64af9d81fb","650c16f0f2faf8d7a0d14c09","651c1c94e74d43c0ae614d3d","null","null","<p style=""font-size: 60px; font-family: BACS"">Udumdcbm</p>","","","","","","","","",""
"html-keyboard-response","205","381187","0.0-12.0-0.35","606dc21c1ce7dc64af9d81fb","650c16f0f2faf8d7a0d14c09","651c1c94e74d43c0ae614d3d","null","null","<p style=""font-size: 60px; font-family: BACS"">EdBbRCdc</p>","","","","","","","","",""
"html-keyboard-response","206","382200","0.0-12.0-0.36","606dc21c1ce7dc64af9d81fb","650c16f0f2faf8d7a0d14c09","651c1c94e74d43c0ae614d3d","null","null","<p style=""font-size: 60px; font-family: BACS"">advYOLaA</p>","","","","","","","","",""
"html-keyboard-response","207","383215","0.0-12.0-0.37","606dc21c1ce7dc64af9d81fb","650c16f0f2faf8d7a0d14c09","651c1c94e74d43c0ae614d3d","null","null","<p style=""font-size: 60px; font-family: BACS"">RlAKcRCdc</p>","","","","","","","","",""
"html-keyboard-response","208","384232","0.0-12.0-0.38","606dc21c1ce7dc64af9d81fb","650c16f0f2faf8d7a0d14c09","651c1c94e74d43c0ae614d3d","null","null","<p style=""font-size: 60px; font-family: BACS"">lYruaJQA</p>","","","","","","","","",""
"html-keyboard-response","209","385265","0.0-12.0-0.39","606dc21c1ce7dc64af9d81fb","650c16f0f2faf8d7a0d14c09","651c1c94e74d43c0ae614d3d","null","null","<p style=""font-size: 60px; font-family: BACS"">kCRmEAO</p>","","","","","","","","",""
"html-keyboard-response","210","386279","0.0-12.0-0.40","606dc21c1ce7dc64af9d81fb","650c16f0f2faf8d7a0d14c09","651c1c94e74d43c0ae614d3d","null","null","<p style=""font-size: 60px; font-family: BACS"">UYZlZcbm</p>","","","","","","","","",""
"html-keyboard-response","211","387288","0.0-12.0-0.41","606dc21c1ce7dc64af9d81fb","650c16f0f2faf8d7a0d14c09","651c1c94e74d43c0ae614d3d","null","null","<p style=""font-size: 60px; font-family: BACS"">OCmkdEPD</p>","","","","","","","","",""
"html-keyboard-response","212","388295","0.0-12.0-0.42","606dc21c1ce7dc64af9d81fb","650c16f0f2faf8d7a0d14c09","651c1c94e74d43c0ae614d3d","null","null","<p style=""font-size: 60px; font-family: BACS"">NbacAJUG</p>","","","","","","","","",""
"html-keyboard-response","213","389302","0.0-12.0-0.43","606dc21c1ce7dc64af9d81fb","650c16f0f2faf8d7a0d14c09","651c1c94e74d43c0ae614d3d","null","null","<p style=""font-size: 60px; font-family: BACS"">DCmhdEPD</p>","","","","","","","","",""
"html-keyboard-response","214","390309","0.0-12.0-0.44","606dc21c1ce7dc64af9d81fb","650c16f0f2faf8d7a0d14c09","651c1c94e74d43c0ae614d3d","null","null","<p style=""font-size: 60px; font-family: BACS"">EdBbATc</p>","","","","","","","","",""
"html-keyboard-response","215","391318","0.0-12.0-0.45","606dc21c1ce7dc64af9d81fb","650c16f0f2faf8d7a0d14c09","651c1c94e74d43c0ae614d3d","null","null","<p style=""font-size: 60px; font-family: BACS"">kCRmRCdc</p>","","","","","","","","",""
"html-keyboard-response","216","392332","0.0-12.0-0.46","606dc21c1ce7dc64af9d81fb","650c16f0f2faf8d7a0d14c09","651c1c94e74d43c0ae614d3d","null","null","<p style=""font-size: 60px; font-family: BACS"">TKDkATc</p>","","","","","","","","",""
"html-keyboard-response","217","393338","0.0-12.0-0.47","606dc21c1ce7dc64af9d81fb","650c16f0f2faf8d7a0d14c09","651c1c94e74d43c0ae614d3d","null","null","<p style=""font-size: 60px; font-family: BACS"">NbacAcbm</p>","","","","","","","","",""
"html-keyboard-response","218","394348","0.0-12.0-0.48","606dc21c1ce7dc64af9d81fb","650c16f0f2faf8d7a0d14c09","651c1c94e74d43c0ae614d3d","null","null","<p style=""font-size: 60px; font-family: BACS"">lkAkNac</p>","","","","","","","","",""
"html-keyboard-response","219","395364","0.0-12.0-0.49","606dc21c1ce7dc64af9d81fb","650c16f0f2faf8d7a0d14c09","651c1c94e74d43c0ae614d3d","null","null","<p style=""font-size: 60px; font-family: BACS"">tmtEMRCdc</p>","","","","","","","","",""
"html-keyboard-response","220","396368","0.0-12.0-0.50","606dc21c1ce7dc64af9d81fb","650c16f0f2faf8d7a0d14c09","651c1c94e74d43c0ae614d3d","null","null","<p style=""font-size: 60px; font-family: BACS"">DCmhATc</p>","","","","","","","","",""
"html-keyboard-response","221","397381","0.0-12.0-0.51","606dc21c1ce7dc64af9d81fb","650c16f0f2faf8d7a0d14c09","651c1c94e74d43c0ae614d3d","null","null","<p style=""font-size: 60px; font-family: BACS"">TKDkKmE</p>","","","","","","","","",""
"html-keyboard-response","222","398384","0.0-12.0-0.52","606dc21c1ce7dc64af9d81fb","650c16f0f2faf8d7a0d14c09","651c1c94e74d43c0ae614d3d","null","null","<p style=""font-size: 60px; font-family: BACS"">JvaALaA</p>","","","","","","","","",""
"html-keyboard-response","223","399385","0.0-12.0-0.53","606dc21c1ce7dc64af9d81fb","650c16f0f2faf8d7a0d14c09","651c1c94e74d43c0ae614d3d","null","null","<p style=""font-size: 60px; font-family: BACS"">CtmbEAO</p>","","","","","","","","",""
"html-keyboard-response","224","400398","0.0-12.0-0.54","606dc21c1ce7dc64af9d81fb","650c16f0f2faf8d7a0d14c09","651c1c94e74d43c0ae614d3d","null","null","<p style=""font-size: 60px; font-family: BACS"">UYZlZLaA</p>","","","","","","","","",""
"html-keyboard-response","225","401407","0.0-12.0-0.55","606dc21c1ce7dc64af9d81fb","650c16f0f2faf8d7a0d14c09","651c1c94e74d43c0ae614d3d","null","null","<p style=""font-size: 60px; font-family: BACS"">kCRmATc</p>","","","","","","","","",""
"html-keyboard-response","226","402419","0.0-12.0-0.56","606dc21c1ce7dc64af9d81fb","650c16f0f2faf8d7a0d14c09","651c1c94e74d43c0ae614d3d","null","null","<p style=""font-size: 60px; font-family: BACS"">UdumdJUG</p>","","","","","","","","",""
"html-keyboard-response","227","403431","0.0-12.0-0.57","606dc21c1ce7dc64af9d81fb","650c16f0f2faf8d7a0d14c09","651c1c94e74d43c0ae614d3d","null","null","<p style=""font-size: 60px; font-family: BACS"">tmtEMATc</p>","","","","","","","","",""
"html-keyboard-response","228","404438","0.0-12.0-0.58","606dc21c1ce7dc64af9d81fb","650c16f0f2faf8d7a0d14c09","651c1c94e74d43c0ae614d3d","null","null","<p style=""font-size: 60px; font-family: BACS"">kCRmKmE</p>","","","","","","","","",""
"html-keyboard-response","229","405449","0.0-12.0-0.59","606dc21c1ce7dc64af9d81fb","650c16f0f2faf8d7a0d14c09","651c1c94e74d43c0ae614d3d","null","null","<p style=""font-size: 60px; font-family: BACS"">TKDkEAO</p>","","","","","","","","",""
"html-keyboard-response","230","406466","0.0-12.0-0.60","606dc21c1ce7dc64af9d81fb","650c16f0f2faf8d7a0d14c09","651c1c94e74d43c0ae614d3d","null","null","<p style=""font-size: 60px; font-family: BACS"">UYZlZJQA</p>","","","","","","","","",""
"html-keyboard-response","231","407480","0.0-12.0-0.61","606dc21c1ce7dc64af9d81fb","650c16f0f2faf8d7a0d14c09","651c1c94e74d43c0ae614d3d","null","null","<p style=""font-size: 60px; font-family: BACS"">bcbMdEPD</p>","","","","","","","","",""
"html-keyboard-response","232","408493","0.0-12.0-0.62","606dc21c1ce7dc64af9d81fb","650c16f0f2faf8d7a0d14c09","651c1c94e74d43c0ae614d3d","null","null","<p style=""font-size: 60px; font-family: BACS"">lkAkLaA</p>","","","","","","","","",""
"html-keyboard-response","233","409506","0.0-12.0-0.63","606dc21c1ce7dc64af9d81fb","650c16f0f2faf8d7a0d14c09","651c1c94e74d43c0ae614d3d","null","null","<p style=""font-size: 60px; font-family: BACS"">UdumdNac</p>","","","","","","","","",""
"html-keyboard-response","234","410519","0.0-12.0-0.64","606dc21c1ce7dc64af9d81fb","650c16f0f2faf8d7a0d14c09","651c1c94e74d43c0ae614d3d","null","null","<p style=""font-size: 60px; font-family: BACS"">bcbMATc</p>","","","","","","","","",""
"html-keyboard-response","235","411535","0.0-12.0-0.65","606dc21c1ce7dc64af9d81fb","650c16f0f2faf8d7a0d14c09","651c1c94e74d43c0ae614d3d","null","null","<p style=""font-size: 60px; font-family: BACS"">EdBbKmE</p>","","","","","","","","",""
"html-keyboard-response","236","412548","0.0-12.0-0.66","606dc21c1ce7dc64af9d81fb","650c16f0f2faf8d7a0d14c09","651c1c94e74d43c0ae614d3d","null","null","<p style=""font-size: 60px; font-family: BACS"">JvaANac</p>","","","","","","","","",""
"html-keyboard-response","237","413558","0.0-12.0-0.67","606dc21c1ce7dc64af9d81fb","650c16f0f2faf8d7a0d14c09","651c1c94e74d43c0ae614d3d","null","null","<p style=""font-size: 60px; font-family: BACS"">CtmbdEPD</p>","","","","","","","","",""
"html-keyboard-response","238","414568","0.0-12.0-0.68","606dc21c1ce7dc64af9d81fb","650c16f0f2faf8d7a0d14c09","651c1c94e74d43c0ae614d3d","null","null","<p style=""font-size: 60px; font-family: BACS"">RlAKcATc</p>","","","","","","","","",""
"html-keyboard-response","239","415577","0.0-12.0-0.69","606dc21c1ce7dc64af9d81fb","650c16f0f2faf8d7a0d14c09","651c1c94e74d43c0ae614d3d","null","null","<p style=""font-size: 60px; font-family: BACS"">EdBbdEPD</p>","","","","","","","","",""
"html-keyboard-response","240","416591","0.0-12.0-0.70","606dc21c1ce7dc64af9d81fb","650c16f0f2faf8d7a0d14c09","651c1c94e74d43c0ae614d3d","null","null","<p style=""font-size: 60px; font-family: BACS"">CtmbATc</p>","","","","","","","","",""
"html-keyboard-response","241","417604","0.0-12.0-0.71","606dc21c1ce7dc64af9d81fb","650c16f0f2faf8d7a0d14c09","651c1c94e74d43c0ae614d3d","null","null","<p style=""font-size: 60px; font-family: BACS"">lkAkcbm</p>","","","","","","","","",""
"html-keyboard-response","242","418617","0.0-12.0-0.72","606dc21c1ce7dc64af9d81fb","650c16f0f2faf8d7a0d14c09","651c1c94e74d43c0ae614d3d","null","null","<p style=""font-size: 60px; font-family: BACS"">DCmhEAO</p>","","","","","","","","",""
"html-keyboard-response","243","419629","0.0-12.0-0.73","606dc21c1ce7dc64af9d81fb","650c16f0f2faf8d7a0d14c09","651c1c94e74d43c0ae614d3d","null","null","<p style=""font-size: 60px; font-family: BACS"">UdumdLaA</p>","","","","","","","","",""
"html-keyboard-response","244","420639","0.0-12.0-0.74","606dc21c1ce7dc64af9d81fb","650c16f0f2faf8d7a0d14c09","651c1c94e74d43c0ae614d3d","null","null","<p style=""font-size: 60px; font-family: BACS"">CtmbRCdc</p>","","","","","","","","",""
"html-keyboard-response","245","421641","0.0-12.0-0.75","606dc21c1ce7dc64af9d81fb","650c16f0f2faf8d7a0d14c09","651c1c94e74d43c0ae614d3d","null","null","<p style=""font-size: 60px; font-family: BACS"">advYOcbm</p>","","","","","","","","",""
"html-keyboard-response","246","422652","0.0-12.0-0.76","606dc21c1ce7dc64af9d81fb","650c16f0f2faf8d7a0d14c09","651c1c94e74d43c0ae614d3d","null","null","<p style=""font-size: 60px; font-family: BACS"">laYmrNac</p>","","","","","","","","",""
"html-keyboard-response","247","423666","0.0-12.0-0.77","606dc21c1ce7dc64af9d81fb","650c16f0f2faf8d7a0d14c09","651c1c94e74d43c0ae614d3d","null","null","<p style=""font-size: 60px; font-family: BACS"">RlAKcKmE</p>","","","","","","","","",""
"html-keyboard-response","248","424696","0.0-12.0-0.78","606dc21c1ce7dc64af9d81fb","650c16f0f2faf8d7a0d14c09","651c1c94e74d43c0ae614d3d","null","null","<p style=""font-size: 60px; font-family: BACS"">GJGcZJQA</p>","","","","","","","","",""
"html-keyboard-response","249","425708","0.0-12.0-0.79","606dc21c1ce7dc64af9d81fb","650c16f0f2faf8d7a0d14c09","651c1c94e74d43c0ae614d3d","null","null","<p style=""font-size: 60px; font-family: BACS"">advYOJUG</p>","","","","","","","","",""
"html-keyboard-response","250","452473","0.0-13.0","606dc21c1ce7dc64af9d81fb","650c16f0f2faf8d7a0d14c09","651c1c94e74d43c0ae614d3d","26762"," ","<p>Great, you've seen the third block of words. You may now take a short break.</p>
      <p>Press the spacebar when you're ready to continue.</p>","","","","","","","","",""
"html-keyboard-response","251","453479","0.0-14.0-0.0","606dc21c1ce7dc64af9d81fb","650c16f0f2faf8d7a0d14c09","651c1c94e74d43c0ae614d3d","null","null","<p style=""font-size: 60px; font-family: BACS"">lkAkcbm</p>","","","","","","","","",""
"html-keyboard-response","252","454490","0.0-14.0-0.1","606dc21c1ce7dc64af9d81fb","650c16f0f2faf8d7a0d14c09","651c1c94e74d43c0ae614d3d","null","null","<p style=""font-size: 60px; font-family: BACS"">kCRmRCdc</p>","","","","","","","","",""
"html-keyboard-response","253","455497","0.0-14.0-0.2","606dc21c1ce7dc64af9d81fb","650c16f0f2faf8d7a0d14c09","651c1c94e74d43c0ae614d3d","null","null","<p style=""font-size: 60px; font-family: BACS"">CtmbEAO</p>","","","","","","","","",""
"html-keyboard-response","254","456502","0.0-14.0-0.3","606dc21c1ce7dc64af9d81fb","650c16f0f2faf8d7a0d14c09","651c1c94e74d43c0ae614d3d","null","null","<p style=""font-size: 60px; font-family: BACS"">Udumdcbm</p>","","","","","","","","",""
"html-keyboard-response","255","457507","0.0-14.0-0.4","606dc21c1ce7dc64af9d81fb","650c16f0f2faf8d7a0d14c09","651c1c94e74d43c0ae614d3d","null","null","<p style=""font-size: 60px; font-family: BACS"">lkAkJUG</p>","","","","","","","","",""
"html-keyboard-response","256","458512","0.0-14.0-0.5","606dc21c1ce7dc64af9d81fb","650c16f0f2faf8d7a0d14c09","651c1c94e74d43c0ae614d3d","null","null","<p style=""font-size: 60px; font-family: BACS"">PDPhlRCdc</p>","","","","","","","","",""
"html-keyboard-response","257","459525","0.0-14.0-0.6","606dc21c1ce7dc64af9d81fb","650c16f0f2faf8d7a0d14c09","651c1c94e74d43c0ae614d3d","null","null","<p style=""font-size: 60px; font-family: BACS"">bcbMKmE</p>","","","","","","","","",""
"html-keyboard-response","258","460527","0.0-14.0-0.7","606dc21c1ce7dc64af9d81fb","650c16f0f2faf8d7a0d14c09","651c1c94e74d43c0ae614d3d","null","null","<p style=""font-size: 60px; font-family: BACS"">OCmkdEPD</p>","","","","","","","","",""
"html-keyboard-response","259","461532","0.0-14.0-0.8","606dc21c1ce7dc64af9d81fb","650c16f0f2faf8d7a0d14c09","651c1c94e74d43c0ae614d3d","null","null","<p style=""font-size: 60px; font-family: BACS"">EdBbKmE</p>","","","","","","","","",""
"html-keyboard-response","260","462547","0.0-14.0-0.9","606dc21c1ce7dc64af9d81fb","650c16f0f2faf8d7a0d14c09","651c1c94e74d43c0ae614d3d","null","null","<p style=""font-size: 60px; font-family: BACS"">tmtEMATc</p>","","","","","","","","",""
"html-keyboard-response","261","463557","0.0-14.0-0.10","606dc21c1ce7dc64af9d81fb","650c16f0f2faf8d7a0d14c09","651c1c94e74d43c0ae614d3d","null","null","<p style=""font-size: 60px; font-family: BACS"">TKDkEAO</p>","","","","","","","","",""
"html-keyboard-response","262","464563","0.0-14.0-0.11","606dc21c1ce7dc64af9d81fb","650c16f0f2faf8d7a0d14c09","651c1c94e74d43c0ae614d3d","null","null","<p style=""font-size: 60px; font-family: BACS"">EdBbdEPD</p>","","","","","","","","",""
"html-keyboard-response","263","465579","0.0-14.0-0.12","606dc21c1ce7dc64af9d81fb","650c16f0f2faf8d7a0d14c09","651c1c94e74d43c0ae614d3d","null","null","<p style=""font-size: 60px; font-family: BACS"">NbacAJQA</p>","","","","","","","","",""
"html-keyboard-response","264","466582","0.0-14.0-0.13","606dc21c1ce7dc64af9d81fb","650c16f0f2faf8d7a0d14c09","651c1c94e74d43c0ae614d3d","null","null","<p style=""font-size: 60px; font-family: BACS"">DCmhKmE</p>","","","","","","","","",""
"html-keyboard-response","265","467582","0.0-14.0-0.14","606dc21c1ce7dc64af9d81fb","650c16f0f2faf8d7a0d14c09","651c1c94e74d43c0ae614d3d","null","null","<p style=""font-size: 60px; font-family: BACS"">UYZlZcbm</p>","","","","","","","","",""
"html-keyboard-response","266","468583","0.0-14.0-0.15","606dc21c1ce7dc64af9d81fb","650c16f0f2faf8d7a0d14c09","651c1c94e74d43c0ae614d3d","null","null","<p style=""font-size: 60px; font-family: BACS"">EdBbATc</p>","","","","","","","","",""
"html-keyboard-response","267","469593","0.0-14.0-0.16","606dc21c1ce7dc64af9d81fb","650c16f0f2faf8d7a0d14c09","651c1c94e74d43c0ae614d3d","null","null","<p style=""font-size: 60px; font-family: BACS"">UYZlZLaA</p>","","","","","","","","",""
"html-keyboard-response","268","470603","0.0-14.0-0.17","606dc21c1ce7dc64af9d81fb","650c16f0f2faf8d7a0d14c09","651c1c94e74d43c0ae614d3d","null","null","<p style=""font-size: 60px; font-family: BACS"">PDPhldEPD</p>","","","","","","","","",""
"html-keyboard-response","269","471607","0.0-14.0-0.18","606dc21c1ce7dc64af9d81fb","650c16f0f2faf8d7a0d14c09","651c1c94e74d43c0ae614d3d","null","null","<p style=""font-size: 60px; font-family: BACS"">NbacANac</p>","","","","","","","","",""
"html-keyboard-response","270","472608","0.0-14.0-0.19","606dc21c1ce7dc64af9d81fb","650c16f0f2faf8d7a0d14c09","651c1c94e74d43c0ae614d3d","null","null","<p style=""font-size: 60px; font-family: BACS"">bcbMATc</p>","","","","","","","","",""
"html-keyboard-response","271","473623","0.0-14.0-0.20","606dc21c1ce7dc64af9d81fb","650c16f0f2faf8d7a0d14c09","651c1c94e74d43c0ae614d3d","null","null","<p style=""font-size: 60px; font-family: BACS"">lkAkNac</p>","","","","","","","","",""
"html-keyboard-response","272","474632","0.0-14.0-0.21","606dc21c1ce7dc64af9d81fb","650c16f0f2faf8d7a0d14c09","651c1c94e74d43c0ae614d3d","null","null","<p style=""font-size: 60px; font-family: BACS"">PDPhlEAO</p>","","","","","","","","",""
"html-keyboard-response","273","475641","0.0-14.0-0.22","606dc21c1ce7dc64af9d81fb","650c16f0f2faf8d7a0d14c09","651c1c94e74d43c0ae614d3d","null","null","<p style=""font-size: 60px; font-family: BACS"">lkAkLaA</p>","","","","","","","","",""
"html-keyboard-response","274","476645","0.0-14.0-0.23","606dc21c1ce7dc64af9d81fb","650c16f0f2faf8d7a0d14c09","651c1c94e74d43c0ae614d3d","null","null","<p style=""font-size: 60px; font-family: BACS"">advYOJQA</p>","","","","","","","","",""
"html-keyboard-response","275","477647","0.0-14.0-0.24","606dc21c1ce7dc64af9d81fb","650c16f0f2faf8d7a0d14c09","651c1c94e74d43c0ae614d3d","null","null","<p style=""font-size: 60px; font-family: BACS"">tmtEMEAO</p>","","","","","","","","",""
"html-keyboard-response","276","478661","0.0-14.0-0.25","606dc21c1ce7dc64af9d81fb","650c16f0f2faf8d7a0d14c09","651c1c94e74d43c0ae614d3d","null","null","<p style=""font-size: 60px; font-family: BACS"">aYQmJQA</p>","","","","","","","","",""
"html-keyboard-response","277","479691","0.0-14.0-0.26","606dc21c1ce7dc64af9d81fb","650c16f0f2faf8d7a0d14c09","651c1c94e74d43c0ae614d3d","null","null","<p style=""font-size: 60px; font-family: BACS"">PDPhlKmE</p>","","","","","","","","",""
"html-keyboard-response","278","480707","0.0-14.0-0.27","606dc21c1ce7dc64af9d81fb","650c16f0f2faf8d7a0d14c09","651c1c94e74d43c0ae614d3d","null","null","<p style=""font-size: 60px; font-family: BACS"">OCmkEAO</p>","","","","","","","","",""
"html-keyboard-response","279","481717","0.0-14.0-0.28","606dc21c1ce7dc64af9d81fb","650c16f0f2faf8d7a0d14c09","651c1c94e74d43c0ae614d3d","null","null","<p style=""font-size: 60px; font-family: BACS"">GJGcZNac</p>","","","","","","","","",""
"html-keyboard-response","280","482721","0.0-14.0-0.29","606dc21c1ce7dc64af9d81fb","650c16f0f2faf8d7a0d14c09","651c1c94e74d43c0ae614d3d","null","null","<p style=""font-size: 60px; font-family: BACS"">CtmbATc</p>","","","","","","","","",""
"html-keyboard-response","281","483732","0.0-14.0-0.30","606dc21c1ce7dc64af9d81fb","650c16f0f2faf8d7a0d14c09","651c1c94e74d43c0ae614d3d","null","null","<p style=""font-size: 60px; font-family: BACS"">advYOLaA</p>","","","","","","","","",""
"html-keyboard-response","282","484737","0.0-14.0-0.31","606dc21c1ce7dc64af9d81fb","650c16f0f2faf8d7a0d14c09","651c1c94e74d43c0ae614d3d","null","null","<p style=""font-size: 60px; font-family: BACS"">RlAKcATc</p>","","","","","","","","",""
"html-keyboard-response","283","485751","0.0-14.0-0.32","606dc21c1ce7dc64af9d81fb","650c16f0f2faf8d7a0d14c09","651c1c94e74d43c0ae614d3d","null","null","<p style=""font-size: 60px; font-family: BACS"">kCRmEAO</p>","","","","","","","","",""
"html-keyboard-response","284","486761","0.0-14.0-0.33","606dc21c1ce7dc64af9d81fb","650c16f0f2faf8d7a0d14c09","651c1c94e74d43c0ae614d3d","null","null","<p style=""font-size: 60px; font-family: BACS"">DCmhdEPD</p>","","","","","","","","",""
"html-keyboard-response","285","487777","0.0-14.0-0.34","606dc21c1ce7dc64af9d81fb","650c16f0f2faf8d7a0d14c09","651c1c94e74d43c0ae614d3d","null","null","<p style=""font-size: 60px; font-family: BACS"">kCRmKmE</p>","","","","","","","","",""
"html-keyboard-response","286","488786","0.0-14.0-0.35","606dc21c1ce7dc64af9d81fb","650c16f0f2faf8d7a0d14c09","651c1c94e74d43c0ae614d3d","null","null","<p style=""font-size: 60px; font-family: BACS"">UYZlZJQA</p>","","","","","","","","",""
"html-keyboard-response","287","489804","0.0-14.0-0.36","606dc21c1ce7dc64af9d81fb","650c16f0f2faf8d7a0d14c09","651c1c94e74d43c0ae614d3d","null","null","<p style=""font-size: 60px; font-family: BACS"">RlAKcEAO</p>","","","","","","","","",""
"html-keyboard-response","288","490812","0.0-14.0-0.37","606dc21c1ce7dc64af9d81fb","650c16f0f2faf8d7a0d14c09","651c1c94e74d43c0ae614d3d","null","null","<p style=""font-size: 60px; font-family: BACS"">JvaANac</p>","","","","","","","","",""
"html-keyboard-response","289","491827","0.0-14.0-0.38","606dc21c1ce7dc64af9d81fb","650c16f0f2faf8d7a0d14c09","651c1c94e74d43c0ae614d3d","null","null","<p style=""font-size: 60px; font-family: BACS"">GJGcZJQA</p>","","","","","","","","",""
"html-keyboard-response","290","492837","0.0-14.0-0.39","606dc21c1ce7dc64af9d81fb","650c16f0f2faf8d7a0d14c09","651c1c94e74d43c0ae614d3d","null","null","<p style=""font-size: 60px; font-family: BACS"">OCmkRCdc</p>","","","","","","","","",""
"html-keyboard-response","291","493851","0.0-14.0-0.40","606dc21c1ce7dc64af9d81fb","650c16f0f2faf8d7a0d14c09","651c1c94e74d43c0ae614d3d","null","null","<p style=""font-size: 60px; font-family: BACS"">JvaAcbm</p>","","","","","","","","",""
"html-keyboard-response","292","494855","0.0-14.0-0.41","606dc21c1ce7dc64af9d81fb","650c16f0f2faf8d7a0d14c09","651c1c94e74d43c0ae614d3d","null","null","<p style=""font-size: 60px; font-family: BACS"">NbacAJUG</p>","","","","","","","","",""
"html-keyboard-response","293","495863","0.0-14.0-0.42","606dc21c1ce7dc64af9d81fb","650c16f0f2faf8d7a0d14c09","651c1c94e74d43c0ae614d3d","null","null","<p style=""font-size: 60px; font-family: BACS"">lYruaJQA</p>","","","","","","","","",""
"html-keyboard-response","294","496871","0.0-14.0-0.43","606dc21c1ce7dc64af9d81fb","650c16f0f2faf8d7a0d14c09","651c1c94e74d43c0ae614d3d","null","null","<p style=""font-size: 60px; font-family: BACS"">bcbMdEPD</p>","","","","","","","","",""
"html-keyboard-response","295","497887","0.0-14.0-0.44","606dc21c1ce7dc64af9d81fb","650c16f0f2faf8d7a0d14c09","651c1c94e74d43c0ae614d3d","null","null","<p style=""font-size: 60px; font-family: BACS"">RlAKcRCdc</p>","","","","","","","","",""
"html-keyboard-response","296","498890","0.0-14.0-0.45","606dc21c1ce7dc64af9d81fb","650c16f0f2faf8d7a0d14c09","651c1c94e74d43c0ae614d3d","null","null","<p style=""font-size: 60px; font-family: BACS"">TKDkATc</p>","","","","","","","","",""
"html-keyboard-response","297","499897","0.0-14.0-0.46","606dc21c1ce7dc64af9d81fb","650c16f0f2faf8d7a0d14c09","651c1c94e74d43c0ae614d3d","null","null","<p style=""font-size: 60px; font-family: BACS"">advYOcbm</p>","","","","","","","","",""
"html-keyboard-response","298","500898","0.0-14.0-0.47","606dc21c1ce7dc64af9d81fb","650c16f0f2faf8d7a0d14c09","651c1c94e74d43c0ae614d3d","null","null","<p style=""font-size: 60px; font-family: BACS"">CtmbdEPD</p>","","","","","","","","",""
"html-keyboard-response","299","501901","0.0-14.0-0.48","606dc21c1ce7dc64af9d81fb","650c16f0f2faf8d7a0d14c09","651c1c94e74d43c0ae614d3d","null","null","<p style=""font-size: 60px; font-family: BACS"">lYruaNac</p>","","","","","","","","",""
"html-keyboard-response","300","502918","0.0-14.0-0.49","606dc21c1ce7dc64af9d81fb","650c16f0f2faf8d7a0d14c09","651c1c94e74d43c0ae614d3d","null","null","<p style=""font-size: 60px; font-family: BACS"">JvaAJQA</p>","","","","","","","","",""
"html-keyboard-response","301","503930","0.0-14.0-0.50","606dc21c1ce7dc64af9d81fb","650c16f0f2faf8d7a0d14c09","651c1c94e74d43c0ae614d3d","null","null","<p style=""font-size: 60px; font-family: BACS"">GJGcZJUG</p>","","","","","","","","",""
"html-keyboard-response","302","504942","0.0-14.0-0.51","606dc21c1ce7dc64af9d81fb","650c16f0f2faf8d7a0d14c09","651c1c94e74d43c0ae614d3d","null","null","<p style=""font-size: 60px; font-family: BACS"">NbacAcbm</p>","","","","","","","","",""
"html-keyboard-response","303","505958","0.0-14.0-0.52","606dc21c1ce7dc64af9d81fb","650c16f0f2faf8d7a0d14c09","651c1c94e74d43c0ae614d3d","null","null","<p style=""font-size: 60px; font-family: BACS"">TKDkdEPD</p>","","","","","","","","",""
"html-keyboard-response","304","506963","0.0-14.0-0.53","606dc21c1ce7dc64af9d81fb","650c16f0f2faf8d7a0d14c09","651c1c94e74d43c0ae614d3d","null","null","<p style=""font-size: 60px; font-family: BACS"">GJGcZLaA</p>","","","","","","","","",""
"html-keyboard-response","305","507977","0.0-14.0-0.54","606dc21c1ce7dc64af9d81fb","650c16f0f2faf8d7a0d14c09","651c1c94e74d43c0ae614d3d","null","null","<p style=""font-size: 60px; font-family: BACS"">kCRmATc</p>","","","","","","","","",""
"html-keyboard-response","306","508980","0.0-14.0-0.55","606dc21c1ce7dc64af9d81fb","650c16f0f2faf8d7a0d14c09","651c1c94e74d43c0ae614d3d","null","null","<p style=""font-size: 60px; font-family: BACS"">aYQmLaA</p>","","","","","","","","",""
"html-keyboard-response","307","509998","0.0-14.0-0.56","606dc21c1ce7dc64af9d81fb","650c16f0f2faf8d7a0d14c09","651c1c94e74d43c0ae614d3d","null","null","<p style=""font-size: 60px; font-family: BACS"">RlAKcKmE</p>","","","","","","","","",""
"html-keyboard-response","308","511008","0.0-14.0-0.57","606dc21c1ce7dc64af9d81fb","650c16f0f2faf8d7a0d14c09","651c1c94e74d43c0ae614d3d","null","null","<p style=""font-size: 60px; font-family: BACS"">lYruaJUG</p>","","","","","","","","",""
"html-keyboard-response","309","512014","0.0-14.0-0.58","606dc21c1ce7dc64af9d81fb","650c16f0f2faf8d7a0d14c09","651c1c94e74d43c0ae614d3d","null","null","<p style=""font-size: 60px; font-family: BACS"">UdumdNac</p>","","","","","","","","",""
"html-keyboard-response","310","513019","0.0-14.0-0.59","606dc21c1ce7dc64af9d81fb","650c16f0f2faf8d7a0d14c09","651c1c94e74d43c0ae614d3d","null","null","<p style=""font-size: 60px; font-family: BACS"">lYruacbm</p>","","","","","","","","",""
"html-keyboard-response","311","514025","0.0-14.0-0.60","606dc21c1ce7dc64af9d81fb","650c16f0f2faf8d7a0d14c09","651c1c94e74d43c0ae614d3d","null","null","<p style=""font-size: 60px; font-family: BACS"">laYmrNac</p>","","","","","","","","",""
"html-keyboard-response","312","515029","0.0-14.0-0.61","606dc21c1ce7dc64af9d81fb","650c16f0f2faf8d7a0d14c09","651c1c94e74d43c0ae614d3d","null","null","<p style=""font-size: 60px; font-family: BACS"">TKDkKmE</p>","","","","","","","","",""
"html-keyboard-response","313","516044","0.0-14.0-0.62","606dc21c1ce7dc64af9d81fb","650c16f0f2faf8d7a0d14c09","651c1c94e74d43c0ae614d3d","null","null","<p style=""font-size: 60px; font-family: BACS"">EdBbRCdc</p>","","","","","","","","",""
"html-keyboard-response","314","517053","0.0-14.0-0.63","606dc21c1ce7dc64af9d81fb","650c16f0f2faf8d7a0d14c09","651c1c94e74d43c0ae614d3d","null","null","<p style=""font-size: 60px; font-family: BACS"">OCmkKmE</p>","","","","","","","","",""
"html-keyboard-response","315","518057","0.0-14.0-0.64","606dc21c1ce7dc64af9d81fb","650c16f0f2faf8d7a0d14c09","651c1c94e74d43c0ae614d3d","null","null","<p style=""font-size: 60px; font-family: BACS"">UYZlZNac</p>","","","","","","","","",""
"html-keyboard-response","316","519058","0.0-14.0-0.65","606dc21c1ce7dc64af9d81fb","650c16f0f2faf8d7a0d14c09","651c1c94e74d43c0ae614d3d","null","null","<p style=""font-size: 60px; font-family: BACS"">tmtEMRCdc</p>","","","","","","","","",""
"html-keyboard-response","317","520071","0.0-14.0-0.66","606dc21c1ce7dc64af9d81fb","650c16f0f2faf8d7a0d14c09","651c1c94e74d43c0ae614d3d","null","null","<p style=""font-size: 60px; font-family: BACS"">aYQmcbm</p>","","","","","","","","",""
"html-keyboard-response","318","521077","0.0-14.0-0.67","606dc21c1ce7dc64af9d81fb","650c16f0f2faf8d7a0d14c09","651c1c94e74d43c0ae614d3d","null","null","<p style=""font-size: 60px; font-family: BACS"">CtmbRCdc</p>","","","","","","","","",""
"html-keyboard-response","319","522087","0.0-14.0-0.68","606dc21c1ce7dc64af9d81fb","650c16f0f2faf8d7a0d14c09","651c1c94e74d43c0ae614d3d","null","null","<p style=""font-size: 60px; font-family: BACS"">laYmrJUG</p>","","","","","","","","",""
"html-keyboard-response","320","523101","0.0-14.0-0.69","606dc21c1ce7dc64af9d81fb","650c16f0f2faf8d7a0d14c09","651c1c94e74d43c0ae614d3d","null","null","<p style=""font-size: 60px; font-family: BACS"">tmtEMdEPD</p>","","","","","","","","",""
"html-keyboard-response","321","524107","0.0-14.0-0.70","606dc21c1ce7dc64af9d81fb","650c16f0f2faf8d7a0d14c09","651c1c94e74d43c0ae614d3d","null","null","<p style=""font-size: 60px; font-family: BACS"">aYQmJUG</p>","","","","","","","","",""
"html-keyboard-response","322","525108","0.0-14.0-0.71","606dc21c1ce7dc64af9d81fb","650c16f0f2faf8d7a0d14c09","651c1c94e74d43c0ae614d3d","null","null","<p style=""font-size: 60px; font-family: BACS"">DCmhEAO</p>","","","","","","","","",""
"html-keyboard-response","323","526111","0.0-14.0-0.72","606dc21c1ce7dc64af9d81fb","650c16f0f2faf8d7a0d14c09","651c1c94e74d43c0ae614d3d","null","null","<p style=""font-size: 60px; font-family: BACS"">UdumdLaA</p>","","","","","","","","",""
"html-keyboard-response","324","527127","0.0-14.0-0.73","606dc21c1ce7dc64af9d81fb","650c16f0f2faf8d7a0d14c09","651c1c94e74d43c0ae614d3d","null","null","<p style=""font-size: 60px; font-family: BACS"">bcbMRCdc</p>","","","","","","","","",""
"html-keyboard-response","325","528133","0.0-14.0-0.74","606dc21c1ce7dc64af9d81fb","650c16f0f2faf8d7a0d14c09","651c1c94e74d43c0ae614d3d","null","null","<p style=""font-size: 60px; font-family: BACS"">UdumdJUG</p>","","","","","","","","",""
"html-keyboard-response","326","529147","0.0-14.0-0.75","606dc21c1ce7dc64af9d81fb","650c16f0f2faf8d7a0d14c09","651c1c94e74d43c0ae614d3d","null","null","<p style=""font-size: 60px; font-family: BACS"">JvaALaA</p>","","","","","","","","",""
"html-keyboard-response","327","530151","0.0-14.0-0.76","606dc21c1ce7dc64af9d81fb","650c16f0f2faf8d7a0d14c09","651c1c94e74d43c0ae614d3d","null","null","<p style=""font-size: 60px; font-family: BACS"">advYOJUG</p>","","","","","","","","",""
"html-keyboard-response","328","531162","0.0-14.0-0.77","606dc21c1ce7dc64af9d81fb","650c16f0f2faf8d7a0d14c09","651c1c94e74d43c0ae614d3d","null","null","<p style=""font-size: 60px; font-family: BACS"">laYmrLaA</p>","","","","","","","","",""
"html-keyboard-response","329","532175","0.0-14.0-0.78","606dc21c1ce7dc64af9d81fb","650c16f0f2faf8d7a0d14c09","651c1c94e74d43c0ae614d3d","null","null","<p style=""font-size: 60px; font-family: BACS"">DCmhATc</p>","","","","","","","","",""
"html-keyboard-response","330","533187","0.0-14.0-0.79","606dc21c1ce7dc64af9d81fb","650c16f0f2faf8d7a0d14c09","651c1c94e74d43c0ae614d3d","null","null","<p style=""font-size: 60px; font-family: BACS"">laYmrJQA</p>","","","","","","","","",""
"html-keyboard-response","331","547874","0.0-15.0","606dc21c1ce7dc64af9d81fb","650c16f0f2faf8d7a0d14c09","651c1c94e74d43c0ae614d3d","14685"," ","<p>Great, you've seen the fourth block of words. You may now take a short break.</p>
      <p>Press the spacebar when you're ready to continue.</p>","","","","","","","","",""
"html-keyboard-response","332","548879","0.0-16.0-0.0","606dc21c1ce7dc64af9d81fb","650c16f0f2faf8d7a0d14c09","651c1c94e74d43c0ae614d3d","null","null","<p style=""font-size: 60px; font-family: BACS"">laYmrJQA</p>","","","","","","","","",""
"html-keyboard-response","333","549882","0.0-16.0-0.1","606dc21c1ce7dc64af9d81fb","650c16f0f2faf8d7a0d14c09","651c1c94e74d43c0ae614d3d","null","null","<p style=""font-size: 60px; font-family: BACS"">laYmrJQA</p>","","","","","","","","",""
"html-keyboard-response","334","550896","0.0-16.0-0.2","606dc21c1ce7dc64af9d81fb","650c16f0f2faf8d7a0d14c09","651c1c94e74d43c0ae614d3d","null","null","<p style=""font-size: 60px; font-family: BACS"">laYmrJQA</p>","","","","","","","","",""
"html-keyboard-response","335","551907","0.0-16.0-0.3","606dc21c1ce7dc64af9d81fb","650c16f0f2faf8d7a0d14c09","651c1c94e74d43c0ae614d3d","null","null","<p style=""font-size: 60px; font-family: BACS"">laYmrJQA</p>","","","","","","","","",""
"html-keyboard-response","336","552921","0.0-16.0-0.4","606dc21c1ce7dc64af9d81fb","650c16f0f2faf8d7a0d14c09","651c1c94e74d43c0ae614d3d","null","null","<p style=""font-size: 60px; font-family: BACS"">laYmrJQA</p>","","","","","","","","",""
"html-keyboard-response","337","553927","0.0-16.0-0.5","606dc21c1ce7dc64af9d81fb","650c16f0f2faf8d7a0d14c09","651c1c94e74d43c0ae614d3d","null","null","<p style=""font-size: 60px; font-family: BACS"">laYmrJQA</p>","","","","","","","","",""
"html-keyboard-response","338","554940","0.0-16.0-0.6","606dc21c1ce7dc64af9d81fb","650c16f0f2faf8d7a0d14c09","651c1c94e74d43c0ae614d3d","null","null","<p style=""font-size: 60px; font-family: BACS"">laYmrJQA</p>","","","","","","","","",""
"html-keyboard-response","339","555947","0.0-16.0-0.7","606dc21c1ce7dc64af9d81fb","650c16f0f2faf8d7a0d14c09","651c1c94e74d43c0ae614d3d","null","null","<p style=""font-size: 60px; font-family: BACS"">laYmrJQA</p>","","","","","","","","",""
"html-keyboard-response","340","556962","0.0-16.0-0.8","606dc21c1ce7dc64af9d81fb","650c16f0f2faf8d7a0d14c09","651c1c94e74d43c0ae614d3d","null","null","<p style=""font-size: 60px; font-family: BACS"">laYmrJQA</p>","","","","","","","","",""
"html-keyboard-response","341","557967","0.0-16.0-0.9","606dc21c1ce7dc64af9d81fb","650c16f0f2faf8d7a0d14c09","651c1c94e74d43c0ae614d3d","null","null","<p style=""font-size: 60px; font-family: BACS"">laYmrJQA</p>","","","","","","","","",""
"html-keyboard-response","342","558972","0.0-16.0-0.10","606dc21c1ce7dc64af9d81fb","650c16f0f2faf8d7a0d14c09","651c1c94e74d43c0ae614d3d","null","null","<p style=""font-size: 60px; font-family: BACS"">laYmrJQA</p>","","","","","","","","",""
"html-keyboard-response","343","559988","0.0-16.0-0.11","606dc21c1ce7dc64af9d81fb","650c16f0f2faf8d7a0d14c09","651c1c94e74d43c0ae614d3d","null","null","<p style=""font-size: 60px; font-family: BACS"">laYmrJQA</p>","","","","","","","","",""
"html-keyboard-response","344","561001","0.0-16.0-0.12","606dc21c1ce7dc64af9d81fb","650c16f0f2faf8d7a0d14c09","651c1c94e74d43c0ae614d3d","null","null","<p style=""font-size: 60px; font-family: BACS"">laYmrJQA</p>","","","","","","","","",""
"html-keyboard-response","345","562011","0.0-16.0-0.13","606dc21c1ce7dc64af9d81fb","650c16f0f2faf8d7a0d14c09","651c1c94e74d43c0ae614d3d","null","null","<p style=""font-size: 60px; font-family: BACS"">laYmrJQA</p>","","","","","","","","",""
"html-keyboard-response","346","563016","0.0-16.0-0.14","606dc21c1ce7dc64af9d81fb","650c16f0f2faf8d7a0d14c09","651c1c94e74d43c0ae614d3d","null","null","<p style=""font-size: 60px; font-family: BACS"">laYmrJQA</p>","","","","","","","","",""
"html-keyboard-response","347","564028","0.0-16.0-0.15","606dc21c1ce7dc64af9d81fb","650c16f0f2faf8d7a0d14c09","651c1c94e74d43c0ae614d3d","null","null","<p style=""font-size: 60px; font-family: BACS"">laYmrJQA</p>","","","","","","","","",""
"html-keyboard-response","348","565042","0.0-16.0-0.16","606dc21c1ce7dc64af9d81fb","650c16f0f2faf8d7a0d14c09","651c1c94e74d43c0ae614d3d","null","null","<p style=""font-size: 60px; font-family: BACS"">laYmrJQA</p>","","","","","","","","",""
"html-keyboard-response","349","566052","0.0-16.0-0.17","606dc21c1ce7dc64af9d81fb","650c16f0f2faf8d7a0d14c09","651c1c94e74d43c0ae614d3d","null","null","<p style=""font-size: 60px; font-family: BACS"">laYmrJQA</p>","","","","","","","","",""
"html-keyboard-response","350","567056","0.0-16.0-0.18","606dc21c1ce7dc64af9d81fb","650c16f0f2faf8d7a0d14c09","651c1c94e74d43c0ae614d3d","null","null","<p style=""font-size: 60px; font-family: BACS"">laYmrJQA</p>","","","","","","","","",""
"html-keyboard-response","351","568070","0.0-16.0-0.19","606dc21c1ce7dc64af9d81fb","650c16f0f2faf8d7a0d14c09","651c1c94e74d43c0ae614d3d","null","null","<p style=""font-size: 60px; font-family: BACS"">laYmrJQA</p>","","","","","","","","",""
"html-keyboard-response","352","569077","0.0-16.0-0.20","606dc21c1ce7dc64af9d81fb","650c16f0f2faf8d7a0d14c09","651c1c94e74d43c0ae614d3d","null","null","<p style=""font-size: 60px; font-family: BACS"">laYmrJQA</p>","","","","","","","","",""
"html-keyboard-response","353","570083","0.0-16.0-0.21","606dc21c1ce7dc64af9d81fb","650c16f0f2faf8d7a0d14c09","651c1c94e74d43c0ae614d3d","null","null","<p style=""font-size: 60px; font-family: BACS"">laYmrJQA</p>","","","","","","","","",""
"html-keyboard-response","354","571097","0.0-16.0-0.22","606dc21c1ce7dc64af9d81fb","650c16f0f2faf8d7a0d14c09","651c1c94e74d43c0ae614d3d","null","null","<p style=""font-size: 60px; font-family: BACS"">laYmrJQA</p>","","","","","","","","",""
"html-keyboard-response","355","572107","0.0-16.0-0.23","606dc21c1ce7dc64af9d81fb","650c16f0f2faf8d7a0d14c09","651c1c94e74d43c0ae614d3d","null","null","<p style=""font-size: 60px; font-family: BACS"">laYmrJQA</p>","","","","","","","","",""
"html-keyboard-response","356","573111","0.0-16.0-0.24","606dc21c1ce7dc64af9d81fb","650c16f0f2faf8d7a0d14c09","651c1c94e74d43c0ae614d3d","null","null","<p style=""font-size: 60px; font-family: BACS"">laYmrJQA</p>","","","","","","","","",""
"html-keyboard-response","357","574117","0.0-16.0-0.25","606dc21c1ce7dc64af9d81fb","650c16f0f2faf8d7a0d14c09","651c1c94e74d43c0ae614d3d","null","null","<p style=""font-size: 60px; font-family: BACS"">laYmrJQA</p>","","","","","","","","",""
"html-keyboard-response","358","575119","0.0-16.0-0.26","606dc21c1ce7dc64af9d81fb","650c16f0f2faf8d7a0d14c09","651c1c94e74d43c0ae614d3d","null","null","<p style=""font-size: 60px; font-family: BACS"">laYmrJQA</p>","","","","","","","","",""
"html-keyboard-response","359","576122","0.0-16.0-0.27","606dc21c1ce7dc64af9d81fb","650c16f0f2faf8d7a0d14c09","651c1c94e74d43c0ae614d3d","null","null","<p style=""font-size: 60px; font-family: BACS"">laYmrJQA</p>","","","","","","","","",""
"html-keyboard-response","360","577135","0.0-16.0-0.28","606dc21c1ce7dc64af9d81fb","650c16f0f2faf8d7a0d14c09","651c1c94e74d43c0ae614d3d","null","null","<p style=""font-size: 60px; font-family: BACS"">laYmrJQA</p>","","","","","","","","",""
"html-keyboard-response","361","578147","0.0-16.0-0.29","606dc21c1ce7dc64af9d81fb","650c16f0f2faf8d7a0d14c09","651c1c94e74d43c0ae614d3d","null","null","<p style=""font-size: 60px; font-family: BACS"">laYmrJQA</p>","","","","","","","","",""
"html-keyboard-response","362","579160","0.0-16.0-0.30","606dc21c1ce7dc64af9d81fb","650c16f0f2faf8d7a0d14c09","651c1c94e74d43c0ae614d3d","null","null","<p style=""font-size: 60px; font-family: BACS"">laYmrJQA</p>","","","","","","","","",""
"html-keyboard-response","363","580172","0.0-16.0-0.31","606dc21c1ce7dc64af9d81fb","650c16f0f2faf8d7a0d14c09","651c1c94e74d43c0ae614d3d","null","null","<p style=""font-size: 60px; font-family: BACS"">laYmrJQA</p>","","","","","","","","",""
"html-keyboard-response","364","581185","0.0-16.0-0.32","606dc21c1ce7dc64af9d81fb","650c16f0f2faf8d7a0d14c09","651c1c94e74d43c0ae614d3d","null","null","<p style=""font-size: 60px; font-family: BACS"">laYmrJQA</p>","","","","","","","","",""
"html-keyboard-response","365","582197","0.0-16.0-0.33","606dc21c1ce7dc64af9d81fb","650c16f0f2faf8d7a0d14c09","651c1c94e74d43c0ae614d3d","null","null","<p style=""font-size: 60px; font-family: BACS"">laYmrJQA</p>","","","","","","","","",""
"html-keyboard-response","366","583210","0.0-16.0-0.34","606dc21c1ce7dc64af9d81fb","650c16f0f2faf8d7a0d14c09","651c1c94e74d43c0ae614d3d","null","null","<p style=""font-size: 60px; font-family: BACS"">laYmrJQA</p>","","","","","","","","",""
"html-keyboard-response","367","584225","0.0-16.0-0.35","606dc21c1ce7dc64af9d81fb","650c16f0f2faf8d7a0d14c09","651c1c94e74d43c0ae614d3d","null","null","<p style=""font-size: 60px; font-family: BACS"">laYmrJQA</p>","","","","","","","","",""
"html-keyboard-response","368","585239","0.0-16.0-0.36","606dc21c1ce7dc64af9d81fb","650c16f0f2faf8d7a0d14c09","651c1c94e74d43c0ae614d3d","null","null","<p style=""font-size: 60px; font-family: BACS"">laYmrJQA</p>","","","","","","","","",""
"html-keyboard-response","369","586251","0.0-16.0-0.37","606dc21c1ce7dc64af9d81fb","650c16f0f2faf8d7a0d14c09","651c1c94e74d43c0ae614d3d","null","null","<p style=""font-size: 60px; font-family: BACS"">laYmrJQA</p>","","","","","","","","",""
"html-keyboard-response","370","587265","0.0-16.0-0.38","606dc21c1ce7dc64af9d81fb","650c16f0f2faf8d7a0d14c09","651c1c94e74d43c0ae614d3d","null","null","<p style=""font-size: 60px; font-family: BACS"">laYmrJQA</p>","","","","","","","","",""
"html-keyboard-response","371","588268","0.0-16.0-0.39","606dc21c1ce7dc64af9d81fb","650c16f0f2faf8d7a0d14c09","651c1c94e74d43c0ae614d3d","null","null","<p style=""font-size: 60px; font-family: BACS"">laYmrJQA</p>","","","","","","","","",""
"html-keyboard-response","372","589281","0.0-16.0-0.40","606dc21c1ce7dc64af9d81fb","650c16f0f2faf8d7a0d14c09","651c1c94e74d43c0ae614d3d","null","null","<p style=""font-size: 60px; font-family: BACS"">laYmrJQA</p>","","","","","","","","",""
"html-keyboard-response","373","590286","0.0-16.0-0.41","606dc21c1ce7dc64af9d81fb","650c16f0f2faf8d7a0d14c09","651c1c94e74d43c0ae614d3d","null","null","<p style=""font-size: 60px; font-family: BACS"">laYmrJQA</p>","","","","","","","","",""
"html-keyboard-response","374","591301","0.0-16.0-0.42","606dc21c1ce7dc64af9d81fb","650c16f0f2faf8d7a0d14c09","651c1c94e74d43c0ae614d3d","null","null","<p style=""font-size: 60px; font-family: BACS"">laYmrJQA</p>","","","","","","","","",""
"html-keyboard-response","375","592312","0.0-16.0-0.43","606dc21c1ce7dc64af9d81fb","650c16f0f2faf8d7a0d14c09","651c1c94e74d43c0ae614d3d","null","null","<p style=""font-size: 60px; font-family: BACS"">laYmrJQA</p>","","","","","","","","",""
"html-keyboard-response","376","593328","0.0-16.0-0.44","606dc21c1ce7dc64af9d81fb","650c16f0f2faf8d7a0d14c09","651c1c94e74d43c0ae614d3d","null","null","<p style=""font-size: 60px; font-family: BACS"">laYmrJQA</p>","","","","","","","","",""
"html-keyboard-response","377","594339","0.0-16.0-0.45","606dc21c1ce7dc64af9d81fb","650c16f0f2faf8d7a0d14c09","651c1c94e74d43c0ae614d3d","null","null","<p style=""font-size: 60px; font-family: BACS"">laYmrJQA</p>","","","","","","","","",""
"html-keyboard-response","378","595351","0.0-16.0-0.46","606dc21c1ce7dc64af9d81fb","650c16f0f2faf8d7a0d14c09","651c1c94e74d43c0ae614d3d","null","null","<p style=""font-size: 60px; font-family: BACS"">laYmrJQA</p>","","","","","","","","",""
"html-keyboard-response","379","596364","0.0-16.0-0.47","606dc21c1ce7dc64af9d81fb","650c16f0f2faf8d7a0d14c09","651c1c94e74d43c0ae614d3d","null","null","<p style=""font-size: 60px; font-family: BACS"">laYmrJQA</p>","","","","","","","","",""
"html-keyboard-response","380","597379","0.0-16.0-0.48","606dc21c1ce7dc64af9d81fb","650c16f0f2faf8d7a0d14c09","651c1c94e74d43c0ae614d3d","null","null","<p style=""font-size: 60px; font-family: BACS"">laYmrJQA</p>","","","","","","","","",""
"html-keyboard-response","381","598390","0.0-16.0-0.49","606dc21c1ce7dc64af9d81fb","650c16f0f2faf8d7a0d14c09","651c1c94e74d43c0ae614d3d","null","null","<p style=""font-size: 60px; font-family: BACS"">laYmrJQA</p>","","","","","","","","",""
"html-keyboard-response","382","599391","0.0-16.0-0.50","606dc21c1ce7dc64af9d81fb","650c16f0f2faf8d7a0d14c09","651c1c94e74d43c0ae614d3d","null","null","<p style=""font-size: 60px; font-family: BACS"">laYmrJQA</p>","","","","","","","","",""
"html-keyboard-response","383","600395","0.0-16.0-0.51","606dc21c1ce7dc64af9d81fb","650c16f0f2faf8d7a0d14c09","651c1c94e74d43c0ae614d3d","null","null","<p style=""font-size: 60px; font-family: BACS"">laYmrJQA</p>","","","","","","","","",""
"html-keyboard-response","384","601406","0.0-16.0-0.52","606dc21c1ce7dc64af9d81fb","650c16f0f2faf8d7a0d14c09","651c1c94e74d43c0ae614d3d","null","null","<p style=""font-size: 60px; font-family: BACS"">laYmrJQA</p>","","","","","","","","",""
"html-keyboard-response","385","602416","0.0-16.0-0.53","606dc21c1ce7dc64af9d81fb","650c16f0f2faf8d7a0d14c09","651c1c94e74d43c0ae614d3d","null","null","<p style=""font-size: 60px; font-family: BACS"">laYmrJQA</p>","","","","","","","","",""
"html-keyboard-response","386","603448","0.0-16.0-0.54","606dc21c1ce7dc64af9d81fb","650c16f0f2faf8d7a0d14c09","651c1c94e74d43c0ae614d3d","null","null","<p style=""font-size: 60px; font-family: BACS"">laYmrJQA</p>","","","","","","","","",""
"html-keyboard-response","387","604464","0.0-16.0-0.55","606dc21c1ce7dc64af9d81fb","650c16f0f2faf8d7a0d14c09","651c1c94e74d43c0ae614d3d","null","null","<p style=""font-size: 60px; font-family: BACS"">laYmrJQA</p>","","","","","","","","",""
"html-keyboard-response","388","605477","0.0-16.0-0.56","606dc21c1ce7dc64af9d81fb","650c16f0f2faf8d7a0d14c09","651c1c94e74d43c0ae614d3d","null","null","<p style=""font-size: 60px; font-family: BACS"">laYmrJQA</p>","","","","","","","","",""
"html-keyboard-response","389","606492","0.0-16.0-0.57","606dc21c1ce7dc64af9d81fb","650c16f0f2faf8d7a0d14c09","651c1c94e74d43c0ae614d3d","null","null","<p style=""font-size: 60px; font-family: BACS"">laYmrJQA</p>","","","","","","","","",""
"html-keyboard-response","390","607507","0.0-16.0-0.58","606dc21c1ce7dc64af9d81fb","650c16f0f2faf8d7a0d14c09","651c1c94e74d43c0ae614d3d","null","null","<p style=""font-size: 60px; font-family: BACS"">laYmrJQA</p>","","","","","","","","",""
"html-keyboard-response","391","608512","0.0-16.0-0.59","606dc21c1ce7dc64af9d81fb","650c16f0f2faf8d7a0d14c09","651c1c94e74d43c0ae614d3d","null","null","<p style=""font-size: 60px; font-family: BACS"">laYmrJQA</p>","","","","","","","","",""
"html-keyboard-response","392","609516","0.0-16.0-0.60","606dc21c1ce7dc64af9d81fb","650c16f0f2faf8d7a0d14c09","651c1c94e74d43c0ae614d3d","null","null","<p style=""font-size: 60px; font-family: BACS"">laYmrJQA</p>","","","","","","","","",""
"html-keyboard-response","393","610521","0.0-16.0-0.61","606dc21c1ce7dc64af9d81fb","650c16f0f2faf8d7a0d14c09","651c1c94e74d43c0ae614d3d","null","null","<p style=""font-size: 60px; font-family: BACS"">laYmrJQA</p>","","","","","","","","",""
"html-keyboard-response","394","611532","0.0-16.0-0.62","606dc21c1ce7dc64af9d81fb","650c16f0f2faf8d7a0d14c09","651c1c94e74d43c0ae614d3d","null","null","<p style=""font-size: 60px; font-family: BACS"">laYmrJQA</p>","","","","","","","","",""
"html-keyboard-response","395","612537","0.0-16.0-0.63","606dc21c1ce7dc64af9d81fb","650c16f0f2faf8d7a0d14c09","651c1c94e74d43c0ae614d3d","null","null","<p style=""font-size: 60px; font-family: BACS"">laYmrJQA</p>","","","","","","","","",""
"html-keyboard-response","396","613552","0.0-16.0-0.64","606dc21c1ce7dc64af9d81fb","650c16f0f2faf8d7a0d14c09","651c1c94e74d43c0ae614d3d","null","null","<p style=""font-size: 60px; font-family: BACS"">laYmrJQA</p>","","","","","","","","",""
"html-keyboard-response","397","614560","0.0-16.0-0.65","606dc21c1ce7dc64af9d81fb","650c16f0f2faf8d7a0d14c09","651c1c94e74d43c0ae614d3d","null","null","<p style=""font-size: 60px; font-family: BACS"">laYmrJQA</p>","","","","","","","","",""
"html-keyboard-response","398","615568","0.0-16.0-0.66","606dc21c1ce7dc64af9d81fb","650c16f0f2faf8d7a0d14c09","651c1c94e74d43c0ae614d3d","null","null","<p style=""font-size: 60px; font-family: BACS"">laYmrJQA</p>","","","","","","","","",""
