"trial_type","trial_index","time_elapsed","internal_node_id","subject_id","study_id","session_id","rt","response","stimulus","success","item","task","correct_response","testing_condition","correct","target","confound","name"
"pavlovia","0","821","0.0-0.0","5cefe8856e0eec00015971dd","650c16f0f2faf8d7a0d14c09","651c1cc5b5c9aac9fbce9653","","","","","","","","","","","",""
"survey-html-form","1","6490","0.0-1.0","5cefe8856e0eec00015971dd","650c16f0f2faf8d7a0d14c09","651c1cc5b5c9aac9fbce9653","5668","{""ID"":""5cefe8856e0eec00015971dd""}","","","","","","","","","",""
"html-keyboard-response","2","9488","0.0-2.0","5cefe8856e0eec00015971dd","650c16f0f2faf8d7a0d14c09","651c1cc5b5c9aac9fbce9653","2997"," ","<p style=""font-size: 15px;"">Before beginning, we ask that you read the consent information and confirm your agreement to participate in the experiment.</p>
      <p style=""font-size: 15px;""> We ask that you remember that this is a research project and that your participation is entirely voluntary. You can stop your participation at any time, without needing to provide any explanation. The study we're asking you to participate in aims at examining how readers process written words. You will be engaged in a session of apprximately 20 minutes, followed by a brief questionnaire. You will have the opportunity to take a few breaks during the experiment. You will be paid £4 for your participation, corresponding to a rate of £8/hour. While this experiment looks at cognitive faculties, this experiment doesn't constitute clinical proof of eventual pathologies.</p>
      <p style=""font-size: 15px;"">All of the information collected thanks to yours and others' participation will be held in a secure password-protected server, and will not be shared with anyone not authorised to view it. Your personal information will be kept with an arbitrary participant ID. Thanks to this data anonymity process, any researcher analysing the data won't be able to track the information back to a specific participant. Therefore, this process will make identifying you impossibile, even when results from the study will be published in scientific reviews, presented at congresses, or at any other public forum. More generally, the collected data will be treated in accordance with the laws on privacy and conformity to the Legislative Degree n. 196 ""Code regarding the protection of personal data"" of the 30th of June 2003 and to the European Regulation 2016/670 (General Data Protection Regulation - GDPR). The Data Protection Officer is Avv. Valentina Carollo, who can be contacted at the following email addresses: <a href=""mailto:dpo@sissa.it"">dpo@sissa.it</a> or <a href=""mailto:rpd@sissa.it"">rpd@sissa.it</a> - PEC: <a href=""mailto:protocollo@pec.sissa.it"">protocollo@pec.sissa.it</a>.</p>
      <p style=""font-size: 15px;""> Before expressing your consent to participate, we would like to remind you again that in case you need explanations on any aspect of the experimental procedure, the researcher is at your disposition (<a href=""mailto:aliebelt@sissa.it"">aliebelt@sissa.it</a>, <a href=""mailto:davide.crepaldi@sissa.it"">davide.crepaldi@sissa.it</a>).</p>
      <p style=""font-size: 15px;"">If you would like to download the informed consent form, you can do so here: <a href=""BASL-Informed_Consent.pdf"" download>informed consent form</a>.</p>
      <p style=""font-size: 15px;"">We ask that you press the spacebar to proceed to the consent section.</p>","","","","","","","","",""
"survey-html-form","3","16576","0.0-3.0","5cefe8856e0eec00015971dd","650c16f0f2faf8d7a0d14c09","651c1cc5b5c9aac9fbce9653","7087","{""consent1"":""YES"",""consent2"":""YES"",""consent3"":""YES"",""consent4"":""YES"",""consent5"":""YES"",""consent6"":""YES""}","","","","","","","","","",""
"fullscreen","4","21249","0.0-4.0","5cefe8856e0eec00015971dd","650c16f0f2faf8d7a0d14c09","651c1cc5b5c9aac9fbce9653","","","","true","","","","","","","",""
"html-keyboard-response","5","45778","0.0-5.0","5cefe8856e0eec00015971dd","650c16f0f2faf8d7a0d14c09","651c1cc5b5c9aac9fbce9653","24528"," ","<p>Welcome, and thank you very much for your time!</p>
      <p>In this experiment, you'll be a language expert who's been asked to take a look at words that Earth has received in its first communication with aliens. Your task, in this first part of the experiment, is to pay close attention to the words you'll be shown; later, world leaders will ask you questions on what you saw. The words will be shown to you quite quickly; it seems that the aliens were in a hurry :-)</p>
      <p>Press the spacebar to continue.<p>","","","","","","","","",""
"html-keyboard-response","6","45834","0.0-6.0","5cefe8856e0eec00015971dd","650c16f0f2faf8d7a0d14c09","651c1cc5b5c9aac9fbce9653","null","null","<p style=""font-size: 120px; font-family: BACS""> </p>","","","","","","","","",""
"html-keyboard-response","7","49473","0.0-7.0","5cefe8856e0eec00015971dd","650c16f0f2faf8d7a0d14c09","651c1cc5b5c9aac9fbce9653","3637"," ","<p>Here is an example of the words you'll see:</p>
      <img src='esempio.png' height='400px'>
      <p>When you're ready to begin, press the spacebar.</p></div>","","","","","","","","",""
"html-keyboard-response","8","50488","0.0-8.0-0.0","5cefe8856e0eec00015971dd","650c16f0f2faf8d7a0d14c09","651c1cc5b5c9aac9fbce9653","null","null","<p style=""font-size: 60px; font-family: BACS"">OcYMYcM</p>","","","","","","","","",""
"html-keyboard-response","9","51493","0.0-8.0-0.1","5cefe8856e0eec00015971dd","650c16f0f2faf8d7a0d14c09","651c1cc5b5c9aac9fbce9653","null","null","<p style=""font-size: 60px; font-family: BACS"">hbkdYbBT</p>","","","","","","","","",""
"html-keyboard-response","10","52503","0.0-8.0-0.2","5cefe8856e0eec00015971dd","650c16f0f2faf8d7a0d14c09","651c1cc5b5c9aac9fbce9653","null","null","<p style=""font-size: 60px; font-family: BACS"">EMYKTRK</p>","","","","","","","","",""
"html-keyboard-response","11","53524","0.0-8.0-0.3","5cefe8856e0eec00015971dd","650c16f0f2faf8d7a0d14c09","651c1cc5b5c9aac9fbce9653","null","null","<p style=""font-size: 60px; font-family: BACS"">Udumdlvk</p>","","","","","","","","",""
"html-keyboard-response","12","54539","0.0-8.0-0.4","5cefe8856e0eec00015971dd","650c16f0f2faf8d7a0d14c09","651c1cc5b5c9aac9fbce9653","null","null","<p style=""font-size: 60px; font-family: BACS"">BMEMAYbBT</p>","","","","","","","","",""
"html-keyboard-response","13","55556","0.0-8.0-0.5","5cefe8856e0eec00015971dd","650c16f0f2faf8d7a0d14c09","651c1cc5b5c9aac9fbce9653","null","null","<p style=""font-size: 60px; font-family: BACS"">YOaAbJUG</p>","","","","","","","","",""
"html-keyboard-response","14","56572","0.0-8.0-0.6","5cefe8856e0eec00015971dd","650c16f0f2faf8d7a0d14c09","651c1cc5b5c9aac9fbce9653","null","null","<p style=""font-size: 60px; font-family: BACS"">JrGvGlu</p>","","","","","","","","",""
"html-keyboard-response","15","57588","0.0-8.0-0.7","5cefe8856e0eec00015971dd","650c16f0f2faf8d7a0d14c09","651c1cc5b5c9aac9fbce9653","null","null","<p style=""font-size: 60px; font-family: BACS"">OcYMRdCc</p>","","","","","","","","",""
"html-keyboard-response","16","58590","0.0-8.0-0.8","5cefe8856e0eec00015971dd","650c16f0f2faf8d7a0d14c09","651c1cc5b5c9aac9fbce9653","null","null","<p style=""font-size: 60px; font-family: BACS"">MBKRETRK</p>","","","","","","","","",""
"html-keyboard-response","17","59594","0.0-8.0-0.9","5cefe8856e0eec00015971dd","650c16f0f2faf8d7a0d14c09","651c1cc5b5c9aac9fbce9653","null","null","<p style=""font-size: 60px; font-family: BACS"">aONdGUOA</p>","","","","","","","","",""
"html-keyboard-response","18","60602","0.0-8.0-0.10","5cefe8856e0eec00015971dd","650c16f0f2faf8d7a0d14c09","651c1cc5b5c9aac9fbce9653","null","null","<p style=""font-size: 60px; font-family: BACS"">NaAQdlvk</p>","","","","","","","","",""
"html-keyboard-response","19","61603","0.0-8.0-0.11","5cefe8856e0eec00015971dd","650c16f0f2faf8d7a0d14c09","651c1cc5b5c9aac9fbce9653","null","null","<p style=""font-size: 60px; font-family: BACS"">UdumdJUG</p>","","","","","","","","",""
"html-keyboard-response","20","62621","0.0-8.0-0.12","5cefe8856e0eec00015971dd","650c16f0f2faf8d7a0d14c09","651c1cc5b5c9aac9fbce9653","null","null","<p style=""font-size: 60px; font-family: BACS"">uvaUlvk</p>","","","","","","","","",""
"html-keyboard-response","21","63623","0.0-8.0-0.13","5cefe8856e0eec00015971dd","650c16f0f2faf8d7a0d14c09","651c1cc5b5c9aac9fbce9653","null","null","<p style=""font-size: 60px; font-family: BACS"">rcmuvkdrO</p>","","","","","","","","",""
"html-keyboard-response","22","64628","0.0-8.0-0.14","5cefe8856e0eec00015971dd","650c16f0f2faf8d7a0d14c09","651c1cc5b5c9aac9fbce9653","null","null","<p style=""font-size: 60px; font-family: BACS"">OmtlDTRK</p>","","","","","","","","",""
"html-keyboard-response","23","65635","0.0-8.0-0.15","5cefe8856e0eec00015971dd","650c16f0f2faf8d7a0d14c09","651c1cc5b5c9aac9fbce9653","null","null","<p style=""font-size: 60px; font-family: BACS"">bmbNGlu</p>","","","","","","","","",""
"html-keyboard-response","24","66643","0.0-8.0-0.16","5cefe8856e0eec00015971dd","650c16f0f2faf8d7a0d14c09","651c1cc5b5c9aac9fbce9653","null","null","<p style=""font-size: 60px; font-family: BACS"">lRCBYbBT</p>","","","","","","","","",""
"html-keyboard-response","25","67653","0.0-8.0-0.17","5cefe8856e0eec00015971dd","650c16f0f2faf8d7a0d14c09","651c1cc5b5c9aac9fbce9653","null","null","<p style=""font-size: 60px; font-family: BACS"">JrGvlvk</p>","","","","","","","","",""
"html-keyboard-response","26","68656","0.0-8.0-0.18","5cefe8856e0eec00015971dd","650c16f0f2faf8d7a0d14c09","651c1cc5b5c9aac9fbce9653","null","null","<p style=""font-size: 60px; font-family: BACS"">rdLJakdrO</p>","","","","","","","","",""
"html-keyboard-response","27","69660","0.0-8.0-0.19","5cefe8856e0eec00015971dd","650c16f0f2faf8d7a0d14c09","651c1cc5b5c9aac9fbce9653","null","null","<p style=""font-size: 60px; font-family: BACS"">YObATAm</p>","","","","","","","","",""
"html-keyboard-response","28","70677","0.0-8.0-0.20","5cefe8856e0eec00015971dd","650c16f0f2faf8d7a0d14c09","651c1cc5b5c9aac9fbce9653","null","null","<p style=""font-size: 60px; font-family: BACS"">aONdkdrO</p>","","","","","","","","",""
"html-keyboard-response","29","71681","0.0-8.0-0.21","5cefe8856e0eec00015971dd","650c16f0f2faf8d7a0d14c09","651c1cc5b5c9aac9fbce9653","null","null","<p style=""font-size: 60px; font-family: BACS"">NaAQdGUOA</p>","","","","","","","","",""
"html-keyboard-response","30","72690","0.0-8.0-0.22","5cefe8856e0eec00015971dd","650c16f0f2faf8d7a0d14c09","651c1cc5b5c9aac9fbce9653","null","null","<p style=""font-size: 60px; font-family: BACS"">hbkdYcM</p>","","","","","","","","",""
"html-keyboard-response","31","73695","0.0-8.0-0.23","5cefe8856e0eec00015971dd","650c16f0f2faf8d7a0d14c09","651c1cc5b5c9aac9fbce9653","null","null","<p style=""font-size: 60px; font-family: BACS"">OmtlDRdCc</p>","","","","","","","","",""
"html-keyboard-response","32","74697","0.0-8.0-0.24","5cefe8856e0eec00015971dd","650c16f0f2faf8d7a0d14c09","651c1cc5b5c9aac9fbce9653","null","null","<p style=""font-size: 60px; font-family: BACS"">dMThkTAm</p>","","","","","","","","",""
"html-keyboard-response","33","75700","0.0-8.0-0.25","5cefe8856e0eec00015971dd","650c16f0f2faf8d7a0d14c09","651c1cc5b5c9aac9fbce9653","null","null","<p style=""font-size: 60px; font-family: BACS"">BMEMATRK</p>","","","","","","","","",""
"html-keyboard-response","34","76706","0.0-8.0-0.26","5cefe8856e0eec00015971dd","650c16f0f2faf8d7a0d14c09","651c1cc5b5c9aac9fbce9653","null","null","<p style=""font-size: 60px; font-family: BACS"">YOaAbGUOA</p>","","","","","","","","",""
"html-keyboard-response","35","77709","0.0-8.0-0.27","5cefe8856e0eec00015971dd","650c16f0f2faf8d7a0d14c09","651c1cc5b5c9aac9fbce9653","null","null","<p style=""font-size: 60px; font-family: BACS"">bmbNJUG</p>","","","","","","","","",""
"html-keyboard-response","36","78712","0.0-8.0-0.28","5cefe8856e0eec00015971dd","650c16f0f2faf8d7a0d14c09","651c1cc5b5c9aac9fbce9653","null","null","<p style=""font-size: 60px; font-family: BACS"">OcYMTAm</p>","","","","","","","","",""
"html-keyboard-response","37","79715","0.0-8.0-0.29","5cefe8856e0eec00015971dd","650c16f0f2faf8d7a0d14c09","651c1cc5b5c9aac9fbce9653","null","null","<p style=""font-size: 60px; font-family: BACS"">uvaUkdrO</p>","","","","","","","","",""
"html-keyboard-response","38","80728","0.0-8.0-0.30","5cefe8856e0eec00015971dd","650c16f0f2faf8d7a0d14c09","651c1cc5b5c9aac9fbce9653","null","null","<p style=""font-size: 60px; font-family: BACS"">lRCBTAm</p>","","","","","","","","",""
"html-keyboard-response","39","81740","0.0-8.0-0.31","5cefe8856e0eec00015971dd","650c16f0f2faf8d7a0d14c09","651c1cc5b5c9aac9fbce9653","null","null","<p style=""font-size: 60px; font-family: BACS"">UdumdGlu</p>","","","","","","","","",""
"html-keyboard-response","40","82747","0.0-8.0-0.32","5cefe8856e0eec00015971dd","650c16f0f2faf8d7a0d14c09","651c1cc5b5c9aac9fbce9653","null","null","<p style=""font-size: 60px; font-family: BACS"">CkBOPRdCc</p>","","","","","","","","",""
"html-keyboard-response","41","83753","0.0-8.0-0.33","5cefe8856e0eec00015971dd","650c16f0f2faf8d7a0d14c09","651c1cc5b5c9aac9fbce9653","null","null","<p style=""font-size: 60px; font-family: BACS"">aNYmbGlu</p>","","","","","","","","",""
"html-keyboard-response","42","84764","0.0-8.0-0.34","5cefe8856e0eec00015971dd","650c16f0f2faf8d7a0d14c09","651c1cc5b5c9aac9fbce9653","null","null","<p style=""font-size: 60px; font-family: BACS"">MBKREYbBT</p>","","","","","","","","",""
"html-keyboard-response","43","85774","0.0-8.0-0.35","5cefe8856e0eec00015971dd","650c16f0f2faf8d7a0d14c09","651c1cc5b5c9aac9fbce9653","null","null","<p style=""font-size: 60px; font-family: BACS"">EMYKYcM</p>","","","","","","","","",""
"html-keyboard-response","44","86779","0.0-8.0-0.36","5cefe8856e0eec00015971dd","650c16f0f2faf8d7a0d14c09","651c1cc5b5c9aac9fbce9653","null","null","<p style=""font-size: 60px; font-family: BACS"">BMEMATAm</p>","","","","","","","","",""
"html-keyboard-response","45","87781","0.0-8.0-0.37","5cefe8856e0eec00015971dd","650c16f0f2faf8d7a0d14c09","651c1cc5b5c9aac9fbce9653","null","null","<p style=""font-size: 60px; font-family: BACS"">dMThkTRK</p>","","","","","","","","",""
"html-keyboard-response","46","88798","0.0-8.0-0.38","5cefe8856e0eec00015971dd","650c16f0f2faf8d7a0d14c09","651c1cc5b5c9aac9fbce9653","null","null","<p style=""font-size: 60px; font-family: BACS"">JrGvGUOA</p>","","","","","","","","",""
"html-keyboard-response","47","89801","0.0-8.0-0.39","5cefe8856e0eec00015971dd","650c16f0f2faf8d7a0d14c09","651c1cc5b5c9aac9fbce9653","null","null","<p style=""font-size: 60px; font-family: BACS"">uvaUGlu</p>","","","","","","","","",""
"html-keyboard-response","48","90815","0.0-8.0-0.40","5cefe8856e0eec00015971dd","650c16f0f2faf8d7a0d14c09","651c1cc5b5c9aac9fbce9653","null","null","<p style=""font-size: 60px; font-family: BACS"">CkBOPTAm</p>","","","","","","","","",""
"html-keyboard-response","49","91823","0.0-8.0-0.41","5cefe8856e0eec00015971dd","650c16f0f2faf8d7a0d14c09","651c1cc5b5c9aac9fbce9653","null","null","<p style=""font-size: 60px; font-family: BACS"">MBKREYcM</p>","","","","","","","","",""
"html-keyboard-response","50","92830","0.0-8.0-0.42","5cefe8856e0eec00015971dd","650c16f0f2faf8d7a0d14c09","651c1cc5b5c9aac9fbce9653","null","null","<p style=""font-size: 60px; font-family: BACS"">YObATRK</p>","","","","","","","","",""
"html-keyboard-response","51","93833","0.0-8.0-0.43","5cefe8856e0eec00015971dd","650c16f0f2faf8d7a0d14c09","651c1cc5b5c9aac9fbce9653","null","null","<p style=""font-size: 60px; font-family: BACS"">NaAQdkdrO</p>","","","","","","","","",""
"html-keyboard-response","52","94841","0.0-8.0-0.44","5cefe8856e0eec00015971dd","650c16f0f2faf8d7a0d14c09","651c1cc5b5c9aac9fbce9653","null","null","<p style=""font-size: 60px; font-family: BACS"">JrGvJUG</p>","","","","","","","","",""
"html-keyboard-response","53","95851","0.0-8.0-0.45","5cefe8856e0eec00015971dd","650c16f0f2faf8d7a0d14c09","651c1cc5b5c9aac9fbce9653","null","null","<p style=""font-size: 60px; font-family: BACS"">OcYMYbBT</p>","","","","","","","","",""
"html-keyboard-response","54","96867","0.0-8.0-0.46","5cefe8856e0eec00015971dd","650c16f0f2faf8d7a0d14c09","651c1cc5b5c9aac9fbce9653","null","null","<p style=""font-size: 60px; font-family: BACS"">OmtlDYcM</p>","","","","","","","","",""
"html-keyboard-response","55","97871","0.0-8.0-0.47","5cefe8856e0eec00015971dd","650c16f0f2faf8d7a0d14c09","651c1cc5b5c9aac9fbce9653","null","null","<p style=""font-size: 60px; font-family: BACS"">rcmuvGlu</p>","","","","","","","","",""
"html-keyboard-response","56","98887","0.0-8.0-0.48","5cefe8856e0eec00015971dd","650c16f0f2faf8d7a0d14c09","651c1cc5b5c9aac9fbce9653","null","null","<p style=""font-size: 60px; font-family: BACS"">bmbNGUOA</p>","","","","","","","","",""
"html-keyboard-response","57","99905","0.0-8.0-0.49","5cefe8856e0eec00015971dd","650c16f0f2faf8d7a0d14c09","651c1cc5b5c9aac9fbce9653","null","null","<p style=""font-size: 60px; font-family: BACS"">hbkdTAm</p>","","","","","","","","",""
"html-keyboard-response","58","100912","0.0-8.0-0.50","5cefe8856e0eec00015971dd","650c16f0f2faf8d7a0d14c09","651c1cc5b5c9aac9fbce9653","null","null","<p style=""font-size: 60px; font-family: BACS"">rcmuvlvk</p>","","","","","","","","",""
"html-keyboard-response","59","101914","0.0-8.0-0.51","5cefe8856e0eec00015971dd","650c16f0f2faf8d7a0d14c09","651c1cc5b5c9aac9fbce9653","null","null","<p style=""font-size: 60px; font-family: BACS"">dMThkYcM</p>","","","","","","","","",""
"html-keyboard-response","60","102920","0.0-8.0-0.52","5cefe8856e0eec00015971dd","650c16f0f2faf8d7a0d14c09","651c1cc5b5c9aac9fbce9653","null","null","<p style=""font-size: 60px; font-family: BACS"">lRCBTRK</p>","","","","","","","","",""
"html-keyboard-response","61","103921","0.0-8.0-0.53","5cefe8856e0eec00015971dd","650c16f0f2faf8d7a0d14c09","651c1cc5b5c9aac9fbce9653","null","null","<p style=""font-size: 60px; font-family: BACS"">YOaAblvk</p>","","","","","","","","",""
"html-keyboard-response","62","104925","0.0-8.0-0.54","5cefe8856e0eec00015971dd","650c16f0f2faf8d7a0d14c09","651c1cc5b5c9aac9fbce9653","null","null","<p style=""font-size: 60px; font-family: BACS"">aONdGlu</p>","","","","","","","","",""
"html-keyboard-response","63","105931","0.0-8.0-0.55","5cefe8856e0eec00015971dd","650c16f0f2faf8d7a0d14c09","651c1cc5b5c9aac9fbce9653","null","null","<p style=""font-size: 60px; font-family: BACS"">CkBOPYcM</p>","","","","","","","","",""
"html-keyboard-response","64","106935","0.0-8.0-0.56","5cefe8856e0eec00015971dd","650c16f0f2faf8d7a0d14c09","651c1cc5b5c9aac9fbce9653","null","null","<p style=""font-size: 60px; font-family: BACS"">hbkdRdCc</p>","","","","","","","","",""
"html-keyboard-response","65","107936","0.0-8.0-0.57","5cefe8856e0eec00015971dd","650c16f0f2faf8d7a0d14c09","651c1cc5b5c9aac9fbce9653","null","null","<p style=""font-size: 60px; font-family: BACS"">rdLJaJUG</p>","","","","","","","","",""
"html-keyboard-response","66","108938","0.0-8.0-0.58","5cefe8856e0eec00015971dd","650c16f0f2faf8d7a0d14c09","651c1cc5b5c9aac9fbce9653","null","null","<p style=""font-size: 60px; font-family: BACS"">MBKRETAm</p>","","","","","","","","",""
"html-keyboard-response","67","109942","0.0-8.0-0.59","5cefe8856e0eec00015971dd","650c16f0f2faf8d7a0d14c09","651c1cc5b5c9aac9fbce9653","null","null","<p style=""font-size: 60px; font-family: BACS"">EMYKYbBT</p>","","","","","","","","",""
"html-keyboard-response","68","110948","0.0-8.0-0.60","5cefe8856e0eec00015971dd","650c16f0f2faf8d7a0d14c09","651c1cc5b5c9aac9fbce9653","null","null","<p style=""font-size: 60px; font-family: BACS"">aNYmbGUOA</p>","","","","","","","","",""
"html-keyboard-response","69","111950","0.0-8.0-0.61","5cefe8856e0eec00015971dd","650c16f0f2faf8d7a0d14c09","651c1cc5b5c9aac9fbce9653","null","null","<p style=""font-size: 60px; font-family: BACS"">dMThkRdCc</p>","","","","","","","","",""
"html-keyboard-response","70","112958","0.0-8.0-0.62","5cefe8856e0eec00015971dd","650c16f0f2faf8d7a0d14c09","651c1cc5b5c9aac9fbce9653","null","null","<p style=""font-size: 60px; font-family: BACS"">rdLJaGUOA</p>","","","","","","","","",""
"html-keyboard-response","71","113974","0.0-8.0-0.63","5cefe8856e0eec00015971dd","650c16f0f2faf8d7a0d14c09","651c1cc5b5c9aac9fbce9653","null","null","<p style=""font-size: 60px; font-family: BACS"">YObAYbBT</p>","","","","","","","","",""
"html-keyboard-response","72","114981","0.0-8.0-0.64","5cefe8856e0eec00015971dd","650c16f0f2faf8d7a0d14c09","651c1cc5b5c9aac9fbce9653","null","null","<p style=""font-size: 60px; font-family: BACS"">lRCBRdCc</p>","","","","","","","","",""
"html-keyboard-response","73","115998","0.0-8.0-0.65","5cefe8856e0eec00015971dd","650c16f0f2faf8d7a0d14c09","651c1cc5b5c9aac9fbce9653","null","null","<p style=""font-size: 60px; font-family: BACS"">aNYmbkdrO</p>","","","","","","","","",""
"html-keyboard-response","74","116999","0.0-8.0-0.66","5cefe8856e0eec00015971dd","650c16f0f2faf8d7a0d14c09","651c1cc5b5c9aac9fbce9653","null","null","<p style=""font-size: 60px; font-family: BACS"">OmtlDYbBT</p>","","","","","","","","",""
"html-keyboard-response","75","118013","0.0-8.0-0.67","5cefe8856e0eec00015971dd","650c16f0f2faf8d7a0d14c09","651c1cc5b5c9aac9fbce9653","null","null","<p style=""font-size: 60px; font-family: BACS"">rcmuvGUOA</p>","","","","","","","","",""
"html-keyboard-response","76","119015","0.0-8.0-0.68","5cefe8856e0eec00015971dd","650c16f0f2faf8d7a0d14c09","651c1cc5b5c9aac9fbce9653","null","null","<p style=""font-size: 60px; font-family: BACS"">YObAYcM</p>","","","","","","","","",""
"html-keyboard-response","77","120018","0.0-8.0-0.69","5cefe8856e0eec00015971dd","650c16f0f2faf8d7a0d14c09","651c1cc5b5c9aac9fbce9653","null","null","<p style=""font-size: 60px; font-family: BACS"">aNYmblvk</p>","","","","","","","","",""
"html-keyboard-response","78","121023","0.0-8.0-0.70","5cefe8856e0eec00015971dd","650c16f0f2faf8d7a0d14c09","651c1cc5b5c9aac9fbce9653","null","null","<p style=""font-size: 60px; font-family: BACS"">CkBOPTRK</p>","","","","","","","","",""
"html-keyboard-response","79","122028","0.0-8.0-0.71","5cefe8856e0eec00015971dd","650c16f0f2faf8d7a0d14c09","651c1cc5b5c9aac9fbce9653","null","null","<p style=""font-size: 60px; font-family: BACS"">rdLJalvk</p>","","","","","","","","",""
"html-keyboard-response","80","123030","0.0-8.0-0.72","5cefe8856e0eec00015971dd","650c16f0f2faf8d7a0d14c09","651c1cc5b5c9aac9fbce9653","null","null","<p style=""font-size: 60px; font-family: BACS"">BMEMARdCc</p>","","","","","","","","",""
"html-keyboard-response","81","124040","0.0-8.0-0.73","5cefe8856e0eec00015971dd","650c16f0f2faf8d7a0d14c09","651c1cc5b5c9aac9fbce9653","null","null","<p style=""font-size: 60px; font-family: BACS"">uvaUJUG</p>","","","","","","","","",""
"html-keyboard-response","82","125057","0.0-8.0-0.74","5cefe8856e0eec00015971dd","650c16f0f2faf8d7a0d14c09","651c1cc5b5c9aac9fbce9653","null","null","<p style=""font-size: 60px; font-family: BACS"">EMYKRdCc</p>","","","","","","","","",""
"html-keyboard-response","83","126064","0.0-8.0-0.75","5cefe8856e0eec00015971dd","650c16f0f2faf8d7a0d14c09","651c1cc5b5c9aac9fbce9653","null","null","<p style=""font-size: 60px; font-family: BACS"">bmbNkdrO</p>","","","","","","","","",""
"html-keyboard-response","84","127070","0.0-8.0-0.76","5cefe8856e0eec00015971dd","650c16f0f2faf8d7a0d14c09","651c1cc5b5c9aac9fbce9653","null","null","<p style=""font-size: 60px; font-family: BACS"">aONdJUG</p>","","","","","","","","",""
"html-keyboard-response","85","128075","0.0-8.0-0.77","5cefe8856e0eec00015971dd","650c16f0f2faf8d7a0d14c09","651c1cc5b5c9aac9fbce9653","null","null","<p style=""font-size: 60px; font-family: BACS"">UdumdkdrO</p>","","","","","","","","",""
"html-keyboard-response","86","129080","0.0-8.0-0.78","5cefe8856e0eec00015971dd","650c16f0f2faf8d7a0d14c09","651c1cc5b5c9aac9fbce9653","null","null","<p style=""font-size: 60px; font-family: BACS"">NaAQdJUG</p>","","","","","","","","",""
"html-keyboard-response","87","130098","0.0-8.0-0.79","5cefe8856e0eec00015971dd","650c16f0f2faf8d7a0d14c09","651c1cc5b5c9aac9fbce9653","null","null","<p style=""font-size: 60px; font-family: BACS"">YOaAbGlu</p>","","","","","","","","",""
"html-keyboard-response","88","132962","0.0-9.0","5cefe8856e0eec00015971dd","650c16f0f2faf8d7a0d14c09","651c1cc5b5c9aac9fbce9653","2863"," ","<p>Great, you've seen the first block of words. You may now take a short break.</p>
      <p>Press the spacebar when you're ready to continue.</p>","","","","","","","","",""
"html-keyboard-response","89","133980","0.0-10.0-0.0","5cefe8856e0eec00015971dd","650c16f0f2faf8d7a0d14c09","651c1cc5b5c9aac9fbce9653","null","null","<p style=""font-size: 60px; font-family: BACS"">aNYmbkdrO</p>","","","","","","","","",""
"html-keyboard-response","90","134986","0.0-10.0-0.1","5cefe8856e0eec00015971dd","650c16f0f2faf8d7a0d14c09","651c1cc5b5c9aac9fbce9653","null","null","<p style=""font-size: 60px; font-family: BACS"">YObATRK</p>","","","","","","","","",""
"html-keyboard-response","91","135995","0.0-10.0-0.2","5cefe8856e0eec00015971dd","650c16f0f2faf8d7a0d14c09","651c1cc5b5c9aac9fbce9653","null","null","<p style=""font-size: 60px; font-family: BACS"">JrGvGUOA</p>","","","","","","","","",""
"html-keyboard-response","92","137002","0.0-10.0-0.3","5cefe8856e0eec00015971dd","650c16f0f2faf8d7a0d14c09","651c1cc5b5c9aac9fbce9653","null","null","<p style=""font-size: 60px; font-family: BACS"">CkBOPTRK</p>","","","","","","","","",""
"html-keyboard-response","93","138004","0.0-10.0-0.4","5cefe8856e0eec00015971dd","650c16f0f2faf8d7a0d14c09","651c1cc5b5c9aac9fbce9653","null","null","<p style=""font-size: 60px; font-family: BACS"">uvaUkdrO</p>","","","","","","","","",""
"html-keyboard-response","94","139009","0.0-10.0-0.5","5cefe8856e0eec00015971dd","650c16f0f2faf8d7a0d14c09","651c1cc5b5c9aac9fbce9653","null","null","<p style=""font-size: 60px; font-family: BACS"">YOaAbGUOA</p>","","","","","","","","",""
"html-keyboard-response","95","140015","0.0-10.0-0.6","5cefe8856e0eec00015971dd","650c16f0f2faf8d7a0d14c09","651c1cc5b5c9aac9fbce9653","null","null","<p style=""font-size: 60px; font-family: BACS"">OcYMTAm</p>","","","","","","","","",""
"html-keyboard-response","96","141022","0.0-10.0-0.7","5cefe8856e0eec00015971dd","650c16f0f2faf8d7a0d14c09","651c1cc5b5c9aac9fbce9653","null","null","<p style=""font-size: 60px; font-family: BACS"">bmbNJUG</p>","","","","","","","","",""
"html-keyboard-response","97","142032","0.0-10.0-0.8","5cefe8856e0eec00015971dd","650c16f0f2faf8d7a0d14c09","651c1cc5b5c9aac9fbce9653","null","null","<p style=""font-size: 60px; font-family: BACS"">YObAYcM</p>","","","","","","","","",""
"html-keyboard-response","98","143039","0.0-10.0-0.9","5cefe8856e0eec00015971dd","650c16f0f2faf8d7a0d14c09","651c1cc5b5c9aac9fbce9653","null","null","<p style=""font-size: 60px; font-family: BACS"">bmbNkdrO</p>","","","","","","","","",""
"html-keyboard-response","99","144050","0.0-10.0-0.10","5cefe8856e0eec00015971dd","650c16f0f2faf8d7a0d14c09","651c1cc5b5c9aac9fbce9653","null","null","<p style=""font-size: 60px; font-family: BACS"">OcYMRdCc</p>","","","","","","","","",""
"html-keyboard-response","100","145055","0.0-10.0-0.11","5cefe8856e0eec00015971dd","650c16f0f2faf8d7a0d14c09","651c1cc5b5c9aac9fbce9653","null","null","<p style=""font-size: 60px; font-family: BACS"">Udumdlvk</p>","","","","","","","","",""
"html-keyboard-response","101","146058","0.0-10.0-0.12","5cefe8856e0eec00015971dd","650c16f0f2faf8d7a0d14c09","651c1cc5b5c9aac9fbce9653","null","null","<p style=""font-size: 60px; font-family: BACS"">NaAQdJUG</p>","","","","","","","","",""
"html-keyboard-response","102","147061","0.0-10.0-0.13","5cefe8856e0eec00015971dd","650c16f0f2faf8d7a0d14c09","651c1cc5b5c9aac9fbce9653","null","null","<p style=""font-size: 60px; font-family: BACS"">BMEMATAm</p>","","","","","","","","",""
"html-keyboard-response","103","148079","0.0-10.0-0.14","5cefe8856e0eec00015971dd","650c16f0f2faf8d7a0d14c09","651c1cc5b5c9aac9fbce9653","null","null","<p style=""font-size: 60px; font-family: BACS"">rcmuvGUOA</p>","","","","","","","","",""
"html-keyboard-response","104","149084","0.0-10.0-0.15","5cefe8856e0eec00015971dd","650c16f0f2faf8d7a0d14c09","651c1cc5b5c9aac9fbce9653","null","null","<p style=""font-size: 60px; font-family: BACS"">aNYmblvk</p>","","","","","","","","",""
"html-keyboard-response","105","150100","0.0-10.0-0.16","5cefe8856e0eec00015971dd","650c16f0f2faf8d7a0d14c09","651c1cc5b5c9aac9fbce9653","null","null","<p style=""font-size: 60px; font-family: BACS"">MBKRETAm</p>","","","","","","","","",""
"html-keyboard-response","106","151105","0.0-10.0-0.17","5cefe8856e0eec00015971dd","650c16f0f2faf8d7a0d14c09","651c1cc5b5c9aac9fbce9653","null","null","<p style=""font-size: 60px; font-family: BACS"">OmtlDYcM</p>","","","","","","","","",""
"html-keyboard-response","107","152108","0.0-10.0-0.18","5cefe8856e0eec00015971dd","650c16f0f2faf8d7a0d14c09","651c1cc5b5c9aac9fbce9653","null","null","<p style=""font-size: 60px; font-family: BACS"">bmbNGUOA</p>","","","","","","","","",""
"html-keyboard-response","108","153126","0.0-10.0-0.19","5cefe8856e0eec00015971dd","650c16f0f2faf8d7a0d14c09","651c1cc5b5c9aac9fbce9653","null","null","<p style=""font-size: 60px; font-family: BACS"">CkBOPTAm</p>","","","","","","","","",""
"html-keyboard-response","109","154133","0.0-10.0-0.20","5cefe8856e0eec00015971dd","650c16f0f2faf8d7a0d14c09","651c1cc5b5c9aac9fbce9653","null","null","<p style=""font-size: 60px; font-family: BACS"">rcmuvlvk</p>","","","","","","","","",""
"html-keyboard-response","110","155135","0.0-10.0-0.21","5cefe8856e0eec00015971dd","650c16f0f2faf8d7a0d14c09","651c1cc5b5c9aac9fbce9653","null","null","<p style=""font-size: 60px; font-family: BACS"">MBKREYbBT</p>","","","","","","","","",""
"html-keyboard-response","111","156141","0.0-10.0-0.22","5cefe8856e0eec00015971dd","650c16f0f2faf8d7a0d14c09","651c1cc5b5c9aac9fbce9653","null","null","<p style=""font-size: 60px; font-family: BACS"">uvaUJUG</p>","","","","","","","","",""
"html-keyboard-response","112","157146","0.0-10.0-0.23","5cefe8856e0eec00015971dd","650c16f0f2faf8d7a0d14c09","651c1cc5b5c9aac9fbce9653","null","null","<p style=""font-size: 60px; font-family: BACS"">UdumdGlu</p>","","","","","","","","",""
"html-keyboard-response","113","158151","0.0-10.0-0.24","5cefe8856e0eec00015971dd","650c16f0f2faf8d7a0d14c09","651c1cc5b5c9aac9fbce9653","null","null","<p style=""font-size: 60px; font-family: BACS"">JrGvlvk</p>","","","","","","","","",""
"html-keyboard-response","114","159154","0.0-10.0-0.25","5cefe8856e0eec00015971dd","650c16f0f2faf8d7a0d14c09","651c1cc5b5c9aac9fbce9653","null","null","<p style=""font-size: 60px; font-family: BACS"">EMYKYbBT</p>","","","","","","","","",""
"html-keyboard-response","115","160163","0.0-10.0-0.26","5cefe8856e0eec00015971dd","650c16f0f2faf8d7a0d14c09","651c1cc5b5c9aac9fbce9653","null","null","<p style=""font-size: 60px; font-family: BACS"">bmbNGlu</p>","","","","","","","","",""
"html-keyboard-response","116","161167","0.0-10.0-0.27","5cefe8856e0eec00015971dd","650c16f0f2faf8d7a0d14c09","651c1cc5b5c9aac9fbce9653","null","null","<p style=""font-size: 60px; font-family: BACS"">lRCBRdCc</p>","","","","","","","","",""
"html-keyboard-response","117","162173","0.0-10.0-0.28","5cefe8856e0eec00015971dd","650c16f0f2faf8d7a0d14c09","651c1cc5b5c9aac9fbce9653","null","null","<p style=""font-size: 60px; font-family: BACS"">YOaAblvk</p>","","","","","","","","",""
"html-keyboard-response","118","163181","0.0-10.0-0.29","5cefe8856e0eec00015971dd","650c16f0f2faf8d7a0d14c09","651c1cc5b5c9aac9fbce9653","null","null","<p style=""font-size: 60px; font-family: BACS"">rcmuvkdrO</p>","","","","","","","","",""
"html-keyboard-response","119","164186","0.0-10.0-0.30","5cefe8856e0eec00015971dd","650c16f0f2faf8d7a0d14c09","651c1cc5b5c9aac9fbce9653","null","null","<p style=""font-size: 60px; font-family: BACS"">dMThkTRK</p>","","","","","","","","",""
"html-keyboard-response","120","165203","0.0-10.0-0.31","5cefe8856e0eec00015971dd","650c16f0f2faf8d7a0d14c09","651c1cc5b5c9aac9fbce9653","null","null","<p style=""font-size: 60px; font-family: BACS"">rdLJaJUG</p>","","","","","","","","",""
"html-keyboard-response","121","166206","0.0-10.0-0.32","5cefe8856e0eec00015971dd","650c16f0f2faf8d7a0d14c09","651c1cc5b5c9aac9fbce9653","null","null","<p style=""font-size: 60px; font-family: BACS"">rcmuvGlu</p>","","","","","","","","",""
"html-keyboard-response","122","167208","0.0-10.0-0.33","5cefe8856e0eec00015971dd","650c16f0f2faf8d7a0d14c09","651c1cc5b5c9aac9fbce9653","null","null","<p style=""font-size: 60px; font-family: BACS"">lRCBTRK</p>","","","","","","","","",""
"html-keyboard-response","123","168210","0.0-10.0-0.34","5cefe8856e0eec00015971dd","650c16f0f2faf8d7a0d14c09","651c1cc5b5c9aac9fbce9653","null","null","<p style=""font-size: 60px; font-family: BACS"">JrGvGlu</p>","","","","","","","","",""
"html-keyboard-response","124","169215","0.0-10.0-0.35","5cefe8856e0eec00015971dd","650c16f0f2faf8d7a0d14c09","651c1cc5b5c9aac9fbce9653","null","null","<p style=""font-size: 60px; font-family: BACS"">rdLJalvk</p>","","","","","","","","",""
"html-keyboard-response","125","170221","0.0-10.0-0.36","5cefe8856e0eec00015971dd","650c16f0f2faf8d7a0d14c09","651c1cc5b5c9aac9fbce9653","null","null","<p style=""font-size: 60px; font-family: BACS"">aONdGlu</p>","","","","","","","","",""
"html-keyboard-response","126","171223","0.0-10.0-0.37","5cefe8856e0eec00015971dd","650c16f0f2faf8d7a0d14c09","651c1cc5b5c9aac9fbce9653","null","null","<p style=""font-size: 60px; font-family: BACS"">hbkdRdCc</p>","","","","","","","","",""
"html-keyboard-response","127","172228","0.0-10.0-0.38","5cefe8856e0eec00015971dd","650c16f0f2faf8d7a0d14c09","651c1cc5b5c9aac9fbce9653","null","null","<p style=""font-size: 60px; font-family: BACS"">rdLJakdrO</p>","","","","","","","","",""
"html-keyboard-response","128","173238","0.0-10.0-0.39","5cefe8856e0eec00015971dd","650c16f0f2faf8d7a0d14c09","651c1cc5b5c9aac9fbce9653","null","null","<p style=""font-size: 60px; font-family: BACS"">OcYMYcM</p>","","","","","","","","",""
"html-keyboard-response","129","174242","0.0-10.0-0.40","5cefe8856e0eec00015971dd","650c16f0f2faf8d7a0d14c09","651c1cc5b5c9aac9fbce9653","null","null","<p style=""font-size: 60px; font-family: BACS"">OmtlDTRK</p>","","","","","","","","",""
"html-keyboard-response","130","175245","0.0-10.0-0.41","5cefe8856e0eec00015971dd","650c16f0f2faf8d7a0d14c09","651c1cc5b5c9aac9fbce9653","null","null","<p style=""font-size: 60px; font-family: BACS"">MBKREYcM</p>","","","","","","","","",""
"html-keyboard-response","131","176248","0.0-10.0-0.42","5cefe8856e0eec00015971dd","650c16f0f2faf8d7a0d14c09","651c1cc5b5c9aac9fbce9653","null","null","<p style=""font-size: 60px; font-family: BACS"">NaAQdGUOA</p>","","","","","","","","",""
"html-keyboard-response","132","177251","0.0-10.0-0.43","5cefe8856e0eec00015971dd","650c16f0f2faf8d7a0d14c09","651c1cc5b5c9aac9fbce9653","null","null","<p style=""font-size: 60px; font-family: BACS"">lRCBYbBT</p>","","","","","","","","",""
"html-keyboard-response","133","178254","0.0-10.0-0.44","5cefe8856e0eec00015971dd","650c16f0f2faf8d7a0d14c09","651c1cc5b5c9aac9fbce9653","null","null","<p style=""font-size: 60px; font-family: BACS"">EMYKYcM</p>","","","","","","","","",""
"html-keyboard-response","134","179259","0.0-10.0-0.45","5cefe8856e0eec00015971dd","650c16f0f2faf8d7a0d14c09","651c1cc5b5c9aac9fbce9653","null","null","<p style=""font-size: 60px; font-family: BACS"">BMEMAYbBT</p>","","","","","","","","",""
"html-keyboard-response","135","180261","0.0-10.0-0.46","5cefe8856e0eec00015971dd","650c16f0f2faf8d7a0d14c09","651c1cc5b5c9aac9fbce9653","null","null","<p style=""font-size: 60px; font-family: BACS"">EMYKTRK</p>","","","","","","","","",""
"html-keyboard-response","136","181269","0.0-10.0-0.47","5cefe8856e0eec00015971dd","650c16f0f2faf8d7a0d14c09","651c1cc5b5c9aac9fbce9653","null","null","<p style=""font-size: 60px; font-family: BACS"">rdLJaGUOA</p>","","","","","","","","",""
"html-keyboard-response","137","182272","0.0-10.0-0.48","5cefe8856e0eec00015971dd","650c16f0f2faf8d7a0d14c09","651c1cc5b5c9aac9fbce9653","null","null","<p style=""font-size: 60px; font-family: BACS"">OmtlDYbBT</p>","","","","","","","","",""
"html-keyboard-response","138","183274","0.0-10.0-0.49","5cefe8856e0eec00015971dd","650c16f0f2faf8d7a0d14c09","651c1cc5b5c9aac9fbce9653","null","null","<p style=""font-size: 60px; font-family: BACS"">BMEMATRK</p>","","","","","","","","",""
"html-keyboard-response","139","184291","0.0-10.0-0.50","5cefe8856e0eec00015971dd","650c16f0f2faf8d7a0d14c09","651c1cc5b5c9aac9fbce9653","null","null","<p style=""font-size: 60px; font-family: BACS"">lRCBTAm</p>","","","","","","","","",""
"html-keyboard-response","140","185295","0.0-10.0-0.51","5cefe8856e0eec00015971dd","650c16f0f2faf8d7a0d14c09","651c1cc5b5c9aac9fbce9653","null","null","<p style=""font-size: 60px; font-family: BACS"">dMThkYcM</p>","","","","","","","","",""
"html-keyboard-response","141","186310","0.0-10.0-0.52","5cefe8856e0eec00015971dd","650c16f0f2faf8d7a0d14c09","651c1cc5b5c9aac9fbce9653","null","null","<p style=""font-size: 60px; font-family: BACS"">YObATAm</p>","","","","","","","","",""
"html-keyboard-response","142","187312","0.0-10.0-0.53","5cefe8856e0eec00015971dd","650c16f0f2faf8d7a0d14c09","651c1cc5b5c9aac9fbce9653","null","null","<p style=""font-size: 60px; font-family: BACS"">EMYKRdCc</p>","","","","","","","","",""
"html-keyboard-response","143","188316","0.0-10.0-0.54","5cefe8856e0eec00015971dd","650c16f0f2faf8d7a0d14c09","651c1cc5b5c9aac9fbce9653","null","null","<p style=""font-size: 60px; font-family: BACS"">aONdkdrO</p>","","","","","","","","",""
"html-keyboard-response","144","189321","0.0-10.0-0.55","5cefe8856e0eec00015971dd","650c16f0f2faf8d7a0d14c09","651c1cc5b5c9aac9fbce9653","null","null","<p style=""font-size: 60px; font-family: BACS"">CkBOPRdCc</p>","","","","","","","","",""
"html-keyboard-response","145","190325","0.0-10.0-0.56","5cefe8856e0eec00015971dd","650c16f0f2faf8d7a0d14c09","651c1cc5b5c9aac9fbce9653","null","null","<p style=""font-size: 60px; font-family: BACS"">MBKRETRK</p>","","","","","","","","",""
"html-keyboard-response","146","191335","0.0-10.0-0.57","5cefe8856e0eec00015971dd","650c16f0f2faf8d7a0d14c09","651c1cc5b5c9aac9fbce9653","null","null","<p style=""font-size: 60px; font-family: BACS"">UdumdkdrO</p>","","","","","","","","",""
"html-keyboard-response","147","192340","0.0-10.0-0.58","5cefe8856e0eec00015971dd","650c16f0f2faf8d7a0d14c09","651c1cc5b5c9aac9fbce9653","null","null","<p style=""font-size: 60px; font-family: BACS"">JrGvJUG</p>","","","","","","","","",""
"html-keyboard-response","148","193346","0.0-10.0-0.59","5cefe8856e0eec00015971dd","650c16f0f2faf8d7a0d14c09","651c1cc5b5c9aac9fbce9653","null","null","<p style=""font-size: 60px; font-family: BACS"">hbkdYbBT</p>","","","","","","","","",""
"html-keyboard-response","149","194355","0.0-10.0-0.60","5cefe8856e0eec00015971dd","650c16f0f2faf8d7a0d14c09","651c1cc5b5c9aac9fbce9653","null","null","<p style=""font-size: 60px; font-family: BACS"">YOaAbGlu</p>","","","","","","","","",""
"html-keyboard-response","150","195360","0.0-10.0-0.61","5cefe8856e0eec00015971dd","650c16f0f2faf8d7a0d14c09","651c1cc5b5c9aac9fbce9653","null","null","<p style=""font-size: 60px; font-family: BACS"">dMThkTAm</p>","","","","","","","","",""
"html-keyboard-response","151","196364","0.0-10.0-0.62","5cefe8856e0eec00015971dd","650c16f0f2faf8d7a0d14c09","651c1cc5b5c9aac9fbce9653","null","null","<p style=""font-size: 60px; font-family: BACS"">YOaAbJUG</p>","","","","","","","","",""
"html-keyboard-response","152","197367","0.0-10.0-0.63","5cefe8856e0eec00015971dd","650c16f0f2faf8d7a0d14c09","651c1cc5b5c9aac9fbce9653","null","null","<p style=""font-size: 60px; font-family: BACS"">CkBOPYcM</p>","","","","","","","","",""
"html-keyboard-response","153","198383","0.0-10.0-0.64","5cefe8856e0eec00015971dd","650c16f0f2faf8d7a0d14c09","651c1cc5b5c9aac9fbce9653","null","null","<p style=""font-size: 60px; font-family: BACS"">dMThkRdCc</p>","","","","","","","","",""
"html-keyboard-response","154","199386","0.0-10.0-0.65","5cefe8856e0eec00015971dd","650c16f0f2faf8d7a0d14c09","651c1cc5b5c9aac9fbce9653","null","null","<p style=""font-size: 60px; font-family: BACS"">aONdGUOA</p>","","","","","","","","",""
"html-keyboard-response","155","200389","0.0-10.0-0.66","5cefe8856e0eec00015971dd","650c16f0f2faf8d7a0d14c09","651c1cc5b5c9aac9fbce9653","null","null","<p style=""font-size: 60px; font-family: BACS"">aNYmbGlu</p>","","","","","","","","",""
"html-keyboard-response","156","201401","0.0-10.0-0.67","5cefe8856e0eec00015971dd","650c16f0f2faf8d7a0d14c09","651c1cc5b5c9aac9fbce9653","null","null","<p style=""font-size: 60px; font-family: BACS"">YObAYbBT</p>","","","","","","","","",""
"html-keyboard-response","157","202404","0.0-10.0-0.68","5cefe8856e0eec00015971dd","650c16f0f2faf8d7a0d14c09","651c1cc5b5c9aac9fbce9653","null","null","<p style=""font-size: 60px; font-family: BACS"">BMEMARdCc</p>","","","","","","","","",""
"html-keyboard-response","158","203422","0.0-10.0-0.69","5cefe8856e0eec00015971dd","650c16f0f2faf8d7a0d14c09","651c1cc5b5c9aac9fbce9653","null","null","<p style=""font-size: 60px; font-family: BACS"">uvaUGlu</p>","","","","","","","","",""
"html-keyboard-response","159","204427","0.0-10.0-0.70","5cefe8856e0eec00015971dd","650c16f0f2faf8d7a0d14c09","651c1cc5b5c9aac9fbce9653","null","null","<p style=""font-size: 60px; font-family: BACS"">NaAQdkdrO</p>","","","","","","","","",""
"html-keyboard-response","160","205431","0.0-10.0-0.71","5cefe8856e0eec00015971dd","650c16f0f2faf8d7a0d14c09","651c1cc5b5c9aac9fbce9653","null","null","<p style=""font-size: 60px; font-family: BACS"">uvaUlvk</p>","","","","","","","","",""
"html-keyboard-response","161","206433","0.0-10.0-0.72","5cefe8856e0eec00015971dd","650c16f0f2faf8d7a0d14c09","651c1cc5b5c9aac9fbce9653","null","null","<p style=""font-size: 60px; font-family: BACS"">hbkdYcM</p>","","","","","","","","",""
"html-keyboard-response","162","207435","0.0-10.0-0.73","5cefe8856e0eec00015971dd","650c16f0f2faf8d7a0d14c09","651c1cc5b5c9aac9fbce9653","null","null","<p style=""font-size: 60px; font-family: BACS"">aONdJUG</p>","","","","","","","","",""
"html-keyboard-response","163","208438","0.0-10.0-0.74","5cefe8856e0eec00015971dd","650c16f0f2faf8d7a0d14c09","651c1cc5b5c9aac9fbce9653","null","null","<p style=""font-size: 60px; font-family: BACS"">aNYmbGUOA</p>","","","","","","","","",""
"html-keyboard-response","164","209455","0.0-10.0-0.75","5cefe8856e0eec00015971dd","650c16f0f2faf8d7a0d14c09","651c1cc5b5c9aac9fbce9653","null","null","<p style=""font-size: 60px; font-family: BACS"">hbkdTAm</p>","","","","","","","","",""
"html-keyboard-response","165","210457","0.0-10.0-0.76","5cefe8856e0eec00015971dd","650c16f0f2faf8d7a0d14c09","651c1cc5b5c9aac9fbce9653","null","null","<p style=""font-size: 60px; font-family: BACS"">OmtlDRdCc</p>","","","","","","","","",""
"html-keyboard-response","166","211461","0.0-10.0-0.77","5cefe8856e0eec00015971dd","650c16f0f2faf8d7a0d14c09","651c1cc5b5c9aac9fbce9653","null","null","<p style=""font-size: 60px; font-family: BACS"">OcYMYbBT</p>","","","","","","","","",""
"html-keyboard-response","167","212465","0.0-10.0-0.78","5cefe8856e0eec00015971dd","650c16f0f2faf8d7a0d14c09","651c1cc5b5c9aac9fbce9653","null","null","<p style=""font-size: 60px; font-family: BACS"">NaAQdlvk</p>","","","","","","","","",""
"html-keyboard-response","168","213471","0.0-10.0-0.79","5cefe8856e0eec00015971dd","650c16f0f2faf8d7a0d14c09","651c1cc5b5c9aac9fbce9653","null","null","<p style=""font-size: 60px; font-family: BACS"">UdumdJUG</p>","","","","","","","","",""
"html-keyboard-response","169","215137","0.0-11.0","5cefe8856e0eec00015971dd","650c16f0f2faf8d7a0d14c09","651c1cc5b5c9aac9fbce9653","1664"," ","<p>Great, you've seen the second block of words. You may now take a short break.</p>
      <p>Press the spacebar when you're ready to continue.</p>","","","","","","","","",""
"html-keyboard-response","170","216139","0.0-12.0-0.0","5cefe8856e0eec00015971dd","650c16f0f2faf8d7a0d14c09","651c1cc5b5c9aac9fbce9653","null","null","<p style=""font-size: 60px; font-family: BACS"">MBKRETRK</p>","","","","","","","","",""
"html-keyboard-response","171","217158","0.0-12.0-0.1","5cefe8856e0eec00015971dd","650c16f0f2faf8d7a0d14c09","651c1cc5b5c9aac9fbce9653","null","null","<p style=""font-size: 60px; font-family: BACS"">aNYmbkdrO</p>","","","","","","","","",""
"html-keyboard-response","172","218171","0.0-12.0-0.2","5cefe8856e0eec00015971dd","650c16f0f2faf8d7a0d14c09","651c1cc5b5c9aac9fbce9653","null","null","<p style=""font-size: 60px; font-family: BACS"">MBKREYcM</p>","","","","","","","","",""
"html-keyboard-response","173","219175","0.0-12.0-0.3","5cefe8856e0eec00015971dd","650c16f0f2faf8d7a0d14c09","651c1cc5b5c9aac9fbce9653","null","null","<p style=""font-size: 60px; font-family: BACS"">UdumdJUG</p>","","","","","","","","",""
"html-keyboard-response","174","220184","0.0-12.0-0.4","5cefe8856e0eec00015971dd","650c16f0f2faf8d7a0d14c09","651c1cc5b5c9aac9fbce9653","null","null","<p style=""font-size: 60px; font-family: BACS"">bmbNGlu</p>","","","","","","","","",""
"html-keyboard-response","175","221190","0.0-12.0-0.5","5cefe8856e0eec00015971dd","650c16f0f2faf8d7a0d14c09","651c1cc5b5c9aac9fbce9653","null","null","<p style=""font-size: 60px; font-family: BACS"">OmtlDYcM</p>","","","","","","","","",""
"html-keyboard-response","176","222192","0.0-12.0-0.6","5cefe8856e0eec00015971dd","650c16f0f2faf8d7a0d14c09","651c1cc5b5c9aac9fbce9653","null","null","<p style=""font-size: 60px; font-family: BACS"">rcmuvlvk</p>","","","","","","","","",""
"html-keyboard-response","177","223195","0.0-12.0-0.7","5cefe8856e0eec00015971dd","650c16f0f2faf8d7a0d14c09","651c1cc5b5c9aac9fbce9653","null","null","<p style=""font-size: 60px; font-family: BACS"">MBKREYbBT</p>","","","","","","","","",""
"html-keyboard-response","178","224207","0.0-12.0-0.8","5cefe8856e0eec00015971dd","650c16f0f2faf8d7a0d14c09","651c1cc5b5c9aac9fbce9653","null","null","<p style=""font-size: 60px; font-family: BACS"">lRCBRdCc</p>","","","","","","","","",""
"html-keyboard-response","179","225216","0.0-12.0-0.9","5cefe8856e0eec00015971dd","650c16f0f2faf8d7a0d14c09","651c1cc5b5c9aac9fbce9653","null","null","<p style=""font-size: 60px; font-family: BACS"">OmtlDTRK</p>","","","","","","","","",""
"html-keyboard-response","180","226218","0.0-12.0-0.10","5cefe8856e0eec00015971dd","650c16f0f2faf8d7a0d14c09","651c1cc5b5c9aac9fbce9653","null","null","<p style=""font-size: 60px; font-family: BACS"">YOaAblvk</p>","","","","","","","","",""
"html-keyboard-response","181","227221","0.0-12.0-0.11","5cefe8856e0eec00015971dd","650c16f0f2faf8d7a0d14c09","651c1cc5b5c9aac9fbce9653","null","null","<p style=""font-size: 60px; font-family: BACS"">OcYMTAm</p>","","","","","","","","",""
"html-keyboard-response","182","228228","0.0-12.0-0.12","5cefe8856e0eec00015971dd","650c16f0f2faf8d7a0d14c09","651c1cc5b5c9aac9fbce9653","null","null","<p style=""font-size: 60px; font-family: BACS"">YOaAbJUG</p>","","","","","","","","",""
"html-keyboard-response","183","229230","0.0-12.0-0.13","5cefe8856e0eec00015971dd","650c16f0f2faf8d7a0d14c09","651c1cc5b5c9aac9fbce9653","null","null","<p style=""font-size: 60px; font-family: BACS"">CkBOPTAm</p>","","","","","","","","",""
"html-keyboard-response","184","230238","0.0-12.0-0.14","5cefe8856e0eec00015971dd","650c16f0f2faf8d7a0d14c09","651c1cc5b5c9aac9fbce9653","null","null","<p style=""font-size: 60px; font-family: BACS"">OcYMRdCc</p>","","","","","","","","",""
"html-keyboard-response","185","231243","0.0-12.0-0.15","5cefe8856e0eec00015971dd","650c16f0f2faf8d7a0d14c09","651c1cc5b5c9aac9fbce9653","null","null","<p style=""font-size: 60px; font-family: BACS"">UdumdkdrO</p>","","","","","","","","",""
"html-keyboard-response","186","232247","0.0-12.0-0.16","5cefe8856e0eec00015971dd","650c16f0f2faf8d7a0d14c09","651c1cc5b5c9aac9fbce9653","null","null","<p style=""font-size: 60px; font-family: BACS"">aNYmbGlu</p>","","","","","","","","",""
"html-keyboard-response","187","233251","0.0-12.0-0.17","5cefe8856e0eec00015971dd","650c16f0f2faf8d7a0d14c09","651c1cc5b5c9aac9fbce9653","null","null","<p style=""font-size: 60px; font-family: BACS"">rcmuvGUOA</p>","","","","","","","","",""
"html-keyboard-response","188","234256","0.0-12.0-0.18","5cefe8856e0eec00015971dd","650c16f0f2faf8d7a0d14c09","651c1cc5b5c9aac9fbce9653","null","null","<p style=""font-size: 60px; font-family: BACS"">EMYKYbBT</p>","","","","","","","","",""
"html-keyboard-response","189","235262","0.0-12.0-0.19","5cefe8856e0eec00015971dd","650c16f0f2faf8d7a0d14c09","651c1cc5b5c9aac9fbce9653","null","null","<p style=""font-size: 60px; font-family: BACS"">JrGvlvk</p>","","","","","","","","",""
"html-keyboard-response","190","236270","0.0-12.0-0.20","5cefe8856e0eec00015971dd","650c16f0f2faf8d7a0d14c09","651c1cc5b5c9aac9fbce9653","null","null","<p style=""font-size: 60px; font-family: BACS"">BMEMATRK</p>","","","","","","","","",""
"html-keyboard-response","191","237276","0.0-12.0-0.21","5cefe8856e0eec00015971dd","650c16f0f2faf8d7a0d14c09","651c1cc5b5c9aac9fbce9653","null","null","<p style=""font-size: 60px; font-family: BACS"">dMThkYcM</p>","","","","","","","","",""
"html-keyboard-response","192","238285","0.0-12.0-0.22","5cefe8856e0eec00015971dd","650c16f0f2faf8d7a0d14c09","651c1cc5b5c9aac9fbce9653","null","null","<p style=""font-size: 60px; font-family: BACS"">aNYmblvk</p>","","","","","","","","",""
"html-keyboard-response","193","239288","0.0-12.0-0.23","5cefe8856e0eec00015971dd","650c16f0f2faf8d7a0d14c09","651c1cc5b5c9aac9fbce9653","null","null","<p style=""font-size: 60px; font-family: BACS"">YObAYbBT</p>","","","","","","","","",""
"html-keyboard-response","194","240291","0.0-12.0-0.24","5cefe8856e0eec00015971dd","650c16f0f2faf8d7a0d14c09","651c1cc5b5c9aac9fbce9653","null","null","<p style=""font-size: 60px; font-family: BACS"">JrGvGUOA</p>","","","","","","","","",""
"html-keyboard-response","195","241305","0.0-12.0-0.25","5cefe8856e0eec00015971dd","650c16f0f2faf8d7a0d14c09","651c1cc5b5c9aac9fbce9653","null","null","<p style=""font-size: 60px; font-family: BACS"">OcYMYcM</p>","","","","","","","","",""
"html-keyboard-response","196","242312","0.0-12.0-0.26","5cefe8856e0eec00015971dd","650c16f0f2faf8d7a0d14c09","651c1cc5b5c9aac9fbce9653","null","null","<p style=""font-size: 60px; font-family: BACS"">BMEMAYbBT</p>","","","","","","","","",""
"html-keyboard-response","197","243316","0.0-12.0-0.27","5cefe8856e0eec00015971dd","650c16f0f2faf8d7a0d14c09","651c1cc5b5c9aac9fbce9653","null","null","<p style=""font-size: 60px; font-family: BACS"">aONdGUOA</p>","","","","","","","","",""
"html-keyboard-response","198","244319","0.0-12.0-0.28","5cefe8856e0eec00015971dd","650c16f0f2faf8d7a0d14c09","651c1cc5b5c9aac9fbce9653","null","null","<p style=""font-size: 60px; font-family: BACS"">lRCBYbBT</p>","","","","","","","","",""
"html-keyboard-response","199","245324","0.0-12.0-0.29","5cefe8856e0eec00015971dd","650c16f0f2faf8d7a0d14c09","651c1cc5b5c9aac9fbce9653","null","null","<p style=""font-size: 60px; font-family: BACS"">rdLJaGUOA</p>","","","","","","","","",""
"html-keyboard-response","200","246327","0.0-12.0-0.30","5cefe8856e0eec00015971dd","650c16f0f2faf8d7a0d14c09","651c1cc5b5c9aac9fbce9653","null","null","<p style=""font-size: 60px; font-family: BACS"">EMYKTRK</p>","","","","","","","","",""
"html-keyboard-response","201","247334","0.0-12.0-0.31","5cefe8856e0eec00015971dd","650c16f0f2faf8d7a0d14c09","651c1cc5b5c9aac9fbce9653","null","null","<p style=""font-size: 60px; font-family: BACS"">JrGvJUG</p>","","","","","","","","",""
"html-keyboard-response","202","248338","0.0-12.0-0.32","5cefe8856e0eec00015971dd","650c16f0f2faf8d7a0d14c09","651c1cc5b5c9aac9fbce9653","null","null","<p style=""font-size: 60px; font-family: BACS"">CkBOPRdCc</p>","","","","","","","","",""
"html-keyboard-response","203","249343","0.0-12.0-0.33","5cefe8856e0eec00015971dd","650c16f0f2faf8d7a0d14c09","651c1cc5b5c9aac9fbce9653","null","null","<p style=""font-size: 60px; font-family: BACS"">uvaUGlu</p>","","","","","","","","",""
"html-keyboard-response","204","250348","0.0-12.0-0.34","5cefe8856e0eec00015971dd","650c16f0f2faf8d7a0d14c09","651c1cc5b5c9aac9fbce9653","null","null","<p style=""font-size: 60px; font-family: BACS"">aNYmbGUOA</p>","","","","","","","","",""
"html-keyboard-response","205","251353","0.0-12.0-0.35","5cefe8856e0eec00015971dd","650c16f0f2faf8d7a0d14c09","651c1cc5b5c9aac9fbce9653","null","null","<p style=""font-size: 60px; font-family: BACS"">BMEMARdCc</p>","","","","","","","","",""
"html-keyboard-response","206","252363","0.0-12.0-0.36","5cefe8856e0eec00015971dd","650c16f0f2faf8d7a0d14c09","651c1cc5b5c9aac9fbce9653","null","null","<p style=""font-size: 60px; font-family: BACS"">lRCBTAm</p>","","","","","","","","",""
"html-keyboard-response","207","253367","0.0-12.0-0.37","5cefe8856e0eec00015971dd","650c16f0f2faf8d7a0d14c09","651c1cc5b5c9aac9fbce9653","null","null","<p style=""font-size: 60px; font-family: BACS"">OmtlDYbBT</p>","","","","","","","","",""
"html-keyboard-response","208","254383","0.0-12.0-0.38","5cefe8856e0eec00015971dd","650c16f0f2faf8d7a0d14c09","651c1cc5b5c9aac9fbce9653","null","null","<p style=""font-size: 60px; font-family: BACS"">rdLJaJUG</p>","","","","","","","","",""
"html-keyboard-response","209","255387","0.0-12.0-0.39","5cefe8856e0eec00015971dd","650c16f0f2faf8d7a0d14c09","651c1cc5b5c9aac9fbce9653","null","null","<p style=""font-size: 60px; font-family: BACS"">rcmuvkdrO</p>","","","","","","","","",""
"html-keyboard-response","210","256391","0.0-12.0-0.40","5cefe8856e0eec00015971dd","650c16f0f2faf8d7a0d14c09","651c1cc5b5c9aac9fbce9653","null","null","<p style=""font-size: 60px; font-family: BACS"">uvaUlvk</p>","","","","","","","","",""
"html-keyboard-response","211","257395","0.0-12.0-0.41","5cefe8856e0eec00015971dd","650c16f0f2faf8d7a0d14c09","651c1cc5b5c9aac9fbce9653","null","null","<p style=""font-size: 60px; font-family: BACS"">BMEMATAm</p>","","","","","","","","",""
"html-keyboard-response","212","258411","0.0-12.0-0.42","5cefe8856e0eec00015971dd","650c16f0f2faf8d7a0d14c09","651c1cc5b5c9aac9fbce9653","null","null","<p style=""font-size: 60px; font-family: BACS"">dMThkTRK</p>","","","","","","","","",""
"html-keyboard-response","213","259414","0.0-12.0-0.43","5cefe8856e0eec00015971dd","650c16f0f2faf8d7a0d14c09","651c1cc5b5c9aac9fbce9653","null","null","<p style=""font-size: 60px; font-family: BACS"">aONdGlu</p>","","","","","","","","",""
"html-keyboard-response","214","260417","0.0-12.0-0.44","5cefe8856e0eec00015971dd","650c16f0f2faf8d7a0d14c09","651c1cc5b5c9aac9fbce9653","null","null","<p style=""font-size: 60px; font-family: BACS"">NaAQdJUG</p>","","","","","","","","",""
"html-keyboard-response","215","261423","0.0-12.0-0.45","5cefe8856e0eec00015971dd","650c16f0f2faf8d7a0d14c09","651c1cc5b5c9aac9fbce9653","null","null","<p style=""font-size: 60px; font-family: BACS"">hbkdYcM</p>","","","","","","","","",""
"html-keyboard-response","216","262426","0.0-12.0-0.46","5cefe8856e0eec00015971dd","650c16f0f2faf8d7a0d14c09","651c1cc5b5c9aac9fbce9653","null","null","<p style=""font-size: 60px; font-family: BACS"">NaAQdkdrO</p>","","","","","","","","",""
"html-keyboard-response","217","263428","0.0-12.0-0.47","5cefe8856e0eec00015971dd","650c16f0f2faf8d7a0d14c09","651c1cc5b5c9aac9fbce9653","null","null","<p style=""font-size: 60px; font-family: BACS"">MBKRETAm</p>","","","","","","","","",""
"html-keyboard-response","218","264431","0.0-12.0-0.48","5cefe8856e0eec00015971dd","650c16f0f2faf8d7a0d14c09","651c1cc5b5c9aac9fbce9653","null","null","<p style=""font-size: 60px; font-family: BACS"">hbkdYbBT</p>","","","","","","","","",""
"html-keyboard-response","219","265434","0.0-12.0-0.49","5cefe8856e0eec00015971dd","650c16f0f2faf8d7a0d14c09","651c1cc5b5c9aac9fbce9653","null","null","<p style=""font-size: 60px; font-family: BACS"">aONdJUG</p>","","","","","","","","",""
"html-keyboard-response","220","266439","0.0-12.0-0.50","5cefe8856e0eec00015971dd","650c16f0f2faf8d7a0d14c09","651c1cc5b5c9aac9fbce9653","null","null","<p style=""font-size: 60px; font-family: BACS"">hbkdRdCc</p>","","","","","","","","",""
"html-keyboard-response","221","267447","0.0-12.0-0.51","5cefe8856e0eec00015971dd","650c16f0f2faf8d7a0d14c09","651c1cc5b5c9aac9fbce9653","null","null","<p style=""font-size: 60px; font-family: BACS"">bmbNGUOA</p>","","","","","","","","",""
"html-keyboard-response","222","268452","0.0-12.0-0.52","5cefe8856e0eec00015971dd","650c16f0f2faf8d7a0d14c09","651c1cc5b5c9aac9fbce9653","null","null","<p style=""font-size: 60px; font-family: BACS"">CkBOPTRK</p>","","","","","","","","",""
"html-keyboard-response","223","269456","0.0-12.0-0.53","5cefe8856e0eec00015971dd","650c16f0f2faf8d7a0d14c09","651c1cc5b5c9aac9fbce9653","null","null","<p style=""font-size: 60px; font-family: BACS"">EMYKRdCc</p>","","","","","","","","",""
"html-keyboard-response","224","270459","0.0-12.0-0.54","5cefe8856e0eec00015971dd","650c16f0f2faf8d7a0d14c09","651c1cc5b5c9aac9fbce9653","null","null","<p style=""font-size: 60px; font-family: BACS"">YObATRK</p>","","","","","","","","",""
"html-keyboard-response","225","271465","0.0-12.0-0.55","5cefe8856e0eec00015971dd","650c16f0f2faf8d7a0d14c09","651c1cc5b5c9aac9fbce9653","null","null","<p style=""font-size: 60px; font-family: BACS"">OmtlDRdCc</p>","","","","","","","","",""
"html-keyboard-response","226","272477","0.0-12.0-0.56","5cefe8856e0eec00015971dd","650c16f0f2faf8d7a0d14c09","651c1cc5b5c9aac9fbce9653","null","null","<p style=""font-size: 60px; font-family: BACS"">YObATAm</p>","","","","","","","","",""
"html-keyboard-response","227","273483","0.0-12.0-0.57","5cefe8856e0eec00015971dd","650c16f0f2faf8d7a0d14c09","651c1cc5b5c9aac9fbce9653","null","null","<p style=""font-size: 60px; font-family: BACS"">UdumdGlu</p>","","","","","","","","",""
"html-keyboard-response","228","274490","0.0-12.0-0.58","5cefe8856e0eec00015971dd","650c16f0f2faf8d7a0d14c09","651c1cc5b5c9aac9fbce9653","null","null","<p style=""font-size: 60px; font-family: BACS"">YOaAbGUOA</p>","","","","","","","","",""
"html-keyboard-response","229","275492","0.0-12.0-0.59","5cefe8856e0eec00015971dd","650c16f0f2faf8d7a0d14c09","651c1cc5b5c9aac9fbce9653","null","null","<p style=""font-size: 60px; font-family: BACS"">hbkdTAm</p>","","","","","","","","",""
"html-keyboard-response","230","276499","0.0-12.0-0.60","5cefe8856e0eec00015971dd","650c16f0f2faf8d7a0d14c09","651c1cc5b5c9aac9fbce9653","null","null","<p style=""font-size: 60px; font-family: BACS"">rdLJakdrO</p>","","","","","","","","",""
"html-keyboard-response","231","277506","0.0-12.0-0.61","5cefe8856e0eec00015971dd","650c16f0f2faf8d7a0d14c09","651c1cc5b5c9aac9fbce9653","null","null","<p style=""font-size: 60px; font-family: BACS"">dMThkTAm</p>","","","","","","","","",""
"html-keyboard-response","232","278512","0.0-12.0-0.62","5cefe8856e0eec00015971dd","650c16f0f2faf8d7a0d14c09","651c1cc5b5c9aac9fbce9653","null","null","<p style=""font-size: 60px; font-family: BACS"">aONdkdrO</p>","","","","","","","","",""
"html-keyboard-response","233","279515","0.0-12.0-0.63","5cefe8856e0eec00015971dd","650c16f0f2faf8d7a0d14c09","651c1cc5b5c9aac9fbce9653","null","null","<p style=""font-size: 60px; font-family: BACS"">OcYMYbBT</p>","","","","","","","","",""
"html-keyboard-response","234","280518","0.0-12.0-0.64","5cefe8856e0eec00015971dd","650c16f0f2faf8d7a0d14c09","651c1cc5b5c9aac9fbce9653","null","null","<p style=""font-size: 60px; font-family: BACS"">CkBOPYcM</p>","","","","","","","","",""
"html-keyboard-response","235","281535","0.0-12.0-0.65","5cefe8856e0eec00015971dd","650c16f0f2faf8d7a0d14c09","651c1cc5b5c9aac9fbce9653","null","null","<p style=""font-size: 60px; font-family: BACS"">rdLJalvk</p>","","","","","","","","",""
"html-keyboard-response","236","282541","0.0-12.0-0.66","5cefe8856e0eec00015971dd","650c16f0f2faf8d7a0d14c09","651c1cc5b5c9aac9fbce9653","null","null","<p style=""font-size: 60px; font-family: BACS"">bmbNkdrO</p>","","","","","","","","",""
"html-keyboard-response","237","283542","0.0-12.0-0.67","5cefe8856e0eec00015971dd","650c16f0f2faf8d7a0d14c09","651c1cc5b5c9aac9fbce9653","null","null","<p style=""font-size: 60px; font-family: BACS"">JrGvGlu</p>","","","","","","","","",""
"html-keyboard-response","238","284547","0.0-12.0-0.68","5cefe8856e0eec00015971dd","650c16f0f2faf8d7a0d14c09","651c1cc5b5c9aac9fbce9653","null","null","<p style=""font-size: 60px; font-family: BACS"">YObAYcM</p>","","","","","","","","",""
"html-keyboard-response","239","285551","0.0-12.0-0.69","5cefe8856e0eec00015971dd","650c16f0f2faf8d7a0d14c09","651c1cc5b5c9aac9fbce9653","null","null","<p style=""font-size: 60px; font-family: BACS"">lRCBTRK</p>","","","","","","","","",""
"html-keyboard-response","240","286556","0.0-12.0-0.70","5cefe8856e0eec00015971dd","650c16f0f2faf8d7a0d14c09","651c1cc5b5c9aac9fbce9653","null","null","<p style=""font-size: 60px; font-family: BACS"">bmbNJUG</p>","","","","","","","","",""
"html-keyboard-response","241","287561","0.0-12.0-0.71","5cefe8856e0eec00015971dd","650c16f0f2faf8d7a0d14c09","651c1cc5b5c9aac9fbce9653","null","null","<p style=""font-size: 60px; font-family: BACS"">EMYKYcM</p>","","","","","","","","",""
"html-keyboard-response","242","288565","0.0-12.0-0.72","5cefe8856e0eec00015971dd","650c16f0f2faf8d7a0d14c09","651c1cc5b5c9aac9fbce9653","null","null","<p style=""font-size: 60px; font-family: BACS"">uvaUJUG</p>","","","","","","","","",""
"html-keyboard-response","243","289572","0.0-12.0-0.73","5cefe8856e0eec00015971dd","650c16f0f2faf8d7a0d14c09","651c1cc5b5c9aac9fbce9653","null","null","<p style=""font-size: 60px; font-family: BACS"">YOaAbGlu</p>","","","","","","","","",""
"html-keyboard-response","244","290580","0.0-12.0-0.74","5cefe8856e0eec00015971dd","650c16f0f2faf8d7a0d14c09","651c1cc5b5c9aac9fbce9653","null","null","<p style=""font-size: 60px; font-family: BACS"">NaAQdlvk</p>","","","","","","","","",""
"html-keyboard-response","245","291586","0.0-12.0-0.75","5cefe8856e0eec00015971dd","650c16f0f2faf8d7a0d14c09","651c1cc5b5c9aac9fbce9653","null","null","<p style=""font-size: 60px; font-family: BACS"">dMThkRdCc</p>","","","","","","","","",""
"html-keyboard-response","246","292595","0.0-12.0-0.76","5cefe8856e0eec00015971dd","650c16f0f2faf8d7a0d14c09","651c1cc5b5c9aac9fbce9653","null","null","<p style=""font-size: 60px; font-family: BACS"">Udumdlvk</p>","","","","","","","","",""
"html-keyboard-response","247","293601","0.0-12.0-0.77","5cefe8856e0eec00015971dd","650c16f0f2faf8d7a0d14c09","651c1cc5b5c9aac9fbce9653","null","null","<p style=""font-size: 60px; font-family: BACS"">NaAQdGUOA</p>","","","","","","","","",""
"html-keyboard-response","248","294606","0.0-12.0-0.78","5cefe8856e0eec00015971dd","650c16f0f2faf8d7a0d14c09","651c1cc5b5c9aac9fbce9653","null","null","<p style=""font-size: 60px; font-family: BACS"">uvaUkdrO</p>","","","","","","","","",""
"html-keyboard-response","249","295612","0.0-12.0-0.79","5cefe8856e0eec00015971dd","650c16f0f2faf8d7a0d14c09","651c1cc5b5c9aac9fbce9653","null","null","<p style=""font-size: 60px; font-family: BACS"">rcmuvGlu</p>","","","","","","","","",""
"html-keyboard-response","250","297122","0.0-13.0","5cefe8856e0eec00015971dd","650c16f0f2faf8d7a0d14c09","651c1cc5b5c9aac9fbce9653","1509"," ","<p>Great, you've seen the third block of words. You may now take a short break.</p>
      <p>Press the spacebar when you're ready to continue.</p>","","","","","","","","",""
"html-keyboard-response","251","298124","0.0-14.0-0.0","5cefe8856e0eec00015971dd","650c16f0f2faf8d7a0d14c09","651c1cc5b5c9aac9fbce9653","null","null","<p style=""font-size: 60px; font-family: BACS"">JrGvGUOA</p>","","","","","","","","",""
"html-keyboard-response","252","299129","0.0-14.0-0.1","5cefe8856e0eec00015971dd","650c16f0f2faf8d7a0d14c09","651c1cc5b5c9aac9fbce9653","null","null","<p style=""font-size: 60px; font-family: BACS"">hbkdYbBT</p>","","","","","","","","",""
"html-keyboard-response","253","300135","0.0-14.0-0.2","5cefe8856e0eec00015971dd","650c16f0f2faf8d7a0d14c09","651c1cc5b5c9aac9fbce9653","null","null","<p style=""font-size: 60px; font-family: BACS"">YOaAbGUOA</p>","","","","","","","","",""
"html-keyboard-response","254","301145","0.0-14.0-0.3","5cefe8856e0eec00015971dd","650c16f0f2faf8d7a0d14c09","651c1cc5b5c9aac9fbce9653","null","null","<p style=""font-size: 60px; font-family: BACS"">bmbNkdrO</p>","","","","","","","","",""
"html-keyboard-response","255","302150","0.0-14.0-0.4","5cefe8856e0eec00015971dd","650c16f0f2faf8d7a0d14c09","651c1cc5b5c9aac9fbce9653","null","null","<p style=""font-size: 60px; font-family: BACS"">YOaAblvk</p>","","","","","","","","",""
"html-keyboard-response","256","303156","0.0-14.0-0.5","5cefe8856e0eec00015971dd","650c16f0f2faf8d7a0d14c09","651c1cc5b5c9aac9fbce9653","null","null","<p style=""font-size: 60px; font-family: BACS"">aONdkdrO</p>","","","","","","","","",""
"html-keyboard-response","257","304166","0.0-14.0-0.6","5cefe8856e0eec00015971dd","650c16f0f2faf8d7a0d14c09","651c1cc5b5c9aac9fbce9653","null","null","<p style=""font-size: 60px; font-family: BACS"">OmtlDYcM</p>","","","","","","","","",""
"html-keyboard-response","258","305167","0.0-14.0-0.7","5cefe8856e0eec00015971dd","650c16f0f2faf8d7a0d14c09","651c1cc5b5c9aac9fbce9653","null","null","<p style=""font-size: 60px; font-family: BACS"">NaAQdGUOA</p>","","","","","","","","",""
"html-keyboard-response","259","306171","0.0-14.0-0.8","5cefe8856e0eec00015971dd","650c16f0f2faf8d7a0d14c09","651c1cc5b5c9aac9fbce9653","null","null","<p style=""font-size: 60px; font-family: BACS"">EMYKRdCc</p>","","","","","","","","",""
"html-keyboard-response","260","307173","0.0-14.0-0.9","5cefe8856e0eec00015971dd","650c16f0f2faf8d7a0d14c09","651c1cc5b5c9aac9fbce9653","null","null","<p style=""font-size: 60px; font-family: BACS"">bmbNJUG</p>","","","","","","","","",""
"html-keyboard-response","261","308180","0.0-14.0-0.10","5cefe8856e0eec00015971dd","650c16f0f2faf8d7a0d14c09","651c1cc5b5c9aac9fbce9653","null","null","<p style=""font-size: 60px; font-family: BACS"">rcmuvGUOA</p>","","","","","","","","",""
"html-keyboard-response","262","309182","0.0-14.0-0.11","5cefe8856e0eec00015971dd","650c16f0f2faf8d7a0d14c09","651c1cc5b5c9aac9fbce9653","null","null","<p style=""font-size: 60px; font-family: BACS"">BMEMAYbBT</p>","","","","","","","","",""
"html-keyboard-response","263","310185","0.0-14.0-0.12","5cefe8856e0eec00015971dd","650c16f0f2faf8d7a0d14c09","651c1cc5b5c9aac9fbce9653","null","null","<p style=""font-size: 60px; font-family: BACS"">CkBOPTRK</p>","","","","","","","","",""
"html-keyboard-response","264","311202","0.0-14.0-0.13","5cefe8856e0eec00015971dd","650c16f0f2faf8d7a0d14c09","651c1cc5b5c9aac9fbce9653","null","null","<p style=""font-size: 60px; font-family: BACS"">OcYMYcM</p>","","","","","","","","",""
"html-keyboard-response","265","312218","0.0-14.0-0.14","5cefe8856e0eec00015971dd","650c16f0f2faf8d7a0d14c09","651c1cc5b5c9aac9fbce9653","null","null","<p style=""font-size: 60px; font-family: BACS"">lRCBTRK</p>","","","","","","","","",""
"html-keyboard-response","266","313225","0.0-14.0-0.15","5cefe8856e0eec00015971dd","650c16f0f2faf8d7a0d14c09","651c1cc5b5c9aac9fbce9653","null","null","<p style=""font-size: 60px; font-family: BACS"">hbkdTAm</p>","","","","","","","","",""
"html-keyboard-response","267","314242","0.0-14.0-0.16","5cefe8856e0eec00015971dd","650c16f0f2faf8d7a0d14c09","651c1cc5b5c9aac9fbce9653","null","null","<p style=""font-size: 60px; font-family: BACS"">UdumdGlu</p>","","","","","","","","",""
"html-keyboard-response","268","315247","0.0-14.0-0.17","5cefe8856e0eec00015971dd","650c16f0f2faf8d7a0d14c09","651c1cc5b5c9aac9fbce9653","null","null","<p style=""font-size: 60px; font-family: BACS"">BMEMATAm</p>","","","","","","","","",""
"html-keyboard-response","269","316255","0.0-14.0-0.18","5cefe8856e0eec00015971dd","650c16f0f2faf8d7a0d14c09","651c1cc5b5c9aac9fbce9653","null","null","<p style=""font-size: 60px; font-family: BACS"">uvaUJUG</p>","","","","","","","","",""
"html-keyboard-response","270","317259","0.0-14.0-0.19","5cefe8856e0eec00015971dd","650c16f0f2faf8d7a0d14c09","651c1cc5b5c9aac9fbce9653","null","null","<p style=""font-size: 60px; font-family: BACS"">UdumdkdrO</p>","","","","","","","","",""
"html-keyboard-response","271","318264","0.0-14.0-0.20","5cefe8856e0eec00015971dd","650c16f0f2faf8d7a0d14c09","651c1cc5b5c9aac9fbce9653","null","null","<p style=""font-size: 60px; font-family: BACS"">rdLJaJUG</p>","","","","","","","","",""
"html-keyboard-response","272","319271","0.0-14.0-0.21","5cefe8856e0eec00015971dd","650c16f0f2faf8d7a0d14c09","651c1cc5b5c9aac9fbce9653","null","null","<p style=""font-size: 60px; font-family: BACS"">YOaAbGlu</p>","","","","","","","","",""
"html-keyboard-response","273","320276","0.0-14.0-0.22","5cefe8856e0eec00015971dd","650c16f0f2faf8d7a0d14c09","651c1cc5b5c9aac9fbce9653","null","null","<p style=""font-size: 60px; font-family: BACS"">OmtlDTRK</p>","","","","","","","","",""
"html-keyboard-response","274","321287","0.0-14.0-0.23","5cefe8856e0eec00015971dd","650c16f0f2faf8d7a0d14c09","651c1cc5b5c9aac9fbce9653","null","null","<p style=""font-size: 60px; font-family: BACS"">hbkdRdCc</p>","","","","","","","","",""
"html-keyboard-response","275","322293","0.0-14.0-0.24","5cefe8856e0eec00015971dd","650c16f0f2faf8d7a0d14c09","651c1cc5b5c9aac9fbce9653","null","null","<p style=""font-size: 60px; font-family: BACS"">bmbNGlu</p>","","","","","","","","",""
"html-keyboard-response","276","323298","0.0-14.0-0.25","5cefe8856e0eec00015971dd","650c16f0f2faf8d7a0d14c09","651c1cc5b5c9aac9fbce9653","null","null","<p style=""font-size: 60px; font-family: BACS"">lRCBRdCc</p>","","","","","","","","",""
"html-keyboard-response","277","324305","0.0-14.0-0.26","5cefe8856e0eec00015971dd","650c16f0f2faf8d7a0d14c09","651c1cc5b5c9aac9fbce9653","null","null","<p style=""font-size: 60px; font-family: BACS"">uvaUlvk</p>","","","","","","","","",""
"html-keyboard-response","278","325311","0.0-14.0-0.27","5cefe8856e0eec00015971dd","650c16f0f2faf8d7a0d14c09","651c1cc5b5c9aac9fbce9653","null","null","<p style=""font-size: 60px; font-family: BACS"">lRCBTAm</p>","","","","","","","","",""
"html-keyboard-response","279","326329","0.0-14.0-0.28","5cefe8856e0eec00015971dd","650c16f0f2faf8d7a0d14c09","651c1cc5b5c9aac9fbce9653","null","null","<p style=""font-size: 60px; font-family: BACS"">bmbNGUOA</p>","","","","","","","","",""
"html-keyboard-response","280","327334","0.0-14.0-0.29","5cefe8856e0eec00015971dd","650c16f0f2faf8d7a0d14c09","651c1cc5b5c9aac9fbce9653","null","null","<p style=""font-size: 60px; font-family: BACS"">dMThkTAm</p>","","","","","","","","",""
"html-keyboard-response","281","328342","0.0-14.0-0.30","5cefe8856e0eec00015971dd","650c16f0f2faf8d7a0d14c09","651c1cc5b5c9aac9fbce9653","null","null","<p style=""font-size: 60px; font-family: BACS"">CkBOPRdCc</p>","","","","","","","","",""
"html-keyboard-response","282","329360","0.0-14.0-0.31","5cefe8856e0eec00015971dd","650c16f0f2faf8d7a0d14c09","651c1cc5b5c9aac9fbce9653","null","null","<p style=""font-size: 60px; font-family: BACS"">rcmuvGlu</p>","","","","","","","","",""
"html-keyboard-response","283","330365","0.0-14.0-0.32","5cefe8856e0eec00015971dd","650c16f0f2faf8d7a0d14c09","651c1cc5b5c9aac9fbce9653","null","null","<p style=""font-size: 60px; font-family: BACS"">YObAYcM</p>","","","","","","","","",""
"html-keyboard-response","284","331367","0.0-14.0-0.33","5cefe8856e0eec00015971dd","650c16f0f2faf8d7a0d14c09","651c1cc5b5c9aac9fbce9653","null","null","<p style=""font-size: 60px; font-family: BACS"">NaAQdJUG</p>","","","","","","","","",""
"html-keyboard-response","285","332372","0.0-14.0-0.34","5cefe8856e0eec00015971dd","650c16f0f2faf8d7a0d14c09","651c1cc5b5c9aac9fbce9653","null","null","<p style=""font-size: 60px; font-family: BACS"">aONdGlu</p>","","","","","","","","",""
"html-keyboard-response","286","333379","0.0-14.0-0.35","5cefe8856e0eec00015971dd","650c16f0f2faf8d7a0d14c09","651c1cc5b5c9aac9fbce9653","null","null","<p style=""font-size: 60px; font-family: BACS"">aNYmblvk</p>","","","","","","","","",""
"html-keyboard-response","287","334385","0.0-14.0-0.36","5cefe8856e0eec00015971dd","650c16f0f2faf8d7a0d14c09","651c1cc5b5c9aac9fbce9653","null","null","<p style=""font-size: 60px; font-family: BACS"">UdumdJUG</p>","","","","","","","","",""
"html-keyboard-response","288","335395","0.0-14.0-0.37","5cefe8856e0eec00015971dd","650c16f0f2faf8d7a0d14c09","651c1cc5b5c9aac9fbce9653","null","null","<p style=""font-size: 60px; font-family: BACS"">dMThkRdCc</p>","","","","","","","","",""
"html-keyboard-response","289","336404","0.0-14.0-0.38","5cefe8856e0eec00015971dd","650c16f0f2faf8d7a0d14c09","651c1cc5b5c9aac9fbce9653","null","null","<p style=""font-size: 60px; font-family: BACS"">MBKREYbBT</p>","","","","","","","","",""
"html-keyboard-response","290","337408","0.0-14.0-0.39","5cefe8856e0eec00015971dd","650c16f0f2faf8d7a0d14c09","651c1cc5b5c9aac9fbce9653","null","null","<p style=""font-size: 60px; font-family: BACS"">CkBOPTAm</p>","","","","","","","","",""
"html-keyboard-response","291","338414","0.0-14.0-0.40","5cefe8856e0eec00015971dd","650c16f0f2faf8d7a0d14c09","651c1cc5b5c9aac9fbce9653","null","null","<p style=""font-size: 60px; font-family: BACS"">dMThkYcM</p>","","","","","","","","",""
"html-keyboard-response","292","339418","0.0-14.0-0.41","5cefe8856e0eec00015971dd","650c16f0f2faf8d7a0d14c09","651c1cc5b5c9aac9fbce9653","null","null","<p style=""font-size: 60px; font-family: BACS"">YOaAbJUG</p>","","","","","","","","",""
"html-keyboard-response","293","340422","0.0-14.0-0.42","5cefe8856e0eec00015971dd","650c16f0f2faf8d7a0d14c09","651c1cc5b5c9aac9fbce9653","null","null","<p style=""font-size: 60px; font-family: BACS"">OmtlDRdCc</p>","","","","","","","","",""
"html-keyboard-response","294","341428","0.0-14.0-0.43","5cefe8856e0eec00015971dd","650c16f0f2faf8d7a0d14c09","651c1cc5b5c9aac9fbce9653","null","null","<p style=""font-size: 60px; font-family: BACS"">lRCBYbBT</p>","","","","","","","","",""
"html-keyboard-response","295","342434","0.0-14.0-0.44","5cefe8856e0eec00015971dd","650c16f0f2faf8d7a0d14c09","651c1cc5b5c9aac9fbce9653","null","null","<p style=""font-size: 60px; font-family: BACS"">NaAQdlvk</p>","","","","","","","","",""
"html-keyboard-response","296","343437","0.0-14.0-0.45","5cefe8856e0eec00015971dd","650c16f0f2faf8d7a0d14c09","651c1cc5b5c9aac9fbce9653","null","null","<p style=""font-size: 60px; font-family: BACS"">OcYMTAm</p>","","","","","","","","",""
"html-keyboard-response","297","344454","0.0-14.0-0.46","5cefe8856e0eec00015971dd","650c16f0f2faf8d7a0d14c09","651c1cc5b5c9aac9fbce9653","null","null","<p style=""font-size: 60px; font-family: BACS"">JrGvJUG</p>","","","","","","","","",""
"html-keyboard-response","298","345459","0.0-14.0-0.47","5cefe8856e0eec00015971dd","650c16f0f2faf8d7a0d14c09","651c1cc5b5c9aac9fbce9653","null","null","<p style=""font-size: 60px; font-family: BACS"">rdLJakdrO</p>","","","","","","","","",""
"html-keyboard-response","299","346462","0.0-14.0-0.48","5cefe8856e0eec00015971dd","650c16f0f2faf8d7a0d14c09","651c1cc5b5c9aac9fbce9653","null","null","<p style=""font-size: 60px; font-family: BACS"">aNYmbGlu</p>","","","","","","","","",""
"html-keyboard-response","300","347464","0.0-14.0-0.49","5cefe8856e0eec00015971dd","650c16f0f2faf8d7a0d14c09","651c1cc5b5c9aac9fbce9653","null","null","<p style=""font-size: 60px; font-family: BACS"">YObATRK</p>","","","","","","","","",""
"html-keyboard-response","301","348472","0.0-14.0-0.50","5cefe8856e0eec00015971dd","650c16f0f2faf8d7a0d14c09","651c1cc5b5c9aac9fbce9653","null","null","<p style=""font-size: 60px; font-family: BACS"">JrGvlvk</p>","","","","","","","","",""
"html-keyboard-response","302","349479","0.0-14.0-0.51","5cefe8856e0eec00015971dd","650c16f0f2faf8d7a0d14c09","651c1cc5b5c9aac9fbce9653","null","null","<p style=""font-size: 60px; font-family: BACS"">aNYmbGUOA</p>","","","","","","","","",""
"html-keyboard-response","303","350485","0.0-14.0-0.52","5cefe8856e0eec00015971dd","650c16f0f2faf8d7a0d14c09","651c1cc5b5c9aac9fbce9653","null","null","<p style=""font-size: 60px; font-family: BACS"">hbkdYcM</p>","","","","","","","","",""
"html-keyboard-response","304","351496","0.0-14.0-0.53","5cefe8856e0eec00015971dd","650c16f0f2faf8d7a0d14c09","651c1cc5b5c9aac9fbce9653","null","null","<p style=""font-size: 60px; font-family: BACS"">JrGvGlu</p>","","","","","","","","",""
"html-keyboard-response","305","352503","0.0-14.0-0.54","5cefe8856e0eec00015971dd","650c16f0f2faf8d7a0d14c09","651c1cc5b5c9aac9fbce9653","null","null","<p style=""font-size: 60px; font-family: BACS"">CkBOPYcM</p>","","","","","","","","",""
"html-keyboard-response","306","353506","0.0-14.0-0.55","5cefe8856e0eec00015971dd","650c16f0f2faf8d7a0d14c09","651c1cc5b5c9aac9fbce9653","null","null","<p style=""font-size: 60px; font-family: BACS"">uvaUkdrO</p>","","","","","","","","",""
"html-keyboard-response","307","354513","0.0-14.0-0.56","5cefe8856e0eec00015971dd","650c16f0f2faf8d7a0d14c09","651c1cc5b5c9aac9fbce9653","null","null","<p style=""font-size: 60px; font-family: BACS"">aONdGUOA</p>","","","","","","","","",""
"html-keyboard-response","308","355514","0.0-14.0-0.57","5cefe8856e0eec00015971dd","650c16f0f2faf8d7a0d14c09","651c1cc5b5c9aac9fbce9653","null","null","<p style=""font-size: 60px; font-family: BACS"">rcmuvlvk</p>","","","","","","","","",""
"html-keyboard-response","309","356522","0.0-14.0-0.58","5cefe8856e0eec00015971dd","650c16f0f2faf8d7a0d14c09","651c1cc5b5c9aac9fbce9653","null","null","<p style=""font-size: 60px; font-family: BACS"">OcYMYbBT</p>","","","","","","","","",""
"html-keyboard-response","310","357529","0.0-14.0-0.59","5cefe8856e0eec00015971dd","650c16f0f2faf8d7a0d14c09","651c1cc5b5c9aac9fbce9653","null","null","<p style=""font-size: 60px; font-family: BACS"">YObATAm</p>","","","","","","","","",""
"html-keyboard-response","311","358532","0.0-14.0-0.60","5cefe8856e0eec00015971dd","650c16f0f2faf8d7a0d14c09","651c1cc5b5c9aac9fbce9653","null","null","<p style=""font-size: 60px; font-family: BACS"">Udumdlvk</p>","","","","","","","","",""
"html-keyboard-response","312","359537","0.0-14.0-0.61","5cefe8856e0eec00015971dd","650c16f0f2faf8d7a0d14c09","651c1cc5b5c9aac9fbce9653","null","null","<p style=""font-size: 60px; font-family: BACS"">MBKRETAm</p>","","","","","","","","",""
"html-keyboard-response","313","360545","0.0-14.0-0.62","5cefe8856e0eec00015971dd","650c16f0f2faf8d7a0d14c09","651c1cc5b5c9aac9fbce9653","null","null","<p style=""font-size: 60px; font-family: BACS"">rdLJalvk</p>","","","","","","","","",""
"html-keyboard-response","314","361550","0.0-14.0-0.63","5cefe8856e0eec00015971dd","650c16f0f2faf8d7a0d14c09","651c1cc5b5c9aac9fbce9653","null","null","<p style=""font-size: 60px; font-family: BACS"">aNYmbkdrO</p>","","","","","","","","",""
"html-keyboard-response","315","362555","0.0-14.0-0.64","5cefe8856e0eec00015971dd","650c16f0f2faf8d7a0d14c09","651c1cc5b5c9aac9fbce9653","null","null","<p style=""font-size: 60px; font-family: BACS"">EMYKTRK</p>","","","","","","","","",""
"html-keyboard-response","316","363559","0.0-14.0-0.65","5cefe8856e0eec00015971dd","650c16f0f2faf8d7a0d14c09","651c1cc5b5c9aac9fbce9653","null","null","<p style=""font-size: 60px; font-family: BACS"">rcmuvkdrO</p>","","","","","","","","",""
"html-keyboard-response","317","364576","0.0-14.0-0.66","5cefe8856e0eec00015971dd","650c16f0f2faf8d7a0d14c09","651c1cc5b5c9aac9fbce9653","null","null","<p style=""font-size: 60px; font-family: BACS"">OmtlDYbBT</p>","","","","","","","","",""
"html-keyboard-response","318","365579","0.0-14.0-0.67","5cefe8856e0eec00015971dd","650c16f0f2faf8d7a0d14c09","651c1cc5b5c9aac9fbce9653","null","null","<p style=""font-size: 60px; font-family: BACS"">uvaUGlu</p>","","","","","","","","",""
"html-keyboard-response","319","366583","0.0-14.0-0.68","5cefe8856e0eec00015971dd","650c16f0f2faf8d7a0d14c09","651c1cc5b5c9aac9fbce9653","null","null","<p style=""font-size: 60px; font-family: BACS"">rdLJaGUOA</p>","","","","","","","","",""
"html-keyboard-response","320","367585","0.0-14.0-0.69","5cefe8856e0eec00015971dd","650c16f0f2faf8d7a0d14c09","651c1cc5b5c9aac9fbce9653","null","null","<p style=""font-size: 60px; font-family: BACS"">EMYKYcM</p>","","","","","","","","",""
"html-keyboard-response","321","368592","0.0-14.0-0.70","5cefe8856e0eec00015971dd","650c16f0f2faf8d7a0d14c09","651c1cc5b5c9aac9fbce9653","null","null","<p style=""font-size: 60px; font-family: BACS"">NaAQdkdrO</p>","","","","","","","","",""
"html-keyboard-response","322","369597","0.0-14.0-0.71","5cefe8856e0eec00015971dd","650c16f0f2faf8d7a0d14c09","651c1cc5b5c9aac9fbce9653","null","null","<p style=""font-size: 60px; font-family: BACS"">YObAYbBT</p>","","","","","","","","",""
"html-keyboard-response","323","370599","0.0-14.0-0.72","5cefe8856e0eec00015971dd","650c16f0f2faf8d7a0d14c09","651c1cc5b5c9aac9fbce9653","null","null","<p style=""font-size: 60px; font-family: BACS"">MBKRETRK</p>","","","","","","","","",""
"html-keyboard-response","324","371604","0.0-14.0-0.73","5cefe8856e0eec00015971dd","650c16f0f2faf8d7a0d14c09","651c1cc5b5c9aac9fbce9653","null","null","<p style=""font-size: 60px; font-family: BACS"">BMEMARdCc</p>","","","","","","","","",""
"html-keyboard-response","325","372612","0.0-14.0-0.74","5cefe8856e0eec00015971dd","650c16f0f2faf8d7a0d14c09","651c1cc5b5c9aac9fbce9653","null","null","<p style=""font-size: 60px; font-family: BACS"">aONdJUG</p>","","","","","","","","",""
"html-keyboard-response","326","373624","0.0-14.0-0.75","5cefe8856e0eec00015971dd","650c16f0f2faf8d7a0d14c09","651c1cc5b5c9aac9fbce9653","null","null","<p style=""font-size: 60px; font-family: BACS"">BMEMATRK</p>","","","","","","","","",""
"html-keyboard-response","327","374628","0.0-14.0-0.76","5cefe8856e0eec00015971dd","650c16f0f2faf8d7a0d14c09","651c1cc5b5c9aac9fbce9653","null","null","<p style=""font-size: 60px; font-family: BACS"">MBKREYcM</p>","","","","","","","","",""
"html-keyboard-response","328","375633","0.0-14.0-0.77","5cefe8856e0eec00015971dd","650c16f0f2faf8d7a0d14c09","651c1cc5b5c9aac9fbce9653","null","null","<p style=""font-size: 60px; font-family: BACS"">EMYKYbBT</p>","","","","","","","","",""
"html-keyboard-response","329","376650","0.0-14.0-0.78","5cefe8856e0eec00015971dd","650c16f0f2faf8d7a0d14c09","651c1cc5b5c9aac9fbce9653","null","null","<p style=""font-size: 60px; font-family: BACS"">OcYMRdCc</p>","","","","","","","","",""
"html-keyboard-response","330","377653","0.0-14.0-0.79","5cefe8856e0eec00015971dd","650c16f0f2faf8d7a0d14c09","651c1cc5b5c9aac9fbce9653","null","null","<p style=""font-size: 60px; font-family: BACS"">dMThkTRK</p>","","","","","","","","",""
"html-keyboard-response","331","380367","0.0-15.0","5cefe8856e0eec00015971dd","650c16f0f2faf8d7a0d14c09","651c1cc5b5c9aac9fbce9653","2713"," ","<p>Great, you've seen the fourth block of words. You may now take a short break.</p>
      <p>Press the spacebar when you're ready to continue.</p>","","","","","","","","",""
"html-keyboard-response","332","381369","0.0-16.0-0.0","5cefe8856e0eec00015971dd","650c16f0f2faf8d7a0d14c09","651c1cc5b5c9aac9fbce9653","null","null","<p style=""font-size: 60px; font-family: BACS"">YOaAbGlu</p>","","","","","","","","",""
"html-keyboard-response","333","382373","0.0-16.0-0.1","5cefe8856e0eec00015971dd","650c16f0f2faf8d7a0d14c09","651c1cc5b5c9aac9fbce9653","null","null","<p style=""font-size: 60px; font-family: BACS"">YOaAbGlu</p>","","","","","","","","",""
"html-keyboard-response","334","383390","0.0-16.0-0.2","5cefe8856e0eec00015971dd","650c16f0f2faf8d7a0d14c09","651c1cc5b5c9aac9fbce9653","null","null","<p style=""font-size: 60px; font-family: BACS"">YOaAbGlu</p>","","","","","","","","",""
"html-keyboard-response","335","384396","0.0-16.0-0.3","5cefe8856e0eec00015971dd","650c16f0f2faf8d7a0d14c09","651c1cc5b5c9aac9fbce9653","null","null","<p style=""font-size: 60px; font-family: BACS"">YOaAbGlu</p>","","","","","","","","",""
"html-keyboard-response","336","385405","0.0-16.0-0.4","5cefe8856e0eec00015971dd","650c16f0f2faf8d7a0d14c09","651c1cc5b5c9aac9fbce9653","null","null","<p style=""font-size: 60px; font-family: BACS"">YOaAbGlu</p>","","","","","","","","",""
"html-keyboard-response","337","386407","0.0-16.0-0.5","5cefe8856e0eec00015971dd","650c16f0f2faf8d7a0d14c09","651c1cc5b5c9aac9fbce9653","null","null","<p style=""font-size: 60px; font-family: BACS"">YOaAbGlu</p>","","","","","","","","",""
"html-keyboard-response","338","387418","0.0-16.0-0.6","5cefe8856e0eec00015971dd","650c16f0f2faf8d7a0d14c09","651c1cc5b5c9aac9fbce9653","null","null","<p style=""font-size: 60px; font-family: BACS"">YOaAbGlu</p>","","","","","","","","",""
"html-keyboard-response","339","388435","0.0-16.0-0.7","5cefe8856e0eec00015971dd","650c16f0f2faf8d7a0d14c09","651c1cc5b5c9aac9fbce9653","null","null","<p style=""font-size: 60px; font-family: BACS"">YOaAbGlu</p>","","","","","","","","",""
"html-keyboard-response","340","389440","0.0-16.0-0.8","5cefe8856e0eec00015971dd","650c16f0f2faf8d7a0d14c09","651c1cc5b5c9aac9fbce9653","null","null","<p style=""font-size: 60px; font-family: BACS"">YOaAbGlu</p>","","","","","","","","",""
"html-keyboard-response","341","390445","0.0-16.0-0.9","5cefe8856e0eec00015971dd","650c16f0f2faf8d7a0d14c09","651c1cc5b5c9aac9fbce9653","null","null","<p style=""font-size: 60px; font-family: BACS"">YOaAbGlu</p>","","","","","","","","",""
"html-keyboard-response","342","391454","0.0-16.0-0.10","5cefe8856e0eec00015971dd","650c16f0f2faf8d7a0d14c09","651c1cc5b5c9aac9fbce9653","null","null","<p style=""font-size: 60px; font-family: BACS"">YOaAbGlu</p>","","","","","","","","",""
"html-keyboard-response","343","392454","0.0-16.0-0.11","5cefe8856e0eec00015971dd","650c16f0f2faf8d7a0d14c09","651c1cc5b5c9aac9fbce9653","null","null","<p style=""font-size: 60px; font-family: BACS"">YOaAbGlu</p>","","","","","","","","",""
"html-keyboard-response","344","393462","0.0-16.0-0.12","5cefe8856e0eec00015971dd","650c16f0f2faf8d7a0d14c09","651c1cc5b5c9aac9fbce9653","null","null","<p style=""font-size: 60px; font-family: BACS"">YOaAbGlu</p>","","","","","","","","",""
"html-keyboard-response","345","394465","0.0-16.0-0.13","5cefe8856e0eec00015971dd","650c16f0f2faf8d7a0d14c09","651c1cc5b5c9aac9fbce9653","null","null","<p style=""font-size: 60px; font-family: BACS"">YOaAbGlu</p>","","","","","","","","",""
"html-keyboard-response","346","395469","0.0-16.0-0.14","5cefe8856e0eec00015971dd","650c16f0f2faf8d7a0d14c09","651c1cc5b5c9aac9fbce9653","null","null","<p style=""font-size: 60px; font-family: BACS"">YOaAbGlu</p>","","","","","","","","",""
"html-keyboard-response","347","396478","0.0-16.0-0.15","5cefe8856e0eec00015971dd","650c16f0f2faf8d7a0d14c09","651c1cc5b5c9aac9fbce9653","null","null","<p style=""font-size: 60px; font-family: BACS"">YOaAbGlu</p>","","","","","","","","",""
"html-keyboard-response","348","397493","0.0-16.0-0.16","5cefe8856e0eec00015971dd","650c16f0f2faf8d7a0d14c09","651c1cc5b5c9aac9fbce9653","null","null","<p style=""font-size: 60px; font-family: BACS"">YOaAbGlu</p>","","","","","","","","",""
"html-keyboard-response","349","398500","0.0-16.0-0.17","5cefe8856e0eec00015971dd","650c16f0f2faf8d7a0d14c09","651c1cc5b5c9aac9fbce9653","null","null","<p style=""font-size: 60px; font-family: BACS"">YOaAbGlu</p>","","","","","","","","",""
"html-keyboard-response","350","399502","0.0-16.0-0.18","5cefe8856e0eec00015971dd","650c16f0f2faf8d7a0d14c09","651c1cc5b5c9aac9fbce9653","null","null","<p style=""font-size: 60px; font-family: BACS"">YOaAbGlu</p>","","","","","","","","",""
"html-keyboard-response","351","400505","0.0-16.0-0.19","5cefe8856e0eec00015971dd","650c16f0f2faf8d7a0d14c09","651c1cc5b5c9aac9fbce9653","null","null","<p style=""font-size: 60px; font-family: BACS"">YOaAbGlu</p>","","","","","","","","",""
"html-keyboard-response","352","401510","0.0-16.0-0.20","5cefe8856e0eec00015971dd","650c16f0f2faf8d7a0d14c09","651c1cc5b5c9aac9fbce9653","null","null","<p style=""font-size: 60px; font-family: BACS"">YOaAbGlu</p>","","","","","","","","",""
"html-keyboard-response","353","402514","0.0-16.0-0.21","5cefe8856e0eec00015971dd","650c16f0f2faf8d7a0d14c09","651c1cc5b5c9aac9fbce9653","null","null","<p style=""font-size: 60px; font-family: BACS"">YOaAbGlu</p>","","","","","","","","",""
"html-keyboard-response","354","403517","0.0-16.0-0.22","5cefe8856e0eec00015971dd","650c16f0f2faf8d7a0d14c09","651c1cc5b5c9aac9fbce9653","null","null","<p style=""font-size: 60px; font-family: BACS"">YOaAbGlu</p>","","","","","","","","",""
"html-keyboard-response","355","404521","0.0-16.0-0.23","5cefe8856e0eec00015971dd","650c16f0f2faf8d7a0d14c09","651c1cc5b5c9aac9fbce9653","null","null","<p style=""font-size: 60px; font-family: BACS"">YOaAbGlu</p>","","","","","","","","",""
"html-keyboard-response","356","405529","0.0-16.0-0.24","5cefe8856e0eec00015971dd","650c16f0f2faf8d7a0d14c09","651c1cc5b5c9aac9fbce9653","null","null","<p style=""font-size: 60px; font-family: BACS"">YOaAbGlu</p>","","","","","","","","",""
"html-keyboard-response","357","406532","0.0-16.0-0.25","5cefe8856e0eec00015971dd","650c16f0f2faf8d7a0d14c09","651c1cc5b5c9aac9fbce9653","null","null","<p style=""font-size: 60px; font-family: BACS"">YOaAbGlu</p>","","","","","","","","",""
"html-keyboard-response","358","407539","0.0-16.0-0.26","5cefe8856e0eec00015971dd","650c16f0f2faf8d7a0d14c09","651c1cc5b5c9aac9fbce9653","null","null","<p style=""font-size: 60px; font-family: BACS"">YOaAbGlu</p>","","","","","","","","",""
"html-keyboard-response","359","408543","0.0-16.0-0.27","5cefe8856e0eec00015971dd","650c16f0f2faf8d7a0d14c09","651c1cc5b5c9aac9fbce9653","null","null","<p style=""font-size: 60px; font-family: BACS"">YOaAbGlu</p>","","","","","","","","",""
"html-keyboard-response","360","409546","0.0-16.0-0.28","5cefe8856e0eec00015971dd","650c16f0f2faf8d7a0d14c09","651c1cc5b5c9aac9fbce9653","null","null","<p style=""font-size: 60px; font-family: BACS"">YOaAbGlu</p>","","","","","","","","",""
"html-keyboard-response","361","410549","0.0-16.0-0.29","5cefe8856e0eec00015971dd","650c16f0f2faf8d7a0d14c09","651c1cc5b5c9aac9fbce9653","null","null","<p style=""font-size: 60px; font-family: BACS"">YOaAbGlu</p>","","","","","","","","",""
"html-keyboard-response","362","411554","0.0-16.0-0.30","5cefe8856e0eec00015971dd","650c16f0f2faf8d7a0d14c09","651c1cc5b5c9aac9fbce9653","null","null","<p style=""font-size: 60px; font-family: BACS"">YOaAbGlu</p>","","","","","","","","",""
"html-keyboard-response","363","412559","0.0-16.0-0.31","5cefe8856e0eec00015971dd","650c16f0f2faf8d7a0d14c09","651c1cc5b5c9aac9fbce9653","null","null","<p style=""font-size: 60px; font-family: BACS"">YOaAbGlu</p>","","","","","","","","",""
"html-keyboard-response","364","413562","0.0-16.0-0.32","5cefe8856e0eec00015971dd","650c16f0f2faf8d7a0d14c09","651c1cc5b5c9aac9fbce9653","null","null","<p style=""font-size: 60px; font-family: BACS"">YOaAbGlu</p>","","","","","","","","",""
"html-keyboard-response","365","414565","0.0-16.0-0.33","5cefe8856e0eec00015971dd","650c16f0f2faf8d7a0d14c09","651c1cc5b5c9aac9fbce9653","null","null","<p style=""font-size: 60px; font-family: BACS"">YOaAbGlu</p>","","","","","","","","",""
"html-keyboard-response","366","415571","0.0-16.0-0.34","5cefe8856e0eec00015971dd","650c16f0f2faf8d7a0d14c09","651c1cc5b5c9aac9fbce9653","null","null","<p style=""font-size: 60px; font-family: BACS"">YOaAbGlu</p>","","","","","","","","",""
"html-keyboard-response","367","416578","0.0-16.0-0.35","5cefe8856e0eec00015971dd","650c16f0f2faf8d7a0d14c09","651c1cc5b5c9aac9fbce9653","null","null","<p style=""font-size: 60px; font-family: BACS"">YOaAbGlu</p>","","","","","","","","",""
"html-keyboard-response","368","417587","0.0-16.0-0.36","5cefe8856e0eec00015971dd","650c16f0f2faf8d7a0d14c09","651c1cc5b5c9aac9fbce9653","null","null","<p style=""font-size: 60px; font-family: BACS"">YOaAbGlu</p>","","","","","","","","",""
"html-keyboard-response","369","418590","0.0-16.0-0.37","5cefe8856e0eec00015971dd","650c16f0f2faf8d7a0d14c09","651c1cc5b5c9aac9fbce9653","null","null","<p style=""font-size: 60px; font-family: BACS"">YOaAbGlu</p>","","","","","","","","",""
"html-keyboard-response","370","419592","0.0-16.0-0.38","5cefe8856e0eec00015971dd","650c16f0f2faf8d7a0d14c09","651c1cc5b5c9aac9fbce9653","null","null","<p style=""font-size: 60px; font-family: BACS"">YOaAbGlu</p>","","","","","","","","",""
"html-keyboard-response","371","420596","0.0-16.0-0.39","5cefe8856e0eec00015971dd","650c16f0f2faf8d7a0d14c09","651c1cc5b5c9aac9fbce9653","null","null","<p style=""font-size: 60px; font-family: BACS"">YOaAbGlu</p>","","","","","","","","",""
"html-keyboard-response","372","421599","0.0-16.0-0.40","5cefe8856e0eec00015971dd","650c16f0f2faf8d7a0d14c09","651c1cc5b5c9aac9fbce9653","null","null","<p style=""font-size: 60px; font-family: BACS"">YOaAbGlu</p>","","","","","","","","",""
"html-keyboard-response","373","422614","0.0-16.0-0.41","5cefe8856e0eec00015971dd","650c16f0f2faf8d7a0d14c09","651c1cc5b5c9aac9fbce9653","null","null","<p style=""font-size: 60px; font-family: BACS"">YOaAbGlu</p>","","","","","","","","",""
"html-keyboard-response","374","423618","0.0-16.0-0.42","5cefe8856e0eec00015971dd","650c16f0f2faf8d7a0d14c09","651c1cc5b5c9aac9fbce9653","null","null","<p style=""font-size: 60px; font-family: BACS"">YOaAbGlu</p>","","","","","","","","",""
"html-keyboard-response","375","424623","0.0-16.0-0.43","5cefe8856e0eec00015971dd","650c16f0f2faf8d7a0d14c09","651c1cc5b5c9aac9fbce9653","null","null","<p style=""font-size: 60px; font-family: BACS"">YOaAbGlu</p>","","","","","","","","",""
"html-keyboard-response","376","425628","0.0-16.0-0.44","5cefe8856e0eec00015971dd","650c16f0f2faf8d7a0d14c09","651c1cc5b5c9aac9fbce9653","null","null","<p style=""font-size: 60px; font-family: BACS"">YOaAbGlu</p>","","","","","","","","",""
"html-keyboard-response","377","426634","0.0-16.0-0.45","5cefe8856e0eec00015971dd","650c16f0f2faf8d7a0d14c09","651c1cc5b5c9aac9fbce9653","null","null","<p style=""font-size: 60px; font-family: BACS"">YOaAbGlu</p>","","","","","","","","",""
"html-keyboard-response","378","427641","0.0-16.0-0.46","5cefe8856e0eec00015971dd","650c16f0f2faf8d7a0d14c09","651c1cc5b5c9aac9fbce9653","null","null","<p style=""font-size: 60px; font-family: BACS"">YOaAbGlu</p>","","","","","","","","",""
"html-keyboard-response","379","428657","0.0-16.0-0.47","5cefe8856e0eec00015971dd","650c16f0f2faf8d7a0d14c09","651c1cc5b5c9aac9fbce9653","null","null","<p style=""font-size: 60px; font-family: BACS"">YOaAbGlu</p>","","","","","","","","",""
"html-keyboard-response","380","429662","0.0-16.0-0.48","5cefe8856e0eec00015971dd","650c16f0f2faf8d7a0d14c09","651c1cc5b5c9aac9fbce9653","null","null","<p style=""font-size: 60px; font-family: BACS"">YOaAbGlu</p>","","","","","","","","",""
"html-keyboard-response","381","430670","0.0-16.0-0.49","5cefe8856e0eec00015971dd","650c16f0f2faf8d7a0d14c09","651c1cc5b5c9aac9fbce9653","null","null","<p style=""font-size: 60px; font-family: BACS"">YOaAbGlu</p>","","","","","","","","",""
"html-keyboard-response","382","431688","0.0-16.0-0.50","5cefe8856e0eec00015971dd","650c16f0f2faf8d7a0d14c09","651c1cc5b5c9aac9fbce9653","null","null","<p style=""font-size: 60px; font-family: BACS"">YOaAbGlu</p>","","","","","","","","",""
"html-keyboard-response","383","432695","0.0-16.0-0.51","5cefe8856e0eec00015971dd","650c16f0f2faf8d7a0d14c09","651c1cc5b5c9aac9fbce9653","null","null","<p style=""font-size: 60px; font-family: BACS"">YOaAbGlu</p>","","","","","","","","",""
"html-keyboard-response","384","433701","0.0-16.0-0.52","5cefe8856e0eec00015971dd","650c16f0f2faf8d7a0d14c09","651c1cc5b5c9aac9fbce9653","null","null","<p style=""font-size: 60px; font-family: BACS"">YOaAbGlu</p>","","","","","","","","",""
"html-keyboard-response","385","434713","0.0-16.0-0.53","5cefe8856e0eec00015971dd","650c16f0f2faf8d7a0d14c09","651c1cc5b5c9aac9fbce9653","null","null","<p style=""font-size: 60px; font-family: BACS"">YOaAbGlu</p>","","","","","","","","",""
"html-keyboard-response","386","435717","0.0-16.0-0.54","5cefe8856e0eec00015971dd","650c16f0f2faf8d7a0d14c09","651c1cc5b5c9aac9fbce9653","null","null","<p style=""font-size: 60px; font-family: BACS"">YOaAbGlu</p>","","","","","","","","",""
"html-keyboard-response","387","436719","0.0-16.0-0.55","5cefe8856e0eec00015971dd","650c16f0f2faf8d7a0d14c09","651c1cc5b5c9aac9fbce9653","null","null","<p style=""font-size: 60px; font-family: BACS"">YOaAbGlu</p>","","","","","","","","",""
"html-keyboard-response","388","437722","0.0-16.0-0.56","5cefe8856e0eec00015971dd","650c16f0f2faf8d7a0d14c09","651c1cc5b5c9aac9fbce9653","null","null","<p style=""font-size: 60px; font-family: BACS"">YOaAbGlu</p>","","","","","","","","",""
"html-keyboard-response","389","438725","0.0-16.0-0.57","5cefe8856e0eec00015971dd","650c16f0f2faf8d7a0d14c09","651c1cc5b5c9aac9fbce9653","null","null","<p style=""font-size: 60px; font-family: BACS"">YOaAbGlu</p>","","","","","","","","",""
"html-keyboard-response","390","439729","0.0-16.0-0.58","5cefe8856e0eec00015971dd","650c16f0f2faf8d7a0d14c09","651c1cc5b5c9aac9fbce9653","null","null","<p style=""font-size: 60px; font-family: BACS"">YOaAbGlu</p>","","","","","","","","",""
"html-keyboard-response","391","440739","0.0-16.0-0.59","5cefe8856e0eec00015971dd","650c16f0f2faf8d7a0d14c09","651c1cc5b5c9aac9fbce9653","null","null","<p style=""font-size: 60px; font-family: BACS"">YOaAbGlu</p>","","","","","","","","",""
"html-keyboard-response","392","441745","0.0-16.0-0.60","5cefe8856e0eec00015971dd","650c16f0f2faf8d7a0d14c09","651c1cc5b5c9aac9fbce9653","null","null","<p style=""font-size: 60px; font-family: BACS"">YOaAbGlu</p>","","","","","","","","",""
"html-keyboard-response","393","442749","0.0-16.0-0.61","5cefe8856e0eec00015971dd","650c16f0f2faf8d7a0d14c09","651c1cc5b5c9aac9fbce9653","null","null","<p style=""font-size: 60px; font-family: BACS"">YOaAbGlu</p>","","","","","","","","",""
"html-keyboard-response","394","443767","0.0-16.0-0.62","5cefe8856e0eec00015971dd","650c16f0f2faf8d7a0d14c09","651c1cc5b5c9aac9fbce9653","null","null","<p style=""font-size: 60px; font-family: BACS"">YOaAbGlu</p>","","","","","","","","",""
"html-keyboard-response","395","444769","0.0-16.0-0.63","5cefe8856e0eec00015971dd","650c16f0f2faf8d7a0d14c09","651c1cc5b5c9aac9fbce9653","null","null","<p style=""font-size: 60px; font-family: BACS"">YOaAbGlu</p>","","","","","","","","",""
"html-keyboard-response","396","445771","0.0-16.0-0.64","5cefe8856e0eec00015971dd","650c16f0f2faf8d7a0d14c09","651c1cc5b5c9aac9fbce9653","null","null","<p style=""font-size: 60px; font-family: BACS"">YOaAbGlu</p>","","","","","","","","",""
"html-keyboard-response","397","446789","0.0-16.0-0.65","5cefe8856e0eec00015971dd","650c16f0f2faf8d7a0d14c09","651c1cc5b5c9aac9fbce9653","null","null","<p style=""font-size: 60px; font-family: BACS"">YOaAbGlu</p>","","","","","","","","",""
"html-keyboard-response","398","447792","0.0-16.0-0.66","5cefe8856e0eec00015971dd","650c16f0f2faf8d7a0d14c09","651c1cc5b5c9aac9fbce9653","null","null","<p style=""font-size: 60px; font-family: BACS"">YOaAbGlu</p>","","","","","","","","",""
