"trial_type","trial_index","time_elapsed","internal_node_id","subject_id","study_id","session_id","rt","response","stimulus","success","item","task","correct_response","testing_condition","correct","target","confound","name"
"pavlovia","0","1055","0.0-0.0","5eb35dff41a381156be161c2","650c16f0f2faf8d7a0d14c09","651c1c10f2caf4c516718ff2","","","","","","","","","","","",""
"survey-html-form","1","6631","0.0-1.0","5eb35dff41a381156be161c2","650c16f0f2faf8d7a0d14c09","651c1c10f2caf4c516718ff2","5575","{""ID"":""5eb35dff41a381156be161c2""}","","","","","","","","","",""
"html-keyboard-response","2","11148","0.0-2.0","5eb35dff41a381156be161c2","650c16f0f2faf8d7a0d14c09","651c1c10f2caf4c516718ff2","4515"," ","<p style=""font-size: 15px;"">Before beginning, we ask that you read the consent information and confirm your agreement to participate in the experiment.</p>
      <p style=""font-size: 15px;""> We ask that you remember that this is a research project and that your participation is entirely voluntary. You can stop your participation at any time, without needing to provide any explanation. The study we're asking you to participate in aims at examining how readers process written words. You will be engaged in a session of apprximately 20 minutes, followed by a brief questionnaire. You will have the opportunity to take a few breaks during the experiment. You will be paid £4 for your participation, corresponding to a rate of £8/hour. While this experiment looks at cognitive faculties, this experiment doesn't constitute clinical proof of eventual pathologies.</p>
      <p style=""font-size: 15px;"">All of the information collected thanks to yours and others' participation will be held in a secure password-protected server, and will not be shared with anyone not authorised to view it. Your personal information will be kept with an arbitrary participant ID. Thanks to this data anonymity process, any researcher analysing the data won't be able to track the information back to a specific participant. Therefore, this process will make identifying you impossibile, even when results from the study will be published in scientific reviews, presented at congresses, or at any other public forum. More generally, the collected data will be treated in accordance with the laws on privacy and conformity to the Legislative Degree n. 196 ""Code regarding the protection of personal data"" of the 30th of June 2003 and to the European Regulation 2016/670 (General Data Protection Regulation - GDPR). The Data Protection Officer is Avv. Valentina Carollo, who can be contacted at the following email addresses: <a href=""mailto:dpo@sissa.it"">dpo@sissa.it</a> or <a href=""mailto:rpd@sissa.it"">rpd@sissa.it</a> - PEC: <a href=""mailto:protocollo@pec.sissa.it"">protocollo@pec.sissa.it</a>.</p>
      <p style=""font-size: 15px;""> Before expressing your consent to participate, we would like to remind you again that in case you need explanations on any aspect of the experimental procedure, the researcher is at your disposition (<a href=""mailto:aliebelt@sissa.it"">aliebelt@sissa.it</a>, <a href=""mailto:davide.crepaldi@sissa.it"">davide.crepaldi@sissa.it</a>).</p>
      <p style=""font-size: 15px;"">If you would like to download the informed consent form, you can do so here: <a href=""BASL-Informed_Consent.pdf"" download>informed consent form</a>.</p>
      <p style=""font-size: 15px;"">We ask that you press the spacebar to proceed to the consent section.</p>","","","","","","","","",""
"survey-html-form","3","18189","0.0-3.0","5eb35dff41a381156be161c2","650c16f0f2faf8d7a0d14c09","651c1c10f2caf4c516718ff2","7042","{""consent1"":""YES"",""consent2"":""YES"",""consent3"":""YES"",""consent4"":""YES"",""consent5"":""YES"",""consent6"":""YES""}","","","","","","","","","",""
"fullscreen","4","1708138","0.0-4.0","5eb35dff41a381156be161c2","650c16f0f2faf8d7a0d14c09","651c1c10f2caf4c516718ff2","","","","true","","","","","","","",""
"html-keyboard-response","5","1710809","0.0-5.0","5eb35dff41a381156be161c2","650c16f0f2faf8d7a0d14c09","651c1c10f2caf4c516718ff2","2670"," ","<p>Welcome, and thank you very much for your time!</p>
      <p>In this experiment, you'll be a language expert who's been asked to take a look at words that Earth has received in its first communication with aliens. Your task, in this first part of the experiment, is to pay close attention to the words you'll be shown; later, world leaders will ask you questions on what you saw. The words will be shown to you quite quickly; it seems that the aliens were in a hurry :-)</p>
      <p>Press the spacebar to continue.<p>","","","","","","","","",""
"html-keyboard-response","6","1710861","0.0-6.0","5eb35dff41a381156be161c2","650c16f0f2faf8d7a0d14c09","651c1c10f2caf4c516718ff2","null","null","<p style=""font-size: 120px; font-family: BACS""> </p>","","","","","","","","",""
"html-keyboard-response","7","1713868","0.0-7.0","5eb35dff41a381156be161c2","650c16f0f2faf8d7a0d14c09","651c1c10f2caf4c516718ff2","3007"," ","<p>Here is an example of the words you'll see:</p>
      <img src='esempio.png' height='400px'>
      <p>When you're ready to begin, press the spacebar.</p></div>","","","","","","","","",""
"html-keyboard-response","8","1714874","0.0-8.0-0.0","5eb35dff41a381156be161c2","650c16f0f2faf8d7a0d14c09","651c1c10f2caf4c516718ff2","null","null","<p style=""font-size: 60px; font-family: BACS"">YLQmGcrdY</p>","","","","","","","","",""
"html-keyboard-response","9","1715876","0.0-8.0-0.1","5eb35dff41a381156be161c2","650c16f0f2faf8d7a0d14c09","651c1c10f2caf4c516718ff2","null","null","<p style=""font-size: 60px; font-family: BACS"">LQurNYZu</p>","","","","","","","","",""
"html-keyboard-response","10","1716902","0.0-8.0-0.2","5eb35dff41a381156be161c2","650c16f0f2faf8d7a0d14c09","651c1c10f2caf4c516718ff2","null","null","<p style=""font-size: 60px; font-family: BACS"">OYuvbcrdY</p>","","","","","","","","",""
"html-keyboard-response","11","1717936","0.0-8.0-0.3","5eb35dff41a381156be161c2","650c16f0f2faf8d7a0d14c09","651c1c10f2caf4c516718ff2","null","null","<p style=""font-size: 60px; font-family: BACS"">JAaGOJlN</p>","","","","","","","","",""
"html-keyboard-response","12","1718943","0.0-8.0-0.4","5eb35dff41a381156be161c2","650c16f0f2faf8d7a0d14c09","651c1c10f2caf4c516718ff2","null","null","<p style=""font-size: 60px; font-family: BACS"">AYkEhBCAd</p>","","","","","","","","",""
"html-keyboard-response","13","1719976","0.0-8.0-0.5","5eb35dff41a381156be161c2","650c16f0f2faf8d7a0d14c09","651c1c10f2caf4c516718ff2","null","null","<p style=""font-size: 60px; font-family: BACS"">YadrcrdY</p>","","","","","","","","",""
"html-keyboard-response","14","1720977","0.0-8.0-0.6","5eb35dff41a381156be161c2","650c16f0f2faf8d7a0d14c09","651c1c10f2caf4c516718ff2","null","null","<p style=""font-size: 60px; font-family: BACS"">tKDmhdBC</p>","","","","","","","","",""
"html-keyboard-response","15","1722010","0.0-8.0-0.7","5eb35dff41a381156be161c2","650c16f0f2faf8d7a0d14c09","651c1c10f2caf4c516718ff2","null","null","<p style=""font-size: 60px; font-family: BACS"">cROMtOMC</p>","","","","","","","","",""
"html-keyboard-response","16","1723012","0.0-8.0-0.8","5eb35dff41a381156be161c2","650c16f0f2faf8d7a0d14c09","651c1c10f2caf4c516718ff2","null","null","<p style=""font-size: 60px; font-family: BACS"">tKDmhPEdK</p>","","","","","","","","",""
"html-keyboard-response","17","1724035","0.0-8.0-0.9","5eb35dff41a381156be161c2","650c16f0f2faf8d7a0d14c09","651c1c10f2caf4c516718ff2","null","null","<p style=""font-size: 60px; font-family: BACS"">vuJZulGc</p>","","","","","","","","",""
"html-keyboard-response","18","1725051","0.0-8.0-0.10","5eb35dff41a381156be161c2","650c16f0f2faf8d7a0d14c09","651c1c10f2caf4c516718ff2","null","null","<p style=""font-size: 60px; font-family: BACS"">UmNJYUYa</p>","","","","","","","","",""
"html-keyboard-response","19","1726052","0.0-8.0-0.11","5eb35dff41a381156be161c2","650c16f0f2faf8d7a0d14c09","651c1c10f2caf4c516718ff2","null","null","<p style=""font-size: 60px; font-family: BACS"">MlthkBD</p>","","","","","","","","",""
"html-keyboard-response","20","1727071","0.0-8.0-0.12","5eb35dff41a381156be161c2","650c16f0f2faf8d7a0d14c09","651c1c10f2caf4c516718ff2","null","null","<p style=""font-size: 60px; font-family: BACS"">LQurOJlN</p>","","","","","","","","",""
"html-keyboard-response","21","1728073","0.0-8.0-0.13","5eb35dff41a381156be161c2","650c16f0f2faf8d7a0d14c09","651c1c10f2caf4c516718ff2","null","null","<p style=""font-size: 60px; font-family: BACS"">OYuvblGc</p>","","","","","","","","",""
"html-keyboard-response","22","1729085","0.0-8.0-0.14","5eb35dff41a381156be161c2","650c16f0f2faf8d7a0d14c09","651c1c10f2caf4c516718ff2","null","null","<p style=""font-size: 60px; font-family: BACS"">EtMDMPEdK</p>","","","","","","","","",""
"html-keyboard-response","23","1730108","0.0-8.0-0.15","5eb35dff41a381156be161c2","650c16f0f2faf8d7a0d14c09","651c1c10f2caf4c516718ff2","null","null","<p style=""font-size: 60px; font-family: BACS"">AYkEhOMC</p>","","","","","","","","",""
"html-keyboard-response","24","1731124","0.0-8.0-0.16","5eb35dff41a381156be161c2","650c16f0f2faf8d7a0d14c09","651c1c10f2caf4c516718ff2","null","null","<p style=""font-size: 60px; font-family: BACS"">AbkalGc</p>","","","","","","","","",""
"html-keyboard-response","25","1732139","0.0-8.0-0.17","5eb35dff41a381156be161c2","650c16f0f2faf8d7a0d14c09","651c1c10f2caf4c516718ff2","null","null","<p style=""font-size: 60px; font-family: BACS"">kcOYdBC</p>","","","","","","","","",""
"html-keyboard-response","26","1733152","0.0-8.0-0.18","5eb35dff41a381156be161c2","650c16f0f2faf8d7a0d14c09","651c1c10f2caf4c516718ff2","null","null","<p style=""font-size: 60px; font-family: BACS"">MlthPEdK</p>","","","","","","","","",""
"html-keyboard-response","27","1734155","0.0-8.0-0.19","5eb35dff41a381156be161c2","650c16f0f2faf8d7a0d14c09","651c1c10f2caf4c516718ff2","null","null","<p style=""font-size: 60px; font-family: BACS"">PcBTdBC</p>","","","","","","","","",""
"html-keyboard-response","28","1735188","0.0-8.0-0.20","5eb35dff41a381156be161c2","650c16f0f2faf8d7a0d14c09","651c1c10f2caf4c516718ff2","null","null","<p style=""font-size: 60px; font-family: BACS"">hAROKPEdK</p>","","","","","","","","",""
"html-keyboard-response","29","1736211","0.0-8.0-0.21","5eb35dff41a381156be161c2","650c16f0f2faf8d7a0d14c09","651c1c10f2caf4c516718ff2","null","null","<p style=""font-size: 60px; font-family: BACS"">vuJZucrdY</p>","","","","","","","","",""
"html-keyboard-response","30","1737216","0.0-8.0-0.22","5eb35dff41a381156be161c2","650c16f0f2faf8d7a0d14c09","651c1c10f2caf4c516718ff2","null","null","<p style=""font-size: 60px; font-family: BACS"">YadrlGc</p>","","","","","","","","",""
"html-keyboard-response","31","1738236","0.0-8.0-0.23","5eb35dff41a381156be161c2","650c16f0f2faf8d7a0d14c09","651c1c10f2caf4c516718ff2","null","null","<p style=""font-size: 60px; font-family: BACS"">EtMDMOMC</p>","","","","","","","","",""
"html-keyboard-response","32","1739268","0.0-8.0-0.24","5eb35dff41a381156be161c2","650c16f0f2faf8d7a0d14c09","651c1c10f2caf4c516718ff2","null","null","<p style=""font-size: 60px; font-family: BACS"">lBKtBCAd</p>","","","","","","","","",""
"html-keyboard-response","33","1740293","0.0-8.0-0.25","5eb35dff41a381156be161c2","650c16f0f2faf8d7a0d14c09","651c1c10f2caf4c516718ff2","null","null","<p style=""font-size: 60px; font-family: BACS"">AYkEhkBD</p>","","","","","","","","",""
"html-keyboard-response","34","1741295","0.0-8.0-0.26","5eb35dff41a381156be161c2","650c16f0f2faf8d7a0d14c09","651c1c10f2caf4c516718ff2","null","null","<p style=""font-size: 60px; font-family: BACS"">GabkcrdY</p>","","","","","","","","",""
"html-keyboard-response","35","1742309","0.0-8.0-0.27","5eb35dff41a381156be161c2","650c16f0f2faf8d7a0d14c09","651c1c10f2caf4c516718ff2","null","null","<p style=""font-size: 60px; font-family: BACS"">kcOYkBD</p>","","","","","","","","",""
"html-keyboard-response","36","1743315","0.0-8.0-0.28","5eb35dff41a381156be161c2","650c16f0f2faf8d7a0d14c09","651c1c10f2caf4c516718ff2","null","null","<p style=""font-size: 60px; font-family: BACS"">hAROKOMC</p>","","","","","","","","",""
"html-keyboard-response","37","1744331","0.0-8.0-0.29","5eb35dff41a381156be161c2","650c16f0f2faf8d7a0d14c09","651c1c10f2caf4c516718ff2","null","null","<p style=""font-size: 60px; font-family: BACS"">cROMtdBC</p>","","","","","","","","",""
"html-keyboard-response","38","1745356","0.0-8.0-0.30","5eb35dff41a381156be161c2","650c16f0f2faf8d7a0d14c09","651c1c10f2caf4c516718ff2","null","null","<p style=""font-size: 60px; font-family: BACS"">YLQmGYUYa</p>","","","","","","","","",""
"html-keyboard-response","39","1746368","0.0-8.0-0.31","5eb35dff41a381156be161c2","650c16f0f2faf8d7a0d14c09","651c1c10f2caf4c516718ff2","null","null","<p style=""font-size: 60px; font-family: BACS"">kcOYOMC</p>","","","","","","","","",""
"html-keyboard-response","40","1747370","0.0-8.0-0.32","5eb35dff41a381156be161c2","650c16f0f2faf8d7a0d14c09","651c1c10f2caf4c516718ff2","null","null","<p style=""font-size: 60px; font-family: BACS"">tKDmhkBD</p>","","","","","","","","",""
"html-keyboard-response","41","1748403","0.0-8.0-0.33","5eb35dff41a381156be161c2","650c16f0f2faf8d7a0d14c09","651c1c10f2caf4c516718ff2","null","null","<p style=""font-size: 60px; font-family: BACS"">PcBTBCAd</p>","","","","","","","","",""
"html-keyboard-response","42","1749405","0.0-8.0-0.34","5eb35dff41a381156be161c2","650c16f0f2faf8d7a0d14c09","651c1c10f2caf4c516718ff2","null","null","<p style=""font-size: 60px; font-family: BACS"">JAaGNYZu</p>","","","","","","","","",""
"html-keyboard-response","43","1750434","0.0-8.0-0.35","5eb35dff41a381156be161c2","650c16f0f2faf8d7a0d14c09","651c1c10f2caf4c516718ff2","null","null","<p style=""font-size: 60px; font-family: BACS"">AbkaYUYa</p>","","","","","","","","",""
"html-keyboard-response","44","1751435","0.0-8.0-0.36","5eb35dff41a381156be161c2","650c16f0f2faf8d7a0d14c09","651c1c10f2caf4c516718ff2","null","null","<p style=""font-size: 60px; font-family: BACS"">PcBTkBD</p>","","","","","","","","",""
"html-keyboard-response","45","1752468","0.0-8.0-0.37","5eb35dff41a381156be161c2","650c16f0f2faf8d7a0d14c09","651c1c10f2caf4c516718ff2","null","null","<p style=""font-size: 60px; font-family: BACS"">YLQmGlGc</p>","","","","","","","","",""
"html-keyboard-response","46","1753472","0.0-8.0-0.38","5eb35dff41a381156be161c2","650c16f0f2faf8d7a0d14c09","651c1c10f2caf4c516718ff2","null","null","<p style=""font-size: 60px; font-family: BACS"">vuJZuNYZu</p>","","","","","","","","",""
"html-keyboard-response","47","1754477","0.0-8.0-0.39","5eb35dff41a381156be161c2","650c16f0f2faf8d7a0d14c09","651c1c10f2caf4c516718ff2","null","null","<p style=""font-size: 60px; font-family: BACS"">AYkEhPEdK</p>","","","","","","","","",""
"html-keyboard-response","48","1755499","0.0-8.0-0.40","5eb35dff41a381156be161c2","650c16f0f2faf8d7a0d14c09","651c1c10f2caf4c516718ff2","null","null","<p style=""font-size: 60px; font-family: BACS"">tKDmhBCAd</p>","","","","","","","","",""
"html-keyboard-response","49","1756514","0.0-8.0-0.41","5eb35dff41a381156be161c2","650c16f0f2faf8d7a0d14c09","651c1c10f2caf4c516718ff2","null","null","<p style=""font-size: 60px; font-family: BACS"">ArQuNYZu</p>","","","","","","","","",""
"html-keyboard-response","50","1757516","0.0-8.0-0.42","5eb35dff41a381156be161c2","650c16f0f2faf8d7a0d14c09","651c1c10f2caf4c516718ff2","null","null","<p style=""font-size: 60px; font-family: BACS"">UmNJOJlN</p>","","","","","","","","",""
"html-keyboard-response","51","1758521","0.0-8.0-0.43","5eb35dff41a381156be161c2","650c16f0f2faf8d7a0d14c09","651c1c10f2caf4c516718ff2","null","null","<p style=""font-size: 60px; font-family: BACS"">lhCTCPEdK</p>","","","","","","","","",""
"html-keyboard-response","52","1759547","0.0-8.0-0.44","5eb35dff41a381156be161c2","650c16f0f2faf8d7a0d14c09","651c1c10f2caf4c516718ff2","null","null","<p style=""font-size: 60px; font-family: BACS"">AbkaNYZu</p>","","","","","","","","",""
"html-keyboard-response","53","1760558","0.0-8.0-0.45","5eb35dff41a381156be161c2","650c16f0f2faf8d7a0d14c09","651c1c10f2caf4c516718ff2","null","null","<p style=""font-size: 60px; font-family: BACS"">lhCTCOMC</p>","","","","","","","","",""
"html-keyboard-response","54","1761583","0.0-8.0-0.46","5eb35dff41a381156be161c2","650c16f0f2faf8d7a0d14c09","651c1c10f2caf4c516718ff2","null","null","<p style=""font-size: 60px; font-family: BACS"">hAROKBCAd</p>","","","","","","","","",""
"html-keyboard-response","55","1762597","0.0-8.0-0.47","5eb35dff41a381156be161c2","650c16f0f2faf8d7a0d14c09","651c1c10f2caf4c516718ff2","null","null","<p style=""font-size: 60px; font-family: BACS"">ArQucrdY</p>","","","","","","","","",""
"html-keyboard-response","56","1763599","0.0-8.0-0.48","5eb35dff41a381156be161c2","650c16f0f2faf8d7a0d14c09","651c1c10f2caf4c516718ff2","null","null","<p style=""font-size: 60px; font-family: BACS"">EtMDMdBC</p>","","","","","","","","",""
"html-keyboard-response","57","1764614","0.0-8.0-0.49","5eb35dff41a381156be161c2","650c16f0f2faf8d7a0d14c09","651c1c10f2caf4c516718ff2","null","null","<p style=""font-size: 60px; font-family: BACS"">AbkaOJlN</p>","","","","","","","","",""
"html-keyboard-response","58","1765616","0.0-8.0-0.50","5eb35dff41a381156be161c2","650c16f0f2faf8d7a0d14c09","651c1c10f2caf4c516718ff2","null","null","<p style=""font-size: 60px; font-family: BACS"">cROMtPEdK</p>","","","","","","","","",""
"html-keyboard-response","59","1766618","0.0-8.0-0.51","5eb35dff41a381156be161c2","650c16f0f2faf8d7a0d14c09","651c1c10f2caf4c516718ff2","null","null","<p style=""font-size: 60px; font-family: BACS"">YLQmGOJlN</p>","","","","","","","","",""
"html-keyboard-response","60","1767650","0.0-8.0-0.52","5eb35dff41a381156be161c2","650c16f0f2faf8d7a0d14c09","651c1c10f2caf4c516718ff2","null","null","<p style=""font-size: 60px; font-family: BACS"">hAROKdBC</p>","","","","","","","","",""
"html-keyboard-response","61","1768680","0.0-8.0-0.53","5eb35dff41a381156be161c2","650c16f0f2faf8d7a0d14c09","651c1c10f2caf4c516718ff2","null","null","<p style=""font-size: 60px; font-family: BACS"">lBKtPEdK</p>","","","","","","","","",""
"html-keyboard-response","62","1769709","0.0-8.0-0.54","5eb35dff41a381156be161c2","650c16f0f2faf8d7a0d14c09","651c1c10f2caf4c516718ff2","null","null","<p style=""font-size: 60px; font-family: BACS"">YadrYUYa</p>","","","","","","","","",""
"html-keyboard-response","63","1770724","0.0-8.0-0.55","5eb35dff41a381156be161c2","650c16f0f2faf8d7a0d14c09","651c1c10f2caf4c516718ff2","null","null","<p style=""font-size: 60px; font-family: BACS"">lBKtkBD</p>","","","","","","","","",""
"html-keyboard-response","64","1771756","0.0-8.0-0.56","5eb35dff41a381156be161c2","650c16f0f2faf8d7a0d14c09","651c1c10f2caf4c516718ff2","null","null","<p style=""font-size: 60px; font-family: BACS"">MlthdBC</p>","","","","","","","","",""
"html-keyboard-response","65","1772778","0.0-8.0-0.57","5eb35dff41a381156be161c2","650c16f0f2faf8d7a0d14c09","651c1c10f2caf4c516718ff2","null","null","<p style=""font-size: 60px; font-family: BACS"">ArQuOJlN</p>","","","","","","","","",""
"html-keyboard-response","66","1773810","0.0-8.0-0.58","5eb35dff41a381156be161c2","650c16f0f2faf8d7a0d14c09","651c1c10f2caf4c516718ff2","null","null","<p style=""font-size: 60px; font-family: BACS"">JAaGcrdY</p>","","","","","","","","",""
"html-keyboard-response","67","1774822","0.0-8.0-0.59","5eb35dff41a381156be161c2","650c16f0f2faf8d7a0d14c09","651c1c10f2caf4c516718ff2","null","null","<p style=""font-size: 60px; font-family: BACS"">LQurYUYa</p>","","","","","","","","",""
"html-keyboard-response","68","1775838","0.0-8.0-0.60","5eb35dff41a381156be161c2","650c16f0f2faf8d7a0d14c09","651c1c10f2caf4c516718ff2","null","null","<p style=""font-size: 60px; font-family: BACS"">kcOYBCAd</p>","","","","","","","","",""
"html-keyboard-response","69","1776870","0.0-8.0-0.61","5eb35dff41a381156be161c2","650c16f0f2faf8d7a0d14c09","651c1c10f2caf4c516718ff2","null","null","<p style=""font-size: 60px; font-family: BACS"">LQurlGc</p>","","","","","","","","",""
"html-keyboard-response","70","1777889","0.0-8.0-0.62","5eb35dff41a381156be161c2","650c16f0f2faf8d7a0d14c09","651c1c10f2caf4c516718ff2","null","null","<p style=""font-size: 60px; font-family: BACS"">lBKtOMC</p>","","","","","","","","",""
"html-keyboard-response","71","1778903","0.0-8.0-0.63","5eb35dff41a381156be161c2","650c16f0f2faf8d7a0d14c09","651c1c10f2caf4c516718ff2","null","null","<p style=""font-size: 60px; font-family: BACS"">lhCTCdBC</p>","","","","","","","","",""
"html-keyboard-response","72","1779906","0.0-8.0-0.64","5eb35dff41a381156be161c2","650c16f0f2faf8d7a0d14c09","651c1c10f2caf4c516718ff2","null","null","<p style=""font-size: 60px; font-family: BACS"">OYuvbYUYa</p>","","","","","","","","",""
"html-keyboard-response","73","1780932","0.0-8.0-0.65","5eb35dff41a381156be161c2","650c16f0f2faf8d7a0d14c09","651c1c10f2caf4c516718ff2","null","null","<p style=""font-size: 60px; font-family: BACS"">cROMtkBD</p>","","","","","","","","",""
"html-keyboard-response","74","1781950","0.0-8.0-0.66","5eb35dff41a381156be161c2","650c16f0f2faf8d7a0d14c09","651c1c10f2caf4c516718ff2","null","null","<p style=""font-size: 60px; font-family: BACS"">UmNJNYZu</p>","","","","","","","","",""
"html-keyboard-response","75","1782954","0.0-8.0-0.67","5eb35dff41a381156be161c2","650c16f0f2faf8d7a0d14c09","651c1c10f2caf4c516718ff2","null","null","<p style=""font-size: 60px; font-family: BACS"">vuJZuOJlN</p>","","","","","","","","",""
"html-keyboard-response","76","1783967","0.0-8.0-0.68","5eb35dff41a381156be161c2","650c16f0f2faf8d7a0d14c09","651c1c10f2caf4c516718ff2","null","null","<p style=""font-size: 60px; font-family: BACS"">PcBTOMC</p>","","","","","","","","",""
"html-keyboard-response","77","1785001","0.0-8.0-0.69","5eb35dff41a381156be161c2","650c16f0f2faf8d7a0d14c09","651c1c10f2caf4c516718ff2","null","null","<p style=""font-size: 60px; font-family: BACS"">OYuvbNYZu</p>","","","","","","","","",""
"html-keyboard-response","78","1786024","0.0-8.0-0.70","5eb35dff41a381156be161c2","650c16f0f2faf8d7a0d14c09","651c1c10f2caf4c516718ff2","null","null","<p style=""font-size: 60px; font-family: BACS"">JAaGlGc</p>","","","","","","","","",""
"html-keyboard-response","79","1787045","0.0-8.0-0.71","5eb35dff41a381156be161c2","650c16f0f2faf8d7a0d14c09","651c1c10f2caf4c516718ff2","null","null","<p style=""font-size: 60px; font-family: BACS"">lhCTCkBD</p>","","","","","","","","",""
"html-keyboard-response","80","1788070","0.0-8.0-0.72","5eb35dff41a381156be161c2","650c16f0f2faf8d7a0d14c09","651c1c10f2caf4c516718ff2","null","null","<p style=""font-size: 60px; font-family: BACS"">YadrOJlN</p>","","","","","","","","",""
"html-keyboard-response","81","1789091","0.0-8.0-0.73","5eb35dff41a381156be161c2","650c16f0f2faf8d7a0d14c09","651c1c10f2caf4c516718ff2","null","null","<p style=""font-size: 60px; font-family: BACS"">EtMDMBCAd</p>","","","","","","","","",""
"html-keyboard-response","82","1790093","0.0-8.0-0.74","5eb35dff41a381156be161c2","650c16f0f2faf8d7a0d14c09","651c1c10f2caf4c516718ff2","null","null","<p style=""font-size: 60px; font-family: BACS"">ArQuYUYa</p>","","","","","","","","",""
"html-keyboard-response","83","1791105","0.0-8.0-0.75","5eb35dff41a381156be161c2","650c16f0f2faf8d7a0d14c09","651c1c10f2caf4c516718ff2","null","null","<p style=""font-size: 60px; font-family: BACS"">GabklGc</p>","","","","","","","","",""
"html-keyboard-response","84","1792113","0.0-8.0-0.76","5eb35dff41a381156be161c2","650c16f0f2faf8d7a0d14c09","651c1c10f2caf4c516718ff2","null","null","<p style=""font-size: 60px; font-family: BACS"">UmNJcrdY</p>","","","","","","","","",""
"html-keyboard-response","85","1793130","0.0-8.0-0.77","5eb35dff41a381156be161c2","650c16f0f2faf8d7a0d14c09","651c1c10f2caf4c516718ff2","null","null","<p style=""font-size: 60px; font-family: BACS"">GabkYUYa</p>","","","","","","","","",""
"html-keyboard-response","86","1794131","0.0-8.0-0.78","5eb35dff41a381156be161c2","650c16f0f2faf8d7a0d14c09","651c1c10f2caf4c516718ff2","null","null","<p style=""font-size: 60px; font-family: BACS"">MlthBCAd</p>","","","","","","","","",""
"html-keyboard-response","87","1795157","0.0-8.0-0.79","5eb35dff41a381156be161c2","650c16f0f2faf8d7a0d14c09","651c1c10f2caf4c516718ff2","null","null","<p style=""font-size: 60px; font-family: BACS"">GabkNYZu</p>","","","","","","","","",""
"html-keyboard-response","88","1803037","0.0-9.0","5eb35dff41a381156be161c2","650c16f0f2faf8d7a0d14c09","651c1c10f2caf4c516718ff2","7879"," ","<p>Great, you've seen the first block of words. You may now take a short break.</p>
      <p>Press the spacebar when you're ready to continue.</p>","","","","","","","","",""
"html-keyboard-response","89","1804059","0.0-10.0-0.0","5eb35dff41a381156be161c2","650c16f0f2faf8d7a0d14c09","651c1c10f2caf4c516718ff2","null","null","<p style=""font-size: 60px; font-family: BACS"">AbkalGc</p>","","","","","","","","",""
"html-keyboard-response","90","1805064","0.0-10.0-0.1","5eb35dff41a381156be161c2","650c16f0f2faf8d7a0d14c09","651c1c10f2caf4c516718ff2","null","null","<p style=""font-size: 60px; font-family: BACS"">YadrcrdY</p>","","","","","","","","",""
"html-keyboard-response","91","1806085","0.0-10.0-0.2","5eb35dff41a381156be161c2","650c16f0f2faf8d7a0d14c09","651c1c10f2caf4c516718ff2","null","null","<p style=""font-size: 60px; font-family: BACS"">tKDmhdBC</p>","","","","","","","","",""
"html-keyboard-response","92","1807093","0.0-10.0-0.3","5eb35dff41a381156be161c2","650c16f0f2faf8d7a0d14c09","651c1c10f2caf4c516718ff2","null","null","<p style=""font-size: 60px; font-family: BACS"">YLQmGOJlN</p>","","","","","","","","",""
"html-keyboard-response","93","1808106","0.0-10.0-0.4","5eb35dff41a381156be161c2","650c16f0f2faf8d7a0d14c09","651c1c10f2caf4c516718ff2","null","null","<p style=""font-size: 60px; font-family: BACS"">LQurNYZu</p>","","","","","","","","",""
"html-keyboard-response","94","1809118","0.0-10.0-0.5","5eb35dff41a381156be161c2","650c16f0f2faf8d7a0d14c09","651c1c10f2caf4c516718ff2","null","null","<p style=""font-size: 60px; font-family: BACS"">kcOYkBD</p>","","","","","","","","",""
"html-keyboard-response","95","1810122","0.0-10.0-0.6","5eb35dff41a381156be161c2","650c16f0f2faf8d7a0d14c09","651c1c10f2caf4c516718ff2","null","null","<p style=""font-size: 60px; font-family: BACS"">cROMtdBC</p>","","","","","","","","",""
"html-keyboard-response","96","1811154","0.0-10.0-0.7","5eb35dff41a381156be161c2","650c16f0f2faf8d7a0d14c09","651c1c10f2caf4c516718ff2","null","null","<p style=""font-size: 60px; font-family: BACS"">ArQuYUYa</p>","","","","","","","","",""
"html-keyboard-response","97","1812167","0.0-10.0-0.8","5eb35dff41a381156be161c2","650c16f0f2faf8d7a0d14c09","651c1c10f2caf4c516718ff2","null","null","<p style=""font-size: 60px; font-family: BACS"">vuJZuNYZu</p>","","","","","","","","",""
"html-keyboard-response","98","1813169","0.0-10.0-0.9","5eb35dff41a381156be161c2","650c16f0f2faf8d7a0d14c09","651c1c10f2caf4c516718ff2","null","null","<p style=""font-size: 60px; font-family: BACS"">AbkaYUYa</p>","","","","","","","","",""
"html-keyboard-response","99","1814170","0.0-10.0-0.10","5eb35dff41a381156be161c2","650c16f0f2faf8d7a0d14c09","651c1c10f2caf4c516718ff2","null","null","<p style=""font-size: 60px; font-family: BACS"">cROMtPEdK</p>","","","","","","","","",""
"html-keyboard-response","100","1815200","0.0-10.0-0.11","5eb35dff41a381156be161c2","650c16f0f2faf8d7a0d14c09","651c1c10f2caf4c516718ff2","null","null","<p style=""font-size: 60px; font-family: BACS"">vuJZuOJlN</p>","","","","","","","","",""
"html-keyboard-response","101","1816234","0.0-10.0-0.12","5eb35dff41a381156be161c2","650c16f0f2faf8d7a0d14c09","651c1c10f2caf4c516718ff2","null","null","<p style=""font-size: 60px; font-family: BACS"">LQurYUYa</p>","","","","","","","","",""
"html-keyboard-response","102","1817252","0.0-10.0-0.13","5eb35dff41a381156be161c2","650c16f0f2faf8d7a0d14c09","651c1c10f2caf4c516718ff2","null","null","<p style=""font-size: 60px; font-family: BACS"">ArQuNYZu</p>","","","","","","","","",""
"html-keyboard-response","103","1818285","0.0-10.0-0.14","5eb35dff41a381156be161c2","650c16f0f2faf8d7a0d14c09","651c1c10f2caf4c516718ff2","null","null","<p style=""font-size: 60px; font-family: BACS"">AYkEhkBD</p>","","","","","","","","",""
"html-keyboard-response","104","1819290","0.0-10.0-0.15","5eb35dff41a381156be161c2","650c16f0f2faf8d7a0d14c09","651c1c10f2caf4c516718ff2","null","null","<p style=""font-size: 60px; font-family: BACS"">JAaGOJlN</p>","","","","","","","","",""
"html-keyboard-response","105","1820319","0.0-10.0-0.16","5eb35dff41a381156be161c2","650c16f0f2faf8d7a0d14c09","651c1c10f2caf4c516718ff2","null","null","<p style=""font-size: 60px; font-family: BACS"">MlthBCAd</p>","","","","","","","","",""
"html-keyboard-response","106","1821337","0.0-10.0-0.17","5eb35dff41a381156be161c2","650c16f0f2faf8d7a0d14c09","651c1c10f2caf4c516718ff2","null","null","<p style=""font-size: 60px; font-family: BACS"">kcOYdBC</p>","","","","","","","","",""
"html-keyboard-response","107","1822350","0.0-10.0-0.18","5eb35dff41a381156be161c2","650c16f0f2faf8d7a0d14c09","651c1c10f2caf4c516718ff2","null","null","<p style=""font-size: 60px; font-family: BACS"">lBKtPEdK</p>","","","","","","","","",""
"html-keyboard-response","108","1823363","0.0-10.0-0.19","5eb35dff41a381156be161c2","650c16f0f2faf8d7a0d14c09","651c1c10f2caf4c516718ff2","null","null","<p style=""font-size: 60px; font-family: BACS"">AYkEhOMC</p>","","","","","","","","",""
"html-keyboard-response","109","1824364","0.0-10.0-0.20","5eb35dff41a381156be161c2","650c16f0f2faf8d7a0d14c09","651c1c10f2caf4c516718ff2","null","null","<p style=""font-size: 60px; font-family: BACS"">PcBTkBD</p>","","","","","","","","",""
"html-keyboard-response","110","1825394","0.0-10.0-0.21","5eb35dff41a381156be161c2","650c16f0f2faf8d7a0d14c09","651c1c10f2caf4c516718ff2","null","null","<p style=""font-size: 60px; font-family: BACS"">UmNJOJlN</p>","","","","","","","","",""
"html-keyboard-response","111","1826403","0.0-10.0-0.22","5eb35dff41a381156be161c2","650c16f0f2faf8d7a0d14c09","651c1c10f2caf4c516718ff2","null","null","<p style=""font-size: 60px; font-family: BACS"">JAaGNYZu</p>","","","","","","","","",""
"html-keyboard-response","112","1827416","0.0-10.0-0.23","5eb35dff41a381156be161c2","650c16f0f2faf8d7a0d14c09","651c1c10f2caf4c516718ff2","null","null","<p style=""font-size: 60px; font-family: BACS"">tKDmhBCAd</p>","","","","","","","","",""
"html-keyboard-response","113","1828430","0.0-10.0-0.24","5eb35dff41a381156be161c2","650c16f0f2faf8d7a0d14c09","651c1c10f2caf4c516718ff2","null","null","<p style=""font-size: 60px; font-family: BACS"">ArQucrdY</p>","","","","","","","","",""
"html-keyboard-response","114","1829463","0.0-10.0-0.25","5eb35dff41a381156be161c2","650c16f0f2faf8d7a0d14c09","651c1c10f2caf4c516718ff2","null","null","<p style=""font-size: 60px; font-family: BACS"">PcBTdBC</p>","","","","","","","","",""
"html-keyboard-response","115","1830493","0.0-10.0-0.26","5eb35dff41a381156be161c2","650c16f0f2faf8d7a0d14c09","651c1c10f2caf4c516718ff2","null","null","<p style=""font-size: 60px; font-family: BACS"">YLQmGYUYa</p>","","","","","","","","",""
"html-keyboard-response","116","1831516","0.0-10.0-0.27","5eb35dff41a381156be161c2","650c16f0f2faf8d7a0d14c09","651c1c10f2caf4c516718ff2","null","null","<p style=""font-size: 60px; font-family: BACS"">AbkaNYZu</p>","","","","","","","","",""
"html-keyboard-response","117","1832530","0.0-10.0-0.28","5eb35dff41a381156be161c2","650c16f0f2faf8d7a0d14c09","651c1c10f2caf4c516718ff2","null","null","<p style=""font-size: 60px; font-family: BACS"">LQurlGc</p>","","","","","","","","",""
"html-keyboard-response","118","1833539","0.0-10.0-0.29","5eb35dff41a381156be161c2","650c16f0f2faf8d7a0d14c09","651c1c10f2caf4c516718ff2","null","null","<p style=""font-size: 60px; font-family: BACS"">EtMDMOMC</p>","","","","","","","","",""
"html-keyboard-response","119","1834544","0.0-10.0-0.30","5eb35dff41a381156be161c2","650c16f0f2faf8d7a0d14c09","651c1c10f2caf4c516718ff2","null","null","<p style=""font-size: 60px; font-family: BACS"">AbkaOJlN</p>","","","","","","","","",""
"html-keyboard-response","120","1835573","0.0-10.0-0.31","5eb35dff41a381156be161c2","650c16f0f2faf8d7a0d14c09","651c1c10f2caf4c516718ff2","null","null","<p style=""font-size: 60px; font-family: BACS"">lhCTCPEdK</p>","","","","","","","","",""
"html-keyboard-response","121","1836574","0.0-10.0-0.32","5eb35dff41a381156be161c2","650c16f0f2faf8d7a0d14c09","651c1c10f2caf4c516718ff2","null","null","<p style=""font-size: 60px; font-family: BACS"">OYuvbNYZu</p>","","","","","","","","",""
"html-keyboard-response","122","1837576","0.0-10.0-0.33","5eb35dff41a381156be161c2","650c16f0f2faf8d7a0d14c09","651c1c10f2caf4c516718ff2","null","null","<p style=""font-size: 60px; font-family: BACS"">hAROKdBC</p>","","","","","","","","",""
"html-keyboard-response","123","1838607","0.0-10.0-0.34","5eb35dff41a381156be161c2","650c16f0f2faf8d7a0d14c09","651c1c10f2caf4c516718ff2","null","null","<p style=""font-size: 60px; font-family: BACS"">OYuvbcrdY</p>","","","","","","","","",""
"html-keyboard-response","124","1839620","0.0-10.0-0.35","5eb35dff41a381156be161c2","650c16f0f2faf8d7a0d14c09","651c1c10f2caf4c516718ff2","null","null","<p style=""font-size: 60px; font-family: BACS"">kcOYOMC</p>","","","","","","","","",""
"html-keyboard-response","125","1840622","0.0-10.0-0.36","5eb35dff41a381156be161c2","650c16f0f2faf8d7a0d14c09","651c1c10f2caf4c516718ff2","null","null","<p style=""font-size: 60px; font-family: BACS"">GabkcrdY</p>","","","","","","","","",""
"html-keyboard-response","126","1841653","0.0-10.0-0.37","5eb35dff41a381156be161c2","650c16f0f2faf8d7a0d14c09","651c1c10f2caf4c516718ff2","null","null","<p style=""font-size: 60px; font-family: BACS"">UmNJNYZu</p>","","","","","","","","",""
"html-keyboard-response","127","1842669","0.0-10.0-0.38","5eb35dff41a381156be161c2","650c16f0f2faf8d7a0d14c09","651c1c10f2caf4c516718ff2","null","null","<p style=""font-size: 60px; font-family: BACS"">ArQuOJlN</p>","","","","","","","","",""
"html-keyboard-response","128","1843684","0.0-10.0-0.39","5eb35dff41a381156be161c2","650c16f0f2faf8d7a0d14c09","651c1c10f2caf4c516718ff2","null","null","<p style=""font-size: 60px; font-family: BACS"">lBKtOMC</p>","","","","","","","","",""
"html-keyboard-response","129","1844699","0.0-10.0-0.40","5eb35dff41a381156be161c2","650c16f0f2faf8d7a0d14c09","651c1c10f2caf4c516718ff2","null","null","<p style=""font-size: 60px; font-family: BACS"">kcOYBCAd</p>","","","","","","","","",""
"html-keyboard-response","130","1845713","0.0-10.0-0.41","5eb35dff41a381156be161c2","650c16f0f2faf8d7a0d14c09","651c1c10f2caf4c516718ff2","null","null","<p style=""font-size: 60px; font-family: BACS"">cROMtkBD</p>","","","","","","","","",""
"html-keyboard-response","131","1846730","0.0-10.0-0.42","5eb35dff41a381156be161c2","650c16f0f2faf8d7a0d14c09","651c1c10f2caf4c516718ff2","null","null","<p style=""font-size: 60px; font-family: BACS"">lhCTCOMC</p>","","","","","","","","",""
"html-keyboard-response","132","1847758","0.0-10.0-0.43","5eb35dff41a381156be161c2","650c16f0f2faf8d7a0d14c09","651c1c10f2caf4c516718ff2","null","null","<p style=""font-size: 60px; font-family: BACS"">YadrOJlN</p>","","","","","","","","",""
"html-keyboard-response","133","1848770","0.0-10.0-0.44","5eb35dff41a381156be161c2","650c16f0f2faf8d7a0d14c09","651c1c10f2caf4c516718ff2","null","null","<p style=""font-size: 60px; font-family: BACS"">vuJZulGc</p>","","","","","","","","",""
"html-keyboard-response","134","1849776","0.0-10.0-0.45","5eb35dff41a381156be161c2","650c16f0f2faf8d7a0d14c09","651c1c10f2caf4c516718ff2","null","null","<p style=""font-size: 60px; font-family: BACS"">lhCTCdBC</p>","","","","","","","","",""
"html-keyboard-response","135","1850783","0.0-10.0-0.46","5eb35dff41a381156be161c2","650c16f0f2faf8d7a0d14c09","651c1c10f2caf4c516718ff2","null","null","<p style=""font-size: 60px; font-family: BACS"">YLQmGcrdY</p>","","","","","","","","",""
"html-keyboard-response","136","1851790","0.0-10.0-0.47","5eb35dff41a381156be161c2","650c16f0f2faf8d7a0d14c09","651c1c10f2caf4c516718ff2","null","null","<p style=""font-size: 60px; font-family: BACS"">cROMtOMC</p>","","","","","","","","",""
"html-keyboard-response","137","1852818","0.0-10.0-0.48","5eb35dff41a381156be161c2","650c16f0f2faf8d7a0d14c09","651c1c10f2caf4c516718ff2","null","null","<p style=""font-size: 60px; font-family: BACS"">MlthdBC</p>","","","","","","","","",""
"html-keyboard-response","138","1853821","0.0-10.0-0.49","5eb35dff41a381156be161c2","650c16f0f2faf8d7a0d14c09","651c1c10f2caf4c516718ff2","null","null","<p style=""font-size: 60px; font-family: BACS"">YadrYUYa</p>","","","","","","","","",""
"html-keyboard-response","139","1854830","0.0-10.0-0.50","5eb35dff41a381156be161c2","650c16f0f2faf8d7a0d14c09","651c1c10f2caf4c516718ff2","null","null","<p style=""font-size: 60px; font-family: BACS"">AYkEhPEdK</p>","","","","","","","","",""
"html-keyboard-response","140","1855859","0.0-10.0-0.51","5eb35dff41a381156be161c2","650c16f0f2faf8d7a0d14c09","651c1c10f2caf4c516718ff2","null","null","<p style=""font-size: 60px; font-family: BACS"">EtMDMdBC</p>","","","","","","","","",""
"html-keyboard-response","141","1856861","0.0-10.0-0.52","5eb35dff41a381156be161c2","650c16f0f2faf8d7a0d14c09","651c1c10f2caf4c516718ff2","null","null","<p style=""font-size: 60px; font-family: BACS"">MlthPEdK</p>","","","","","","","","",""
"html-keyboard-response","142","1857865","0.0-10.0-0.53","5eb35dff41a381156be161c2","650c16f0f2faf8d7a0d14c09","651c1c10f2caf4c516718ff2","null","null","<p style=""font-size: 60px; font-family: BACS"">JAaGlGc</p>","","","","","","","","",""
"html-keyboard-response","143","1858870","0.0-10.0-0.54","5eb35dff41a381156be161c2","650c16f0f2faf8d7a0d14c09","651c1c10f2caf4c516718ff2","null","null","<p style=""font-size: 60px; font-family: BACS"">hAROKBCAd</p>","","","","","","","","",""
"html-keyboard-response","144","1859899","0.0-10.0-0.55","5eb35dff41a381156be161c2","650c16f0f2faf8d7a0d14c09","651c1c10f2caf4c516718ff2","null","null","<p style=""font-size: 60px; font-family: BACS"">vuJZucrdY</p>","","","","","","","","",""
"html-keyboard-response","145","1860915","0.0-10.0-0.56","5eb35dff41a381156be161c2","650c16f0f2faf8d7a0d14c09","651c1c10f2caf4c516718ff2","null","null","<p style=""font-size: 60px; font-family: BACS"">UmNJYUYa</p>","","","","","","","","",""
"html-keyboard-response","146","1861935","0.0-10.0-0.57","5eb35dff41a381156be161c2","650c16f0f2faf8d7a0d14c09","651c1c10f2caf4c516718ff2","null","null","<p style=""font-size: 60px; font-family: BACS"">GabklGc</p>","","","","","","","","",""
"html-keyboard-response","147","1862935","0.0-10.0-0.58","5eb35dff41a381156be161c2","650c16f0f2faf8d7a0d14c09","651c1c10f2caf4c516718ff2","null","null","<p style=""font-size: 60px; font-family: BACS"">PcBTOMC</p>","","","","","","","","",""
"html-keyboard-response","148","1863967","0.0-10.0-0.59","5eb35dff41a381156be161c2","650c16f0f2faf8d7a0d14c09","651c1c10f2caf4c516718ff2","null","null","<p style=""font-size: 60px; font-family: BACS"">YLQmGlGc</p>","","","","","","","","",""
"html-keyboard-response","149","1864974","0.0-10.0-0.60","5eb35dff41a381156be161c2","650c16f0f2faf8d7a0d14c09","651c1c10f2caf4c516718ff2","null","null","<p style=""font-size: 60px; font-family: BACS"">hAROKOMC</p>","","","","","","","","",""
"html-keyboard-response","150","1865986","0.0-10.0-0.61","5eb35dff41a381156be161c2","650c16f0f2faf8d7a0d14c09","651c1c10f2caf4c516718ff2","null","null","<p style=""font-size: 60px; font-family: BACS"">lBKtBCAd</p>","","","","","","","","",""
"html-keyboard-response","151","1866986","0.0-10.0-0.62","5eb35dff41a381156be161c2","650c16f0f2faf8d7a0d14c09","651c1c10f2caf4c516718ff2","null","null","<p style=""font-size: 60px; font-family: BACS"">tKDmhkBD</p>","","","","","","","","",""
"html-keyboard-response","152","1868014","0.0-10.0-0.63","5eb35dff41a381156be161c2","650c16f0f2faf8d7a0d14c09","651c1c10f2caf4c516718ff2","null","null","<p style=""font-size: 60px; font-family: BACS"">OYuvblGc</p>","","","","","","","","",""
"html-keyboard-response","153","1869017","0.0-10.0-0.64","5eb35dff41a381156be161c2","650c16f0f2faf8d7a0d14c09","651c1c10f2caf4c516718ff2","null","null","<p style=""font-size: 60px; font-family: BACS"">JAaGcrdY</p>","","","","","","","","",""
"html-keyboard-response","154","1870047","0.0-10.0-0.65","5eb35dff41a381156be161c2","650c16f0f2faf8d7a0d14c09","651c1c10f2caf4c516718ff2","null","null","<p style=""font-size: 60px; font-family: BACS"">tKDmhPEdK</p>","","","","","","","","",""
"html-keyboard-response","155","1871075","0.0-10.0-0.66","5eb35dff41a381156be161c2","650c16f0f2faf8d7a0d14c09","651c1c10f2caf4c516718ff2","null","null","<p style=""font-size: 60px; font-family: BACS"">YadrlGc</p>","","","","","","","","",""
"html-keyboard-response","156","1872103","0.0-10.0-0.67","5eb35dff41a381156be161c2","650c16f0f2faf8d7a0d14c09","651c1c10f2caf4c516718ff2","null","null","<p style=""font-size: 60px; font-family: BACS"">LQurOJlN</p>","","","","","","","","",""
"html-keyboard-response","157","1873104","0.0-10.0-0.68","5eb35dff41a381156be161c2","650c16f0f2faf8d7a0d14c09","651c1c10f2caf4c516718ff2","null","null","<p style=""font-size: 60px; font-family: BACS"">AYkEhBCAd</p>","","","","","","","","",""
"html-keyboard-response","158","1874135","0.0-10.0-0.69","5eb35dff41a381156be161c2","650c16f0f2faf8d7a0d14c09","651c1c10f2caf4c516718ff2","null","null","<p style=""font-size: 60px; font-family: BACS"">GabkYUYa</p>","","","","","","","","",""
"html-keyboard-response","159","1875167","0.0-10.0-0.70","5eb35dff41a381156be161c2","650c16f0f2faf8d7a0d14c09","651c1c10f2caf4c516718ff2","null","null","<p style=""font-size: 60px; font-family: BACS"">UmNJcrdY</p>","","","","","","","","",""
"html-keyboard-response","160","1876179","0.0-10.0-0.71","5eb35dff41a381156be161c2","650c16f0f2faf8d7a0d14c09","651c1c10f2caf4c516718ff2","null","null","<p style=""font-size: 60px; font-family: BACS"">lBKtkBD</p>","","","","","","","","",""
"html-keyboard-response","161","1877183","0.0-10.0-0.72","5eb35dff41a381156be161c2","650c16f0f2faf8d7a0d14c09","651c1c10f2caf4c516718ff2","null","null","<p style=""font-size: 60px; font-family: BACS"">OYuvbYUYa</p>","","","","","","","","",""
"html-keyboard-response","162","1878217","0.0-10.0-0.73","5eb35dff41a381156be161c2","650c16f0f2faf8d7a0d14c09","651c1c10f2caf4c516718ff2","null","null","<p style=""font-size: 60px; font-family: BACS"">lhCTCkBD</p>","","","","","","","","",""
"html-keyboard-response","163","1879227","0.0-10.0-0.74","5eb35dff41a381156be161c2","650c16f0f2faf8d7a0d14c09","651c1c10f2caf4c516718ff2","null","null","<p style=""font-size: 60px; font-family: BACS"">hAROKPEdK</p>","","","","","","","","",""
"html-keyboard-response","164","1880253","0.0-10.0-0.75","5eb35dff41a381156be161c2","650c16f0f2faf8d7a0d14c09","651c1c10f2caf4c516718ff2","null","null","<p style=""font-size: 60px; font-family: BACS"">EtMDMBCAd</p>","","","","","","","","",""
"html-keyboard-response","165","1881277","0.0-10.0-0.76","5eb35dff41a381156be161c2","650c16f0f2faf8d7a0d14c09","651c1c10f2caf4c516718ff2","null","null","<p style=""font-size: 60px; font-family: BACS"">GabkNYZu</p>","","","","","","","","",""
"html-keyboard-response","166","1882304","0.0-10.0-0.77","5eb35dff41a381156be161c2","650c16f0f2faf8d7a0d14c09","651c1c10f2caf4c516718ff2","null","null","<p style=""font-size: 60px; font-family: BACS"">EtMDMPEdK</p>","","","","","","","","",""
"html-keyboard-response","167","1883341","0.0-10.0-0.78","5eb35dff41a381156be161c2","650c16f0f2faf8d7a0d14c09","651c1c10f2caf4c516718ff2","null","null","<p style=""font-size: 60px; font-family: BACS"">PcBTBCAd</p>","","","","","","","","",""
"html-keyboard-response","168","1884366","0.0-10.0-0.79","5eb35dff41a381156be161c2","650c16f0f2faf8d7a0d14c09","651c1c10f2caf4c516718ff2","null","null","<p style=""font-size: 60px; font-family: BACS"">MlthkBD</p>","","","","","","","","",""
"html-keyboard-response","169","1886930","0.0-11.0","5eb35dff41a381156be161c2","650c16f0f2faf8d7a0d14c09","651c1c10f2caf4c516718ff2","2563"," ","<p>Great, you've seen the second block of words. You may now take a short break.</p>
      <p>Press the spacebar when you're ready to continue.</p>","","","","","","","","",""
"html-keyboard-response","170","1887931","0.0-12.0-0.0","5eb35dff41a381156be161c2","650c16f0f2faf8d7a0d14c09","651c1c10f2caf4c516718ff2","null","null","<p style=""font-size: 60px; font-family: BACS"">YLQmGlGc</p>","","","","","","","","",""
"html-keyboard-response","171","1888961","0.0-12.0-0.1","5eb35dff41a381156be161c2","650c16f0f2faf8d7a0d14c09","651c1c10f2caf4c516718ff2","null","null","<p style=""font-size: 60px; font-family: BACS"">kcOYOMC</p>","","","","","","","","",""
"html-keyboard-response","172","1889965","0.0-12.0-0.2","5eb35dff41a381156be161c2","650c16f0f2faf8d7a0d14c09","651c1c10f2caf4c516718ff2","null","null","<p style=""font-size: 60px; font-family: BACS"">PcBTdBC</p>","","","","","","","","",""
"html-keyboard-response","173","1890979","0.0-12.0-0.3","5eb35dff41a381156be161c2","650c16f0f2faf8d7a0d14c09","651c1c10f2caf4c516718ff2","null","null","<p style=""font-size: 60px; font-family: BACS"">AYkEhkBD</p>","","","","","","","","",""
"html-keyboard-response","174","1891990","0.0-12.0-0.4","5eb35dff41a381156be161c2","650c16f0f2faf8d7a0d14c09","651c1c10f2caf4c516718ff2","null","null","<p style=""font-size: 60px; font-family: BACS"">cROMtdBC</p>","","","","","","","","",""
"html-keyboard-response","175","1893020","0.0-12.0-0.5","5eb35dff41a381156be161c2","650c16f0f2faf8d7a0d14c09","651c1c10f2caf4c516718ff2","null","null","<p style=""font-size: 60px; font-family: BACS"">LQurOJlN</p>","","","","","","","","",""
"html-keyboard-response","176","1894051","0.0-12.0-0.6","5eb35dff41a381156be161c2","650c16f0f2faf8d7a0d14c09","651c1c10f2caf4c516718ff2","null","null","<p style=""font-size: 60px; font-family: BACS"">lhCTCPEdK</p>","","","","","","","","",""
"html-keyboard-response","177","1895078","0.0-12.0-0.7","5eb35dff41a381156be161c2","650c16f0f2faf8d7a0d14c09","651c1c10f2caf4c516718ff2","null","null","<p style=""font-size: 60px; font-family: BACS"">lBKtBCAd</p>","","","","","","","","",""
"html-keyboard-response","178","1896107","0.0-12.0-0.8","5eb35dff41a381156be161c2","650c16f0f2faf8d7a0d14c09","651c1c10f2caf4c516718ff2","null","null","<p style=""font-size: 60px; font-family: BACS"">AYkEhPEdK</p>","","","","","","","","",""
"html-keyboard-response","179","1897110","0.0-12.0-0.9","5eb35dff41a381156be161c2","650c16f0f2faf8d7a0d14c09","651c1c10f2caf4c516718ff2","null","null","<p style=""font-size: 60px; font-family: BACS"">PcBTBCAd</p>","","","","","","","","",""
"html-keyboard-response","180","1898113","0.0-12.0-0.10","5eb35dff41a381156be161c2","650c16f0f2faf8d7a0d14c09","651c1c10f2caf4c516718ff2","null","null","<p style=""font-size: 60px; font-family: BACS"">AYkEhOMC</p>","","","","","","","","",""
"html-keyboard-response","181","1899128","0.0-12.0-0.11","5eb35dff41a381156be161c2","650c16f0f2faf8d7a0d14c09","651c1c10f2caf4c516718ff2","null","null","<p style=""font-size: 60px; font-family: BACS"">hAROKBCAd</p>","","","","","","","","",""
"html-keyboard-response","182","1900160","0.0-12.0-0.12","5eb35dff41a381156be161c2","650c16f0f2faf8d7a0d14c09","651c1c10f2caf4c516718ff2","null","null","<p style=""font-size: 60px; font-family: BACS"">UmNJYUYa</p>","","","","","","","","",""
"html-keyboard-response","183","1901191","0.0-12.0-0.13","5eb35dff41a381156be161c2","650c16f0f2faf8d7a0d14c09","651c1c10f2caf4c516718ff2","null","null","<p style=""font-size: 60px; font-family: BACS"">MlthBCAd</p>","","","","","","","","",""
"html-keyboard-response","184","1902219","0.0-12.0-0.14","5eb35dff41a381156be161c2","650c16f0f2faf8d7a0d14c09","651c1c10f2caf4c516718ff2","null","null","<p style=""font-size: 60px; font-family: BACS"">AbkalGc</p>","","","","","","","","",""
"html-keyboard-response","185","1903250","0.0-12.0-0.15","5eb35dff41a381156be161c2","650c16f0f2faf8d7a0d14c09","651c1c10f2caf4c516718ff2","null","null","<p style=""font-size: 60px; font-family: BACS"">kcOYBCAd</p>","","","","","","","","",""
"html-keyboard-response","186","1904266","0.0-12.0-0.16","5eb35dff41a381156be161c2","650c16f0f2faf8d7a0d14c09","651c1c10f2caf4c516718ff2","null","null","<p style=""font-size: 60px; font-family: BACS"">YadrlGc</p>","","","","","","","","",""
"html-keyboard-response","187","1905292","0.0-12.0-0.17","5eb35dff41a381156be161c2","650c16f0f2faf8d7a0d14c09","651c1c10f2caf4c516718ff2","null","null","<p style=""font-size: 60px; font-family: BACS"">MlthkBD</p>","","","","","","","","",""
"html-keyboard-response","188","1906324","0.0-12.0-0.18","5eb35dff41a381156be161c2","650c16f0f2faf8d7a0d14c09","651c1c10f2caf4c516718ff2","null","null","<p style=""font-size: 60px; font-family: BACS"">EtMDMOMC</p>","","","","","","","","",""
"html-keyboard-response","189","1907350","0.0-12.0-0.19","5eb35dff41a381156be161c2","650c16f0f2faf8d7a0d14c09","651c1c10f2caf4c516718ff2","null","null","<p style=""font-size: 60px; font-family: BACS"">lBKtkBD</p>","","","","","","","","",""
"html-keyboard-response","190","1908379","0.0-12.0-0.20","5eb35dff41a381156be161c2","650c16f0f2faf8d7a0d14c09","651c1c10f2caf4c516718ff2","null","null","<p style=""font-size: 60px; font-family: BACS"">OYuvblGc</p>","","","","","","","","",""
"html-keyboard-response","191","1909400","0.0-12.0-0.21","5eb35dff41a381156be161c2","650c16f0f2faf8d7a0d14c09","651c1c10f2caf4c516718ff2","null","null","<p style=""font-size: 60px; font-family: BACS"">JAaGNYZu</p>","","","","","","","","",""
"html-keyboard-response","192","1910415","0.0-12.0-0.22","5eb35dff41a381156be161c2","650c16f0f2faf8d7a0d14c09","651c1c10f2caf4c516718ff2","null","null","<p style=""font-size: 60px; font-family: BACS"">hAROKdBC</p>","","","","","","","","",""
"html-keyboard-response","193","1911437","0.0-12.0-0.23","5eb35dff41a381156be161c2","650c16f0f2faf8d7a0d14c09","651c1c10f2caf4c516718ff2","null","null","<p style=""font-size: 60px; font-family: BACS"">UmNJNYZu</p>","","","","","","","","",""
"html-keyboard-response","194","1912468","0.0-12.0-0.24","5eb35dff41a381156be161c2","650c16f0f2faf8d7a0d14c09","651c1c10f2caf4c516718ff2","null","null","<p style=""font-size: 60px; font-family: BACS"">AbkaYUYa</p>","","","","","","","","",""
"html-keyboard-response","195","1913470","0.0-12.0-0.25","5eb35dff41a381156be161c2","650c16f0f2faf8d7a0d14c09","651c1c10f2caf4c516718ff2","null","null","<p style=""font-size: 60px; font-family: BACS"">LQurlGc</p>","","","","","","","","",""
"html-keyboard-response","196","1914476","0.0-12.0-0.26","5eb35dff41a381156be161c2","650c16f0f2faf8d7a0d14c09","651c1c10f2caf4c516718ff2","null","null","<p style=""font-size: 60px; font-family: BACS"">lhCTCOMC</p>","","","","","","","","",""
"html-keyboard-response","197","1915485","0.0-12.0-0.27","5eb35dff41a381156be161c2","650c16f0f2faf8d7a0d14c09","651c1c10f2caf4c516718ff2","null","null","<p style=""font-size: 60px; font-family: BACS"">MlthPEdK</p>","","","","","","","","",""
"html-keyboard-response","198","1916488","0.0-12.0-0.28","5eb35dff41a381156be161c2","650c16f0f2faf8d7a0d14c09","651c1c10f2caf4c516718ff2","null","null","<p style=""font-size: 60px; font-family: BACS"">hAROKOMC</p>","","","","","","","","",""
"html-keyboard-response","199","1917499","0.0-12.0-0.29","5eb35dff41a381156be161c2","650c16f0f2faf8d7a0d14c09","651c1c10f2caf4c516718ff2","null","null","<p style=""font-size: 60px; font-family: BACS"">kcOYkBD</p>","","","","","","","","",""
"html-keyboard-response","200","1918529","0.0-12.0-0.30","5eb35dff41a381156be161c2","650c16f0f2faf8d7a0d14c09","651c1c10f2caf4c516718ff2","null","null","<p style=""font-size: 60px; font-family: BACS"">vuJZulGc</p>","","","","","","","","",""
"html-keyboard-response","201","1919534","0.0-12.0-0.31","5eb35dff41a381156be161c2","650c16f0f2faf8d7a0d14c09","651c1c10f2caf4c516718ff2","null","null","<p style=""font-size: 60px; font-family: BACS"">AbkaNYZu</p>","","","","","","","","",""
"html-keyboard-response","202","1920558","0.0-12.0-0.32","5eb35dff41a381156be161c2","650c16f0f2faf8d7a0d14c09","651c1c10f2caf4c516718ff2","null","null","<p style=""font-size: 60px; font-family: BACS"">GabkYUYa</p>","","","","","","","","",""
"html-keyboard-response","203","1921592","0.0-12.0-0.33","5eb35dff41a381156be161c2","650c16f0f2faf8d7a0d14c09","651c1c10f2caf4c516718ff2","null","null","<p style=""font-size: 60px; font-family: BACS"">kcOYdBC</p>","","","","","","","","",""
"html-keyboard-response","204","1922620","0.0-12.0-0.34","5eb35dff41a381156be161c2","650c16f0f2faf8d7a0d14c09","651c1c10f2caf4c516718ff2","null","null","<p style=""font-size: 60px; font-family: BACS"">OYuvbcrdY</p>","","","","","","","","",""
"html-keyboard-response","205","1923620","0.0-12.0-0.35","5eb35dff41a381156be161c2","650c16f0f2faf8d7a0d14c09","651c1c10f2caf4c516718ff2","null","null","<p style=""font-size: 60px; font-family: BACS"">hAROKPEdK</p>","","","","","","","","",""
"html-keyboard-response","206","1924628","0.0-12.0-0.36","5eb35dff41a381156be161c2","650c16f0f2faf8d7a0d14c09","651c1c10f2caf4c516718ff2","null","null","<p style=""font-size: 60px; font-family: BACS"">YLQmGcrdY</p>","","","","","","","","",""
"html-keyboard-response","207","1925641","0.0-12.0-0.37","5eb35dff41a381156be161c2","650c16f0f2faf8d7a0d14c09","651c1c10f2caf4c516718ff2","null","null","<p style=""font-size: 60px; font-family: BACS"">lhCTCdBC</p>","","","","","","","","",""
"html-keyboard-response","208","1926645","0.0-12.0-0.38","5eb35dff41a381156be161c2","650c16f0f2faf8d7a0d14c09","651c1c10f2caf4c516718ff2","null","null","<p style=""font-size: 60px; font-family: BACS"">vuJZucrdY</p>","","","","","","","","",""
"html-keyboard-response","209","1927678","0.0-12.0-0.39","5eb35dff41a381156be161c2","650c16f0f2faf8d7a0d14c09","651c1c10f2caf4c516718ff2","null","null","<p style=""font-size: 60px; font-family: BACS"">JAaGOJlN</p>","","","","","","","","",""
"html-keyboard-response","210","1928690","0.0-12.0-0.40","5eb35dff41a381156be161c2","650c16f0f2faf8d7a0d14c09","651c1c10f2caf4c516718ff2","null","null","<p style=""font-size: 60px; font-family: BACS"">tKDmhBCAd</p>","","","","","","","","",""
"html-keyboard-response","211","1929722","0.0-12.0-0.41","5eb35dff41a381156be161c2","650c16f0f2faf8d7a0d14c09","651c1c10f2caf4c516718ff2","null","null","<p style=""font-size: 60px; font-family: BACS"">ArQuYUYa</p>","","","","","","","","",""
"html-keyboard-response","212","1930734","0.0-12.0-0.42","5eb35dff41a381156be161c2","650c16f0f2faf8d7a0d14c09","651c1c10f2caf4c516718ff2","null","null","<p style=""font-size: 60px; font-family: BACS"">GabkNYZu</p>","","","","","","","","",""
"html-keyboard-response","213","1931739","0.0-12.0-0.43","5eb35dff41a381156be161c2","650c16f0f2faf8d7a0d14c09","651c1c10f2caf4c516718ff2","null","null","<p style=""font-size: 60px; font-family: BACS"">UmNJOJlN</p>","","","","","","","","",""
"html-keyboard-response","214","1932753","0.0-12.0-0.44","5eb35dff41a381156be161c2","650c16f0f2faf8d7a0d14c09","651c1c10f2caf4c516718ff2","null","null","<p style=""font-size: 60px; font-family: BACS"">PcBTkBD</p>","","","","","","","","",""
"html-keyboard-response","215","1933776","0.0-12.0-0.45","5eb35dff41a381156be161c2","650c16f0f2faf8d7a0d14c09","651c1c10f2caf4c516718ff2","null","null","<p style=""font-size: 60px; font-family: BACS"">GabklGc</p>","","","","","","","","",""
"html-keyboard-response","216","1934808","0.0-12.0-0.46","5eb35dff41a381156be161c2","650c16f0f2faf8d7a0d14c09","651c1c10f2caf4c516718ff2","null","null","<p style=""font-size: 60px; font-family: BACS"">tKDmhdBC</p>","","","","","","","","",""
"html-keyboard-response","217","1935821","0.0-12.0-0.47","5eb35dff41a381156be161c2","650c16f0f2faf8d7a0d14c09","651c1c10f2caf4c516718ff2","null","null","<p style=""font-size: 60px; font-family: BACS"">OYuvbYUYa</p>","","","","","","","","",""
"html-keyboard-response","218","1936853","0.0-12.0-0.48","5eb35dff41a381156be161c2","650c16f0f2faf8d7a0d14c09","651c1c10f2caf4c516718ff2","null","null","<p style=""font-size: 60px; font-family: BACS"">LQurNYZu</p>","","","","","","","","",""
"html-keyboard-response","219","1937855","0.0-12.0-0.49","5eb35dff41a381156be161c2","650c16f0f2faf8d7a0d14c09","651c1c10f2caf4c516718ff2","null","null","<p style=""font-size: 60px; font-family: BACS"">JAaGlGc</p>","","","","","","","","",""
"html-keyboard-response","220","1938859","0.0-12.0-0.50","5eb35dff41a381156be161c2","650c16f0f2faf8d7a0d14c09","651c1c10f2caf4c516718ff2","null","null","<p style=""font-size: 60px; font-family: BACS"">PcBTOMC</p>","","","","","","","","",""
"html-keyboard-response","221","1939888","0.0-12.0-0.51","5eb35dff41a381156be161c2","650c16f0f2faf8d7a0d14c09","651c1c10f2caf4c516718ff2","null","null","<p style=""font-size: 60px; font-family: BACS"">YadrYUYa</p>","","","","","","","","",""
"html-keyboard-response","222","1940919","0.0-12.0-0.52","5eb35dff41a381156be161c2","650c16f0f2faf8d7a0d14c09","651c1c10f2caf4c516718ff2","null","null","<p style=""font-size: 60px; font-family: BACS"">cROMtPEdK</p>","","","","","","","","",""
"html-keyboard-response","223","1941919","0.0-12.0-0.53","5eb35dff41a381156be161c2","650c16f0f2faf8d7a0d14c09","651c1c10f2caf4c516718ff2","null","null","<p style=""font-size: 60px; font-family: BACS"">JAaGcrdY</p>","","","","","","","","",""
"html-keyboard-response","224","1942950","0.0-12.0-0.54","5eb35dff41a381156be161c2","650c16f0f2faf8d7a0d14c09","651c1c10f2caf4c516718ff2","null","null","<p style=""font-size: 60px; font-family: BACS"">cROMtOMC</p>","","","","","","","","",""
"html-keyboard-response","225","1943952","0.0-12.0-0.55","5eb35dff41a381156be161c2","650c16f0f2faf8d7a0d14c09","651c1c10f2caf4c516718ff2","null","null","<p style=""font-size: 60px; font-family: BACS"">tKDmhPEdK</p>","","","","","","","","",""
"html-keyboard-response","226","1944958","0.0-12.0-0.56","5eb35dff41a381156be161c2","650c16f0f2faf8d7a0d14c09","651c1c10f2caf4c516718ff2","null","null","<p style=""font-size: 60px; font-family: BACS"">MlthdBC</p>","","","","","","","","",""
"html-keyboard-response","227","1945966","0.0-12.0-0.57","5eb35dff41a381156be161c2","650c16f0f2faf8d7a0d14c09","651c1c10f2caf4c516718ff2","null","null","<p style=""font-size: 60px; font-family: BACS"">YLQmGYUYa</p>","","","","","","","","",""
"html-keyboard-response","228","1946970","0.0-12.0-0.58","5eb35dff41a381156be161c2","650c16f0f2faf8d7a0d14c09","651c1c10f2caf4c516718ff2","null","null","<p style=""font-size: 60px; font-family: BACS"">lBKtOMC</p>","","","","","","","","",""
"html-keyboard-response","229","1947989","0.0-12.0-0.59","5eb35dff41a381156be161c2","650c16f0f2faf8d7a0d14c09","651c1c10f2caf4c516718ff2","null","null","<p style=""font-size: 60px; font-family: BACS"">AYkEhBCAd</p>","","","","","","","","",""
"html-keyboard-response","230","1949009","0.0-12.0-0.60","5eb35dff41a381156be161c2","650c16f0f2faf8d7a0d14c09","651c1c10f2caf4c516718ff2","null","null","<p style=""font-size: 60px; font-family: BACS"">EtMDMdBC</p>","","","","","","","","",""
"html-keyboard-response","231","1950038","0.0-12.0-0.61","5eb35dff41a381156be161c2","650c16f0f2faf8d7a0d14c09","651c1c10f2caf4c516718ff2","null","null","<p style=""font-size: 60px; font-family: BACS"">OYuvbNYZu</p>","","","","","","","","",""
"html-keyboard-response","232","1951070","0.0-12.0-0.62","5eb35dff41a381156be161c2","650c16f0f2faf8d7a0d14c09","651c1c10f2caf4c516718ff2","null","null","<p style=""font-size: 60px; font-family: BACS"">vuJZuOJlN</p>","","","","","","","","",""
"html-keyboard-response","233","1952102","0.0-12.0-0.63","5eb35dff41a381156be161c2","650c16f0f2faf8d7a0d14c09","651c1c10f2caf4c516718ff2","null","null","<p style=""font-size: 60px; font-family: BACS"">lhCTCkBD</p>","","","","","","","","",""
"html-keyboard-response","234","1953132","0.0-12.0-0.64","5eb35dff41a381156be161c2","650c16f0f2faf8d7a0d14c09","651c1c10f2caf4c516718ff2","null","null","<p style=""font-size: 60px; font-family: BACS"">YadrOJlN</p>","","","","","","","","",""
"html-keyboard-response","235","1954155","0.0-12.0-0.65","5eb35dff41a381156be161c2","650c16f0f2faf8d7a0d14c09","651c1c10f2caf4c516718ff2","null","null","<p style=""font-size: 60px; font-family: BACS"">cROMtkBD</p>","","","","","","","","",""
"html-keyboard-response","236","1955163","0.0-12.0-0.66","5eb35dff41a381156be161c2","650c16f0f2faf8d7a0d14c09","651c1c10f2caf4c516718ff2","null","null","<p style=""font-size: 60px; font-family: BACS"">ArQucrdY</p>","","","","","","","","",""
"html-keyboard-response","237","1956192","0.0-12.0-0.67","5eb35dff41a381156be161c2","650c16f0f2faf8d7a0d14c09","651c1c10f2caf4c516718ff2","null","null","<p style=""font-size: 60px; font-family: BACS"">EtMDMPEdK</p>","","","","","","","","",""
"html-keyboard-response","238","1957200","0.0-12.0-0.68","5eb35dff41a381156be161c2","650c16f0f2faf8d7a0d14c09","651c1c10f2caf4c516718ff2","null","null","<p style=""font-size: 60px; font-family: BACS"">UmNJcrdY</p>","","","","","","","","",""
"html-keyboard-response","239","1958204","0.0-12.0-0.69","5eb35dff41a381156be161c2","650c16f0f2faf8d7a0d14c09","651c1c10f2caf4c516718ff2","null","null","<p style=""font-size: 60px; font-family: BACS"">LQurYUYa</p>","","","","","","","","",""
"html-keyboard-response","240","1959219","0.0-12.0-0.70","5eb35dff41a381156be161c2","650c16f0f2faf8d7a0d14c09","651c1c10f2caf4c516718ff2","null","null","<p style=""font-size: 60px; font-family: BACS"">tKDmhkBD</p>","","","","","","","","",""
"html-keyboard-response","241","1960223","0.0-12.0-0.71","5eb35dff41a381156be161c2","650c16f0f2faf8d7a0d14c09","651c1c10f2caf4c516718ff2","null","null","<p style=""font-size: 60px; font-family: BACS"">lBKtPEdK</p>","","","","","","","","",""
"html-keyboard-response","242","1961231","0.0-12.0-0.72","5eb35dff41a381156be161c2","650c16f0f2faf8d7a0d14c09","651c1c10f2caf4c516718ff2","null","null","<p style=""font-size: 60px; font-family: BACS"">YLQmGOJlN</p>","","","","","","","","",""
"html-keyboard-response","243","1962258","0.0-12.0-0.73","5eb35dff41a381156be161c2","650c16f0f2faf8d7a0d14c09","651c1c10f2caf4c516718ff2","null","null","<p style=""font-size: 60px; font-family: BACS"">vuJZuNYZu</p>","","","","","","","","",""
"html-keyboard-response","244","1963259","0.0-12.0-0.74","5eb35dff41a381156be161c2","650c16f0f2faf8d7a0d14c09","651c1c10f2caf4c516718ff2","null","null","<p style=""font-size: 60px; font-family: BACS"">EtMDMBCAd</p>","","","","","","","","",""
"html-keyboard-response","245","1964287","0.0-12.0-0.75","5eb35dff41a381156be161c2","650c16f0f2faf8d7a0d14c09","651c1c10f2caf4c516718ff2","null","null","<p style=""font-size: 60px; font-family: BACS"">AbkaOJlN</p>","","","","","","","","",""
"html-keyboard-response","246","1965297","0.0-12.0-0.76","5eb35dff41a381156be161c2","650c16f0f2faf8d7a0d14c09","651c1c10f2caf4c516718ff2","null","null","<p style=""font-size: 60px; font-family: BACS"">YadrcrdY</p>","","","","","","","","",""
"html-keyboard-response","247","1966311","0.0-12.0-0.77","5eb35dff41a381156be161c2","650c16f0f2faf8d7a0d14c09","651c1c10f2caf4c516718ff2","null","null","<p style=""font-size: 60px; font-family: BACS"">ArQuOJlN</p>","","","","","","","","",""
"html-keyboard-response","248","1967317","0.0-12.0-0.78","5eb35dff41a381156be161c2","650c16f0f2faf8d7a0d14c09","651c1c10f2caf4c516718ff2","null","null","<p style=""font-size: 60px; font-family: BACS"">GabkcrdY</p>","","","","","","","","",""
"html-keyboard-response","249","1968337","0.0-12.0-0.79","5eb35dff41a381156be161c2","650c16f0f2faf8d7a0d14c09","651c1c10f2caf4c516718ff2","null","null","<p style=""font-size: 60px; font-family: BACS"">ArQuNYZu</p>","","","","","","","","",""
"html-keyboard-response","250","2021790","0.0-13.0","5eb35dff41a381156be161c2","650c16f0f2faf8d7a0d14c09","651c1c10f2caf4c516718ff2","53453"," ","<p>Great, you've seen the third block of words. You may now take a short break.</p>
      <p>Press the spacebar when you're ready to continue.</p>","","","","","","","","",""
"html-keyboard-response","251","2022798","0.0-14.0-0.0","5eb35dff41a381156be161c2","650c16f0f2faf8d7a0d14c09","651c1c10f2caf4c516718ff2","null","null","<p style=""font-size: 60px; font-family: BACS"">OYuvbNYZu</p>","","","","","","","","",""
"html-keyboard-response","252","2023813","0.0-14.0-0.1","5eb35dff41a381156be161c2","650c16f0f2faf8d7a0d14c09","651c1c10f2caf4c516718ff2","null","null","<p style=""font-size: 60px; font-family: BACS"">UmNJYUYa</p>","","","","","","","","",""
"html-keyboard-response","253","2024824","0.0-14.0-0.2","5eb35dff41a381156be161c2","650c16f0f2faf8d7a0d14c09","651c1c10f2caf4c516718ff2","null","null","<p style=""font-size: 60px; font-family: BACS"">lhCTCOMC</p>","","","","","","","","",""
"html-keyboard-response","254","2025856","0.0-14.0-0.3","5eb35dff41a381156be161c2","650c16f0f2faf8d7a0d14c09","651c1c10f2caf4c516718ff2","null","null","<p style=""font-size: 60px; font-family: BACS"">OYuvbYUYa</p>","","","","","","","","",""
"html-keyboard-response","255","2026865","0.0-14.0-0.4","5eb35dff41a381156be161c2","650c16f0f2faf8d7a0d14c09","651c1c10f2caf4c516718ff2","null","null","<p style=""font-size: 60px; font-family: BACS"">UmNJcrdY</p>","","","","","","","","",""
"html-keyboard-response","256","2027873","0.0-14.0-0.5","5eb35dff41a381156be161c2","650c16f0f2faf8d7a0d14c09","651c1c10f2caf4c516718ff2","null","null","<p style=""font-size: 60px; font-family: BACS"">YLQmGYUYa</p>","","","","","","","","",""
"html-keyboard-response","257","2028884","0.0-14.0-0.6","5eb35dff41a381156be161c2","650c16f0f2faf8d7a0d14c09","651c1c10f2caf4c516718ff2","null","null","<p style=""font-size: 60px; font-family: BACS"">vuJZucrdY</p>","","","","","","","","",""
"html-keyboard-response","258","2029915","0.0-14.0-0.7","5eb35dff41a381156be161c2","650c16f0f2faf8d7a0d14c09","651c1c10f2caf4c516718ff2","null","null","<p style=""font-size: 60px; font-family: BACS"">LQurNYZu</p>","","","","","","","","",""
"html-keyboard-response","259","2030928","0.0-14.0-0.8","5eb35dff41a381156be161c2","650c16f0f2faf8d7a0d14c09","651c1c10f2caf4c516718ff2","null","null","<p style=""font-size: 60px; font-family: BACS"">lBKtkBD</p>","","","","","","","","",""
"html-keyboard-response","260","2031939","0.0-14.0-0.9","5eb35dff41a381156be161c2","650c16f0f2faf8d7a0d14c09","651c1c10f2caf4c516718ff2","null","null","<p style=""font-size: 60px; font-family: BACS"">JAaGNYZu</p>","","","","","","","","",""
"html-keyboard-response","261","2032950","0.0-14.0-0.10","5eb35dff41a381156be161c2","650c16f0f2faf8d7a0d14c09","651c1c10f2caf4c516718ff2","null","null","<p style=""font-size: 60px; font-family: BACS"">YLQmGcrdY</p>","","","","","","","","",""
"html-keyboard-response","262","2033979","0.0-14.0-0.11","5eb35dff41a381156be161c2","650c16f0f2faf8d7a0d14c09","651c1c10f2caf4c516718ff2","null","null","<p style=""font-size: 60px; font-family: BACS"">cROMtOMC</p>","","","","","","","","",""
"html-keyboard-response","263","2034989","0.0-14.0-0.12","5eb35dff41a381156be161c2","650c16f0f2faf8d7a0d14c09","651c1c10f2caf4c516718ff2","null","null","<p style=""font-size: 60px; font-family: BACS"">tKDmhdBC</p>","","","","","","","","",""
"html-keyboard-response","264","2035991","0.0-14.0-0.13","5eb35dff41a381156be161c2","650c16f0f2faf8d7a0d14c09","651c1c10f2caf4c516718ff2","null","null","<p style=""font-size: 60px; font-family: BACS"">ArQuNYZu</p>","","","","","","","","",""
"html-keyboard-response","265","2037002","0.0-14.0-0.14","5eb35dff41a381156be161c2","650c16f0f2faf8d7a0d14c09","651c1c10f2caf4c516718ff2","null","null","<p style=""font-size: 60px; font-family: BACS"">YadrYUYa</p>","","","","","","","","",""
"html-keyboard-response","266","2038008","0.0-14.0-0.15","5eb35dff41a381156be161c2","650c16f0f2faf8d7a0d14c09","651c1c10f2caf4c516718ff2","null","null","<p style=""font-size: 60px; font-family: BACS"">OYuvblGc</p>","","","","","","","","",""
"html-keyboard-response","267","2039011","0.0-14.0-0.16","5eb35dff41a381156be161c2","650c16f0f2faf8d7a0d14c09","651c1c10f2caf4c516718ff2","null","null","<p style=""font-size: 60px; font-family: BACS"">AYkEhkBD</p>","","","","","","","","",""
"html-keyboard-response","268","2040015","0.0-14.0-0.17","5eb35dff41a381156be161c2","650c16f0f2faf8d7a0d14c09","651c1c10f2caf4c516718ff2","null","null","<p style=""font-size: 60px; font-family: BACS"">OYuvbcrdY</p>","","","","","","","","",""
"html-keyboard-response","269","2041036","0.0-14.0-0.18","5eb35dff41a381156be161c2","650c16f0f2faf8d7a0d14c09","651c1c10f2caf4c516718ff2","null","null","<p style=""font-size: 60px; font-family: BACS"">EtMDMdBC</p>","","","","","","","","",""
"html-keyboard-response","270","2042043","0.0-14.0-0.19","5eb35dff41a381156be161c2","650c16f0f2faf8d7a0d14c09","651c1c10f2caf4c516718ff2","null","null","<p style=""font-size: 60px; font-family: BACS"">cROMtPEdK</p>","","","","","","","","",""
"html-keyboard-response","271","2043073","0.0-14.0-0.20","5eb35dff41a381156be161c2","650c16f0f2faf8d7a0d14c09","651c1c10f2caf4c516718ff2","null","null","<p style=""font-size: 60px; font-family: BACS"">UmNJNYZu</p>","","","","","","","","",""
"html-keyboard-response","272","2044102","0.0-14.0-0.21","5eb35dff41a381156be161c2","650c16f0f2faf8d7a0d14c09","651c1c10f2caf4c516718ff2","null","null","<p style=""font-size: 60px; font-family: BACS"">tKDmhPEdK</p>","","","","","","","","",""
"html-keyboard-response","273","2045103","0.0-14.0-0.22","5eb35dff41a381156be161c2","650c16f0f2faf8d7a0d14c09","651c1c10f2caf4c516718ff2","null","null","<p style=""font-size: 60px; font-family: BACS"">lBKtOMC</p>","","","","","","","","",""
"html-keyboard-response","274","2046112","0.0-14.0-0.23","5eb35dff41a381156be161c2","650c16f0f2faf8d7a0d14c09","651c1c10f2caf4c516718ff2","null","null","<p style=""font-size: 60px; font-family: BACS"">EtMDMBCAd</p>","","","","","","","","",""
"html-keyboard-response","275","2047126","0.0-14.0-0.24","5eb35dff41a381156be161c2","650c16f0f2faf8d7a0d14c09","651c1c10f2caf4c516718ff2","null","null","<p style=""font-size: 60px; font-family: BACS"">ArQuYUYa</p>","","","","","","","","",""
"html-keyboard-response","276","2048139","0.0-14.0-0.25","5eb35dff41a381156be161c2","650c16f0f2faf8d7a0d14c09","651c1c10f2caf4c516718ff2","null","null","<p style=""font-size: 60px; font-family: BACS"">AbkaNYZu</p>","","","","","","","","",""
"html-keyboard-response","277","2049154","0.0-14.0-0.26","5eb35dff41a381156be161c2","650c16f0f2faf8d7a0d14c09","651c1c10f2caf4c516718ff2","null","null","<p style=""font-size: 60px; font-family: BACS"">vuJZuOJlN</p>","","","","","","","","",""
"html-keyboard-response","278","2050158","0.0-14.0-0.27","5eb35dff41a381156be161c2","650c16f0f2faf8d7a0d14c09","651c1c10f2caf4c516718ff2","null","null","<p style=""font-size: 60px; font-family: BACS"">hAROKdBC</p>","","","","","","","","",""
"html-keyboard-response","279","2051164","0.0-14.0-0.28","5eb35dff41a381156be161c2","650c16f0f2faf8d7a0d14c09","651c1c10f2caf4c516718ff2","null","null","<p style=""font-size: 60px; font-family: BACS"">GabkcrdY</p>","","","","","","","","",""
"html-keyboard-response","280","2052169","0.0-14.0-0.29","5eb35dff41a381156be161c2","650c16f0f2faf8d7a0d14c09","651c1c10f2caf4c516718ff2","null","null","<p style=""font-size: 60px; font-family: BACS"">PcBTOMC</p>","","","","","","","","",""
"html-keyboard-response","281","2053172","0.0-14.0-0.30","5eb35dff41a381156be161c2","650c16f0f2faf8d7a0d14c09","651c1c10f2caf4c516718ff2","null","null","<p style=""font-size: 60px; font-family: BACS"">GabkYUYa</p>","","","","","","","","",""
"html-keyboard-response","282","2054187","0.0-14.0-0.31","5eb35dff41a381156be161c2","650c16f0f2faf8d7a0d14c09","651c1c10f2caf4c516718ff2","null","null","<p style=""font-size: 60px; font-family: BACS"">YadrOJlN</p>","","","","","","","","",""
"html-keyboard-response","283","2055200","0.0-14.0-0.32","5eb35dff41a381156be161c2","650c16f0f2faf8d7a0d14c09","651c1c10f2caf4c516718ff2","null","null","<p style=""font-size: 60px; font-family: BACS"">AYkEhPEdK</p>","","","","","","","","",""
"html-keyboard-response","284","2056231","0.0-14.0-0.33","5eb35dff41a381156be161c2","650c16f0f2faf8d7a0d14c09","651c1c10f2caf4c516718ff2","null","null","<p style=""font-size: 60px; font-family: BACS"">EtMDMOMC</p>","","","","","","","","",""
"html-keyboard-response","285","2057234","0.0-14.0-0.34","5eb35dff41a381156be161c2","650c16f0f2faf8d7a0d14c09","651c1c10f2caf4c516718ff2","null","null","<p style=""font-size: 60px; font-family: BACS"">MlthBCAd</p>","","","","","","","","",""
"html-keyboard-response","286","2058248","0.0-14.0-0.35","5eb35dff41a381156be161c2","650c16f0f2faf8d7a0d14c09","651c1c10f2caf4c516718ff2","null","null","<p style=""font-size: 60px; font-family: BACS"">ArQucrdY</p>","","","","","","","","",""
"html-keyboard-response","287","2059262","0.0-14.0-0.36","5eb35dff41a381156be161c2","650c16f0f2faf8d7a0d14c09","651c1c10f2caf4c516718ff2","null","null","<p style=""font-size: 60px; font-family: BACS"">JAaGlGc</p>","","","","","","","","",""
"html-keyboard-response","288","2060266","0.0-14.0-0.37","5eb35dff41a381156be161c2","650c16f0f2faf8d7a0d14c09","651c1c10f2caf4c516718ff2","null","null","<p style=""font-size: 60px; font-family: BACS"">kcOYkBD</p>","","","","","","","","",""
"html-keyboard-response","289","2061272","0.0-14.0-0.38","5eb35dff41a381156be161c2","650c16f0f2faf8d7a0d14c09","651c1c10f2caf4c516718ff2","null","null","<p style=""font-size: 60px; font-family: BACS"">PcBTdBC</p>","","","","","","","","",""
"html-keyboard-response","290","2062286","0.0-14.0-0.39","5eb35dff41a381156be161c2","650c16f0f2faf8d7a0d14c09","651c1c10f2caf4c516718ff2","null","null","<p style=""font-size: 60px; font-family: BACS"">lBKtPEdK</p>","","","","","","","","",""
"html-keyboard-response","291","2063316","0.0-14.0-0.40","5eb35dff41a381156be161c2","650c16f0f2faf8d7a0d14c09","651c1c10f2caf4c516718ff2","null","null","<p style=""font-size: 60px; font-family: BACS"">AbkaYUYa</p>","","","","","","","","",""
"html-keyboard-response","292","2064345","0.0-14.0-0.41","5eb35dff41a381156be161c2","650c16f0f2faf8d7a0d14c09","651c1c10f2caf4c516718ff2","null","null","<p style=""font-size: 60px; font-family: BACS"">hAROKBCAd</p>","","","","","","","","",""
"html-keyboard-response","293","2065362","0.0-14.0-0.42","5eb35dff41a381156be161c2","650c16f0f2faf8d7a0d14c09","651c1c10f2caf4c516718ff2","null","null","<p style=""font-size: 60px; font-family: BACS"">lhCTCdBC</p>","","","","","","","","",""
"html-keyboard-response","294","2066374","0.0-14.0-0.43","5eb35dff41a381156be161c2","650c16f0f2faf8d7a0d14c09","651c1c10f2caf4c516718ff2","null","null","<p style=""font-size: 60px; font-family: BACS"">GabkNYZu</p>","","","","","","","","",""
"html-keyboard-response","295","2067403","0.0-14.0-0.44","5eb35dff41a381156be161c2","650c16f0f2faf8d7a0d14c09","651c1c10f2caf4c516718ff2","null","null","<p style=""font-size: 60px; font-family: BACS"">LQurOJlN</p>","","","","","","","","",""
"html-keyboard-response","296","2068404","0.0-14.0-0.45","5eb35dff41a381156be161c2","650c16f0f2faf8d7a0d14c09","651c1c10f2caf4c516718ff2","null","null","<p style=""font-size: 60px; font-family: BACS"">YadrcrdY</p>","","","","","","","","",""
"html-keyboard-response","297","2069407","0.0-14.0-0.46","5eb35dff41a381156be161c2","650c16f0f2faf8d7a0d14c09","651c1c10f2caf4c516718ff2","null","null","<p style=""font-size: 60px; font-family: BACS"">AYkEhOMC</p>","","","","","","","","",""
"html-keyboard-response","298","2070426","0.0-14.0-0.47","5eb35dff41a381156be161c2","650c16f0f2faf8d7a0d14c09","651c1c10f2caf4c516718ff2","null","null","<p style=""font-size: 60px; font-family: BACS"">MlthdBC</p>","","","","","","","","",""
"html-keyboard-response","299","2071435","0.0-14.0-0.48","5eb35dff41a381156be161c2","650c16f0f2faf8d7a0d14c09","651c1c10f2caf4c516718ff2","null","null","<p style=""font-size: 60px; font-family: BACS"">LQurlGc</p>","","","","","","","","",""
"html-keyboard-response","300","2072459","0.0-14.0-0.49","5eb35dff41a381156be161c2","650c16f0f2faf8d7a0d14c09","651c1c10f2caf4c516718ff2","null","null","<p style=""font-size: 60px; font-family: BACS"">AbkaOJlN</p>","","","","","","","","",""
"html-keyboard-response","301","2073491","0.0-14.0-0.50","5eb35dff41a381156be161c2","650c16f0f2faf8d7a0d14c09","651c1c10f2caf4c516718ff2","null","null","<p style=""font-size: 60px; font-family: BACS"">cROMtkBD</p>","","","","","","","","",""
"html-keyboard-response","302","2074518","0.0-14.0-0.51","5eb35dff41a381156be161c2","650c16f0f2faf8d7a0d14c09","651c1c10f2caf4c516718ff2","null","null","<p style=""font-size: 60px; font-family: BACS"">GabklGc</p>","","","","","","","","",""
"html-keyboard-response","303","2075534","0.0-14.0-0.52","5eb35dff41a381156be161c2","650c16f0f2faf8d7a0d14c09","651c1c10f2caf4c516718ff2","null","null","<p style=""font-size: 60px; font-family: BACS"">lhCTCkBD</p>","","","","","","","","",""
"html-keyboard-response","304","2076550","0.0-14.0-0.53","5eb35dff41a381156be161c2","650c16f0f2faf8d7a0d14c09","651c1c10f2caf4c516718ff2","null","null","<p style=""font-size: 60px; font-family: BACS"">LQurYUYa</p>","","","","","","","","",""
"html-keyboard-response","305","2077554","0.0-14.0-0.54","5eb35dff41a381156be161c2","650c16f0f2faf8d7a0d14c09","651c1c10f2caf4c516718ff2","null","null","<p style=""font-size: 60px; font-family: BACS"">AbkalGc</p>","","","","","","","","",""
"html-keyboard-response","306","2078556","0.0-14.0-0.55","5eb35dff41a381156be161c2","650c16f0f2faf8d7a0d14c09","651c1c10f2caf4c516718ff2","null","null","<p style=""font-size: 60px; font-family: BACS"">YLQmGOJlN</p>","","","","","","","","",""
"html-keyboard-response","307","2079563","0.0-14.0-0.56","5eb35dff41a381156be161c2","650c16f0f2faf8d7a0d14c09","651c1c10f2caf4c516718ff2","null","null","<p style=""font-size: 60px; font-family: BACS"">PcBTBCAd</p>","","","","","","","","",""
"html-keyboard-response","308","2080564","0.0-14.0-0.57","5eb35dff41a381156be161c2","650c16f0f2faf8d7a0d14c09","651c1c10f2caf4c516718ff2","null","null","<p style=""font-size: 60px; font-family: BACS"">tKDmhkBD</p>","","","","","","","","",""
"html-keyboard-response","309","2081575","0.0-14.0-0.58","5eb35dff41a381156be161c2","650c16f0f2faf8d7a0d14c09","651c1c10f2caf4c516718ff2","null","null","<p style=""font-size: 60px; font-family: BACS"">lBKtBCAd</p>","","","","","","","","",""
"html-keyboard-response","310","2082602","0.0-14.0-0.59","5eb35dff41a381156be161c2","650c16f0f2faf8d7a0d14c09","651c1c10f2caf4c516718ff2","null","null","<p style=""font-size: 60px; font-family: BACS"">JAaGOJlN</p>","","","","","","","","",""
"html-keyboard-response","311","2083618","0.0-14.0-0.60","5eb35dff41a381156be161c2","650c16f0f2faf8d7a0d14c09","651c1c10f2caf4c516718ff2","null","null","<p style=""font-size: 60px; font-family: BACS"">AYkEhBCAd</p>","","","","","","","","",""
"html-keyboard-response","312","2084620","0.0-14.0-0.61","5eb35dff41a381156be161c2","650c16f0f2faf8d7a0d14c09","651c1c10f2caf4c516718ff2","null","null","<p style=""font-size: 60px; font-family: BACS"">hAROKOMC</p>","","","","","","","","",""
"html-keyboard-response","313","2085640","0.0-14.0-0.62","5eb35dff41a381156be161c2","650c16f0f2faf8d7a0d14c09","651c1c10f2caf4c516718ff2","null","null","<p style=""font-size: 60px; font-family: BACS"">cROMtdBC</p>","","","","","","","","",""
"html-keyboard-response","314","2086672","0.0-14.0-0.63","5eb35dff41a381156be161c2","650c16f0f2faf8d7a0d14c09","651c1c10f2caf4c516718ff2","null","null","<p style=""font-size: 60px; font-family: BACS"">YLQmGlGc</p>","","","","","","","","",""
"html-keyboard-response","315","2087700","0.0-14.0-0.64","5eb35dff41a381156be161c2","650c16f0f2faf8d7a0d14c09","651c1c10f2caf4c516718ff2","null","null","<p style=""font-size: 60px; font-family: BACS"">hAROKPEdK</p>","","","","","","","","",""
"html-keyboard-response","316","2088729","0.0-14.0-0.65","5eb35dff41a381156be161c2","650c16f0f2faf8d7a0d14c09","651c1c10f2caf4c516718ff2","null","null","<p style=""font-size: 60px; font-family: BACS"">kcOYdBC</p>","","","","","","","","",""
"html-keyboard-response","317","2089754","0.0-14.0-0.66","5eb35dff41a381156be161c2","650c16f0f2faf8d7a0d14c09","651c1c10f2caf4c516718ff2","null","null","<p style=""font-size: 60px; font-family: BACS"">tKDmhBCAd</p>","","","","","","","","",""
"html-keyboard-response","318","2090755","0.0-14.0-0.67","5eb35dff41a381156be161c2","650c16f0f2faf8d7a0d14c09","651c1c10f2caf4c516718ff2","null","null","<p style=""font-size: 60px; font-family: BACS"">PcBTkBD</p>","","","","","","","","",""
"html-keyboard-response","319","2091789","0.0-14.0-0.68","5eb35dff41a381156be161c2","650c16f0f2faf8d7a0d14c09","651c1c10f2caf4c516718ff2","null","null","<p style=""font-size: 60px; font-family: BACS"">JAaGcrdY</p>","","","","","","","","",""
"html-keyboard-response","320","2092820","0.0-14.0-0.69","5eb35dff41a381156be161c2","650c16f0f2faf8d7a0d14c09","651c1c10f2caf4c516718ff2","null","null","<p style=""font-size: 60px; font-family: BACS"">UmNJOJlN</p>","","","","","","","","",""
"html-keyboard-response","321","2093836","0.0-14.0-0.70","5eb35dff41a381156be161c2","650c16f0f2faf8d7a0d14c09","651c1c10f2caf4c516718ff2","null","null","<p style=""font-size: 60px; font-family: BACS"">vuJZuNYZu</p>","","","","","","","","",""
"html-keyboard-response","322","2094837","0.0-14.0-0.71","5eb35dff41a381156be161c2","650c16f0f2faf8d7a0d14c09","651c1c10f2caf4c516718ff2","null","null","<p style=""font-size: 60px; font-family: BACS"">EtMDMPEdK</p>","","","","","","","","",""
"html-keyboard-response","323","2095871","0.0-14.0-0.72","5eb35dff41a381156be161c2","650c16f0f2faf8d7a0d14c09","651c1c10f2caf4c516718ff2","null","null","<p style=""font-size: 60px; font-family: BACS"">kcOYBCAd</p>","","","","","","","","",""
"html-keyboard-response","324","2096880","0.0-14.0-0.73","5eb35dff41a381156be161c2","650c16f0f2faf8d7a0d14c09","651c1c10f2caf4c516718ff2","null","null","<p style=""font-size: 60px; font-family: BACS"">MlthPEdK</p>","","","","","","","","",""
"html-keyboard-response","325","2097889","0.0-14.0-0.74","5eb35dff41a381156be161c2","650c16f0f2faf8d7a0d14c09","651c1c10f2caf4c516718ff2","null","null","<p style=""font-size: 60px; font-family: BACS"">vuJZulGc</p>","","","","","","","","",""
"html-keyboard-response","326","2098922","0.0-14.0-0.75","5eb35dff41a381156be161c2","650c16f0f2faf8d7a0d14c09","651c1c10f2caf4c516718ff2","null","null","<p style=""font-size: 60px; font-family: BACS"">ArQuOJlN</p>","","","","","","","","",""
"html-keyboard-response","327","2099925","0.0-14.0-0.76","5eb35dff41a381156be161c2","650c16f0f2faf8d7a0d14c09","651c1c10f2caf4c516718ff2","null","null","<p style=""font-size: 60px; font-family: BACS"">YadrlGc</p>","","","","","","","","",""
"html-keyboard-response","328","2100955","0.0-14.0-0.77","5eb35dff41a381156be161c2","650c16f0f2faf8d7a0d14c09","651c1c10f2caf4c516718ff2","null","null","<p style=""font-size: 60px; font-family: BACS"">MlthkBD</p>","","","","","","","","",""
"html-keyboard-response","329","2101966","0.0-14.0-0.78","5eb35dff41a381156be161c2","650c16f0f2faf8d7a0d14c09","651c1c10f2caf4c516718ff2","null","null","<p style=""font-size: 60px; font-family: BACS"">lhCTCPEdK</p>","","","","","","","","",""
"html-keyboard-response","330","2102968","0.0-14.0-0.79","5eb35dff41a381156be161c2","650c16f0f2faf8d7a0d14c09","651c1c10f2caf4c516718ff2","null","null","<p style=""font-size: 60px; font-family: BACS"">kcOYOMC</p>","","","","","","","","",""
"html-keyboard-response","331","2197255","0.0-15.0","5eb35dff41a381156be161c2","650c16f0f2faf8d7a0d14c09","651c1c10f2caf4c516718ff2","94286"," ","<p>Great, you've seen the fourth block of words. You may now take a short break.</p>
      <p>Press the spacebar when you're ready to continue.</p>","","","","","","","","",""
"html-keyboard-response","332","2198270","0.0-16.0-0.0","5eb35dff41a381156be161c2","650c16f0f2faf8d7a0d14c09","651c1c10f2caf4c516718ff2","null","null","<p style=""font-size: 60px; font-family: BACS"">GabkNYZu</p>","","","","","","","","",""
"html-keyboard-response","333","2199726","0.0-16.0-0.1","5eb35dff41a381156be161c2","650c16f0f2faf8d7a0d14c09","651c1c10f2caf4c516718ff2","null","null","<p style=""font-size: 60px; font-family: BACS"">GabkNYZu</p>","","","","","","","","",""
"html-keyboard-response","334","2200738","0.0-16.0-0.2","5eb35dff41a381156be161c2","650c16f0f2faf8d7a0d14c09","651c1c10f2caf4c516718ff2","null","null","<p style=""font-size: 60px; font-family: BACS"">GabkNYZu</p>","","","","","","","","",""
"html-keyboard-response","335","2201750","0.0-16.0-0.3","5eb35dff41a381156be161c2","650c16f0f2faf8d7a0d14c09","651c1c10f2caf4c516718ff2","null","null","<p style=""font-size: 60px; font-family: BACS"">GabkNYZu</p>","","","","","","","","",""
"html-keyboard-response","336","2202759","0.0-16.0-0.4","5eb35dff41a381156be161c2","650c16f0f2faf8d7a0d14c09","651c1c10f2caf4c516718ff2","null","null","<p style=""font-size: 60px; font-family: BACS"">GabkNYZu</p>","","","","","","","","",""
"html-keyboard-response","337","2203772","0.0-16.0-0.5","5eb35dff41a381156be161c2","650c16f0f2faf8d7a0d14c09","651c1c10f2caf4c516718ff2","null","null","<p style=""font-size: 60px; font-family: BACS"">GabkNYZu</p>","","","","","","","","",""
"html-keyboard-response","338","2204785","0.0-16.0-0.6","5eb35dff41a381156be161c2","650c16f0f2faf8d7a0d14c09","651c1c10f2caf4c516718ff2","null","null","<p style=""font-size: 60px; font-family: BACS"">GabkNYZu</p>","","","","","","","","",""
"html-keyboard-response","339","2205800","0.0-16.0-0.7","5eb35dff41a381156be161c2","650c16f0f2faf8d7a0d14c09","651c1c10f2caf4c516718ff2","null","null","<p style=""font-size: 60px; font-family: BACS"">GabkNYZu</p>","","","","","","","","",""
"html-keyboard-response","340","2206804","0.0-16.0-0.8","5eb35dff41a381156be161c2","650c16f0f2faf8d7a0d14c09","651c1c10f2caf4c516718ff2","null","null","<p style=""font-size: 60px; font-family: BACS"">GabkNYZu</p>","","","","","","","","",""
"html-keyboard-response","341","2207819","0.0-16.0-0.9","5eb35dff41a381156be161c2","650c16f0f2faf8d7a0d14c09","651c1c10f2caf4c516718ff2","null","null","<p style=""font-size: 60px; font-family: BACS"">GabkNYZu</p>","","","","","","","","",""
"html-keyboard-response","342","2208830","0.0-16.0-0.10","5eb35dff41a381156be161c2","650c16f0f2faf8d7a0d14c09","651c1c10f2caf4c516718ff2","null","null","<p style=""font-size: 60px; font-family: BACS"">GabkNYZu</p>","","","","","","","","",""
"html-keyboard-response","343","2209842","0.0-16.0-0.11","5eb35dff41a381156be161c2","650c16f0f2faf8d7a0d14c09","651c1c10f2caf4c516718ff2","null","null","<p style=""font-size: 60px; font-family: BACS"">GabkNYZu</p>","","","","","","","","",""
"html-keyboard-response","344","2210853","0.0-16.0-0.12","5eb35dff41a381156be161c2","650c16f0f2faf8d7a0d14c09","651c1c10f2caf4c516718ff2","null","null","<p style=""font-size: 60px; font-family: BACS"">GabkNYZu</p>","","","","","","","","",""
"html-keyboard-response","345","2211859","0.0-16.0-0.13","5eb35dff41a381156be161c2","650c16f0f2faf8d7a0d14c09","651c1c10f2caf4c516718ff2","null","null","<p style=""font-size: 60px; font-family: BACS"">GabkNYZu</p>","","","","","","","","",""
"html-keyboard-response","346","2212870","0.0-16.0-0.14","5eb35dff41a381156be161c2","650c16f0f2faf8d7a0d14c09","651c1c10f2caf4c516718ff2","null","null","<p style=""font-size: 60px; font-family: BACS"">GabkNYZu</p>","","","","","","","","",""
"html-keyboard-response","347","2213878","0.0-16.0-0.15","5eb35dff41a381156be161c2","650c16f0f2faf8d7a0d14c09","651c1c10f2caf4c516718ff2","null","null","<p style=""font-size: 60px; font-family: BACS"">GabkNYZu</p>","","","","","","","","",""
"html-keyboard-response","348","2214892","0.0-16.0-0.16","5eb35dff41a381156be161c2","650c16f0f2faf8d7a0d14c09","651c1c10f2caf4c516718ff2","null","null","<p style=""font-size: 60px; font-family: BACS"">GabkNYZu</p>","","","","","","","","",""
"html-keyboard-response","349","2215905","0.0-16.0-0.17","5eb35dff41a381156be161c2","650c16f0f2faf8d7a0d14c09","651c1c10f2caf4c516718ff2","null","null","<p style=""font-size: 60px; font-family: BACS"">GabkNYZu</p>","","","","","","","","",""
"html-keyboard-response","350","2216918","0.0-16.0-0.18","5eb35dff41a381156be161c2","650c16f0f2faf8d7a0d14c09","651c1c10f2caf4c516718ff2","null","null","<p style=""font-size: 60px; font-family: BACS"">GabkNYZu</p>","","","","","","","","",""
"html-keyboard-response","351","2217933","0.0-16.0-0.19","5eb35dff41a381156be161c2","650c16f0f2faf8d7a0d14c09","651c1c10f2caf4c516718ff2","null","null","<p style=""font-size: 60px; font-family: BACS"">GabkNYZu</p>","","","","","","","","",""
"html-keyboard-response","352","2218947","0.0-16.0-0.20","5eb35dff41a381156be161c2","650c16f0f2faf8d7a0d14c09","651c1c10f2caf4c516718ff2","null","null","<p style=""font-size: 60px; font-family: BACS"">GabkNYZu</p>","","","","","","","","",""
"html-keyboard-response","353","2220949","0.0-16.0-0.21","5eb35dff41a381156be161c2","650c16f0f2faf8d7a0d14c09","651c1c10f2caf4c516718ff2","null","null","<p style=""font-size: 60px; font-family: BACS"">GabkNYZu</p>","","","","","","","","",""
"html-keyboard-response","354","2221961","0.0-16.0-0.22","5eb35dff41a381156be161c2","650c16f0f2faf8d7a0d14c09","651c1c10f2caf4c516718ff2","null","null","<p style=""font-size: 60px; font-family: BACS"">GabkNYZu</p>","","","","","","","","",""
"html-keyboard-response","355","2222974","0.0-16.0-0.23","5eb35dff41a381156be161c2","650c16f0f2faf8d7a0d14c09","651c1c10f2caf4c516718ff2","null","null","<p style=""font-size: 60px; font-family: BACS"">GabkNYZu</p>","","","","","","","","",""
"html-keyboard-response","356","2223986","0.0-16.0-0.24","5eb35dff41a381156be161c2","650c16f0f2faf8d7a0d14c09","651c1c10f2caf4c516718ff2","null","null","<p style=""font-size: 60px; font-family: BACS"">GabkNYZu</p>","","","","","","","","",""
"html-keyboard-response","357","2225000","0.0-16.0-0.25","5eb35dff41a381156be161c2","650c16f0f2faf8d7a0d14c09","651c1c10f2caf4c516718ff2","null","null","<p style=""font-size: 60px; font-family: BACS"">GabkNYZu</p>","","","","","","","","",""
"html-keyboard-response","358","2226013","0.0-16.0-0.26","5eb35dff41a381156be161c2","650c16f0f2faf8d7a0d14c09","651c1c10f2caf4c516718ff2","null","null","<p style=""font-size: 60px; font-family: BACS"">GabkNYZu</p>","","","","","","","","",""
"html-keyboard-response","359","2227023","0.0-16.0-0.27","5eb35dff41a381156be161c2","650c16f0f2faf8d7a0d14c09","651c1c10f2caf4c516718ff2","null","null","<p style=""font-size: 60px; font-family: BACS"">GabkNYZu</p>","","","","","","","","",""
"html-keyboard-response","360","2228027","0.0-16.0-0.28","5eb35dff41a381156be161c2","650c16f0f2faf8d7a0d14c09","651c1c10f2caf4c516718ff2","null","null","<p style=""font-size: 60px; font-family: BACS"">GabkNYZu</p>","","","","","","","","",""
"html-keyboard-response","361","2229040","0.0-16.0-0.29","5eb35dff41a381156be161c2","650c16f0f2faf8d7a0d14c09","651c1c10f2caf4c516718ff2","null","null","<p style=""font-size: 60px; font-family: BACS"">GabkNYZu</p>","","","","","","","","",""
"html-keyboard-response","362","2230040","0.0-16.0-0.30","5eb35dff41a381156be161c2","650c16f0f2faf8d7a0d14c09","651c1c10f2caf4c516718ff2","null","null","<p style=""font-size: 60px; font-family: BACS"">GabkNYZu</p>","","","","","","","","",""
"html-keyboard-response","363","2231056","0.0-16.0-0.31","5eb35dff41a381156be161c2","650c16f0f2faf8d7a0d14c09","651c1c10f2caf4c516718ff2","null","null","<p style=""font-size: 60px; font-family: BACS"">GabkNYZu</p>","","","","","","","","",""
"html-keyboard-response","364","2232068","0.0-16.0-0.32","5eb35dff41a381156be161c2","650c16f0f2faf8d7a0d14c09","651c1c10f2caf4c516718ff2","null","null","<p style=""font-size: 60px; font-family: BACS"">GabkNYZu</p>","","","","","","","","",""
"html-keyboard-response","365","2233082","0.0-16.0-0.33","5eb35dff41a381156be161c2","650c16f0f2faf8d7a0d14c09","651c1c10f2caf4c516718ff2","null","null","<p style=""font-size: 60px; font-family: BACS"">GabkNYZu</p>","","","","","","","","",""
"html-keyboard-response","366","2234094","0.0-16.0-0.34","5eb35dff41a381156be161c2","650c16f0f2faf8d7a0d14c09","651c1c10f2caf4c516718ff2","null","null","<p style=""font-size: 60px; font-family: BACS"">GabkNYZu</p>","","","","","","","","",""
"html-keyboard-response","367","2235095","0.0-16.0-0.35","5eb35dff41a381156be161c2","650c16f0f2faf8d7a0d14c09","651c1c10f2caf4c516718ff2","null","null","<p style=""font-size: 60px; font-family: BACS"">GabkNYZu</p>","","","","","","","","",""
"html-keyboard-response","368","2236095","0.0-16.0-0.36","5eb35dff41a381156be161c2","650c16f0f2faf8d7a0d14c09","651c1c10f2caf4c516718ff2","null","null","<p style=""font-size: 60px; font-family: BACS"">GabkNYZu</p>","","","","","","","","",""
"html-keyboard-response","369","2237100","0.0-16.0-0.37","5eb35dff41a381156be161c2","650c16f0f2faf8d7a0d14c09","651c1c10f2caf4c516718ff2","null","null","<p style=""font-size: 60px; font-family: BACS"">GabkNYZu</p>","","","","","","","","",""
"html-keyboard-response","370","2238115","0.0-16.0-0.38","5eb35dff41a381156be161c2","650c16f0f2faf8d7a0d14c09","651c1c10f2caf4c516718ff2","null","null","<p style=""font-size: 60px; font-family: BACS"">GabkNYZu</p>","","","","","","","","",""
"html-keyboard-response","371","2239117","0.0-16.0-0.39","5eb35dff41a381156be161c2","650c16f0f2faf8d7a0d14c09","651c1c10f2caf4c516718ff2","null","null","<p style=""font-size: 60px; font-family: BACS"">GabkNYZu</p>","","","","","","","","",""
"html-keyboard-response","372","2240120","0.0-16.0-0.40","5eb35dff41a381156be161c2","650c16f0f2faf8d7a0d14c09","651c1c10f2caf4c516718ff2","null","null","<p style=""font-size: 60px; font-family: BACS"">GabkNYZu</p>","","","","","","","","",""
"html-keyboard-response","373","2241122","0.0-16.0-0.41","5eb35dff41a381156be161c2","650c16f0f2faf8d7a0d14c09","651c1c10f2caf4c516718ff2","null","null","<p style=""font-size: 60px; font-family: BACS"">GabkNYZu</p>","","","","","","","","",""
"html-keyboard-response","374","2242135","0.0-16.0-0.42","5eb35dff41a381156be161c2","650c16f0f2faf8d7a0d14c09","651c1c10f2caf4c516718ff2","null","null","<p style=""font-size: 60px; font-family: BACS"">GabkNYZu</p>","","","","","","","","",""
"html-keyboard-response","375","2244138","0.0-16.0-0.43","5eb35dff41a381156be161c2","650c16f0f2faf8d7a0d14c09","651c1c10f2caf4c516718ff2","null","null","<p style=""font-size: 60px; font-family: BACS"">GabkNYZu</p>","","","","","","","","",""
"html-keyboard-response","376","2245141","0.0-16.0-0.44","5eb35dff41a381156be161c2","650c16f0f2faf8d7a0d14c09","651c1c10f2caf4c516718ff2","null","null","<p style=""font-size: 60px; font-family: BACS"">GabkNYZu</p>","","","","","","","","",""
"html-keyboard-response","377","2246146","0.0-16.0-0.45","5eb35dff41a381156be161c2","650c16f0f2faf8d7a0d14c09","651c1c10f2caf4c516718ff2","null","null","<p style=""font-size: 60px; font-family: BACS"">GabkNYZu</p>","","","","","","","","",""
"html-keyboard-response","378","2247160","0.0-16.0-0.46","5eb35dff41a381156be161c2","650c16f0f2faf8d7a0d14c09","651c1c10f2caf4c516718ff2","null","null","<p style=""font-size: 60px; font-family: BACS"">GabkNYZu</p>","","","","","","","","",""
"html-keyboard-response","379","2248163","0.0-16.0-0.47","5eb35dff41a381156be161c2","650c16f0f2faf8d7a0d14c09","651c1c10f2caf4c516718ff2","null","null","<p style=""font-size: 60px; font-family: BACS"">GabkNYZu</p>","","","","","","","","",""
"html-keyboard-response","380","2249278","0.0-16.0-0.48","5eb35dff41a381156be161c2","650c16f0f2faf8d7a0d14c09","651c1c10f2caf4c516718ff2","null","null","<p style=""font-size: 60px; font-family: BACS"">GabkNYZu</p>","","","","","","","","",""
"html-keyboard-response","381","2250293","0.0-16.0-0.49","5eb35dff41a381156be161c2","650c16f0f2faf8d7a0d14c09","651c1c10f2caf4c516718ff2","null","null","<p style=""font-size: 60px; font-family: BACS"">GabkNYZu</p>","","","","","","","","",""
"html-keyboard-response","382","2251294","0.0-16.0-0.50","5eb35dff41a381156be161c2","650c16f0f2faf8d7a0d14c09","651c1c10f2caf4c516718ff2","null","null","<p style=""font-size: 60px; font-family: BACS"">GabkNYZu</p>","","","","","","","","",""
"html-keyboard-response","383","2252297","0.0-16.0-0.51","5eb35dff41a381156be161c2","650c16f0f2faf8d7a0d14c09","651c1c10f2caf4c516718ff2","null","null","<p style=""font-size: 60px; font-family: BACS"">GabkNYZu</p>","","","","","","","","",""
"html-keyboard-response","384","2253308","0.0-16.0-0.52","5eb35dff41a381156be161c2","650c16f0f2faf8d7a0d14c09","651c1c10f2caf4c516718ff2","null","null","<p style=""font-size: 60px; font-family: BACS"">GabkNYZu</p>","","","","","","","","",""
"html-keyboard-response","385","2254308","0.0-16.0-0.53","5eb35dff41a381156be161c2","650c16f0f2faf8d7a0d14c09","651c1c10f2caf4c516718ff2","null","null","<p style=""font-size: 60px; font-family: BACS"">GabkNYZu</p>","","","","","","","","",""
"html-keyboard-response","386","2255322","0.0-16.0-0.54","5eb35dff41a381156be161c2","650c16f0f2faf8d7a0d14c09","651c1c10f2caf4c516718ff2","null","null","<p style=""font-size: 60px; font-family: BACS"">GabkNYZu</p>","","","","","","","","",""
"html-keyboard-response","387","2256333","0.0-16.0-0.55","5eb35dff41a381156be161c2","650c16f0f2faf8d7a0d14c09","651c1c10f2caf4c516718ff2","null","null","<p style=""font-size: 60px; font-family: BACS"">GabkNYZu</p>","","","","","","","","",""
"html-keyboard-response","388","2257348","0.0-16.0-0.56","5eb35dff41a381156be161c2","650c16f0f2faf8d7a0d14c09","651c1c10f2caf4c516718ff2","null","null","<p style=""font-size: 60px; font-family: BACS"">GabkNYZu</p>","","","","","","","","",""
"html-keyboard-response","389","2258361","0.0-16.0-0.57","5eb35dff41a381156be161c2","650c16f0f2faf8d7a0d14c09","651c1c10f2caf4c516718ff2","null","null","<p style=""font-size: 60px; font-family: BACS"">GabkNYZu</p>","","","","","","","","",""
"html-keyboard-response","390","2259372","0.0-16.0-0.58","5eb35dff41a381156be161c2","650c16f0f2faf8d7a0d14c09","651c1c10f2caf4c516718ff2","null","null","<p style=""font-size: 60px; font-family: BACS"">GabkNYZu</p>","","","","","","","","",""
"html-keyboard-response","391","2261383","0.0-16.0-0.59","5eb35dff41a381156be161c2","650c16f0f2faf8d7a0d14c09","651c1c10f2caf4c516718ff2","null","null","<p style=""font-size: 60px; font-family: BACS"">GabkNYZu</p>","","","","","","","","",""
"html-keyboard-response","392","2262398","0.0-16.0-0.60","5eb35dff41a381156be161c2","650c16f0f2faf8d7a0d14c09","651c1c10f2caf4c516718ff2","null","null","<p style=""font-size: 60px; font-family: BACS"">GabkNYZu</p>","","","","","","","","",""
"html-keyboard-response","393","2263407","0.0-16.0-0.61","5eb35dff41a381156be161c2","650c16f0f2faf8d7a0d14c09","651c1c10f2caf4c516718ff2","null","null","<p style=""font-size: 60px; font-family: BACS"">GabkNYZu</p>","","","","","","","","",""
"html-keyboard-response","394","2264422","0.0-16.0-0.62","5eb35dff41a381156be161c2","650c16f0f2faf8d7a0d14c09","651c1c10f2caf4c516718ff2","null","null","<p style=""font-size: 60px; font-family: BACS"">GabkNYZu</p>","","","","","","","","",""
"html-keyboard-response","395","2265437","0.0-16.0-0.63","5eb35dff41a381156be161c2","650c16f0f2faf8d7a0d14c09","651c1c10f2caf4c516718ff2","null","null","<p style=""font-size: 60px; font-family: BACS"">GabkNYZu</p>","","","","","","","","",""
"html-keyboard-response","396","2266446","0.0-16.0-0.64","5eb35dff41a381156be161c2","650c16f0f2faf8d7a0d14c09","651c1c10f2caf4c516718ff2","null","null","<p style=""font-size: 60px; font-family: BACS"">GabkNYZu</p>","","","","","","","","",""
